"success","timeout","failed_images","failed_audio","failed_video","trial_type","trial_index","time_elapsed","internal_node_id","subject_id","study_id","session_id","rt","stimulus","response","task","correct_response","exemplar_ID","category","correct","bonus"
"true","false","[]","[]","[]","preload","0","1","0.0-0.0","606eeec7742566e9d46a52c8","6552129e68c08af5079f912e","6552134fe30a2d45170ca6cf","","","","","","","","",""
"","","","","","html-keyboard-response","1","13991","0.0-1.0","606eeec7742566e9d46a52c8","6552129e68c08af5079f912e","6552134fe30a2d45170ca6cf","13990","Welcome to the Category Learning experiment! Press any key to continue.","enter","welcome","","","","",""
"","","","","","html-keyboard-response","2","33495","0.0-2.0","606eeec7742566e9d46a52c8","6552129e68c08af5079f912e","6552134fe30a2d45170ca6cf","19503","
            <p>You will be shown images of patterns of black dots.  Some are category A, some are category B.
            <br>You will not know in advance which category a specific pattern belongs to.</p>
            <p>After you see an image, you will be asked to guess its category <b>(left arrow for category A, right arrow for category B)</b></p>
            <p>After you choose, the screen will show you whether you were correct or not.</p>
            <p><b>You will receive a bonus payment of $0.05 for each correct answer!</b></p>
            <p> So you can increase your bonus by guessing correctly, and by guessing as quickly as possible so you move on to the next image sooner.</p>
            <p>Press any key to continue.</p>
            "," ","introduction_1","","","","",""
"","","","","","html-keyboard-response","3","37711","0.0-3.0","606eeec7742566e9d46a52c8","6552129e68c08af5079f912e","6552134fe30a2d45170ca6cf","4215","
            <p> <b>The first 10 trials are a practice round that will not count towards your bonus payment.</b></p>
            <p> You will be notified when practice finishes and the test begins. </p>
            <p> Press any key to begin the practice round.</p>
            "," ","introduction_2","","","","",""
"","","","","","html-keyboard-response","4","39727","0.0-4.0-0.0","606eeec7742566e9d46a52c8","6552129e68c08af5079f912e","6552134fe30a2d45170ca6cf","2015","
            
        <div style=""text-align: center; position: fixed; top: 5vh; left: 40vw;"">
            <div style=""margin:0 auto; width: 20vw; top: 8vh; font-size: 1vw""> 
            <font color=""green""> Bonus : $0 </font>
            </div>
        </div>
    
            <div> Please press any button to continue to the next trial.</div>
        "," ","ITI","","","","",""
"","","","","","html-keyboard-response","5","40329","0.0-4.0-1.0","606eeec7742566e9d46a52c8","6552129e68c08af5079f912e","6552134fe30a2d45170ca6cf","null","
        
        <div style=""text-align: center; position: fixed; top: 5vh; left: 40vw;"">
            <div style=""margin:0 auto; width: 20vw; top: 8vh; font-size: 1vw""> 
            <font color=""green""> Bonus : $0 </font>
            </div>
        </div>
    
        <img class=""stim"" src=./stimuli//pack_1/cat_2/ex_2_38.png></img>
    ","null","stimulus","","","","",""
"","","","","","html-keyboard-response","6","41338","0.0-4.0-2.0","606eeec7742566e9d46a52c8","6552129e68c08af5079f912e","6552134fe30a2d45170ca6cf","null","
        <div style=""text-align: center; position: fixed; top: 5vh; left: 40vw;"">
            <div style=""margin:0 auto; width: 20vw; top: 8vh; font-size: 1vw""> 
            <font color=""green""> Bonus : $0 </font>
            </div>
        </div>
    ","null","","","","","",""
"","","","","","html-keyboard-response","7","45348","0.0-4.0-3.0","606eeec7742566e9d46a52c8","6552129e68c08af5079f912e","6552134fe30a2d45170ca6cf","null","./stimuli//pack_1/cat_2/ex_2_38.png","null","response","ArrowRight","38","2","false",""
"","","","","","html-keyboard-response","8","46856","0.0-4.0-4.0","606eeec7742566e9d46a52c8","6552129e68c08af5079f912e","6552134fe30a2d45170ca6cf","null","<p> <font color=""red"" size=""5vw""> Time out! </font> <br> Please try to respond as quickly as possible. </p>","null","feedback","","","","","0"
"","","","","","html-keyboard-response","9","48903","0.0-4.0-0.1","606eeec7742566e9d46a52c8","6552129e68c08af5079f912e","6552134fe30a2d45170ca6cf","2047","
            
        <div style=""text-align: center; position: fixed; top: 5vh; left: 40vw;"">
            <div style=""margin:0 auto; width: 20vw; top: 8vh; font-size: 1vw""> 
            <font color=""green""> Bonus : $0 </font>
            </div>
        </div>
    
            <div> Please press any button to continue to the next trial.</div>
        ","a","ITI","","","","",""
"","","","","","html-keyboard-response","10","49515","0.0-4.0-1.1","606eeec7742566e9d46a52c8","6552129e68c08af5079f912e","6552134fe30a2d45170ca6cf","null","
        
        <div style=""text-align: center; position: fixed; top: 5vh; left: 40vw;"">
            <div style=""margin:0 auto; width: 20vw; top: 8vh; font-size: 1vw""> 
            <font color=""green""> Bonus : $0 </font>
            </div>
        </div>
    
        <img class=""stim"" src=./stimuli//pack_1/cat_1/ex_1_84.png></img>
    ","null","stimulus","","","","",""
"","","","","","html-keyboard-response","11","50524","0.0-4.0-2.1","606eeec7742566e9d46a52c8","6552129e68c08af5079f912e","6552134fe30a2d45170ca6cf","null","
        <div style=""text-align: center; position: fixed; top: 5vh; left: 40vw;"">
            <div style=""margin:0 auto; width: 20vw; top: 8vh; font-size: 1vw""> 
            <font color=""green""> Bonus : $0 </font>
            </div>
        </div>
    ","null","","","","","",""
"","","","","","html-keyboard-response","12","51199","0.0-4.0-3.1","606eeec7742566e9d46a52c8","6552129e68c08af5079f912e","6552134fe30a2d45170ca6cf","674","./stimuli//pack_1/cat_1/ex_1_84.png","arrowleft","response","ArrowLeft","84","1","true",""
"","","","","","html-keyboard-response","13","52703","0.0-4.0-4.1","606eeec7742566e9d46a52c8","6552129e68c08af5079f912e","6552134fe30a2d45170ca6cf","null","<p> <font color=""green"" size=""4vw""> Correct category! </font> </p>","null","feedback","","","","","0"
"","","","","","html-keyboard-response","14","54384","0.0-4.0-0.2","606eeec7742566e9d46a52c8","6552129e68c08af5079f912e","6552134fe30a2d45170ca6cf","1680","
            
        <div style=""text-align: center; position: fixed; top: 5vh; left: 40vw;"">
            <div style=""margin:0 auto; width: 20vw; top: 8vh; font-size: 1vw""> 
            <font color=""green""> Bonus : $0 </font>
            </div>
        </div>
    
            <div> Please press any button to continue to the next trial.</div>
        "," ","ITI","","","","",""
"","","","","","html-keyboard-response","15","54994","0.0-4.0-1.2","606eeec7742566e9d46a52c8","6552129e68c08af5079f912e","6552134fe30a2d45170ca6cf","null","
        
        <div style=""text-align: center; position: fixed; top: 5vh; left: 40vw;"">
            <div style=""margin:0 auto; width: 20vw; top: 8vh; font-size: 1vw""> 
            <font color=""green""> Bonus : $0 </font>
            </div>
        </div>
    
        <img class=""stim"" src=./stimuli//pack_1/cat_1/ex_1_90.png></img>
    ","null","stimulus","","","","",""
"","","","","","html-keyboard-response","16","55998","0.0-4.0-2.2","606eeec7742566e9d46a52c8","6552129e68c08af5079f912e","6552134fe30a2d45170ca6cf","null","
        <div style=""text-align: center; position: fixed; top: 5vh; left: 40vw;"">
            <div style=""margin:0 auto; width: 20vw; top: 8vh; font-size: 1vw""> 
            <font color=""green""> Bonus : $0 </font>
            </div>
        </div>
    ","null","","","","","",""
"","","","","","html-keyboard-response","17","56279","0.0-4.0-3.2","606eeec7742566e9d46a52c8","6552129e68c08af5079f912e","6552134fe30a2d45170ca6cf","280","./stimuli//pack_1/cat_1/ex_1_90.png","arrowright","response","ArrowLeft","90","1","false",""
"","","","","","html-keyboard-response","18","57783","0.0-4.0-4.2","606eeec7742566e9d46a52c8","6552129e68c08af5079f912e","6552134fe30a2d45170ca6cf","null","<p> <font color=""red"" size=""4vw""> Wrong category! </font> </p>","null","feedback","","","","","0"
"","","","","","html-keyboard-response","19","58472","0.0-4.0-0.3","606eeec7742566e9d46a52c8","6552129e68c08af5079f912e","6552134fe30a2d45170ca6cf","688","
            
        <div style=""text-align: center; position: fixed; top: 5vh; left: 40vw;"">
            <div style=""margin:0 auto; width: 20vw; top: 8vh; font-size: 1vw""> 
            <font color=""green""> Bonus : $0 </font>
            </div>
        </div>
    
            <div> Please press any button to continue to the next trial.</div>
        "," ","ITI","","","","",""
"","","","","","html-keyboard-response","20","59075","0.0-4.0-1.3","606eeec7742566e9d46a52c8","6552129e68c08af5079f912e","6552134fe30a2d45170ca6cf","null","
        
        <div style=""text-align: center; position: fixed; top: 5vh; left: 40vw;"">
            <div style=""margin:0 auto; width: 20vw; top: 8vh; font-size: 1vw""> 
            <font color=""green""> Bonus : $0 </font>
            </div>
        </div>
    
        <img class=""stim"" src=./stimuli//pack_1/cat_1/ex_1_63.png></img>
    ","null","stimulus","","","","",""
"","","","","","html-keyboard-response","21","60088","0.0-4.0-2.3","606eeec7742566e9d46a52c8","6552129e68c08af5079f912e","6552134fe30a2d45170ca6cf","null","
        <div style=""text-align: center; position: fixed; top: 5vh; left: 40vw;"">
            <div style=""margin:0 auto; width: 20vw; top: 8vh; font-size: 1vw""> 
            <font color=""green""> Bonus : $0 </font>
            </div>
        </div>
    ","null","","","","","",""
"","","","","","html-keyboard-response","22","60351","0.0-4.0-3.3","606eeec7742566e9d46a52c8","6552129e68c08af5079f912e","6552134fe30a2d45170ca6cf","263","./stimuli//pack_1/cat_1/ex_1_63.png","arrowright","response","ArrowLeft","63","1","false",""
"","","","","","html-keyboard-response","23","61856","0.0-4.0-4.3","606eeec7742566e9d46a52c8","6552129e68c08af5079f912e","6552134fe30a2d45170ca6cf","null","<p> <font color=""red"" size=""4vw""> Wrong category! </font> </p>","null","feedback","","","","","0"
"","","","","","html-keyboard-response","24","62407","0.0-4.0-0.4","606eeec7742566e9d46a52c8","6552129e68c08af5079f912e","6552134fe30a2d45170ca6cf","551","
            
        <div style=""text-align: center; position: fixed; top: 5vh; left: 40vw;"">
            <div style=""margin:0 auto; width: 20vw; top: 8vh; font-size: 1vw""> 
            <font color=""green""> Bonus : $0 </font>
            </div>
        </div>
    
            <div> Please press any button to continue to the next trial.</div>
        "," ","ITI","","","","",""
"","","","","","html-keyboard-response","25","63009","0.0-4.0-1.4","606eeec7742566e9d46a52c8","6552129e68c08af5079f912e","6552134fe30a2d45170ca6cf","null","
        
        <div style=""text-align: center; position: fixed; top: 5vh; left: 40vw;"">
            <div style=""margin:0 auto; width: 20vw; top: 8vh; font-size: 1vw""> 
            <font color=""green""> Bonus : $0 </font>
            </div>
        </div>
    
        <img class=""stim"" src=./stimuli//pack_1/cat_2/ex_2_55.png></img>
    ","null","stimulus","","","","",""
"","","","","","html-keyboard-response","26","64017","0.0-4.0-2.4","606eeec7742566e9d46a52c8","6552129e68c08af5079f912e","6552134fe30a2d45170ca6cf","null","
        <div style=""text-align: center; position: fixed; top: 5vh; left: 40vw;"">
            <div style=""margin:0 auto; width: 20vw; top: 8vh; font-size: 1vw""> 
            <font color=""green""> Bonus : $0 </font>
            </div>
        </div>
    ","null","","","","","",""
"","","","","","html-keyboard-response","27","64335","0.0-4.0-3.4","606eeec7742566e9d46a52c8","6552129e68c08af5079f912e","6552134fe30a2d45170ca6cf","317","./stimuli//pack_1/cat_2/ex_2_55.png","arrowright","response","ArrowRight","55","2","true",""
"","","","","","html-keyboard-response","28","65850","0.0-4.0-4.4","606eeec7742566e9d46a52c8","6552129e68c08af5079f912e","6552134fe30a2d45170ca6cf","null","<p> <font color=""green"" size=""4vw""> Correct category! </font> </p>","null","feedback","","","","","0"
"","","","","","html-keyboard-response","29","66495","0.0-4.0-0.5","606eeec7742566e9d46a52c8","6552129e68c08af5079f912e","6552134fe30a2d45170ca6cf","644","
            
        <div style=""text-align: center; position: fixed; top: 5vh; left: 40vw;"">
            <div style=""margin:0 auto; width: 20vw; top: 8vh; font-size: 1vw""> 
            <font color=""green""> Bonus : $0 </font>
            </div>
        </div>
    
            <div> Please press any button to continue to the next trial.</div>
        "," ","ITI","","","","",""
"","","","","","html-keyboard-response","30","67103","0.0-4.0-1.5","606eeec7742566e9d46a52c8","6552129e68c08af5079f912e","6552134fe30a2d45170ca6cf","null","
        
        <div style=""text-align: center; position: fixed; top: 5vh; left: 40vw;"">
            <div style=""margin:0 auto; width: 20vw; top: 8vh; font-size: 1vw""> 
            <font color=""green""> Bonus : $0 </font>
            </div>
        </div>
    
        <img class=""stim"" src=./stimuli//pack_1/cat_1/ex_1_8.png></img>
    ","null","stimulus","","","","",""
"","","","","","html-keyboard-response","31","68111","0.0-4.0-2.5","606eeec7742566e9d46a52c8","6552129e68c08af5079f912e","6552134fe30a2d45170ca6cf","null","
        <div style=""text-align: center; position: fixed; top: 5vh; left: 40vw;"">
            <div style=""margin:0 auto; width: 20vw; top: 8vh; font-size: 1vw""> 
            <font color=""green""> Bonus : $0 </font>
            </div>
        </div>
    ","null","","","","","",""
"","","","","","html-keyboard-response","32","68384","0.0-4.0-3.5","606eeec7742566e9d46a52c8","6552129e68c08af5079f912e","6552134fe30a2d45170ca6cf","272","./stimuli//pack_1/cat_1/ex_1_8.png","arrowleft","response","ArrowLeft","8","1","true",""
"","","","","","html-keyboard-response","33","69899","0.0-4.0-4.5","606eeec7742566e9d46a52c8","6552129e68c08af5079f912e","6552134fe30a2d45170ca6cf","null","<p> <font color=""green"" size=""4vw""> Correct category! </font> </p>","null","feedback","","","","","0"
"","","","","","html-keyboard-response","34","70432","0.0-4.0-0.6","606eeec7742566e9d46a52c8","6552129e68c08af5079f912e","6552134fe30a2d45170ca6cf","532","
            
        <div style=""text-align: center; position: fixed; top: 5vh; left: 40vw;"">
            <div style=""margin:0 auto; width: 20vw; top: 8vh; font-size: 1vw""> 
            <font color=""green""> Bonus : $0 </font>
            </div>
        </div>
    
            <div> Please press any button to continue to the next trial.</div>
        "," ","ITI","","","","",""
"","","","","","html-keyboard-response","35","71034","0.0-4.0-1.6","606eeec7742566e9d46a52c8","6552129e68c08af5079f912e","6552134fe30a2d45170ca6cf","null","
        
        <div style=""text-align: center; position: fixed; top: 5vh; left: 40vw;"">
            <div style=""margin:0 auto; width: 20vw; top: 8vh; font-size: 1vw""> 
            <font color=""green""> Bonus : $0 </font>
            </div>
        </div>
    
        <img class=""stim"" src=./stimuli//pack_1/cat_2/ex_2_75.png></img>
    ","null","stimulus","","","","",""
"","","","","","html-keyboard-response","36","72044","0.0-4.0-2.6","606eeec7742566e9d46a52c8","6552129e68c08af5079f912e","6552134fe30a2d45170ca6cf","null","
        <div style=""text-align: center; position: fixed; top: 5vh; left: 40vw;"">
            <div style=""margin:0 auto; width: 20vw; top: 8vh; font-size: 1vw""> 
            <font color=""green""> Bonus : $0 </font>
            </div>
        </div>
    ","null","","","","","",""
"","","","","","html-keyboard-response","37","72640","0.0-4.0-3.6","606eeec7742566e9d46a52c8","6552129e68c08af5079f912e","6552134fe30a2d45170ca6cf","595","./stimuli//pack_1/cat_2/ex_2_75.png","arrowleft","response","ArrowRight","75","2","false",""
"","","","","","html-keyboard-response","38","74144","0.0-4.0-4.6","606eeec7742566e9d46a52c8","6552129e68c08af5079f912e","6552134fe30a2d45170ca6cf","null","<p> <font color=""red"" size=""4vw""> Wrong category! </font> </p>","null","feedback","","","","","0"
"","","","","","html-keyboard-response","39","75120","0.0-4.0-0.7","606eeec7742566e9d46a52c8","6552129e68c08af5079f912e","6552134fe30a2d45170ca6cf","975","
            
        <div style=""text-align: center; position: fixed; top: 5vh; left: 40vw;"">
            <div style=""margin:0 auto; width: 20vw; top: 8vh; font-size: 1vw""> 
            <font color=""green""> Bonus : $0 </font>
            </div>
        </div>
    
            <div> Please press any button to continue to the next trial.</div>
        "," ","ITI","","","","",""
"","","","","","html-keyboard-response","40","75721","0.0-4.0-1.7","606eeec7742566e9d46a52c8","6552129e68c08af5079f912e","6552134fe30a2d45170ca6cf","null","
        
        <div style=""text-align: center; position: fixed; top: 5vh; left: 40vw;"">
            <div style=""margin:0 auto; width: 20vw; top: 8vh; font-size: 1vw""> 
            <font color=""green""> Bonus : $0 </font>
            </div>
        </div>
    
        <img class=""stim"" src=./stimuli//pack_1/cat_2/ex_2_99.png></img>
    ","null","stimulus","","","","",""
"","","","","","html-keyboard-response","41","76732","0.0-4.0-2.7","606eeec7742566e9d46a52c8","6552129e68c08af5079f912e","6552134fe30a2d45170ca6cf","null","
        <div style=""text-align: center; position: fixed; top: 5vh; left: 40vw;"">
            <div style=""margin:0 auto; width: 20vw; top: 8vh; font-size: 1vw""> 
            <font color=""green""> Bonus : $0 </font>
            </div>
        </div>
    ","null","","","","","",""
"","","","","","html-keyboard-response","42","76983","0.0-4.0-3.7","606eeec7742566e9d46a52c8","6552129e68c08af5079f912e","6552134fe30a2d45170ca6cf","251","./stimuli//pack_1/cat_2/ex_2_99.png","arrowright","response","ArrowRight","99","2","true",""
"","","","","","html-keyboard-response","43","78487","0.0-4.0-4.7","606eeec7742566e9d46a52c8","6552129e68c08af5079f912e","6552134fe30a2d45170ca6cf","null","<p> <font color=""green"" size=""4vw""> Correct category! </font> </p>","null","feedback","","","","","0"
"","","","","","html-keyboard-response","44","79063","0.0-4.0-0.8","606eeec7742566e9d46a52c8","6552129e68c08af5079f912e","6552134fe30a2d45170ca6cf","576","
            
        <div style=""text-align: center; position: fixed; top: 5vh; left: 40vw;"">
            <div style=""margin:0 auto; width: 20vw; top: 8vh; font-size: 1vw""> 
            <font color=""green""> Bonus : $0 </font>
            </div>
        </div>
    
            <div> Please press any button to continue to the next trial.</div>
        "," ","ITI","","","","",""
"","","","","","html-keyboard-response","45","79672","0.0-4.0-1.8","606eeec7742566e9d46a52c8","6552129e68c08af5079f912e","6552134fe30a2d45170ca6cf","null","
        
        <div style=""text-align: center; position: fixed; top: 5vh; left: 40vw;"">
            <div style=""margin:0 auto; width: 20vw; top: 8vh; font-size: 1vw""> 
            <font color=""green""> Bonus : $0 </font>
            </div>
        </div>
    
        <img class=""stim"" src=./stimuli//pack_1/cat_2/ex_2_12.png></img>
    ","null","stimulus","","","","",""
"","","","","","html-keyboard-response","46","80681","0.0-4.0-2.8","606eeec7742566e9d46a52c8","6552129e68c08af5079f912e","6552134fe30a2d45170ca6cf","null","
        <div style=""text-align: center; position: fixed; top: 5vh; left: 40vw;"">
            <div style=""margin:0 auto; width: 20vw; top: 8vh; font-size: 1vw""> 
            <font color=""green""> Bonus : $0 </font>
            </div>
        </div>
    ","null","","","","","",""
"","","","","","html-keyboard-response","47","80927","0.0-4.0-3.8","606eeec7742566e9d46a52c8","6552129e68c08af5079f912e","6552134fe30a2d45170ca6cf","245","./stimuli//pack_1/cat_2/ex_2_12.png","arrowright","response","ArrowRight","12","2","true",""
"","","","","","html-keyboard-response","48","82432","0.0-4.0-4.8","606eeec7742566e9d46a52c8","6552129e68c08af5079f912e","6552134fe30a2d45170ca6cf","null","<p> <font color=""green"" size=""4vw""> Correct category! </font> </p>","null","feedback","","","","","0"
"","","","","","html-keyboard-response","49","82863","0.0-4.0-0.9","606eeec7742566e9d46a52c8","6552129e68c08af5079f912e","6552134fe30a2d45170ca6cf","431","
            
        <div style=""text-align: center; position: fixed; top: 5vh; left: 40vw;"">
            <div style=""margin:0 auto; width: 20vw; top: 8vh; font-size: 1vw""> 
            <font color=""green""> Bonus : $0 </font>
            </div>
        </div>
    
            <div> Please press any button to continue to the next trial.</div>
        "," ","ITI","","","","",""
"","","","","","html-keyboard-response","50","83479","0.0-4.0-1.9","606eeec7742566e9d46a52c8","6552129e68c08af5079f912e","6552134fe30a2d45170ca6cf","null","
        
        <div style=""text-align: center; position: fixed; top: 5vh; left: 40vw;"">
            <div style=""margin:0 auto; width: 20vw; top: 8vh; font-size: 1vw""> 
            <font color=""green""> Bonus : $0 </font>
            </div>
        </div>
    
        <img class=""stim"" src=./stimuli//pack_1/cat_1/ex_1_77.png></img>
    ","null","stimulus","","","","",""
"","","","","","html-keyboard-response","51","84491","0.0-4.0-2.9","606eeec7742566e9d46a52c8","6552129e68c08af5079f912e","6552134fe30a2d45170ca6cf","null","
        <div style=""text-align: center; position: fixed; top: 5vh; left: 40vw;"">
            <div style=""margin:0 auto; width: 20vw; top: 8vh; font-size: 1vw""> 
            <font color=""green""> Bonus : $0 </font>
            </div>
        </div>
    ","null","","","","","",""
"","","","","","html-keyboard-response","52","84759","0.0-4.0-3.9","606eeec7742566e9d46a52c8","6552129e68c08af5079f912e","6552134fe30a2d45170ca6cf","268","./stimuli//pack_1/cat_1/ex_1_77.png","arrowleft","response","ArrowLeft","77","1","true",""
"","","","","","html-keyboard-response","53","86272","0.0-4.0-4.9","606eeec7742566e9d46a52c8","6552129e68c08af5079f912e","6552134fe30a2d45170ca6cf","null","<p> <font color=""green"" size=""4vw""> Correct category! </font> </p>","null","feedback","","","","","0"
"","","","","","html-keyboard-response","54","88784","0.0-5.0","606eeec7742566e9d46a52c8","6552129e68c08af5079f912e","6552134fe30a2d45170ca6cf","2511","
            <b> <p> The practice round has finished.</p>
            <b> For the rest of the experiment you will receive a $0.05 bonus for each correct answer!</b>
            <p> Press any key to begin the test. </p>
            "," ","intermission","","","","",""
"","","","","","html-keyboard-response","55","89711","0.0-6.0-0.0","606eeec7742566e9d46a52c8","6552129e68c08af5079f912e","6552134fe30a2d45170ca6cf","928","
            
        <div style=""text-align: center; position: fixed; top: 5vh; left: 40vw;"">
            <div style=""margin:0 auto; width: 20vw; top: 8vh; font-size: 1vw""> 
            <font color=""green""> Bonus : $0 </font>
            </div>
        </div>
    
            <div> Please press any button to continue to the next trial.</div>
        "," ","ITI","","","","",""
"","","","","","html-keyboard-response","56","90317","0.0-6.0-1.0","606eeec7742566e9d46a52c8","6552129e68c08af5079f912e","6552134fe30a2d45170ca6cf","null","
        
        <div style=""text-align: center; position: fixed; top: 5vh; left: 40vw;"">
            <div style=""margin:0 auto; width: 20vw; top: 8vh; font-size: 1vw""> 
            <font color=""green""> Bonus : $0 </font>
            </div>
        </div>
    
        <img class=""stim"" src=./stimuli//pack_1/cat_2/ex_2_84.png></img>
    ","null","stimulus","","","","",""
"","","","","","html-keyboard-response","57","91327","0.0-6.0-2.0","606eeec7742566e9d46a52c8","6552129e68c08af5079f912e","6552134fe30a2d45170ca6cf","null","
        <div style=""text-align: center; position: fixed; top: 5vh; left: 40vw;"">
            <div style=""margin:0 auto; width: 20vw; top: 8vh; font-size: 1vw""> 
            <font color=""green""> Bonus : $0 </font>
            </div>
        </div>
    ","null","","","","","",""
"","","","","","html-keyboard-response","58","91624","0.0-6.0-3.0","606eeec7742566e9d46a52c8","6552129e68c08af5079f912e","6552134fe30a2d45170ca6cf","296","./stimuli//pack_1/cat_2/ex_2_84.png","arrowright","response","ArrowRight","84","2","true",""
"","","","","","html-keyboard-response","59","93125","0.0-6.0-4.0","606eeec7742566e9d46a52c8","6552129e68c08af5079f912e","6552134fe30a2d45170ca6cf","null","<p> <font color=""green"" size=""4vw""> Correct category! </font> <br> <br> <font color=""green"" size=""7vw""> + $0.05 </font> </p>","null","feedback","","","","","0.05"
"","","","","","html-keyboard-response","60","94072","0.0-6.0-0.1","606eeec7742566e9d46a52c8","6552129e68c08af5079f912e","6552134fe30a2d45170ca6cf","946","
            
        <div style=""text-align: center; position: fixed; top: 5vh; left: 40vw;"">
            <div style=""margin:0 auto; width: 20vw; top: 8vh; font-size: 1vw""> 
            <font color=""green""> Bonus : $0.05 </font>
            </div>
        </div>
    
            <div> Please press any button to continue to the next trial.</div>
        "," ","ITI","","","","",""
"","","","","","html-keyboard-response","61","94685","0.0-6.0-1.1","606eeec7742566e9d46a52c8","6552129e68c08af5079f912e","6552134fe30a2d45170ca6cf","null","
        
        <div style=""text-align: center; position: fixed; top: 5vh; left: 40vw;"">
            <div style=""margin:0 auto; width: 20vw; top: 8vh; font-size: 1vw""> 
            <font color=""green""> Bonus : $0.05 </font>
            </div>
        </div>
    
        <img class=""stim"" src=./stimuli//pack_1/cat_2/ex_2_13.png></img>
    ","null","stimulus","","","","",""
"","","","","","html-keyboard-response","62","95701","0.0-6.0-2.1","606eeec7742566e9d46a52c8","6552129e68c08af5079f912e","6552134fe30a2d45170ca6cf","null","
        <div style=""text-align: center; position: fixed; top: 5vh; left: 40vw;"">
            <div style=""margin:0 auto; width: 20vw; top: 8vh; font-size: 1vw""> 
            <font color=""green""> Bonus : $0.05 </font>
            </div>
        </div>
    ","null","","","","","",""
"","","","","","html-keyboard-response","63","95953","0.0-6.0-3.1","606eeec7742566e9d46a52c8","6552129e68c08af5079f912e","6552134fe30a2d45170ca6cf","251","./stimuli//pack_1/cat_2/ex_2_13.png","arrowright","response","ArrowRight","13","2","true",""
"","","","","","html-keyboard-response","64","97455","0.0-6.0-4.1","606eeec7742566e9d46a52c8","6552129e68c08af5079f912e","6552134fe30a2d45170ca6cf","null","<p> <font color=""green"" size=""4vw""> Correct category! </font> <br> <br> <font color=""green"" size=""7vw""> + $0.05 </font> </p>","null","feedback","","","","","0.1"
"","","","","","html-keyboard-response","65","97880","0.0-6.0-0.2","606eeec7742566e9d46a52c8","6552129e68c08af5079f912e","6552134fe30a2d45170ca6cf","424","
            
        <div style=""text-align: center; position: fixed; top: 5vh; left: 40vw;"">
            <div style=""margin:0 auto; width: 20vw; top: 8vh; font-size: 1vw""> 
            <font color=""green""> Bonus : $0.1 </font>
            </div>
        </div>
    
            <div> Please press any button to continue to the next trial.</div>
        "," ","ITI","","","","",""
"","","","","","html-keyboard-response","66","98480","0.0-6.0-1.2","606eeec7742566e9d46a52c8","6552129e68c08af5079f912e","6552134fe30a2d45170ca6cf","null","
        
        <div style=""text-align: center; position: fixed; top: 5vh; left: 40vw;"">
            <div style=""margin:0 auto; width: 20vw; top: 8vh; font-size: 1vw""> 
            <font color=""green""> Bonus : $0.1 </font>
            </div>
        </div>
    
        <img class=""stim"" src=./stimuli//pack_1/cat_1/ex_1_61.png></img>
    ","null","stimulus","","","","",""
"","","","","","html-keyboard-response","67","99496","0.0-6.0-2.2","606eeec7742566e9d46a52c8","6552129e68c08af5079f912e","6552134fe30a2d45170ca6cf","null","
        <div style=""text-align: center; position: fixed; top: 5vh; left: 40vw;"">
            <div style=""margin:0 auto; width: 20vw; top: 8vh; font-size: 1vw""> 
            <font color=""green""> Bonus : $0.1 </font>
            </div>
        </div>
    ","null","","","","","",""
"","","","","","html-keyboard-response","68","99752","0.0-6.0-3.2","606eeec7742566e9d46a52c8","6552129e68c08af5079f912e","6552134fe30a2d45170ca6cf","254","./stimuli//pack_1/cat_1/ex_1_61.png","arrowleft","response","ArrowLeft","61","1","true",""
"","","","","","html-keyboard-response","69","101255","0.0-6.0-4.2","606eeec7742566e9d46a52c8","6552129e68c08af5079f912e","6552134fe30a2d45170ca6cf","null","<p> <font color=""green"" size=""4vw""> Correct category! </font> <br> <br> <font color=""green"" size=""7vw""> + $0.05 </font> </p>","null","feedback","","","","","0.15"
"","","","","","html-keyboard-response","70","101688","0.0-6.0-0.3","606eeec7742566e9d46a52c8","6552129e68c08af5079f912e","6552134fe30a2d45170ca6cf","432","
            
        <div style=""text-align: center; position: fixed; top: 5vh; left: 40vw;"">
            <div style=""margin:0 auto; width: 20vw; top: 8vh; font-size: 1vw""> 
            <font color=""green""> Bonus : $0.15 </font>
            </div>
        </div>
    
            <div> Please press any button to continue to the next trial.</div>
        "," ","ITI","","","","",""
"","","","","","html-keyboard-response","71","102301","0.0-6.0-1.3","606eeec7742566e9d46a52c8","6552129e68c08af5079f912e","6552134fe30a2d45170ca6cf","null","
        
        <div style=""text-align: center; position: fixed; top: 5vh; left: 40vw;"">
            <div style=""margin:0 auto; width: 20vw; top: 8vh; font-size: 1vw""> 
            <font color=""green""> Bonus : $0.15 </font>
            </div>
        </div>
    
        <img class=""stim"" src=./stimuli//pack_1/cat_1/ex_1_82.png></img>
    ","null","stimulus","","","","",""
"","","","","","html-keyboard-response","72","103316","0.0-6.0-2.3","606eeec7742566e9d46a52c8","6552129e68c08af5079f912e","6552134fe30a2d45170ca6cf","null","
        <div style=""text-align: center; position: fixed; top: 5vh; left: 40vw;"">
            <div style=""margin:0 auto; width: 20vw; top: 8vh; font-size: 1vw""> 
            <font color=""green""> Bonus : $0.15 </font>
            </div>
        </div>
    ","null","","","","","",""
"","","","","","html-keyboard-response","73","103584","0.0-6.0-3.3","606eeec7742566e9d46a52c8","6552129e68c08af5079f912e","6552134fe30a2d45170ca6cf","266","./stimuli//pack_1/cat_1/ex_1_82.png","arrowleft","response","ArrowLeft","82","1","true",""
"","","","","","html-keyboard-response","74","105089","0.0-6.0-4.3","606eeec7742566e9d46a52c8","6552129e68c08af5079f912e","6552134fe30a2d45170ca6cf","null","<p> <font color=""green"" size=""4vw""> Correct category! </font> <br> <br> <font color=""green"" size=""7vw""> + $0.05 </font> </p>","null","feedback","","","","","0.2"
"","","","","","html-keyboard-response","75","105464","0.0-6.0-0.4","606eeec7742566e9d46a52c8","6552129e68c08af5079f912e","6552134fe30a2d45170ca6cf","374","
            
        <div style=""text-align: center; position: fixed; top: 5vh; left: 40vw;"">
            <div style=""margin:0 auto; width: 20vw; top: 8vh; font-size: 1vw""> 
            <font color=""green""> Bonus : $0.2 </font>
            </div>
        </div>
    
            <div> Please press any button to continue to the next trial.</div>
        "," ","ITI","","","","",""
"","","","","","html-keyboard-response","76","106068","0.0-6.0-1.4","606eeec7742566e9d46a52c8","6552129e68c08af5079f912e","6552134fe30a2d45170ca6cf","null","
        
        <div style=""text-align: center; position: fixed; top: 5vh; left: 40vw;"">
            <div style=""margin:0 auto; width: 20vw; top: 8vh; font-size: 1vw""> 
            <font color=""green""> Bonus : $0.2 </font>
            </div>
        </div>
    
        <img class=""stim"" src=./stimuli//pack_1/cat_2/ex_2_81.png></img>
    ","null","stimulus","","","","",""
"","","","","","html-keyboard-response","77","107081","0.0-6.0-2.4","606eeec7742566e9d46a52c8","6552129e68c08af5079f912e","6552134fe30a2d45170ca6cf","null","
        <div style=""text-align: center; position: fixed; top: 5vh; left: 40vw;"">
            <div style=""margin:0 auto; width: 20vw; top: 8vh; font-size: 1vw""> 
            <font color=""green""> Bonus : $0.2 </font>
            </div>
        </div>
    ","null","","","","","",""
"","","","","","html-keyboard-response","78","107320","0.0-6.0-3.4","606eeec7742566e9d46a52c8","6552129e68c08af5079f912e","6552134fe30a2d45170ca6cf","239","./stimuli//pack_1/cat_2/ex_2_81.png","arrowright","response","ArrowRight","81","2","true",""
"","","","","","html-keyboard-response","79","108826","0.0-6.0-4.4","606eeec7742566e9d46a52c8","6552129e68c08af5079f912e","6552134fe30a2d45170ca6cf","null","<p> <font color=""green"" size=""4vw""> Correct category! </font> <br> <br> <font color=""green"" size=""7vw""> + $0.05 </font> </p>","null","feedback","","","","","0.25"
"","","","","","html-keyboard-response","80","109320","0.0-6.0-0.5","606eeec7742566e9d46a52c8","6552129e68c08af5079f912e","6552134fe30a2d45170ca6cf","493","
            
        <div style=""text-align: center; position: fixed; top: 5vh; left: 40vw;"">
            <div style=""margin:0 auto; width: 20vw; top: 8vh; font-size: 1vw""> 
            <font color=""green""> Bonus : $0.25 </font>
            </div>
        </div>
    
            <div> Please press any button to continue to the next trial.</div>
        "," ","ITI","","","","",""
"","","","","","html-keyboard-response","81","109929","0.0-6.0-1.5","606eeec7742566e9d46a52c8","6552129e68c08af5079f912e","6552134fe30a2d45170ca6cf","null","
        
        <div style=""text-align: center; position: fixed; top: 5vh; left: 40vw;"">
            <div style=""margin:0 auto; width: 20vw; top: 8vh; font-size: 1vw""> 
            <font color=""green""> Bonus : $0.25 </font>
            </div>
        </div>
    
        <img class=""stim"" src=./stimuli//pack_1/cat_1/ex_1_65.png></img>
    ","null","stimulus","","","","",""
"","","","","","html-keyboard-response","82","110939","0.0-6.0-2.5","606eeec7742566e9d46a52c8","6552129e68c08af5079f912e","6552134fe30a2d45170ca6cf","null","
        <div style=""text-align: center; position: fixed; top: 5vh; left: 40vw;"">
            <div style=""margin:0 auto; width: 20vw; top: 8vh; font-size: 1vw""> 
            <font color=""green""> Bonus : $0.25 </font>
            </div>
        </div>
    ","null","","","","","",""
"","","","","","html-keyboard-response","83","111272","0.0-6.0-3.5","606eeec7742566e9d46a52c8","6552129e68c08af5079f912e","6552134fe30a2d45170ca6cf","332","./stimuli//pack_1/cat_1/ex_1_65.png","arrowleft","response","ArrowLeft","65","1","true",""
"","","","","","html-keyboard-response","84","112785","0.0-6.0-4.5","606eeec7742566e9d46a52c8","6552129e68c08af5079f912e","6552134fe30a2d45170ca6cf","null","<p> <font color=""green"" size=""4vw""> Correct category! </font> <br> <br> <font color=""green"" size=""7vw""> + $0.05 </font> </p>","null","feedback","","","","","0.3"
"","","","","","html-keyboard-response","85","113200","0.0-6.0-0.6","606eeec7742566e9d46a52c8","6552129e68c08af5079f912e","6552134fe30a2d45170ca6cf","414","
            
        <div style=""text-align: center; position: fixed; top: 5vh; left: 40vw;"">
            <div style=""margin:0 auto; width: 20vw; top: 8vh; font-size: 1vw""> 
            <font color=""green""> Bonus : $0.3 </font>
            </div>
        </div>
    
            <div> Please press any button to continue to the next trial.</div>
        "," ","ITI","","","","",""
"","","","","","html-keyboard-response","86","113816","0.0-6.0-1.6","606eeec7742566e9d46a52c8","6552129e68c08af5079f912e","6552134fe30a2d45170ca6cf","null","
        
        <div style=""text-align: center; position: fixed; top: 5vh; left: 40vw;"">
            <div style=""margin:0 auto; width: 20vw; top: 8vh; font-size: 1vw""> 
            <font color=""green""> Bonus : $0.3 </font>
            </div>
        </div>
    
        <img class=""stim"" src=./stimuli//pack_1/cat_2/ex_2_61.png></img>
    ","null","stimulus","","","","",""
"","","","","","html-keyboard-response","87","114830","0.0-6.0-2.6","606eeec7742566e9d46a52c8","6552129e68c08af5079f912e","6552134fe30a2d45170ca6cf","null","
        <div style=""text-align: center; position: fixed; top: 5vh; left: 40vw;"">
            <div style=""margin:0 auto; width: 20vw; top: 8vh; font-size: 1vw""> 
            <font color=""green""> Bonus : $0.3 </font>
            </div>
        </div>
    ","null","","","","","",""
"","","","","","html-keyboard-response","88","115096","0.0-6.0-3.6","606eeec7742566e9d46a52c8","6552129e68c08af5079f912e","6552134fe30a2d45170ca6cf","265","./stimuli//pack_1/cat_2/ex_2_61.png","arrowright","response","ArrowRight","61","2","true",""
"","","","","","html-keyboard-response","89","116604","0.0-6.0-4.6","606eeec7742566e9d46a52c8","6552129e68c08af5079f912e","6552134fe30a2d45170ca6cf","null","<p> <font color=""green"" size=""4vw""> Correct category! </font> <br> <br> <font color=""green"" size=""7vw""> + $0.05 </font> </p>","null","feedback","","","","","0.35"
"","","","","","html-keyboard-response","90","117048","0.0-6.0-0.7","606eeec7742566e9d46a52c8","6552129e68c08af5079f912e","6552134fe30a2d45170ca6cf","443","
            
        <div style=""text-align: center; position: fixed; top: 5vh; left: 40vw;"">
            <div style=""margin:0 auto; width: 20vw; top: 8vh; font-size: 1vw""> 
            <font color=""green""> Bonus : $0.35 </font>
            </div>
        </div>
    
            <div> Please press any button to continue to the next trial.</div>
        "," ","ITI","","","","",""
"","","","","","html-keyboard-response","91","117662","0.0-6.0-1.7","606eeec7742566e9d46a52c8","6552129e68c08af5079f912e","6552134fe30a2d45170ca6cf","null","
        
        <div style=""text-align: center; position: fixed; top: 5vh; left: 40vw;"">
            <div style=""margin:0 auto; width: 20vw; top: 8vh; font-size: 1vw""> 
            <font color=""green""> Bonus : $0.35 </font>
            </div>
        </div>
    
        <img class=""stim"" src=./stimuli//pack_1/cat_2/ex_2_63.png></img>
    ","null","stimulus","","","","",""
"","","","","","html-keyboard-response","92","118670","0.0-6.0-2.7","606eeec7742566e9d46a52c8","6552129e68c08af5079f912e","6552134fe30a2d45170ca6cf","null","
        <div style=""text-align: center; position: fixed; top: 5vh; left: 40vw;"">
            <div style=""margin:0 auto; width: 20vw; top: 8vh; font-size: 1vw""> 
            <font color=""green""> Bonus : $0.35 </font>
            </div>
        </div>
    ","null","","","","","",""
"","","","","","html-keyboard-response","93","118954","0.0-6.0-3.7","606eeec7742566e9d46a52c8","6552129e68c08af5079f912e","6552134fe30a2d45170ca6cf","283","./stimuli//pack_1/cat_2/ex_2_63.png","arrowright","response","ArrowRight","63","2","true",""
"","","","","","html-keyboard-response","94","120463","0.0-6.0-4.7","606eeec7742566e9d46a52c8","6552129e68c08af5079f912e","6552134fe30a2d45170ca6cf","null","<p> <font color=""green"" size=""4vw""> Correct category! </font> <br> <br> <font color=""green"" size=""7vw""> + $0.05 </font> </p>","null","feedback","","","","","0.4"
"","","","","","html-keyboard-response","95","120864","0.0-6.0-0.8","606eeec7742566e9d46a52c8","6552129e68c08af5079f912e","6552134fe30a2d45170ca6cf","400","
            
        <div style=""text-align: center; position: fixed; top: 5vh; left: 40vw;"">
            <div style=""margin:0 auto; width: 20vw; top: 8vh; font-size: 1vw""> 
            <font color=""green""> Bonus : $0.4 </font>
            </div>
        </div>
    
            <div> Please press any button to continue to the next trial.</div>
        "," ","ITI","","","","",""
"","","","","","html-keyboard-response","96","121472","0.0-6.0-1.8","606eeec7742566e9d46a52c8","6552129e68c08af5079f912e","6552134fe30a2d45170ca6cf","null","
        
        <div style=""text-align: center; position: fixed; top: 5vh; left: 40vw;"">
            <div style=""margin:0 auto; width: 20vw; top: 8vh; font-size: 1vw""> 
            <font color=""green""> Bonus : $0.4 </font>
            </div>
        </div>
    
        <img class=""stim"" src=./stimuli//pack_1/cat_2/ex_2_20.png></img>
    ","null","stimulus","","","","",""
"","","","","","html-keyboard-response","97","122481","0.0-6.0-2.8","606eeec7742566e9d46a52c8","6552129e68c08af5079f912e","6552134fe30a2d45170ca6cf","null","
        <div style=""text-align: center; position: fixed; top: 5vh; left: 40vw;"">
            <div style=""margin:0 auto; width: 20vw; top: 8vh; font-size: 1vw""> 
            <font color=""green""> Bonus : $0.4 </font>
            </div>
        </div>
    ","null","","","","","",""
"","","","","","html-keyboard-response","98","122728","0.0-6.0-3.8","606eeec7742566e9d46a52c8","6552129e68c08af5079f912e","6552134fe30a2d45170ca6cf","246","./stimuli//pack_1/cat_2/ex_2_20.png","arrowright","response","ArrowRight","20","2","true",""
"","","","","","html-keyboard-response","99","124239","0.0-6.0-4.8","606eeec7742566e9d46a52c8","6552129e68c08af5079f912e","6552134fe30a2d45170ca6cf","null","<p> <font color=""green"" size=""4vw""> Correct category! </font> <br> <br> <font color=""green"" size=""7vw""> + $0.05 </font> </p>","null","feedback","","","","","0.45"
"","","","","","html-keyboard-response","100","124736","0.0-6.0-0.9","606eeec7742566e9d46a52c8","6552129e68c08af5079f912e","6552134fe30a2d45170ca6cf","497","
            
        <div style=""text-align: center; position: fixed; top: 5vh; left: 40vw;"">
            <div style=""margin:0 auto; width: 20vw; top: 8vh; font-size: 1vw""> 
            <font color=""green""> Bonus : $0.45 </font>
            </div>
        </div>
    
            <div> Please press any button to continue to the next trial.</div>
        "," ","ITI","","","","",""
"","","","","","html-keyboard-response","101","125346","0.0-6.0-1.9","606eeec7742566e9d46a52c8","6552129e68c08af5079f912e","6552134fe30a2d45170ca6cf","null","
        
        <div style=""text-align: center; position: fixed; top: 5vh; left: 40vw;"">
            <div style=""margin:0 auto; width: 20vw; top: 8vh; font-size: 1vw""> 
            <font color=""green""> Bonus : $0.45 </font>
            </div>
        </div>
    
        <img class=""stim"" src=./stimuli//pack_1/cat_1/ex_1_16.png></img>
    ","null","stimulus","","","","",""
"","","","","","html-keyboard-response","102","126355","0.0-6.0-2.9","606eeec7742566e9d46a52c8","6552129e68c08af5079f912e","6552134fe30a2d45170ca6cf","null","
        <div style=""text-align: center; position: fixed; top: 5vh; left: 40vw;"">
            <div style=""margin:0 auto; width: 20vw; top: 8vh; font-size: 1vw""> 
            <font color=""green""> Bonus : $0.45 </font>
            </div>
        </div>
    ","null","","","","","",""
"","","","","","html-keyboard-response","103","126640","0.0-6.0-3.9","606eeec7742566e9d46a52c8","6552129e68c08af5079f912e","6552134fe30a2d45170ca6cf","284","./stimuli//pack_1/cat_1/ex_1_16.png","arrowleft","response","ArrowLeft","16","1","true",""
"","","","","","html-keyboard-response","104","128143","0.0-6.0-4.9","606eeec7742566e9d46a52c8","6552129e68c08af5079f912e","6552134fe30a2d45170ca6cf","null","<p> <font color=""green"" size=""4vw""> Correct category! </font> <br> <br> <font color=""green"" size=""7vw""> + $0.05 </font> </p>","null","feedback","","","","","0.5"
"","","","","","html-keyboard-response","105","128584","0.0-6.0-0.10","606eeec7742566e9d46a52c8","6552129e68c08af5079f912e","6552134fe30a2d45170ca6cf","440","
            
        <div style=""text-align: center; position: fixed; top: 5vh; left: 40vw;"">
            <div style=""margin:0 auto; width: 20vw; top: 8vh; font-size: 1vw""> 
            <font color=""green""> Bonus : $0.5 </font>
            </div>
        </div>
    
            <div> Please press any button to continue to the next trial.</div>
        "," ","ITI","","","","",""
"","","","","","html-keyboard-response","106","129199","0.0-6.0-1.10","606eeec7742566e9d46a52c8","6552129e68c08af5079f912e","6552134fe30a2d45170ca6cf","null","
        
        <div style=""text-align: center; position: fixed; top: 5vh; left: 40vw;"">
            <div style=""margin:0 auto; width: 20vw; top: 8vh; font-size: 1vw""> 
            <font color=""green""> Bonus : $0.5 </font>
            </div>
        </div>
    
        <img class=""stim"" src=./stimuli//pack_1/cat_2/ex_2_65.png></img>
    ","null","stimulus","","","","",""
"","","","","","html-keyboard-response","107","130210","0.0-6.0-2.10","606eeec7742566e9d46a52c8","6552129e68c08af5079f912e","6552134fe30a2d45170ca6cf","null","
        <div style=""text-align: center; position: fixed; top: 5vh; left: 40vw;"">
            <div style=""margin:0 auto; width: 20vw; top: 8vh; font-size: 1vw""> 
            <font color=""green""> Bonus : $0.5 </font>
            </div>
        </div>
    ","null","","","","","",""
"","","","","","html-keyboard-response","108","130480","0.0-6.0-3.10","606eeec7742566e9d46a52c8","6552129e68c08af5079f912e","6552134fe30a2d45170ca6cf","269","./stimuli//pack_1/cat_2/ex_2_65.png","arrowright","response","ArrowRight","65","2","true",""
"","","","","","html-keyboard-response","109","131985","0.0-6.0-4.10","606eeec7742566e9d46a52c8","6552129e68c08af5079f912e","6552134fe30a2d45170ca6cf","null","<p> <font color=""green"" size=""4vw""> Correct category! </font> <br> <br> <font color=""green"" size=""7vw""> + $0.05 </font> </p>","null","feedback","","","","","0.55"
"","","","","","html-keyboard-response","110","132400","0.0-6.0-0.11","606eeec7742566e9d46a52c8","6552129e68c08af5079f912e","6552134fe30a2d45170ca6cf","415","
            
        <div style=""text-align: center; position: fixed; top: 5vh; left: 40vw;"">
            <div style=""margin:0 auto; width: 20vw; top: 8vh; font-size: 1vw""> 
            <font color=""green""> Bonus : $0.55 </font>
            </div>
        </div>
    
            <div> Please press any button to continue to the next trial.</div>
        "," ","ITI","","","","",""
"","","","","","html-keyboard-response","111","133013","0.0-6.0-1.11","606eeec7742566e9d46a52c8","6552129e68c08af5079f912e","6552134fe30a2d45170ca6cf","null","
        
        <div style=""text-align: center; position: fixed; top: 5vh; left: 40vw;"">
            <div style=""margin:0 auto; width: 20vw; top: 8vh; font-size: 1vw""> 
            <font color=""green""> Bonus : $0.55 </font>
            </div>
        </div>
    
        <img class=""stim"" src=./stimuli//pack_1/cat_1/ex_1_59.png></img>
    ","null","stimulus","","","","",""
"","","","","","html-keyboard-response","112","134017","0.0-6.0-2.11","606eeec7742566e9d46a52c8","6552129e68c08af5079f912e","6552134fe30a2d45170ca6cf","null","
        <div style=""text-align: center; position: fixed; top: 5vh; left: 40vw;"">
            <div style=""margin:0 auto; width: 20vw; top: 8vh; font-size: 1vw""> 
            <font color=""green""> Bonus : $0.55 </font>
            </div>
        </div>
    ","null","","","","","",""
"","","","","","html-keyboard-response","113","134320","0.0-6.0-3.11","606eeec7742566e9d46a52c8","6552129e68c08af5079f912e","6552134fe30a2d45170ca6cf","302","./stimuli//pack_1/cat_1/ex_1_59.png","arrowleft","response","ArrowLeft","59","1","true",""
"","","","","","html-keyboard-response","114","135824","0.0-6.0-4.11","606eeec7742566e9d46a52c8","6552129e68c08af5079f912e","6552134fe30a2d45170ca6cf","null","<p> <font color=""green"" size=""4vw""> Correct category! </font> <br> <br> <font color=""green"" size=""7vw""> + $0.05 </font> </p>","null","feedback","","","","","0.6"
"","","","","","html-keyboard-response","115","136256","0.0-6.0-0.12","606eeec7742566e9d46a52c8","6552129e68c08af5079f912e","6552134fe30a2d45170ca6cf","431","
            
        <div style=""text-align: center; position: fixed; top: 5vh; left: 40vw;"">
            <div style=""margin:0 auto; width: 20vw; top: 8vh; font-size: 1vw""> 
            <font color=""green""> Bonus : $0.6 </font>
            </div>
        </div>
    
            <div> Please press any button to continue to the next trial.</div>
        "," ","ITI","","","","",""
"","","","","","html-keyboard-response","116","136865","0.0-6.0-1.12","606eeec7742566e9d46a52c8","6552129e68c08af5079f912e","6552134fe30a2d45170ca6cf","null","
        
        <div style=""text-align: center; position: fixed; top: 5vh; left: 40vw;"">
            <div style=""margin:0 auto; width: 20vw; top: 8vh; font-size: 1vw""> 
            <font color=""green""> Bonus : $0.6 </font>
            </div>
        </div>
    
        <img class=""stim"" src=./stimuli//pack_1/cat_1/ex_1_3.png></img>
    ","null","stimulus","","","","",""
"","","","","","html-keyboard-response","117","137878","0.0-6.0-2.12","606eeec7742566e9d46a52c8","6552129e68c08af5079f912e","6552134fe30a2d45170ca6cf","null","
        <div style=""text-align: center; position: fixed; top: 5vh; left: 40vw;"">
            <div style=""margin:0 auto; width: 20vw; top: 8vh; font-size: 1vw""> 
            <font color=""green""> Bonus : $0.6 </font>
            </div>
        </div>
    ","null","","","","","",""
"","","","","","html-keyboard-response","118","138168","0.0-6.0-3.12","606eeec7742566e9d46a52c8","6552129e68c08af5079f912e","6552134fe30a2d45170ca6cf","289","./stimuli//pack_1/cat_1/ex_1_3.png","arrowleft","response","ArrowLeft","3","1","true",""
"","","","","","html-keyboard-response","119","139680","0.0-6.0-4.12","606eeec7742566e9d46a52c8","6552129e68c08af5079f912e","6552134fe30a2d45170ca6cf","null","<p> <font color=""green"" size=""4vw""> Correct category! </font> <br> <br> <font color=""green"" size=""7vw""> + $0.05 </font> </p>","null","feedback","","","","","0.65"
"","","","","","html-keyboard-response","120","140080","0.0-6.0-0.13","606eeec7742566e9d46a52c8","6552129e68c08af5079f912e","6552134fe30a2d45170ca6cf","400","
            
        <div style=""text-align: center; position: fixed; top: 5vh; left: 40vw;"">
            <div style=""margin:0 auto; width: 20vw; top: 8vh; font-size: 1vw""> 
            <font color=""green""> Bonus : $0.65 </font>
            </div>
        </div>
    
            <div> Please press any button to continue to the next trial.</div>
        "," ","ITI","","","","",""
"","","","","","html-keyboard-response","121","140689","0.0-6.0-1.13","606eeec7742566e9d46a52c8","6552129e68c08af5079f912e","6552134fe30a2d45170ca6cf","null","
        
        <div style=""text-align: center; position: fixed; top: 5vh; left: 40vw;"">
            <div style=""margin:0 auto; width: 20vw; top: 8vh; font-size: 1vw""> 
            <font color=""green""> Bonus : $0.65 </font>
            </div>
        </div>
    
        <img class=""stim"" src=./stimuli//pack_1/cat_2/ex_2_50.png></img>
    ","null","stimulus","","","","",""
"","","","","","html-keyboard-response","122","141703","0.0-6.0-2.13","606eeec7742566e9d46a52c8","6552129e68c08af5079f912e","6552134fe30a2d45170ca6cf","null","
        <div style=""text-align: center; position: fixed; top: 5vh; left: 40vw;"">
            <div style=""margin:0 auto; width: 20vw; top: 8vh; font-size: 1vw""> 
            <font color=""green""> Bonus : $0.65 </font>
            </div>
        </div>
    ","null","","","","","",""
"","","","","","html-keyboard-response","123","141992","0.0-6.0-3.13","606eeec7742566e9d46a52c8","6552129e68c08af5079f912e","6552134fe30a2d45170ca6cf","288","./stimuli//pack_1/cat_2/ex_2_50.png","arrowright","response","ArrowRight","50","2","true",""
"","","","","","html-keyboard-response","124","143493","0.0-6.0-4.13","606eeec7742566e9d46a52c8","6552129e68c08af5079f912e","6552134fe30a2d45170ca6cf","null","<p> <font color=""green"" size=""4vw""> Correct category! </font> <br> <br> <font color=""green"" size=""7vw""> + $0.05 </font> </p>","null","feedback","","","","","0.7"
"","","","","","html-keyboard-response","125","143936","0.0-6.0-0.14","606eeec7742566e9d46a52c8","6552129e68c08af5079f912e","6552134fe30a2d45170ca6cf","443","
            
        <div style=""text-align: center; position: fixed; top: 5vh; left: 40vw;"">
            <div style=""margin:0 auto; width: 20vw; top: 8vh; font-size: 1vw""> 
            <font color=""green""> Bonus : $0.7 </font>
            </div>
        </div>
    
            <div> Please press any button to continue to the next trial.</div>
        "," ","ITI","","","","",""
"","","","","","html-keyboard-response","126","144551","0.0-6.0-1.14","606eeec7742566e9d46a52c8","6552129e68c08af5079f912e","6552134fe30a2d45170ca6cf","null","
        
        <div style=""text-align: center; position: fixed; top: 5vh; left: 40vw;"">
            <div style=""margin:0 auto; width: 20vw; top: 8vh; font-size: 1vw""> 
            <font color=""green""> Bonus : $0.7 </font>
            </div>
        </div>
    
        <img class=""stim"" src=./stimuli//pack_1/cat_2/ex_2_98.png></img>
    ","null","stimulus","","","","",""
"","","","","","html-keyboard-response","127","145565","0.0-6.0-2.14","606eeec7742566e9d46a52c8","6552129e68c08af5079f912e","6552134fe30a2d45170ca6cf","null","
        <div style=""text-align: center; position: fixed; top: 5vh; left: 40vw;"">
            <div style=""margin:0 auto; width: 20vw; top: 8vh; font-size: 1vw""> 
            <font color=""green""> Bonus : $0.7 </font>
            </div>
        </div>
    ","null","","","","","",""
"","","","","","html-keyboard-response","128","145840","0.0-6.0-3.14","606eeec7742566e9d46a52c8","6552129e68c08af5079f912e","6552134fe30a2d45170ca6cf","274","./stimuli//pack_1/cat_2/ex_2_98.png","arrowright","response","ArrowRight","98","2","true",""
"","","","","","html-keyboard-response","129","147351","0.0-6.0-4.14","606eeec7742566e9d46a52c8","6552129e68c08af5079f912e","6552134fe30a2d45170ca6cf","null","<p> <font color=""green"" size=""4vw""> Correct category! </font> <br> <br> <font color=""green"" size=""7vw""> + $0.05 </font> </p>","null","feedback","","","","","0.75"
"","","","","","html-keyboard-response","130","147744","0.0-6.0-0.15","606eeec7742566e9d46a52c8","6552129e68c08af5079f912e","6552134fe30a2d45170ca6cf","392","
            
        <div style=""text-align: center; position: fixed; top: 5vh; left: 40vw;"">
            <div style=""margin:0 auto; width: 20vw; top: 8vh; font-size: 1vw""> 
            <font color=""green""> Bonus : $0.75 </font>
            </div>
        </div>
    
            <div> Please press any button to continue to the next trial.</div>
        "," ","ITI","","","","",""
"","","","","","html-keyboard-response","131","148360","0.0-6.0-1.15","606eeec7742566e9d46a52c8","6552129e68c08af5079f912e","6552134fe30a2d45170ca6cf","null","
        
        <div style=""text-align: center; position: fixed; top: 5vh; left: 40vw;"">
            <div style=""margin:0 auto; width: 20vw; top: 8vh; font-size: 1vw""> 
            <font color=""green""> Bonus : $0.75 </font>
            </div>
        </div>
    
        <img class=""stim"" src=./stimuli//pack_1/cat_2/ex_2_57.png></img>
    ","null","stimulus","","","","",""
"","","","","","html-keyboard-response","132","149372","0.0-6.0-2.15","606eeec7742566e9d46a52c8","6552129e68c08af5079f912e","6552134fe30a2d45170ca6cf","null","
        <div style=""text-align: center; position: fixed; top: 5vh; left: 40vw;"">
            <div style=""margin:0 auto; width: 20vw; top: 8vh; font-size: 1vw""> 
            <font color=""green""> Bonus : $0.75 </font>
            </div>
        </div>
    ","null","","","","","",""
"","","","","","html-keyboard-response","133","149624","0.0-6.0-3.15","606eeec7742566e9d46a52c8","6552129e68c08af5079f912e","6552134fe30a2d45170ca6cf","251","./stimuli//pack_1/cat_2/ex_2_57.png","arrowright","response","ArrowRight","57","2","true",""
"","","","","","html-keyboard-response","134","151134","0.0-6.0-4.15","606eeec7742566e9d46a52c8","6552129e68c08af5079f912e","6552134fe30a2d45170ca6cf","null","<p> <font color=""green"" size=""4vw""> Correct category! </font> <br> <br> <font color=""green"" size=""7vw""> + $0.05 </font> </p>","null","feedback","","","","","0.8"
"","","","","","html-keyboard-response","135","151504","0.0-6.0-0.16","606eeec7742566e9d46a52c8","6552129e68c08af5079f912e","6552134fe30a2d45170ca6cf","369","
            
        <div style=""text-align: center; position: fixed; top: 5vh; left: 40vw;"">
            <div style=""margin:0 auto; width: 20vw; top: 8vh; font-size: 1vw""> 
            <font color=""green""> Bonus : $0.8 </font>
            </div>
        </div>
    
            <div> Please press any button to continue to the next trial.</div>
        "," ","ITI","","","","",""
"","","","","","html-keyboard-response","136","152116","0.0-6.0-1.16","606eeec7742566e9d46a52c8","6552129e68c08af5079f912e","6552134fe30a2d45170ca6cf","null","
        
        <div style=""text-align: center; position: fixed; top: 5vh; left: 40vw;"">
            <div style=""margin:0 auto; width: 20vw; top: 8vh; font-size: 1vw""> 
            <font color=""green""> Bonus : $0.8 </font>
            </div>
        </div>
    
        <img class=""stim"" src=./stimuli//pack_1/cat_2/ex_2_70.png></img>
    ","null","stimulus","","","","",""
"","","","","","html-keyboard-response","137","153125","0.0-6.0-2.16","606eeec7742566e9d46a52c8","6552129e68c08af5079f912e","6552134fe30a2d45170ca6cf","null","
        <div style=""text-align: center; position: fixed; top: 5vh; left: 40vw;"">
            <div style=""margin:0 auto; width: 20vw; top: 8vh; font-size: 1vw""> 
            <font color=""green""> Bonus : $0.8 </font>
            </div>
        </div>
    ","null","","","","","",""
"","","","","","html-keyboard-response","138","153368","0.0-6.0-3.16","606eeec7742566e9d46a52c8","6552129e68c08af5079f912e","6552134fe30a2d45170ca6cf","242","./stimuli//pack_1/cat_2/ex_2_70.png","arrowleft","response","ArrowRight","70","2","false",""
"","","","","","html-keyboard-response","139","154879","0.0-6.0-4.16","606eeec7742566e9d46a52c8","6552129e68c08af5079f912e","6552134fe30a2d45170ca6cf","null","<p> <font color=""red"" size=""4vw""> Wrong category! </font> </p>","null","feedback","","","","","0.8"
"","","","","","html-keyboard-response","140","155256","0.0-6.0-0.17","606eeec7742566e9d46a52c8","6552129e68c08af5079f912e","6552134fe30a2d45170ca6cf","376","
            
        <div style=""text-align: center; position: fixed; top: 5vh; left: 40vw;"">
            <div style=""margin:0 auto; width: 20vw; top: 8vh; font-size: 1vw""> 
            <font color=""green""> Bonus : $0.8 </font>
            </div>
        </div>
    
            <div> Please press any button to continue to the next trial.</div>
        "," ","ITI","","","","",""
"","","","","","html-keyboard-response","141","155858","0.0-6.0-1.17","606eeec7742566e9d46a52c8","6552129e68c08af5079f912e","6552134fe30a2d45170ca6cf","null","
        
        <div style=""text-align: center; position: fixed; top: 5vh; left: 40vw;"">
            <div style=""margin:0 auto; width: 20vw; top: 8vh; font-size: 1vw""> 
            <font color=""green""> Bonus : $0.8 </font>
            </div>
        </div>
    
        <img class=""stim"" src=./stimuli//pack_1/cat_2/ex_2_21.png></img>
    ","null","stimulus","","","","",""
"","","","","","html-keyboard-response","142","156867","0.0-6.0-2.17","606eeec7742566e9d46a52c8","6552129e68c08af5079f912e","6552134fe30a2d45170ca6cf","null","
        <div style=""text-align: center; position: fixed; top: 5vh; left: 40vw;"">
            <div style=""margin:0 auto; width: 20vw; top: 8vh; font-size: 1vw""> 
            <font color=""green""> Bonus : $0.8 </font>
            </div>
        </div>
    ","null","","","","","",""
"","","","","","html-keyboard-response","143","157152","0.0-6.0-3.17","606eeec7742566e9d46a52c8","6552129e68c08af5079f912e","6552134fe30a2d45170ca6cf","284","./stimuli//pack_1/cat_2/ex_2_21.png","arrowright","response","ArrowRight","21","2","true",""
"","","","","","html-keyboard-response","144","158657","0.0-6.0-4.17","606eeec7742566e9d46a52c8","6552129e68c08af5079f912e","6552134fe30a2d45170ca6cf","null","<p> <font color=""green"" size=""4vw""> Correct category! </font> <br> <br> <font color=""green"" size=""7vw""> + $0.05 </font> </p>","null","feedback","","","","","0.85"
"","","","","","html-keyboard-response","145","159168","0.0-6.0-0.18","606eeec7742566e9d46a52c8","6552129e68c08af5079f912e","6552134fe30a2d45170ca6cf","511","
            
        <div style=""text-align: center; position: fixed; top: 5vh; left: 40vw;"">
            <div style=""margin:0 auto; width: 20vw; top: 8vh; font-size: 1vw""> 
            <font color=""green""> Bonus : $0.85 </font>
            </div>
        </div>
    
            <div> Please press any button to continue to the next trial.</div>
        "," ","ITI","","","","",""
"","","","","","html-keyboard-response","146","159777","0.0-6.0-1.18","606eeec7742566e9d46a52c8","6552129e68c08af5079f912e","6552134fe30a2d45170ca6cf","null","
        
        <div style=""text-align: center; position: fixed; top: 5vh; left: 40vw;"">
            <div style=""margin:0 auto; width: 20vw; top: 8vh; font-size: 1vw""> 
            <font color=""green""> Bonus : $0.85 </font>
            </div>
        </div>
    
        <img class=""stim"" src=./stimuli//pack_1/cat_1/ex_1_50.png></img>
    ","null","stimulus","","","","",""
"","","","","","html-keyboard-response","147","160786","0.0-6.0-2.18","606eeec7742566e9d46a52c8","6552129e68c08af5079f912e","6552134fe30a2d45170ca6cf","null","
        <div style=""text-align: center; position: fixed; top: 5vh; left: 40vw;"">
            <div style=""margin:0 auto; width: 20vw; top: 8vh; font-size: 1vw""> 
            <font color=""green""> Bonus : $0.85 </font>
            </div>
        </div>
    ","null","","","","","",""
"","","","","","html-keyboard-response","148","161080","0.0-6.0-3.18","606eeec7742566e9d46a52c8","6552129e68c08af5079f912e","6552134fe30a2d45170ca6cf","293","./stimuli//pack_1/cat_1/ex_1_50.png","arrowleft","response","ArrowLeft","50","1","true",""
"","","","","","html-keyboard-response","149","162593","0.0-6.0-4.18","606eeec7742566e9d46a52c8","6552129e68c08af5079f912e","6552134fe30a2d45170ca6cf","null","<p> <font color=""green"" size=""4vw""> Correct category! </font> <br> <br> <font color=""green"" size=""7vw""> + $0.05 </font> </p>","null","feedback","","","","","0.9"
"","","","","","html-keyboard-response","150","163048","0.0-6.0-0.19","606eeec7742566e9d46a52c8","6552129e68c08af5079f912e","6552134fe30a2d45170ca6cf","454","
            
        <div style=""text-align: center; position: fixed; top: 5vh; left: 40vw;"">
            <div style=""margin:0 auto; width: 20vw; top: 8vh; font-size: 1vw""> 
            <font color=""green""> Bonus : $0.9 </font>
            </div>
        </div>
    
            <div> Please press any button to continue to the next trial.</div>
        "," ","ITI","","","","",""
"","","","","","html-keyboard-response","151","163663","0.0-6.0-1.19","606eeec7742566e9d46a52c8","6552129e68c08af5079f912e","6552134fe30a2d45170ca6cf","null","
        
        <div style=""text-align: center; position: fixed; top: 5vh; left: 40vw;"">
            <div style=""margin:0 auto; width: 20vw; top: 8vh; font-size: 1vw""> 
            <font color=""green""> Bonus : $0.9 </font>
            </div>
        </div>
    
        <img class=""stim"" src=./stimuli//pack_1/cat_2/ex_2_44.png></img>
    ","null","stimulus","","","","",""
"","","","","","html-keyboard-response","152","164674","0.0-6.0-2.19","606eeec7742566e9d46a52c8","6552129e68c08af5079f912e","6552134fe30a2d45170ca6cf","null","
        <div style=""text-align: center; position: fixed; top: 5vh; left: 40vw;"">
            <div style=""margin:0 auto; width: 20vw; top: 8vh; font-size: 1vw""> 
            <font color=""green""> Bonus : $0.9 </font>
            </div>
        </div>
    ","null","","","","","",""
"","","","","","html-keyboard-response","153","164946","0.0-6.0-3.19","606eeec7742566e9d46a52c8","6552129e68c08af5079f912e","6552134fe30a2d45170ca6cf","271","./stimuli//pack_1/cat_2/ex_2_44.png","arrowleft","response","ArrowRight","44","2","false",""
"","","","","","html-keyboard-response","154","166450","0.0-6.0-4.19","606eeec7742566e9d46a52c8","6552129e68c08af5079f912e","6552134fe30a2d45170ca6cf","null","<p> <font color=""red"" size=""4vw""> Wrong category! </font> </p>","null","feedback","","","","","0.9"
"","","","","","html-keyboard-response","155","166920","0.0-6.0-0.20","606eeec7742566e9d46a52c8","6552129e68c08af5079f912e","6552134fe30a2d45170ca6cf","469","
            
        <div style=""text-align: center; position: fixed; top: 5vh; left: 40vw;"">
            <div style=""margin:0 auto; width: 20vw; top: 8vh; font-size: 1vw""> 
            <font color=""green""> Bonus : $0.9 </font>
            </div>
        </div>
    
            <div> Please press any button to continue to the next trial.</div>
        "," ","ITI","","","","",""
"","","","","","html-keyboard-response","156","167530","0.0-6.0-1.20","606eeec7742566e9d46a52c8","6552129e68c08af5079f912e","6552134fe30a2d45170ca6cf","null","
        
        <div style=""text-align: center; position: fixed; top: 5vh; left: 40vw;"">
            <div style=""margin:0 auto; width: 20vw; top: 8vh; font-size: 1vw""> 
            <font color=""green""> Bonus : $0.9 </font>
            </div>
        </div>
    
        <img class=""stim"" src=./stimuli//pack_1/cat_1/ex_1_34.png></img>
    ","null","stimulus","","","","",""
"","","","","","html-keyboard-response","157","168545","0.0-6.0-2.20","606eeec7742566e9d46a52c8","6552129e68c08af5079f912e","6552134fe30a2d45170ca6cf","null","
        <div style=""text-align: center; position: fixed; top: 5vh; left: 40vw;"">
            <div style=""margin:0 auto; width: 20vw; top: 8vh; font-size: 1vw""> 
            <font color=""green""> Bonus : $0.9 </font>
            </div>
        </div>
    ","null","","","","","",""
"","","","","","html-keyboard-response","158","168776","0.0-6.0-3.20","606eeec7742566e9d46a52c8","6552129e68c08af5079f912e","6552134fe30a2d45170ca6cf","229","./stimuli//pack_1/cat_1/ex_1_34.png","arrowleft","response","ArrowLeft","34","1","true",""
"","","","","","html-keyboard-response","159","170286","0.0-6.0-4.20","606eeec7742566e9d46a52c8","6552129e68c08af5079f912e","6552134fe30a2d45170ca6cf","null","<p> <font color=""green"" size=""4vw""> Correct category! </font> <br> <br> <font color=""green"" size=""7vw""> + $0.05 </font> </p>","null","feedback","","","","","0.95"
"","","","","","html-keyboard-response","160","170624","0.0-6.0-0.21","606eeec7742566e9d46a52c8","6552129e68c08af5079f912e","6552134fe30a2d45170ca6cf","337","
            
        <div style=""text-align: center; position: fixed; top: 5vh; left: 40vw;"">
            <div style=""margin:0 auto; width: 20vw; top: 8vh; font-size: 1vw""> 
            <font color=""green""> Bonus : $0.95 </font>
            </div>
        </div>
    
            <div> Please press any button to continue to the next trial.</div>
        "," ","ITI","","","","",""
"","","","","","html-keyboard-response","161","171239","0.0-6.0-1.21","606eeec7742566e9d46a52c8","6552129e68c08af5079f912e","6552134fe30a2d45170ca6cf","null","
        
        <div style=""text-align: center; position: fixed; top: 5vh; left: 40vw;"">
            <div style=""margin:0 auto; width: 20vw; top: 8vh; font-size: 1vw""> 
            <font color=""green""> Bonus : $0.95 </font>
            </div>
        </div>
    
        <img class=""stim"" src=./stimuli//pack_1/cat_1/ex_1_15.png></img>
    ","null","stimulus","","","","",""
"","","","","","html-keyboard-response","162","172250","0.0-6.0-2.21","606eeec7742566e9d46a52c8","6552129e68c08af5079f912e","6552134fe30a2d45170ca6cf","null","
        <div style=""text-align: center; position: fixed; top: 5vh; left: 40vw;"">
            <div style=""margin:0 auto; width: 20vw; top: 8vh; font-size: 1vw""> 
            <font color=""green""> Bonus : $0.95 </font>
            </div>
        </div>
    ","null","","","","","",""
"","","","","","html-keyboard-response","163","172496","0.0-6.0-3.21","606eeec7742566e9d46a52c8","6552129e68c08af5079f912e","6552134fe30a2d45170ca6cf","245","./stimuli//pack_1/cat_1/ex_1_15.png","arrowright","response","ArrowLeft","15","1","false",""
"","","","","","html-keyboard-response","164","174008","0.0-6.0-4.21","606eeec7742566e9d46a52c8","6552129e68c08af5079f912e","6552134fe30a2d45170ca6cf","null","<p> <font color=""red"" size=""4vw""> Wrong category! </font> </p>","null","feedback","","","","","0.95"
"","","","","","html-keyboard-response","165","174424","0.0-6.0-0.22","606eeec7742566e9d46a52c8","6552129e68c08af5079f912e","6552134fe30a2d45170ca6cf","415","
            
        <div style=""text-align: center; position: fixed; top: 5vh; left: 40vw;"">
            <div style=""margin:0 auto; width: 20vw; top: 8vh; font-size: 1vw""> 
            <font color=""green""> Bonus : $0.95 </font>
            </div>
        </div>
    
            <div> Please press any button to continue to the next trial.</div>
        "," ","ITI","","","","",""
"","","","","","html-keyboard-response","166","175032","0.0-6.0-1.22","606eeec7742566e9d46a52c8","6552129e68c08af5079f912e","6552134fe30a2d45170ca6cf","null","
        
        <div style=""text-align: center; position: fixed; top: 5vh; left: 40vw;"">
            <div style=""margin:0 auto; width: 20vw; top: 8vh; font-size: 1vw""> 
            <font color=""green""> Bonus : $0.95 </font>
            </div>
        </div>
    
        <img class=""stim"" src=./stimuli//pack_1/cat_2/ex_2_62.png></img>
    ","null","stimulus","","","","",""
"","","","","","html-keyboard-response","167","176040","0.0-6.0-2.22","606eeec7742566e9d46a52c8","6552129e68c08af5079f912e","6552134fe30a2d45170ca6cf","null","
        <div style=""text-align: center; position: fixed; top: 5vh; left: 40vw;"">
            <div style=""margin:0 auto; width: 20vw; top: 8vh; font-size: 1vw""> 
            <font color=""green""> Bonus : $0.95 </font>
            </div>
        </div>
    ","null","","","","","",""
"","","","","","html-keyboard-response","168","176312","0.0-6.0-3.22","606eeec7742566e9d46a52c8","6552129e68c08af5079f912e","6552134fe30a2d45170ca6cf","271","./stimuli//pack_1/cat_2/ex_2_62.png","arrowright","response","ArrowRight","62","2","true",""
"","","","","","html-keyboard-response","169","177828","0.0-6.0-4.22","606eeec7742566e9d46a52c8","6552129e68c08af5079f912e","6552134fe30a2d45170ca6cf","null","<p> <font color=""green"" size=""4vw""> Correct category! </font> <br> <br> <font color=""green"" size=""7vw""> + $0.05 </font> </p>","null","feedback","","","","","1"
"","","","","","html-keyboard-response","170","178216","0.0-6.0-0.23","606eeec7742566e9d46a52c8","6552129e68c08af5079f912e","6552134fe30a2d45170ca6cf","388","
            
        <div style=""text-align: center; position: fixed; top: 5vh; left: 40vw;"">
            <div style=""margin:0 auto; width: 20vw; top: 8vh; font-size: 1vw""> 
            <font color=""green""> Bonus : $1 </font>
            </div>
        </div>
    
            <div> Please press any button to continue to the next trial.</div>
        "," ","ITI","","","","",""
"","","","","","html-keyboard-response","171","178823","0.0-6.0-1.23","606eeec7742566e9d46a52c8","6552129e68c08af5079f912e","6552134fe30a2d45170ca6cf","null","
        
        <div style=""text-align: center; position: fixed; top: 5vh; left: 40vw;"">
            <div style=""margin:0 auto; width: 20vw; top: 8vh; font-size: 1vw""> 
            <font color=""green""> Bonus : $1 </font>
            </div>
        </div>
    
        <img class=""stim"" src=./stimuli//pack_1/cat_2/ex_2_82.png></img>
    ","null","stimulus","","","","",""
"","","","","","html-keyboard-response","172","179831","0.0-6.0-2.23","606eeec7742566e9d46a52c8","6552129e68c08af5079f912e","6552134fe30a2d45170ca6cf","null","
        <div style=""text-align: center; position: fixed; top: 5vh; left: 40vw;"">
            <div style=""margin:0 auto; width: 20vw; top: 8vh; font-size: 1vw""> 
            <font color=""green""> Bonus : $1 </font>
            </div>
        </div>
    ","null","","","","","",""
"","","","","","html-keyboard-response","173","180128","0.0-6.0-3.23","606eeec7742566e9d46a52c8","6552129e68c08af5079f912e","6552134fe30a2d45170ca6cf","296","./stimuli//pack_1/cat_2/ex_2_82.png","arrowright","response","ArrowRight","82","2","true",""
"","","","","","html-keyboard-response","174","181632","0.0-6.0-4.23","606eeec7742566e9d46a52c8","6552129e68c08af5079f912e","6552134fe30a2d45170ca6cf","null","<p> <font color=""green"" size=""4vw""> Correct category! </font> <br> <br> <font color=""green"" size=""7vw""> + $0.05 </font> </p>","null","feedback","","","","","1.05"
"","","","","","html-keyboard-response","175","182080","0.0-6.0-0.24","606eeec7742566e9d46a52c8","6552129e68c08af5079f912e","6552134fe30a2d45170ca6cf","447","
            
        <div style=""text-align: center; position: fixed; top: 5vh; left: 40vw;"">
            <div style=""margin:0 auto; width: 20vw; top: 8vh; font-size: 1vw""> 
            <font color=""green""> Bonus : $1.05 </font>
            </div>
        </div>
    
            <div> Please press any button to continue to the next trial.</div>
        "," ","ITI","","","","",""
"","","","","","html-keyboard-response","176","182686","0.0-6.0-1.24","606eeec7742566e9d46a52c8","6552129e68c08af5079f912e","6552134fe30a2d45170ca6cf","null","
        
        <div style=""text-align: center; position: fixed; top: 5vh; left: 40vw;"">
            <div style=""margin:0 auto; width: 20vw; top: 8vh; font-size: 1vw""> 
            <font color=""green""> Bonus : $1.05 </font>
            </div>
        </div>
    
        <img class=""stim"" src=./stimuli//pack_1/cat_1/ex_1_58.png></img>
    ","null","stimulus","","","","",""
"","","","","","html-keyboard-response","177","183695","0.0-6.0-2.24","606eeec7742566e9d46a52c8","6552129e68c08af5079f912e","6552134fe30a2d45170ca6cf","null","
        <div style=""text-align: center; position: fixed; top: 5vh; left: 40vw;"">
            <div style=""margin:0 auto; width: 20vw; top: 8vh; font-size: 1vw""> 
            <font color=""green""> Bonus : $1.05 </font>
            </div>
        </div>
    ","null","","","","","",""
"","","","","","html-keyboard-response","178","183976","0.0-6.0-3.24","606eeec7742566e9d46a52c8","6552129e68c08af5079f912e","6552134fe30a2d45170ca6cf","280","./stimuli//pack_1/cat_1/ex_1_58.png","arrowleft","response","ArrowLeft","58","1","true",""
"","","","","","html-keyboard-response","179","185490","0.0-6.0-4.24","606eeec7742566e9d46a52c8","6552129e68c08af5079f912e","6552134fe30a2d45170ca6cf","null","<p> <font color=""green"" size=""4vw""> Correct category! </font> <br> <br> <font color=""green"" size=""7vw""> + $0.05 </font> </p>","null","feedback","","","","","1.1"
"","","","","","html-keyboard-response","180","186016","0.0-6.0-0.25","606eeec7742566e9d46a52c8","6552129e68c08af5079f912e","6552134fe30a2d45170ca6cf","526","
            
        <div style=""text-align: center; position: fixed; top: 5vh; left: 40vw;"">
            <div style=""margin:0 auto; width: 20vw; top: 8vh; font-size: 1vw""> 
            <font color=""green""> Bonus : $1.1 </font>
            </div>
        </div>
    
            <div> Please press any button to continue to the next trial.</div>
        "," ","ITI","","","","",""
"","","","","","html-keyboard-response","181","186629","0.0-6.0-1.25","606eeec7742566e9d46a52c8","6552129e68c08af5079f912e","6552134fe30a2d45170ca6cf","null","
        
        <div style=""text-align: center; position: fixed; top: 5vh; left: 40vw;"">
            <div style=""margin:0 auto; width: 20vw; top: 8vh; font-size: 1vw""> 
            <font color=""green""> Bonus : $1.1 </font>
            </div>
        </div>
    
        <img class=""stim"" src=./stimuli//pack_1/cat_2/ex_2_96.png></img>
    ","null","stimulus","","","","",""
"","","","","","html-keyboard-response","182","187636","0.0-6.0-2.25","606eeec7742566e9d46a52c8","6552129e68c08af5079f912e","6552134fe30a2d45170ca6cf","null","
        <div style=""text-align: center; position: fixed; top: 5vh; left: 40vw;"">
            <div style=""margin:0 auto; width: 20vw; top: 8vh; font-size: 1vw""> 
            <font color=""green""> Bonus : $1.1 </font>
            </div>
        </div>
    ","null","","","","","",""
"","","","","","html-keyboard-response","183","187904","0.0-6.0-3.25","606eeec7742566e9d46a52c8","6552129e68c08af5079f912e","6552134fe30a2d45170ca6cf","267","./stimuli//pack_1/cat_2/ex_2_96.png","arrowright","response","ArrowRight","96","2","true",""
"","","","","","html-keyboard-response","184","189408","0.0-6.0-4.25","606eeec7742566e9d46a52c8","6552129e68c08af5079f912e","6552134fe30a2d45170ca6cf","null","<p> <font color=""green"" size=""4vw""> Correct category! </font> <br> <br> <font color=""green"" size=""7vw""> + $0.05 </font> </p>","null","feedback","","","","","1.15"
"","","","","","html-keyboard-response","185","189744","0.0-6.0-0.26","606eeec7742566e9d46a52c8","6552129e68c08af5079f912e","6552134fe30a2d45170ca6cf","335","
            
        <div style=""text-align: center; position: fixed; top: 5vh; left: 40vw;"">
            <div style=""margin:0 auto; width: 20vw; top: 8vh; font-size: 1vw""> 
            <font color=""green""> Bonus : $1.15 </font>
            </div>
        </div>
    
            <div> Please press any button to continue to the next trial.</div>
        "," ","ITI","","","","",""
"","","","","","html-keyboard-response","186","190358","0.0-6.0-1.26","606eeec7742566e9d46a52c8","6552129e68c08af5079f912e","6552134fe30a2d45170ca6cf","null","
        
        <div style=""text-align: center; position: fixed; top: 5vh; left: 40vw;"">
            <div style=""margin:0 auto; width: 20vw; top: 8vh; font-size: 1vw""> 
            <font color=""green""> Bonus : $1.15 </font>
            </div>
        </div>
    
        <img class=""stim"" src=./stimuli//pack_1/cat_1/ex_1_22.png></img>
    ","null","stimulus","","","","",""
"","","","","","html-keyboard-response","187","191360","0.0-6.0-2.26","606eeec7742566e9d46a52c8","6552129e68c08af5079f912e","6552134fe30a2d45170ca6cf","null","
        <div style=""text-align: center; position: fixed; top: 5vh; left: 40vw;"">
            <div style=""margin:0 auto; width: 20vw; top: 8vh; font-size: 1vw""> 
            <font color=""green""> Bonus : $1.15 </font>
            </div>
        </div>
    ","null","","","","","",""
"","","","","","html-keyboard-response","188","191760","0.0-6.0-3.26","606eeec7742566e9d46a52c8","6552129e68c08af5079f912e","6552134fe30a2d45170ca6cf","400","./stimuli//pack_1/cat_1/ex_1_22.png","arrowleft","response","ArrowLeft","22","1","true",""
"","","","","","html-keyboard-response","189","193269","0.0-6.0-4.26","606eeec7742566e9d46a52c8","6552129e68c08af5079f912e","6552134fe30a2d45170ca6cf","null","<p> <font color=""green"" size=""4vw""> Correct category! </font> <br> <br> <font color=""green"" size=""7vw""> + $0.05 </font> </p>","null","feedback","","","","","1.2"
"","","","","","html-keyboard-response","190","193616","0.0-6.0-0.27","606eeec7742566e9d46a52c8","6552129e68c08af5079f912e","6552134fe30a2d45170ca6cf","347","
            
        <div style=""text-align: center; position: fixed; top: 5vh; left: 40vw;"">
            <div style=""margin:0 auto; width: 20vw; top: 8vh; font-size: 1vw""> 
            <font color=""green""> Bonus : $1.2 </font>
            </div>
        </div>
    
            <div> Please press any button to continue to the next trial.</div>
        "," ","ITI","","","","",""
"","","","","","html-keyboard-response","191","194222","0.0-6.0-1.27","606eeec7742566e9d46a52c8","6552129e68c08af5079f912e","6552134fe30a2d45170ca6cf","null","
        
        <div style=""text-align: center; position: fixed; top: 5vh; left: 40vw;"">
            <div style=""margin:0 auto; width: 20vw; top: 8vh; font-size: 1vw""> 
            <font color=""green""> Bonus : $1.2 </font>
            </div>
        </div>
    
        <img class=""stim"" src=./stimuli//pack_1/cat_2/ex_2_49.png></img>
    ","null","stimulus","","","","",""
"","","","","","html-keyboard-response","192","195231","0.0-6.0-2.27","606eeec7742566e9d46a52c8","6552129e68c08af5079f912e","6552134fe30a2d45170ca6cf","null","
        <div style=""text-align: center; position: fixed; top: 5vh; left: 40vw;"">
            <div style=""margin:0 auto; width: 20vw; top: 8vh; font-size: 1vw""> 
            <font color=""green""> Bonus : $1.2 </font>
            </div>
        </div>
    ","null","","","","","",""
"","","","","","html-keyboard-response","193","195488","0.0-6.0-3.27","606eeec7742566e9d46a52c8","6552129e68c08af5079f912e","6552134fe30a2d45170ca6cf","256","./stimuli//pack_1/cat_2/ex_2_49.png","arrowright","response","ArrowRight","49","2","true",""
"","","","","","html-keyboard-response","194","196989","0.0-6.0-4.27","606eeec7742566e9d46a52c8","6552129e68c08af5079f912e","6552134fe30a2d45170ca6cf","null","<p> <font color=""green"" size=""4vw""> Correct category! </font> <br> <br> <font color=""green"" size=""7vw""> + $0.05 </font> </p>","null","feedback","","","","","1.25"
"","","","","","html-keyboard-response","195","197368","0.0-6.0-0.28","606eeec7742566e9d46a52c8","6552129e68c08af5079f912e","6552134fe30a2d45170ca6cf","378","
            
        <div style=""text-align: center; position: fixed; top: 5vh; left: 40vw;"">
            <div style=""margin:0 auto; width: 20vw; top: 8vh; font-size: 1vw""> 
            <font color=""green""> Bonus : $1.25 </font>
            </div>
        </div>
    
            <div> Please press any button to continue to the next trial.</div>
        "," ","ITI","","","","",""
"","","","","","html-keyboard-response","196","197975","0.0-6.0-1.28","606eeec7742566e9d46a52c8","6552129e68c08af5079f912e","6552134fe30a2d45170ca6cf","null","
        
        <div style=""text-align: center; position: fixed; top: 5vh; left: 40vw;"">
            <div style=""margin:0 auto; width: 20vw; top: 8vh; font-size: 1vw""> 
            <font color=""green""> Bonus : $1.25 </font>
            </div>
        </div>
    
        <img class=""stim"" src=./stimuli//pack_1/cat_2/ex_2_2.png></img>
    ","null","stimulus","","","","",""
"","","","","","html-keyboard-response","197","198983","0.0-6.0-2.28","606eeec7742566e9d46a52c8","6552129e68c08af5079f912e","6552134fe30a2d45170ca6cf","null","
        <div style=""text-align: center; position: fixed; top: 5vh; left: 40vw;"">
            <div style=""margin:0 auto; width: 20vw; top: 8vh; font-size: 1vw""> 
            <font color=""green""> Bonus : $1.25 </font>
            </div>
        </div>
    ","null","","","","","",""
"","","","","","html-keyboard-response","198","199256","0.0-6.0-3.28","606eeec7742566e9d46a52c8","6552129e68c08af5079f912e","6552134fe30a2d45170ca6cf","272","./stimuli//pack_1/cat_2/ex_2_2.png","arrowright","response","ArrowRight","2","2","true",""
"","","","","","html-keyboard-response","199","200760","0.0-6.0-4.28","606eeec7742566e9d46a52c8","6552129e68c08af5079f912e","6552134fe30a2d45170ca6cf","null","<p> <font color=""green"" size=""4vw""> Correct category! </font> <br> <br> <font color=""green"" size=""7vw""> + $0.05 </font> </p>","null","feedback","","","","","1.3"
"","","","","","html-keyboard-response","200","201112","0.0-6.0-0.29","606eeec7742566e9d46a52c8","6552129e68c08af5079f912e","6552134fe30a2d45170ca6cf","352","
            
        <div style=""text-align: center; position: fixed; top: 5vh; left: 40vw;"">
            <div style=""margin:0 auto; width: 20vw; top: 8vh; font-size: 1vw""> 
            <font color=""green""> Bonus : $1.3 </font>
            </div>
        </div>
    
            <div> Please press any button to continue to the next trial.</div>
        "," ","ITI","","","","",""
"","","","","","html-keyboard-response","201","201724","0.0-6.0-1.29","606eeec7742566e9d46a52c8","6552129e68c08af5079f912e","6552134fe30a2d45170ca6cf","null","
        
        <div style=""text-align: center; position: fixed; top: 5vh; left: 40vw;"">
            <div style=""margin:0 auto; width: 20vw; top: 8vh; font-size: 1vw""> 
            <font color=""green""> Bonus : $1.3 </font>
            </div>
        </div>
    
        <img class=""stim"" src=./stimuli//pack_1/cat_1/ex_1_80.png></img>
    ","null","stimulus","","","","",""
"","","","","","html-keyboard-response","202","202737","0.0-6.0-2.29","606eeec7742566e9d46a52c8","6552129e68c08af5079f912e","6552134fe30a2d45170ca6cf","null","
        <div style=""text-align: center; position: fixed; top: 5vh; left: 40vw;"">
            <div style=""margin:0 auto; width: 20vw; top: 8vh; font-size: 1vw""> 
            <font color=""green""> Bonus : $1.3 </font>
            </div>
        </div>
    ","null","","","","","",""
"","","","","","html-keyboard-response","203","203040","0.0-6.0-3.29","606eeec7742566e9d46a52c8","6552129e68c08af5079f912e","6552134fe30a2d45170ca6cf","302","./stimuli//pack_1/cat_1/ex_1_80.png","arrowleft","response","ArrowLeft","80","1","true",""
"","","","","","html-keyboard-response","204","204554","0.0-6.0-4.29","606eeec7742566e9d46a52c8","6552129e68c08af5079f912e","6552134fe30a2d45170ca6cf","null","<p> <font color=""green"" size=""4vw""> Correct category! </font> <br> <br> <font color=""green"" size=""7vw""> + $0.05 </font> </p>","null","feedback","","","","","1.35"
"","","","","","html-keyboard-response","205","204976","0.0-6.0-0.30","606eeec7742566e9d46a52c8","6552129e68c08af5079f912e","6552134fe30a2d45170ca6cf","421","
            
        <div style=""text-align: center; position: fixed; top: 5vh; left: 40vw;"">
            <div style=""margin:0 auto; width: 20vw; top: 8vh; font-size: 1vw""> 
            <font color=""green""> Bonus : $1.35 </font>
            </div>
        </div>
    
            <div> Please press any button to continue to the next trial.</div>
        "," ","ITI","","","","",""
"","","","","","html-keyboard-response","206","205581","0.0-6.0-1.30","606eeec7742566e9d46a52c8","6552129e68c08af5079f912e","6552134fe30a2d45170ca6cf","null","
        
        <div style=""text-align: center; position: fixed; top: 5vh; left: 40vw;"">
            <div style=""margin:0 auto; width: 20vw; top: 8vh; font-size: 1vw""> 
            <font color=""green""> Bonus : $1.35 </font>
            </div>
        </div>
    
        <img class=""stim"" src=./stimuli//pack_1/cat_1/ex_1_31.png></img>
    ","null","stimulus","","","","",""
"","","","","","html-keyboard-response","207","206593","0.0-6.0-2.30","606eeec7742566e9d46a52c8","6552129e68c08af5079f912e","6552134fe30a2d45170ca6cf","null","
        <div style=""text-align: center; position: fixed; top: 5vh; left: 40vw;"">
            <div style=""margin:0 auto; width: 20vw; top: 8vh; font-size: 1vw""> 
            <font color=""green""> Bonus : $1.35 </font>
            </div>
        </div>
    ","null","","","","","",""
"","","","","","html-keyboard-response","208","206864","0.0-6.0-3.30","606eeec7742566e9d46a52c8","6552129e68c08af5079f912e","6552134fe30a2d45170ca6cf","270","./stimuli//pack_1/cat_1/ex_1_31.png","arrowright","response","ArrowLeft","31","1","false",""
"","","","","","html-keyboard-response","209","208370","0.0-6.0-4.30","606eeec7742566e9d46a52c8","6552129e68c08af5079f912e","6552134fe30a2d45170ca6cf","null","<p> <font color=""red"" size=""4vw""> Wrong category! </font> </p>","null","feedback","","","","","1.35"
"","","","","","html-keyboard-response","210","208736","0.0-6.0-0.31","606eeec7742566e9d46a52c8","6552129e68c08af5079f912e","6552134fe30a2d45170ca6cf","366","
            
        <div style=""text-align: center; position: fixed; top: 5vh; left: 40vw;"">
            <div style=""margin:0 auto; width: 20vw; top: 8vh; font-size: 1vw""> 
            <font color=""green""> Bonus : $1.35 </font>
            </div>
        </div>
    
            <div> Please press any button to continue to the next trial.</div>
        "," ","ITI","","","","",""
"","","","","","html-keyboard-response","211","209350","0.0-6.0-1.31","606eeec7742566e9d46a52c8","6552129e68c08af5079f912e","6552134fe30a2d45170ca6cf","null","
        
        <div style=""text-align: center; position: fixed; top: 5vh; left: 40vw;"">
            <div style=""margin:0 auto; width: 20vw; top: 8vh; font-size: 1vw""> 
            <font color=""green""> Bonus : $1.35 </font>
            </div>
        </div>
    
        <img class=""stim"" src=./stimuli//pack_1/cat_1/ex_1_4.png></img>
    ","null","stimulus","","","","",""
"","","","","","html-keyboard-response","212","210358","0.0-6.0-2.31","606eeec7742566e9d46a52c8","6552129e68c08af5079f912e","6552134fe30a2d45170ca6cf","null","
        <div style=""text-align: center; position: fixed; top: 5vh; left: 40vw;"">
            <div style=""margin:0 auto; width: 20vw; top: 8vh; font-size: 1vw""> 
            <font color=""green""> Bonus : $1.35 </font>
            </div>
        </div>
    ","null","","","","","",""
"","","","","","html-keyboard-response","213","210616","0.0-6.0-3.31","606eeec7742566e9d46a52c8","6552129e68c08af5079f912e","6552134fe30a2d45170ca6cf","257","./stimuli//pack_1/cat_1/ex_1_4.png","arrowright","response","ArrowLeft","4","1","false",""
"","","","","","html-keyboard-response","214","212117","0.0-6.0-4.31","606eeec7742566e9d46a52c8","6552129e68c08af5079f912e","6552134fe30a2d45170ca6cf","null","<p> <font color=""red"" size=""4vw""> Wrong category! </font> </p>","null","feedback","","","","","1.35"
"","","","","","html-keyboard-response","215","212448","0.0-6.0-0.32","606eeec7742566e9d46a52c8","6552129e68c08af5079f912e","6552134fe30a2d45170ca6cf","331","
            
        <div style=""text-align: center; position: fixed; top: 5vh; left: 40vw;"">
            <div style=""margin:0 auto; width: 20vw; top: 8vh; font-size: 1vw""> 
            <font color=""green""> Bonus : $1.35 </font>
            </div>
        </div>
    
            <div> Please press any button to continue to the next trial.</div>
        "," ","ITI","","","","",""
"","","","","","html-keyboard-response","216","213050","0.0-6.0-1.32","606eeec7742566e9d46a52c8","6552129e68c08af5079f912e","6552134fe30a2d45170ca6cf","null","
        
        <div style=""text-align: center; position: fixed; top: 5vh; left: 40vw;"">
            <div style=""margin:0 auto; width: 20vw; top: 8vh; font-size: 1vw""> 
            <font color=""green""> Bonus : $1.35 </font>
            </div>
        </div>
    
        <img class=""stim"" src=./stimuli//pack_1/cat_1/ex_1_98.png></img>
    ","null","stimulus","","","","",""
"","","","","","html-keyboard-response","217","214060","0.0-6.0-2.32","606eeec7742566e9d46a52c8","6552129e68c08af5079f912e","6552134fe30a2d45170ca6cf","null","
        <div style=""text-align: center; position: fixed; top: 5vh; left: 40vw;"">
            <div style=""margin:0 auto; width: 20vw; top: 8vh; font-size: 1vw""> 
            <font color=""green""> Bonus : $1.35 </font>
            </div>
        </div>
    ","null","","","","","",""
"","","","","","html-keyboard-response","218","214328","0.0-6.0-3.32","606eeec7742566e9d46a52c8","6552129e68c08af5079f912e","6552134fe30a2d45170ca6cf","267","./stimuli//pack_1/cat_1/ex_1_98.png","arrowleft","response","ArrowLeft","98","1","true",""
"","","","","","html-keyboard-response","219","215838","0.0-6.0-4.32","606eeec7742566e9d46a52c8","6552129e68c08af5079f912e","6552134fe30a2d45170ca6cf","null","<p> <font color=""green"" size=""4vw""> Correct category! </font> <br> <br> <font color=""green"" size=""7vw""> + $0.05 </font> </p>","null","feedback","","","","","1.4"
"","","","","","html-keyboard-response","220","216216","0.0-6.0-0.33","606eeec7742566e9d46a52c8","6552129e68c08af5079f912e","6552134fe30a2d45170ca6cf","377","
            
        <div style=""text-align: center; position: fixed; top: 5vh; left: 40vw;"">
            <div style=""margin:0 auto; width: 20vw; top: 8vh; font-size: 1vw""> 
            <font color=""green""> Bonus : $1.4 </font>
            </div>
        </div>
    
            <div> Please press any button to continue to the next trial.</div>
        "," ","ITI","","","","",""
"","","","","","html-keyboard-response","221","216817","0.0-6.0-1.33","606eeec7742566e9d46a52c8","6552129e68c08af5079f912e","6552134fe30a2d45170ca6cf","null","
        
        <div style=""text-align: center; position: fixed; top: 5vh; left: 40vw;"">
            <div style=""margin:0 auto; width: 20vw; top: 8vh; font-size: 1vw""> 
            <font color=""green""> Bonus : $1.4 </font>
            </div>
        </div>
    
        <img class=""stim"" src=./stimuli//pack_1/cat_2/ex_2_1.png></img>
    ","null","stimulus","","","","",""
"","","","","","html-keyboard-response","222","217831","0.0-6.0-2.33","606eeec7742566e9d46a52c8","6552129e68c08af5079f912e","6552134fe30a2d45170ca6cf","null","
        <div style=""text-align: center; position: fixed; top: 5vh; left: 40vw;"">
            <div style=""margin:0 auto; width: 20vw; top: 8vh; font-size: 1vw""> 
            <font color=""green""> Bonus : $1.4 </font>
            </div>
        </div>
    ","null","","","","","",""
"","","","","","html-keyboard-response","223","218280","0.0-6.0-3.33","606eeec7742566e9d46a52c8","6552129e68c08af5079f912e","6552134fe30a2d45170ca6cf","449","./stimuli//pack_1/cat_2/ex_2_1.png","arrowleft","response","ArrowRight","1","2","false",""
"","","","","","html-keyboard-response","224","219795","0.0-6.0-4.33","606eeec7742566e9d46a52c8","6552129e68c08af5079f912e","6552134fe30a2d45170ca6cf","null","<p> <font color=""red"" size=""4vw""> Wrong category! </font> </p>","null","feedback","","","","","1.4"
"","","","","","html-keyboard-response","225","220064","0.0-6.0-0.34","606eeec7742566e9d46a52c8","6552129e68c08af5079f912e","6552134fe30a2d45170ca6cf","268","
            
        <div style=""text-align: center; position: fixed; top: 5vh; left: 40vw;"">
            <div style=""margin:0 auto; width: 20vw; top: 8vh; font-size: 1vw""> 
            <font color=""green""> Bonus : $1.4 </font>
            </div>
        </div>
    
            <div> Please press any button to continue to the next trial.</div>
        "," ","ITI","","","","",""
"","","","","","html-keyboard-response","226","220671","0.0-6.0-1.34","606eeec7742566e9d46a52c8","6552129e68c08af5079f912e","6552134fe30a2d45170ca6cf","null","
        
        <div style=""text-align: center; position: fixed; top: 5vh; left: 40vw;"">
            <div style=""margin:0 auto; width: 20vw; top: 8vh; font-size: 1vw""> 
            <font color=""green""> Bonus : $1.4 </font>
            </div>
        </div>
    
        <img class=""stim"" src=./stimuli//pack_1/cat_2/ex_2_73.png></img>
    ","null","stimulus","","","","",""
"","","","","","html-keyboard-response","227","221679","0.0-6.0-2.34","606eeec7742566e9d46a52c8","6552129e68c08af5079f912e","6552134fe30a2d45170ca6cf","null","
        <div style=""text-align: center; position: fixed; top: 5vh; left: 40vw;"">
            <div style=""margin:0 auto; width: 20vw; top: 8vh; font-size: 1vw""> 
            <font color=""green""> Bonus : $1.4 </font>
            </div>
        </div>
    ","null","","","","","",""
"","","","","","html-keyboard-response","228","221928","0.0-6.0-3.34","606eeec7742566e9d46a52c8","6552129e68c08af5079f912e","6552134fe30a2d45170ca6cf","248","./stimuli//pack_1/cat_2/ex_2_73.png","arrowright","response","ArrowRight","73","2","true",""
"","","","","","html-keyboard-response","229","223430","0.0-6.0-4.34","606eeec7742566e9d46a52c8","6552129e68c08af5079f912e","6552134fe30a2d45170ca6cf","null","<p> <font color=""green"" size=""4vw""> Correct category! </font> <br> <br> <font color=""green"" size=""7vw""> + $0.05 </font> </p>","null","feedback","","","","","1.45"
"","","","","","html-keyboard-response","230","223800","0.0-6.0-0.35","606eeec7742566e9d46a52c8","6552129e68c08af5079f912e","6552134fe30a2d45170ca6cf","370","
            
        <div style=""text-align: center; position: fixed; top: 5vh; left: 40vw;"">
            <div style=""margin:0 auto; width: 20vw; top: 8vh; font-size: 1vw""> 
            <font color=""green""> Bonus : $1.45 </font>
            </div>
        </div>
    
            <div> Please press any button to continue to the next trial.</div>
        "," ","ITI","","","","",""
"","","","","","html-keyboard-response","231","224406","0.0-6.0-1.35","606eeec7742566e9d46a52c8","6552129e68c08af5079f912e","6552134fe30a2d45170ca6cf","null","
        
        <div style=""text-align: center; position: fixed; top: 5vh; left: 40vw;"">
            <div style=""margin:0 auto; width: 20vw; top: 8vh; font-size: 1vw""> 
            <font color=""green""> Bonus : $1.45 </font>
            </div>
        </div>
    
        <img class=""stim"" src=./stimuli//pack_1/cat_2/ex_2_86.png></img>
    ","null","stimulus","","","","",""
"","","","","","html-keyboard-response","232","225417","0.0-6.0-2.35","606eeec7742566e9d46a52c8","6552129e68c08af5079f912e","6552134fe30a2d45170ca6cf","null","
        <div style=""text-align: center; position: fixed; top: 5vh; left: 40vw;"">
            <div style=""margin:0 auto; width: 20vw; top: 8vh; font-size: 1vw""> 
            <font color=""green""> Bonus : $1.45 </font>
            </div>
        </div>
    ","null","","","","","",""
"","","","","","html-keyboard-response","233","225648","0.0-6.0-3.35","606eeec7742566e9d46a52c8","6552129e68c08af5079f912e","6552134fe30a2d45170ca6cf","230","./stimuli//pack_1/cat_2/ex_2_86.png","arrowright","response","ArrowRight","86","2","true",""
"","","","","","html-keyboard-response","234","227162","0.0-6.0-4.35","606eeec7742566e9d46a52c8","6552129e68c08af5079f912e","6552134fe30a2d45170ca6cf","null","<p> <font color=""green"" size=""4vw""> Correct category! </font> <br> <br> <font color=""green"" size=""7vw""> + $0.05 </font> </p>","null","feedback","","","","","1.5"
"","","","","","html-keyboard-response","235","227816","0.0-6.0-0.36","606eeec7742566e9d46a52c8","6552129e68c08af5079f912e","6552134fe30a2d45170ca6cf","653","
            
        <div style=""text-align: center; position: fixed; top: 5vh; left: 40vw;"">
            <div style=""margin:0 auto; width: 20vw; top: 8vh; font-size: 1vw""> 
            <font color=""green""> Bonus : $1.5 </font>
            </div>
        </div>
    
            <div> Please press any button to continue to the next trial.</div>
        "," ","ITI","","","","",""
"","","","","","html-keyboard-response","236","228424","0.0-6.0-1.36","606eeec7742566e9d46a52c8","6552129e68c08af5079f912e","6552134fe30a2d45170ca6cf","null","
        
        <div style=""text-align: center; position: fixed; top: 5vh; left: 40vw;"">
            <div style=""margin:0 auto; width: 20vw; top: 8vh; font-size: 1vw""> 
            <font color=""green""> Bonus : $1.5 </font>
            </div>
        </div>
    
        <img class=""stim"" src=./stimuli//pack_1/cat_2/ex_2_100.png></img>
    ","null","stimulus","","","","",""
"","","","","","html-keyboard-response","237","229436","0.0-6.0-2.36","606eeec7742566e9d46a52c8","6552129e68c08af5079f912e","6552134fe30a2d45170ca6cf","null","
        <div style=""text-align: center; position: fixed; top: 5vh; left: 40vw;"">
            <div style=""margin:0 auto; width: 20vw; top: 8vh; font-size: 1vw""> 
            <font color=""green""> Bonus : $1.5 </font>
            </div>
        </div>
