"success","timeout","failed_images","failed_audio","failed_video","trial_type","trial_index","time_elapsed","internal_node_id","subject_id","study_id","session_id","rt","stimulus","response","task","correct_response","exemplar_ID","category","correct","bonus"
"true","false","[]","[]","[]","preload","0","2","0.0-0.0","60d1294f69a16ae3ac6301cd","6552129e68c08af5079f912e","6552135479ec61a72642a288","","","","","","","","",""
"","","","","","html-keyboard-response","1","7222","0.0-1.0","60d1294f69a16ae3ac6301cd","6552129e68c08af5079f912e","6552135479ec61a72642a288","7219","Welcome to the Category Learning experiment! Press any key to continue."," ","welcome","","","","",""
"","","","","","html-keyboard-response","2","40731","0.0-2.0","60d1294f69a16ae3ac6301cd","6552129e68c08af5079f912e","6552135479ec61a72642a288","33508","
            <p>You will be shown images of patterns of black dots.  Some are category A, some are category B.
            <br>You will not know in advance which category a specific pattern belongs to.</p>
            <p>After you see an image, you will be asked to guess its category <b>(left arrow for category A, right arrow for category B)</b></p>
            <p>After you choose, the screen will show you whether you were correct or not.</p>
            <p><b>You will receive a bonus payment of $0.05 for each correct answer!</b></p>
            <p> So you can increase your bonus by guessing correctly, and by guessing as quickly as possible so you move on to the next image sooner.</p>
            <p>Press any key to continue.</p>
            "," ","introduction_1","","","","",""
"","","","","","html-keyboard-response","3","47909","0.0-3.0","60d1294f69a16ae3ac6301cd","6552129e68c08af5079f912e","6552135479ec61a72642a288","7177","
            <p> <b>The first 10 trials are a practice round that will not count towards your bonus payment.</b></p>
            <p> You will be notified when practice finishes and the test begins. </p>
            <p> Press any key to begin the practice round.</p>
            "," ","introduction_2","","","","",""
"","","","","","html-keyboard-response","4","53181","0.0-4.0-0.0","60d1294f69a16ae3ac6301cd","6552129e68c08af5079f912e","6552135479ec61a72642a288","5272","
            
        <div style=""text-align: center; position: fixed; top: 5vh; left: 40vw;"">
            <div style=""margin:0 auto; width: 20vw; top: 8vh; font-size: 1vw""> 
            <font color=""green""> Bonus : $0 </font>
            </div>
        </div>
    
            <div> Please press any button to continue to the next trial.</div>
        "," ","ITI","","","","",""
"","","","","","html-keyboard-response","5","53788","0.0-4.0-1.0","60d1294f69a16ae3ac6301cd","6552129e68c08af5079f912e","6552135479ec61a72642a288","null","
        
        <div style=""text-align: center; position: fixed; top: 5vh; left: 40vw;"">
            <div style=""margin:0 auto; width: 20vw; top: 8vh; font-size: 1vw""> 
            <font color=""green""> Bonus : $0 </font>
            </div>
        </div>
    
        <img class=""stim"" src=./stimuli//pack_1/cat_1/ex_1_51.png></img>
    ","null","stimulus","","","","",""
"","","","","","html-keyboard-response","6","54804","0.0-4.0-2.0","60d1294f69a16ae3ac6301cd","6552129e68c08af5079f912e","6552135479ec61a72642a288","null","
        <div style=""text-align: center; position: fixed; top: 5vh; left: 40vw;"">
            <div style=""margin:0 auto; width: 20vw; top: 8vh; font-size: 1vw""> 
            <font color=""green""> Bonus : $0 </font>
            </div>
        </div>
    ","null","","","","","",""
"","","","","","html-keyboard-response","7","58820","0.0-4.0-3.0","60d1294f69a16ae3ac6301cd","6552129e68c08af5079f912e","6552135479ec61a72642a288","null","./stimuli//pack_1/cat_1/ex_1_51.png","null","response","ArrowLeft","51","1","false",""
"","","","","","html-keyboard-response","8","60334","0.0-4.0-4.0","60d1294f69a16ae3ac6301cd","6552129e68c08af5079f912e","6552135479ec61a72642a288","null","<p> <font color=""red"" size=""5vw""> Time out! </font> <br> Please try to respond as quickly as possible. </p>","null","feedback","","","","","0"
"","","","","","html-keyboard-response","9","61755","0.0-4.0-0.1","60d1294f69a16ae3ac6301cd","6552129e68c08af5079f912e","6552135479ec61a72642a288","1420","
            
        <div style=""text-align: center; position: fixed; top: 5vh; left: 40vw;"">
            <div style=""margin:0 auto; width: 20vw; top: 8vh; font-size: 1vw""> 
            <font color=""green""> Bonus : $0 </font>
            </div>
        </div>
    
            <div> Please press any button to continue to the next trial.</div>
        ","arrowleft","ITI","","","","",""
"","","","","","html-keyboard-response","10","62365","0.0-4.0-1.1","60d1294f69a16ae3ac6301cd","6552129e68c08af5079f912e","6552135479ec61a72642a288","null","
        
        <div style=""text-align: center; position: fixed; top: 5vh; left: 40vw;"">
            <div style=""margin:0 auto; width: 20vw; top: 8vh; font-size: 1vw""> 
            <font color=""green""> Bonus : $0 </font>
            </div>
        </div>
    
        <img class=""stim"" src=./stimuli//pack_1/cat_1/ex_1_31.png></img>
    ","null","stimulus","","","","",""
"","","","","","html-keyboard-response","11","63367","0.0-4.0-2.1","60d1294f69a16ae3ac6301cd","6552129e68c08af5079f912e","6552135479ec61a72642a288","null","
        <div style=""text-align: center; position: fixed; top: 5vh; left: 40vw;"">
            <div style=""margin:0 auto; width: 20vw; top: 8vh; font-size: 1vw""> 
            <font color=""green""> Bonus : $0 </font>
            </div>
        </div>
    ","null","","","","","",""
"","","","","","html-keyboard-response","12","65342","0.0-4.0-3.1","60d1294f69a16ae3ac6301cd","6552129e68c08af5079f912e","6552135479ec61a72642a288","1974","./stimuli//pack_1/cat_1/ex_1_31.png","arrowright","response","ArrowLeft","31","1","false",""
"","","","","","html-keyboard-response","13","66849","0.0-4.0-4.1","60d1294f69a16ae3ac6301cd","6552129e68c08af5079f912e","6552135479ec61a72642a288","null","<p> <font color=""red"" size=""4vw""> Wrong category! </font> </p>","null","feedback","","","","","0"
"","","","","","html-keyboard-response","14","70910","0.0-4.0-0.2","60d1294f69a16ae3ac6301cd","6552129e68c08af5079f912e","6552135479ec61a72642a288","4060","
            
        <div style=""text-align: center; position: fixed; top: 5vh; left: 40vw;"">
            <div style=""margin:0 auto; width: 20vw; top: 8vh; font-size: 1vw""> 
            <font color=""green""> Bonus : $0 </font>
            </div>
        </div>
    
            <div> Please press any button to continue to the next trial.</div>
        "," ","ITI","","","","",""
"","","","","","html-keyboard-response","15","71525","0.0-4.0-1.2","60d1294f69a16ae3ac6301cd","6552129e68c08af5079f912e","6552135479ec61a72642a288","null","
        
        <div style=""text-align: center; position: fixed; top: 5vh; left: 40vw;"">
            <div style=""margin:0 auto; width: 20vw; top: 8vh; font-size: 1vw""> 
            <font color=""green""> Bonus : $0 </font>
            </div>
        </div>
    
        <img class=""stim"" src=./stimuli//pack_1/cat_1/ex_1_77.png></img>
    ","null","stimulus","","","","",""
"","","","","","html-keyboard-response","16","72527","0.0-4.0-2.2","60d1294f69a16ae3ac6301cd","6552129e68c08af5079f912e","6552135479ec61a72642a288","null","
        <div style=""text-align: center; position: fixed; top: 5vh; left: 40vw;"">
            <div style=""margin:0 auto; width: 20vw; top: 8vh; font-size: 1vw""> 
            <font color=""green""> Bonus : $0 </font>
            </div>
        </div>
    ","null","","","","","",""
"","","","","","html-keyboard-response","17","73059","0.0-4.0-3.2","60d1294f69a16ae3ac6301cd","6552129e68c08af5079f912e","6552135479ec61a72642a288","531","./stimuli//pack_1/cat_1/ex_1_77.png","arrowright","response","ArrowLeft","77","1","false",""
"","","","","","html-keyboard-response","18","74570","0.0-4.0-4.2","60d1294f69a16ae3ac6301cd","6552129e68c08af5079f912e","6552135479ec61a72642a288","null","<p> <font color=""red"" size=""4vw""> Wrong category! </font> </p>","null","feedback","","","","","0"
"","","","","","html-keyboard-response","19","75426","0.0-4.0-0.3","60d1294f69a16ae3ac6301cd","6552129e68c08af5079f912e","6552135479ec61a72642a288","855","
            
        <div style=""text-align: center; position: fixed; top: 5vh; left: 40vw;"">
            <div style=""margin:0 auto; width: 20vw; top: 8vh; font-size: 1vw""> 
            <font color=""green""> Bonus : $0 </font>
            </div>
        </div>
    
            <div> Please press any button to continue to the next trial.</div>
        "," ","ITI","","","","",""
"","","","","","html-keyboard-response","20","76028","0.0-4.0-1.3","60d1294f69a16ae3ac6301cd","6552129e68c08af5079f912e","6552135479ec61a72642a288","null","
        
        <div style=""text-align: center; position: fixed; top: 5vh; left: 40vw;"">
            <div style=""margin:0 auto; width: 20vw; top: 8vh; font-size: 1vw""> 
            <font color=""green""> Bonus : $0 </font>
            </div>
        </div>
    
        <img class=""stim"" src=./stimuli//pack_1/cat_2/ex_2_72.png></img>
    ","null","stimulus","","","","",""
"","","","","","html-keyboard-response","21","77032","0.0-4.0-2.3","60d1294f69a16ae3ac6301cd","6552129e68c08af5079f912e","6552135479ec61a72642a288","null","
        <div style=""text-align: center; position: fixed; top: 5vh; left: 40vw;"">
            <div style=""margin:0 auto; width: 20vw; top: 8vh; font-size: 1vw""> 
            <font color=""green""> Bonus : $0 </font>
            </div>
        </div>
    ","null","","","","","",""
"","","","","","html-keyboard-response","22","78175","0.0-4.0-3.3","60d1294f69a16ae3ac6301cd","6552129e68c08af5079f912e","6552135479ec61a72642a288","1142","./stimuli//pack_1/cat_2/ex_2_72.png","arrowleft","response","ArrowRight","72","2","false",""
"","","","","","html-keyboard-response","23","79691","0.0-4.0-4.3","60d1294f69a16ae3ac6301cd","6552129e68c08af5079f912e","6552135479ec61a72642a288","null","<p> <font color=""red"" size=""4vw""> Wrong category! </font> </p>","null","feedback","","","","","0"
"","","","","","html-keyboard-response","24","80072","0.0-4.0-0.4","60d1294f69a16ae3ac6301cd","6552129e68c08af5079f912e","6552135479ec61a72642a288","381","
            
        <div style=""text-align: center; position: fixed; top: 5vh; left: 40vw;"">
            <div style=""margin:0 auto; width: 20vw; top: 8vh; font-size: 1vw""> 
            <font color=""green""> Bonus : $0 </font>
            </div>
        </div>
    
            <div> Please press any button to continue to the next trial.</div>
        "," ","ITI","","","","",""
"","","","","","html-keyboard-response","25","80679","0.0-4.0-1.4","60d1294f69a16ae3ac6301cd","6552129e68c08af5079f912e","6552135479ec61a72642a288","null","
        
        <div style=""text-align: center; position: fixed; top: 5vh; left: 40vw;"">
            <div style=""margin:0 auto; width: 20vw; top: 8vh; font-size: 1vw""> 
            <font color=""green""> Bonus : $0 </font>
            </div>
        </div>
    
        <img class=""stim"" src=./stimuli//pack_1/cat_2/ex_2_78.png></img>
    ","null","stimulus","","","","",""
"","","","","","html-keyboard-response","26","81694","0.0-4.0-2.4","60d1294f69a16ae3ac6301cd","6552129e68c08af5079f912e","6552135479ec61a72642a288","null","
        <div style=""text-align: center; position: fixed; top: 5vh; left: 40vw;"">
            <div style=""margin:0 auto; width: 20vw; top: 8vh; font-size: 1vw""> 
            <font color=""green""> Bonus : $0 </font>
            </div>
        </div>
    ","null","","","","","",""
"","","","","","html-keyboard-response","27","82328","0.0-4.0-3.4","60d1294f69a16ae3ac6301cd","6552129e68c08af5079f912e","6552135479ec61a72642a288","634","./stimuli//pack_1/cat_2/ex_2_78.png","arrowleft","response","ArrowRight","78","2","false",""
"","","","","","html-keyboard-response","28","83746","0.0-4.0-4.4","60d1294f69a16ae3ac6301cd","6552129e68c08af5079f912e","6552135479ec61a72642a288","1417","<p> <font color=""red"" size=""4vw""> Wrong category! </font> </p>"," ","feedback","","","","","0"
"","","","","","html-keyboard-response","29","84804","0.0-4.0-0.5","60d1294f69a16ae3ac6301cd","6552129e68c08af5079f912e","6552135479ec61a72642a288","1058","
            
        <div style=""text-align: center; position: fixed; top: 5vh; left: 40vw;"">
            <div style=""margin:0 auto; width: 20vw; top: 8vh; font-size: 1vw""> 
            <font color=""green""> Bonus : $0 </font>
            </div>
        </div>
    
            <div> Please press any button to continue to the next trial.</div>
        "," ","ITI","","","","",""
"","","","","","html-keyboard-response","30","85409","0.0-4.0-1.5","60d1294f69a16ae3ac6301cd","6552129e68c08af5079f912e","6552135479ec61a72642a288","null","
        
        <div style=""text-align: center; position: fixed; top: 5vh; left: 40vw;"">
            <div style=""margin:0 auto; width: 20vw; top: 8vh; font-size: 1vw""> 
            <font color=""green""> Bonus : $0 </font>
            </div>
        </div>
    
        <img class=""stim"" src=./stimuli//pack_1/cat_2/ex_2_32.png></img>
    ","null","stimulus","","","","",""
"","","","","","html-keyboard-response","31","86425","0.0-4.0-2.5","60d1294f69a16ae3ac6301cd","6552129e68c08af5079f912e","6552135479ec61a72642a288","null","
        <div style=""text-align: center; position: fixed; top: 5vh; left: 40vw;"">
            <div style=""margin:0 auto; width: 20vw; top: 8vh; font-size: 1vw""> 
            <font color=""green""> Bonus : $0 </font>
            </div>
        </div>
    ","null","","","","","",""
"","","","","","html-keyboard-response","32","87021","0.0-4.0-3.5","60d1294f69a16ae3ac6301cd","6552129e68c08af5079f912e","6552135479ec61a72642a288","595","./stimuli//pack_1/cat_2/ex_2_32.png","arrowright","response","ArrowRight","32","2","true",""
"","","","","","html-keyboard-response","33","88533","0.0-4.0-4.5","60d1294f69a16ae3ac6301cd","6552129e68c08af5079f912e","6552135479ec61a72642a288","null","<p> <font color=""green"" size=""4vw""> Correct category! </font> </p>","null","feedback","","","","","0"
"","","","","","html-keyboard-response","34","89385","0.0-4.0-0.6","60d1294f69a16ae3ac6301cd","6552129e68c08af5079f912e","6552135479ec61a72642a288","851","
            
        <div style=""text-align: center; position: fixed; top: 5vh; left: 40vw;"">
            <div style=""margin:0 auto; width: 20vw; top: 8vh; font-size: 1vw""> 
            <font color=""green""> Bonus : $0 </font>
            </div>
        </div>
    
            <div> Please press any button to continue to the next trial.</div>
        "," ","ITI","","","","",""
"","","","","","html-keyboard-response","35","89997","0.0-4.0-1.6","60d1294f69a16ae3ac6301cd","6552129e68c08af5079f912e","6552135479ec61a72642a288","null","
        
        <div style=""text-align: center; position: fixed; top: 5vh; left: 40vw;"">
            <div style=""margin:0 auto; width: 20vw; top: 8vh; font-size: 1vw""> 
            <font color=""green""> Bonus : $0 </font>
            </div>
        </div>
    
        <img class=""stim"" src=./stimuli//pack_1/cat_2/ex_2_61.png></img>
    ","null","stimulus","","","","",""
"","","","","","html-keyboard-response","36","91001","0.0-4.0-2.6","60d1294f69a16ae3ac6301cd","6552129e68c08af5079f912e","6552135479ec61a72642a288","null","
        <div style=""text-align: center; position: fixed; top: 5vh; left: 40vw;"">
            <div style=""margin:0 auto; width: 20vw; top: 8vh; font-size: 1vw""> 
            <font color=""green""> Bonus : $0 </font>
            </div>
        </div>
    ","null","","","","","",""
"","","","","","html-keyboard-response","37","91256","0.0-4.0-3.6","60d1294f69a16ae3ac6301cd","6552129e68c08af5079f912e","6552135479ec61a72642a288","254","./stimuli//pack_1/cat_2/ex_2_61.png","arrowright","response","ArrowRight","61","2","true",""
"","","","","","html-keyboard-response","38","92758","0.0-4.0-4.6","60d1294f69a16ae3ac6301cd","6552129e68c08af5079f912e","6552135479ec61a72642a288","null","<p> <font color=""green"" size=""4vw""> Correct category! </font> </p>","null","feedback","","","","","0"
"","","","","","html-keyboard-response","39","92773","0.0-4.0-0.7","60d1294f69a16ae3ac6301cd","6552129e68c08af5079f912e","6552135479ec61a72642a288","15","
            
        <div style=""text-align: center; position: fixed; top: 5vh; left: 40vw;"">
            <div style=""margin:0 auto; width: 20vw; top: 8vh; font-size: 1vw""> 
            <font color=""green""> Bonus : $0 </font>
            </div>
        </div>
    
            <div> Please press any button to continue to the next trial.</div>
        "," ","ITI","","","","",""
"","","","","","html-keyboard-response","40","93386","0.0-4.0-1.7","60d1294f69a16ae3ac6301cd","6552129e68c08af5079f912e","6552135479ec61a72642a288","null","
        
        <div style=""text-align: center; position: fixed; top: 5vh; left: 40vw;"">
            <div style=""margin:0 auto; width: 20vw; top: 8vh; font-size: 1vw""> 
            <font color=""green""> Bonus : $0 </font>
            </div>
        </div>
    
        <img class=""stim"" src=./stimuli//pack_1/cat_1/ex_1_71.png></img>
    ","null","stimulus","","","","",""
"","","","","","html-keyboard-response","41","94392","0.0-4.0-2.7","60d1294f69a16ae3ac6301cd","6552129e68c08af5079f912e","6552135479ec61a72642a288","null","
        <div style=""text-align: center; position: fixed; top: 5vh; left: 40vw;"">
            <div style=""margin:0 auto; width: 20vw; top: 8vh; font-size: 1vw""> 
            <font color=""green""> Bonus : $0 </font>
            </div>
        </div>
    ","null","","","","","",""
"","","","","","html-keyboard-response","42","94717","0.0-4.0-3.7","60d1294f69a16ae3ac6301cd","6552129e68c08af5079f912e","6552135479ec61a72642a288","324","./stimuli//pack_1/cat_1/ex_1_71.png","arrowright","response","ArrowLeft","71","1","false",""
"","","","","","html-keyboard-response","43","95204","0.0-4.0-4.7","60d1294f69a16ae3ac6301cd","6552129e68c08af5079f912e","6552135479ec61a72642a288","487","<p> <font color=""red"" size=""4vw""> Wrong category! </font> </p>","arrowright","feedback","","","","","0"
"","","","","","html-keyboard-response","44","95765","0.0-4.0-0.8","60d1294f69a16ae3ac6301cd","6552129e68c08af5079f912e","6552135479ec61a72642a288","561","
            
        <div style=""text-align: center; position: fixed; top: 5vh; left: 40vw;"">
            <div style=""margin:0 auto; width: 20vw; top: 8vh; font-size: 1vw""> 
            <font color=""green""> Bonus : $0 </font>
            </div>
        </div>
    
            <div> Please press any button to continue to the next trial.</div>
        "," ","ITI","","","","",""
"","","","","","html-keyboard-response","45","96367","0.0-4.0-1.8","60d1294f69a16ae3ac6301cd","6552129e68c08af5079f912e","6552135479ec61a72642a288","null","
        
        <div style=""text-align: center; position: fixed; top: 5vh; left: 40vw;"">
            <div style=""margin:0 auto; width: 20vw; top: 8vh; font-size: 1vw""> 
            <font color=""green""> Bonus : $0 </font>
            </div>
        </div>
    
        <img class=""stim"" src=./stimuli//pack_1/cat_1/ex_1_10.png></img>
    ","null","stimulus","","","","",""
"","","","","","html-keyboard-response","46","97383","0.0-4.0-2.8","60d1294f69a16ae3ac6301cd","6552129e68c08af5079f912e","6552135479ec61a72642a288","null","
        <div style=""text-align: center; position: fixed; top: 5vh; left: 40vw;"">
            <div style=""margin:0 auto; width: 20vw; top: 8vh; font-size: 1vw""> 
            <font color=""green""> Bonus : $0 </font>
            </div>
        </div>
    ","null","","","","","",""
"","","","","","html-keyboard-response","47","97831","0.0-4.0-3.8","60d1294f69a16ae3ac6301cd","6552129e68c08af5079f912e","6552135479ec61a72642a288","447","./stimuli//pack_1/cat_1/ex_1_10.png","arrowright","response","ArrowLeft","10","1","false",""
"","","","","","html-keyboard-response","48","98473","0.0-4.0-4.8","60d1294f69a16ae3ac6301cd","6552129e68c08af5079f912e","6552135479ec61a72642a288","641","<p> <font color=""red"" size=""4vw""> Wrong category! </font> </p>","arrowright","feedback","","","","","0"
"","","","","","html-keyboard-response","49","99063","0.0-4.0-0.9","60d1294f69a16ae3ac6301cd","6552129e68c08af5079f912e","6552135479ec61a72642a288","590","
            
        <div style=""text-align: center; position: fixed; top: 5vh; left: 40vw;"">
            <div style=""margin:0 auto; width: 20vw; top: 8vh; font-size: 1vw""> 
            <font color=""green""> Bonus : $0 </font>
            </div>
        </div>
    
            <div> Please press any button to continue to the next trial.</div>
        ","arrowright","ITI","","","","",""
"","","","","","html-keyboard-response","50","99666","0.0-4.0-1.9","60d1294f69a16ae3ac6301cd","6552129e68c08af5079f912e","6552135479ec61a72642a288","null","
        
        <div style=""text-align: center; position: fixed; top: 5vh; left: 40vw;"">
            <div style=""margin:0 auto; width: 20vw; top: 8vh; font-size: 1vw""> 
            <font color=""green""> Bonus : $0 </font>
            </div>
        </div>
    
        <img class=""stim"" src=./stimuli//pack_1/cat_2/ex_2_53.png></img>
    ","null","stimulus","","","","",""
"","","","","","html-keyboard-response","51","100670","0.0-4.0-2.9","60d1294f69a16ae3ac6301cd","6552129e68c08af5079f912e","6552135479ec61a72642a288","null","
        <div style=""text-align: center; position: fixed; top: 5vh; left: 40vw;"">
            <div style=""margin:0 auto; width: 20vw; top: 8vh; font-size: 1vw""> 
            <font color=""green""> Bonus : $0 </font>
            </div>
        </div>
    ","null","","","","","",""
"","","","","","html-keyboard-response","52","100693","0.0-4.0-3.9","60d1294f69a16ae3ac6301cd","6552129e68c08af5079f912e","6552135479ec61a72642a288","22","./stimuli//pack_1/cat_2/ex_2_53.png","arrowright","response","ArrowRight","53","2","true",""
"","","","","","html-keyboard-response","53","101221","0.0-4.0-4.9","60d1294f69a16ae3ac6301cd","6552129e68c08af5079f912e","6552135479ec61a72642a288","528","<p> <font color=""green"" size=""4vw""> Correct category! </font> </p>","arrowright","feedback","","","","","0"
"","","","","","html-keyboard-response","54","103732","0.0-5.0","60d1294f69a16ae3ac6301cd","6552129e68c08af5079f912e","6552135479ec61a72642a288","2510","
            <b> <p> The practice round has finished.</p>
            <b> For the rest of the experiment you will receive a $0.05 bonus for each correct answer!</b>
            <p> Press any key to begin the test. </p>
            "," ","intermission","","","","",""
"","","","","","html-keyboard-response","55","105301","0.0-6.0-0.0","60d1294f69a16ae3ac6301cd","6552129e68c08af5079f912e","6552135479ec61a72642a288","1569","
            
        <div style=""text-align: center; position: fixed; top: 5vh; left: 40vw;"">
            <div style=""margin:0 auto; width: 20vw; top: 8vh; font-size: 1vw""> 
            <font color=""green""> Bonus : $0 </font>
            </div>
        </div>
    
            <div> Please press any button to continue to the next trial.</div>
        "," ","ITI","","","","",""
"","","","","","html-keyboard-response","56","105904","0.0-6.0-1.0","60d1294f69a16ae3ac6301cd","6552129e68c08af5079f912e","6552135479ec61a72642a288","null","
        
        <div style=""text-align: center; position: fixed; top: 5vh; left: 40vw;"">
            <div style=""margin:0 auto; width: 20vw; top: 8vh; font-size: 1vw""> 
            <font color=""green""> Bonus : $0 </font>
            </div>
        </div>
    
        <img class=""stim"" src=./stimuli//pack_1/cat_2/ex_2_84.png></img>
    ","null","stimulus","","","","",""
"","","","","","html-keyboard-response","57","106909","0.0-6.0-2.0","60d1294f69a16ae3ac6301cd","6552129e68c08af5079f912e","6552135479ec61a72642a288","null","
        <div style=""text-align: center; position: fixed; top: 5vh; left: 40vw;"">
            <div style=""margin:0 auto; width: 20vw; top: 8vh; font-size: 1vw""> 
            <font color=""green""> Bonus : $0 </font>
            </div>
        </div>
    ","null","","","","","",""
"","","","","","html-keyboard-response","58","106966","0.0-6.0-3.0","60d1294f69a16ae3ac6301cd","6552129e68c08af5079f912e","6552135479ec61a72642a288","57","./stimuli//pack_1/cat_2/ex_2_84.png","arrowright","response","ArrowRight","84","2","true",""
"","","","","","html-keyboard-response","59","107914","0.0-6.0-4.0","60d1294f69a16ae3ac6301cd","6552129e68c08af5079f912e","6552135479ec61a72642a288","947","<p> <font color=""green"" size=""4vw""> Correct category! </font> <br> <br> <font color=""green"" size=""7vw""> + $0.05 </font> </p>","arrowright","feedback","","","","","0.05"
"","","","","","html-keyboard-response","60","108833","0.0-6.0-0.1","60d1294f69a16ae3ac6301cd","6552129e68c08af5079f912e","6552135479ec61a72642a288","918","
            
        <div style=""text-align: center; position: fixed; top: 5vh; left: 40vw;"">
            <div style=""margin:0 auto; width: 20vw; top: 8vh; font-size: 1vw""> 
            <font color=""green""> Bonus : $0.05 </font>
            </div>
        </div>
    
            <div> Please press any button to continue to the next trial.</div>
        ","arrowright","ITI","","","","",""
"","","","","","html-keyboard-response","61","109435","0.0-6.0-1.1","60d1294f69a16ae3ac6301cd","6552129e68c08af5079f912e","6552135479ec61a72642a288","null","
        
        <div style=""text-align: center; position: fixed; top: 5vh; left: 40vw;"">
            <div style=""margin:0 auto; width: 20vw; top: 8vh; font-size: 1vw""> 
            <font color=""green""> Bonus : $0.05 </font>
            </div>
        </div>
    
        <img class=""stim"" src=./stimuli//pack_1/cat_2/ex_2_60.png></img>
    ","null","stimulus","","","","",""
"","","","","","html-keyboard-response","62","110440","0.0-6.0-2.1","60d1294f69a16ae3ac6301cd","6552129e68c08af5079f912e","6552135479ec61a72642a288","null","
        <div style=""text-align: center; position: fixed; top: 5vh; left: 40vw;"">
            <div style=""margin:0 auto; width: 20vw; top: 8vh; font-size: 1vw""> 
            <font color=""green""> Bonus : $0.05 </font>
            </div>
        </div>
    ","null","","","","","",""
"","","","","","html-keyboard-response","63","110721","0.0-6.0-3.1","60d1294f69a16ae3ac6301cd","6552129e68c08af5079f912e","6552135479ec61a72642a288","280","./stimuli//pack_1/cat_2/ex_2_60.png","arrowright","response","ArrowRight","60","2","true",""
"","","","","","html-keyboard-response","64","111578","0.0-6.0-4.1","60d1294f69a16ae3ac6301cd","6552129e68c08af5079f912e","6552135479ec61a72642a288","856","<p> <font color=""green"" size=""4vw""> Correct category! </font> <br> <br> <font color=""green"" size=""7vw""> + $0.05 </font> </p>","arrowright","feedback","","","","","0.1"
"","","","","","html-keyboard-response","65","112505","0.0-6.0-0.2","60d1294f69a16ae3ac6301cd","6552129e68c08af5079f912e","6552135479ec61a72642a288","926","
            
        <div style=""text-align: center; position: fixed; top: 5vh; left: 40vw;"">
            <div style=""margin:0 auto; width: 20vw; top: 8vh; font-size: 1vw""> 
            <font color=""green""> Bonus : $0.1 </font>
            </div>
        </div>
    
            <div> Please press any button to continue to the next trial.</div>
        ","arrowright","ITI","","","","",""
"","","","","","html-keyboard-response","66","113110","0.0-6.0-1.2","60d1294f69a16ae3ac6301cd","6552129e68c08af5079f912e","6552135479ec61a72642a288","null","
        
        <div style=""text-align: center; position: fixed; top: 5vh; left: 40vw;"">
            <div style=""margin:0 auto; width: 20vw; top: 8vh; font-size: 1vw""> 
            <font color=""green""> Bonus : $0.1 </font>
            </div>
        </div>
    
        <img class=""stim"" src=./stimuli//pack_1/cat_2/ex_2_14.png></img>
    ","null","stimulus","","","","",""
"","","","","","html-keyboard-response","67","114117","0.0-6.0-2.2","60d1294f69a16ae3ac6301cd","6552129e68c08af5079f912e","6552135479ec61a72642a288","null","
        <div style=""text-align: center; position: fixed; top: 5vh; left: 40vw;"">
            <div style=""margin:0 auto; width: 20vw; top: 8vh; font-size: 1vw""> 
            <font color=""green""> Bonus : $0.1 </font>
            </div>
        </div>
    ","null","","","","","",""
"","","","","","html-keyboard-response","68","114142","0.0-6.0-3.2","60d1294f69a16ae3ac6301cd","6552129e68c08af5079f912e","6552135479ec61a72642a288","24","./stimuli//pack_1/cat_2/ex_2_14.png","arrowright","response","ArrowRight","14","2","true",""
"","","","","","html-keyboard-response","69","115078","0.0-6.0-4.2","60d1294f69a16ae3ac6301cd","6552129e68c08af5079f912e","6552135479ec61a72642a288","936","<p> <font color=""green"" size=""4vw""> Correct category! </font> <br> <br> <font color=""green"" size=""7vw""> + $0.05 </font> </p>","arrowright","feedback","","","","","0.15"
"","","","","","html-keyboard-response","70","115730","0.0-6.0-0.3","60d1294f69a16ae3ac6301cd","6552129e68c08af5079f912e","6552135479ec61a72642a288","651","
            
        <div style=""text-align: center; position: fixed; top: 5vh; left: 40vw;"">
            <div style=""margin:0 auto; width: 20vw; top: 8vh; font-size: 1vw""> 
            <font color=""green""> Bonus : $0.15 </font>
            </div>
        </div>
    
            <div> Please press any button to continue to the next trial.</div>
        ","arrowright","ITI","","","","",""
"","","","","","html-keyboard-response","71","116334","0.0-6.0-1.3","60d1294f69a16ae3ac6301cd","6552129e68c08af5079f912e","6552135479ec61a72642a288","null","
        
        <div style=""text-align: center; position: fixed; top: 5vh; left: 40vw;"">
            <div style=""margin:0 auto; width: 20vw; top: 8vh; font-size: 1vw""> 
            <font color=""green""> Bonus : $0.15 </font>
            </div>
        </div>
    
        <img class=""stim"" src=./stimuli//pack_1/cat_2/ex_2_28.png></img>
    ","null","stimulus","","","","",""
"","","","","","html-keyboard-response","72","117337","0.0-6.0-2.3","60d1294f69a16ae3ac6301cd","6552129e68c08af5079f912e","6552135479ec61a72642a288","null","
        <div style=""text-align: center; position: fixed; top: 5vh; left: 40vw;"">
            <div style=""margin:0 auto; width: 20vw; top: 8vh; font-size: 1vw""> 
            <font color=""green""> Bonus : $0.15 </font>
            </div>
        </div>
    ","null","","","","","",""
"","","","","","html-keyboard-response","73","117797","0.0-6.0-3.3","60d1294f69a16ae3ac6301cd","6552129e68c08af5079f912e","6552135479ec61a72642a288","460","./stimuli//pack_1/cat_2/ex_2_28.png","arrowright","response","ArrowRight","28","2","true",""
"","","","","","html-keyboard-response","74","118470","0.0-6.0-4.3","60d1294f69a16ae3ac6301cd","6552129e68c08af5079f912e","6552135479ec61a72642a288","673","<p> <font color=""green"" size=""4vw""> Correct category! </font> <br> <br> <font color=""green"" size=""7vw""> + $0.05 </font> </p>","arrowright","feedback","","","","","0.2"
"","","","","","html-keyboard-response","75","119020","0.0-6.0-0.4","60d1294f69a16ae3ac6301cd","6552129e68c08af5079f912e","6552135479ec61a72642a288","550","
            
        <div style=""text-align: center; position: fixed; top: 5vh; left: 40vw;"">
            <div style=""margin:0 auto; width: 20vw; top: 8vh; font-size: 1vw""> 
            <font color=""green""> Bonus : $0.2 </font>
            </div>
        </div>
    
            <div> Please press any button to continue to the next trial.</div>
        ","arrowright","ITI","","","","",""
"","","","","","html-keyboard-response","76","119628","0.0-6.0-1.4","60d1294f69a16ae3ac6301cd","6552129e68c08af5079f912e","6552135479ec61a72642a288","null","
        
        <div style=""text-align: center; position: fixed; top: 5vh; left: 40vw;"">
            <div style=""margin:0 auto; width: 20vw; top: 8vh; font-size: 1vw""> 
            <font color=""green""> Bonus : $0.2 </font>
            </div>
        </div>
    
        <img class=""stim"" src=./stimuli//pack_1/cat_2/ex_2_11.png></img>
    ","null","stimulus","","","","",""
"","","","","","html-keyboard-response","77","120631","0.0-6.0-2.4","60d1294f69a16ae3ac6301cd","6552129e68c08af5079f912e","6552135479ec61a72642a288","null","
        <div style=""text-align: center; position: fixed; top: 5vh; left: 40vw;"">
            <div style=""margin:0 auto; width: 20vw; top: 8vh; font-size: 1vw""> 
            <font color=""green""> Bonus : $0.2 </font>
            </div>
        </div>
    ","null","","","","","",""
"","","","","","html-keyboard-response","78","121136","0.0-6.0-3.4","60d1294f69a16ae3ac6301cd","6552129e68c08af5079f912e","6552135479ec61a72642a288","504","./stimuli//pack_1/cat_2/ex_2_11.png","arrowright","response","ArrowRight","11","2","true",""
"","","","","","html-keyboard-response","79","121726","0.0-6.0-4.4","60d1294f69a16ae3ac6301cd","6552129e68c08af5079f912e","6552135479ec61a72642a288","590","<p> <font color=""green"" size=""4vw""> Correct category! </font> <br> <br> <font color=""green"" size=""7vw""> + $0.05 </font> </p>","arrowright","feedback","","","","","0.25"
"","","","","","html-keyboard-response","80","122306","0.0-6.0-0.5","60d1294f69a16ae3ac6301cd","6552129e68c08af5079f912e","6552135479ec61a72642a288","579","
            
        <div style=""text-align: center; position: fixed; top: 5vh; left: 40vw;"">
            <div style=""margin:0 auto; width: 20vw; top: 8vh; font-size: 1vw""> 
            <font color=""green""> Bonus : $0.25 </font>
            </div>
        </div>
    
            <div> Please press any button to continue to the next trial.</div>
        ","arrowright","ITI","","","","",""
"","","","","","html-keyboard-response","81","122919","0.0-6.0-1.5","60d1294f69a16ae3ac6301cd","6552129e68c08af5079f912e","6552135479ec61a72642a288","null","
        
        <div style=""text-align: center; position: fixed; top: 5vh; left: 40vw;"">
            <div style=""margin:0 auto; width: 20vw; top: 8vh; font-size: 1vw""> 
            <font color=""green""> Bonus : $0.25 </font>
            </div>
        </div>
    
        <img class=""stim"" src=./stimuli//pack_1/cat_1/ex_1_53.png></img>
    ","null","stimulus","","","","",""
"","","","","","html-keyboard-response","82","123934","0.0-6.0-2.5","60d1294f69a16ae3ac6301cd","6552129e68c08af5079f912e","6552135479ec61a72642a288","null","
        <div style=""text-align: center; position: fixed; top: 5vh; left: 40vw;"">
            <div style=""margin:0 auto; width: 20vw; top: 8vh; font-size: 1vw""> 
            <font color=""green""> Bonus : $0.25 </font>
            </div>
        </div>
    ","null","","","","","",""
"","","","","","html-keyboard-response","83","124219","0.0-6.0-3.5","60d1294f69a16ae3ac6301cd","6552129e68c08af5079f912e","6552135479ec61a72642a288","284","./stimuli//pack_1/cat_1/ex_1_53.png","arrowright","response","ArrowLeft","53","1","false",""
"","","","","","html-keyboard-response","84","124880","0.0-6.0-4.5","60d1294f69a16ae3ac6301cd","6552129e68c08af5079f912e","6552135479ec61a72642a288","660","<p> <font color=""red"" size=""4vw""> Wrong category! </font> </p>","arrowright","feedback","","","","","0.25"
"","","","","","html-keyboard-response","85","125390","0.0-6.0-0.6","60d1294f69a16ae3ac6301cd","6552129e68c08af5079f912e","6552135479ec61a72642a288","510","
            
        <div style=""text-align: center; position: fixed; top: 5vh; left: 40vw;"">
            <div style=""margin:0 auto; width: 20vw; top: 8vh; font-size: 1vw""> 
            <font color=""green""> Bonus : $0.25 </font>
            </div>
        </div>
    
            <div> Please press any button to continue to the next trial.</div>
        ","arrowright","ITI","","","","",""
"","","","","","html-keyboard-response","86","125999","0.0-6.0-1.6","60d1294f69a16ae3ac6301cd","6552129e68c08af5079f912e","6552135479ec61a72642a288","null","
        
        <div style=""text-align: center; position: fixed; top: 5vh; left: 40vw;"">
            <div style=""margin:0 auto; width: 20vw; top: 8vh; font-size: 1vw""> 
            <font color=""green""> Bonus : $0.25 </font>
            </div>
        </div>
    
        <img class=""stim"" src=./stimuli//pack_1/cat_1/ex_1_8.png></img>
    ","null","stimulus","","","","",""
"","","","","","html-keyboard-response","87","127015","0.0-6.0-2.6","60d1294f69a16ae3ac6301cd","6552129e68c08af5079f912e","6552135479ec61a72642a288","null","
        <div style=""text-align: center; position: fixed; top: 5vh; left: 40vw;"">
            <div style=""margin:0 auto; width: 20vw; top: 8vh; font-size: 1vw""> 
            <font color=""green""> Bonus : $0.25 </font>
            </div>
        </div>
    ","null","","","","","",""
"","","","","","html-keyboard-response","88","127191","0.0-6.0-3.6","60d1294f69a16ae3ac6301cd","6552129e68c08af5079f912e","6552135479ec61a72642a288","175","./stimuli//pack_1/cat_1/ex_1_8.png","arrowright","response","ArrowLeft","8","1","false",""
"","","","","","html-keyboard-response","89","127972","0.0-6.0-4.6","60d1294f69a16ae3ac6301cd","6552129e68c08af5079f912e","6552135479ec61a72642a288","781","<p> <font color=""red"" size=""4vw""> Wrong category! </font> </p>","arrowleft","feedback","","","","","0.25"
"","","","","","html-keyboard-response","90","128534","0.0-6.0-0.7","60d1294f69a16ae3ac6301cd","6552129e68c08af5079f912e","6552135479ec61a72642a288","562","
            
        <div style=""text-align: center; position: fixed; top: 5vh; left: 40vw;"">
            <div style=""margin:0 auto; width: 20vw; top: 8vh; font-size: 1vw""> 
            <font color=""green""> Bonus : $0.25 </font>
            </div>
        </div>
    
            <div> Please press any button to continue to the next trial.</div>
        ","arrowleft","ITI","","","","",""
"","","","","","html-keyboard-response","91","129150","0.0-6.0-1.7","60d1294f69a16ae3ac6301cd","6552129e68c08af5079f912e","6552135479ec61a72642a288","null","
        
        <div style=""text-align: center; position: fixed; top: 5vh; left: 40vw;"">
            <div style=""margin:0 auto; width: 20vw; top: 8vh; font-size: 1vw""> 
            <font color=""green""> Bonus : $0.25 </font>
            </div>
        </div>
    
        <img class=""stim"" src=./stimuli//pack_1/cat_1/ex_1_99.png></img>
    ","null","stimulus","","","","",""
"","","","","","html-keyboard-response","92","130165","0.0-6.0-2.7","60d1294f69a16ae3ac6301cd","6552129e68c08af5079f912e","6552135479ec61a72642a288","null","
        <div style=""text-align: center; position: fixed; top: 5vh; left: 40vw;"">
            <div style=""margin:0 auto; width: 20vw; top: 8vh; font-size: 1vw""> 
            <font color=""green""> Bonus : $0.25 </font>
            </div>
        </div>
    ","null","","","","","",""
"","","","","","html-keyboard-response","93","130255","0.0-6.0-3.7","60d1294f69a16ae3ac6301cd","6552129e68c08af5079f912e","6552135479ec61a72642a288","89","./stimuli//pack_1/cat_1/ex_1_99.png","arrowleft","response","ArrowLeft","99","1","true",""
"","","","","","html-keyboard-response","94","130875","0.0-6.0-4.7","60d1294f69a16ae3ac6301cd","6552129e68c08af5079f912e","6552135479ec61a72642a288","620","<p> <font color=""green"" size=""4vw""> Correct category! </font> <br> <br> <font color=""green"" size=""7vw""> + $0.05 </font> </p>","arrowleft","feedback","","","","","0.3"
"","","","","","html-keyboard-response","95","131384","0.0-6.0-0.8","60d1294f69a16ae3ac6301cd","6552129e68c08af5079f912e","6552135479ec61a72642a288","508","
            
        <div style=""text-align: center; position: fixed; top: 5vh; left: 40vw;"">
            <div style=""margin:0 auto; width: 20vw; top: 8vh; font-size: 1vw""> 
            <font color=""green""> Bonus : $0.3 </font>
            </div>
        </div>
    
            <div> Please press any button to continue to the next trial.</div>
        ","arrowleft","ITI","","","","",""
"","","","","","html-keyboard-response","96","131993","0.0-6.0-1.8","60d1294f69a16ae3ac6301cd","6552129e68c08af5079f912e","6552135479ec61a72642a288","null","
        
        <div style=""text-align: center; position: fixed; top: 5vh; left: 40vw;"">
            <div style=""margin:0 auto; width: 20vw; top: 8vh; font-size: 1vw""> 
            <font color=""green""> Bonus : $0.3 </font>
            </div>
        </div>
    
        <img class=""stim"" src=./stimuli//pack_1/cat_2/ex_2_43.png></img>
    ","null","stimulus","","","","",""
"","","","","","html-keyboard-response","97","132996","0.0-6.0-2.8","60d1294f69a16ae3ac6301cd","6552129e68c08af5079f912e","6552135479ec61a72642a288","null","
        <div style=""text-align: center; position: fixed; top: 5vh; left: 40vw;"">
            <div style=""margin:0 auto; width: 20vw; top: 8vh; font-size: 1vw""> 
            <font color=""green""> Bonus : $0.3 </font>
            </div>
        </div>
    ","null","","","","","",""
"","","","","","html-keyboard-response","98","133024","0.0-6.0-3.8","60d1294f69a16ae3ac6301cd","6552129e68c08af5079f912e","6552135479ec61a72642a288","27","./stimuli//pack_1/cat_2/ex_2_43.png","arrowleft","response","ArrowRight","43","2","false",""
"","","","","","html-keyboard-response","99","133698","0.0-6.0-4.8","60d1294f69a16ae3ac6301cd","6552129e68c08af5079f912e","6552135479ec61a72642a288","674","<p> <font color=""red"" size=""4vw""> Wrong category! </font> </p>","arrowleft","feedback","","","","","0.3"
"","","","","","html-keyboard-response","100","134210","0.0-6.0-0.9","60d1294f69a16ae3ac6301cd","6552129e68c08af5079f912e","6552135479ec61a72642a288","511","
            
        <div style=""text-align: center; position: fixed; top: 5vh; left: 40vw;"">
            <div style=""margin:0 auto; width: 20vw; top: 8vh; font-size: 1vw""> 
            <font color=""green""> Bonus : $0.3 </font>
            </div>
        </div>
    
            <div> Please press any button to continue to the next trial.</div>
        ","arrowleft","ITI","","","","",""
"","","","","","html-keyboard-response","101","134826","0.0-6.0-1.9","60d1294f69a16ae3ac6301cd","6552129e68c08af5079f912e","6552135479ec61a72642a288","null","
        
        <div style=""text-align: center; position: fixed; top: 5vh; left: 40vw;"">
            <div style=""margin:0 auto; width: 20vw; top: 8vh; font-size: 1vw""> 
            <font color=""green""> Bonus : $0.3 </font>
            </div>
        </div>
    
        <img class=""stim"" src=./stimuli//pack_1/cat_2/ex_2_37.png></img>
    ","null","stimulus","","","","",""
"","","","","","html-keyboard-response","102","135831","0.0-6.0-2.9","60d1294f69a16ae3ac6301cd","6552129e68c08af5079f912e","6552135479ec61a72642a288","null","
        <div style=""text-align: center; position: fixed; top: 5vh; left: 40vw;"">
            <div style=""margin:0 auto; width: 20vw; top: 8vh; font-size: 1vw""> 
            <font color=""green""> Bonus : $0.3 </font>
            </div>
        </div>
    ","null","","","","","",""
"","","","","","html-keyboard-response","103","136295","0.0-6.0-3.9","60d1294f69a16ae3ac6301cd","6552129e68c08af5079f912e","6552135479ec61a72642a288","463","./stimuli//pack_1/cat_2/ex_2_37.png","arrowleft","response","ArrowRight","37","2","false",""
"","","","","","html-keyboard-response","104","136995","0.0-6.0-4.9","60d1294f69a16ae3ac6301cd","6552129e68c08af5079f912e","6552135479ec61a72642a288","700","<p> <font color=""red"" size=""4vw""> Wrong category! </font> </p>","arrowright","feedback","","","","","0.3"
"","","","","","html-keyboard-response","105","137513","0.0-6.0-0.10","60d1294f69a16ae3ac6301cd","6552129e68c08af5079f912e","6552135479ec61a72642a288","517","
            
        <div style=""text-align: center; position: fixed; top: 5vh; left: 40vw;"">
            <div style=""margin:0 auto; width: 20vw; top: 8vh; font-size: 1vw""> 
            <font color=""green""> Bonus : $0.3 </font>
            </div>
        </div>
    
            <div> Please press any button to continue to the next trial.</div>
        ","arrowright","ITI","","","","",""
"","","","","","html-keyboard-response","106","138129","0.0-6.0-1.10","60d1294f69a16ae3ac6301cd","6552129e68c08af5079f912e","6552135479ec61a72642a288","null","
        
        <div style=""text-align: center; position: fixed; top: 5vh; left: 40vw;"">
            <div style=""margin:0 auto; width: 20vw; top: 8vh; font-size: 1vw""> 
            <font color=""green""> Bonus : $0.3 </font>
            </div>
        </div>
    
        <img class=""stim"" src=./stimuli//pack_1/cat_1/ex_1_24.png></img>
    ","null","stimulus","","","","",""
"","","","","","html-keyboard-response","107","139135","0.0-6.0-2.10","60d1294f69a16ae3ac6301cd","6552129e68c08af5079f912e","6552135479ec61a72642a288","null","
        <div style=""text-align: center; position: fixed; top: 5vh; left: 40vw;"">
            <div style=""margin:0 auto; width: 20vw; top: 8vh; font-size: 1vw""> 
            <font color=""green""> Bonus : $0.3 </font>
            </div>
        </div>
    ","null","","","","","",""
"","","","","","html-keyboard-response","108","139560","0.0-6.0-3.10","60d1294f69a16ae3ac6301cd","6552129e68c08af5079f912e","6552135479ec61a72642a288","425","./stimuli//pack_1/cat_1/ex_1_24.png","arrowright","response","ArrowLeft","24","1","false",""
"","","","","","html-keyboard-response","109","140028","0.0-6.0-4.10","60d1294f69a16ae3ac6301cd","6552129e68c08af5079f912e","6552135479ec61a72642a288","468","<p> <font color=""red"" size=""4vw""> Wrong category! </font> </p>","arrowright","feedback","","","","","0.3"
"","","","","","html-keyboard-response","110","140579","0.0-6.0-0.11","60d1294f69a16ae3ac6301cd","6552129e68c08af5079f912e","6552135479ec61a72642a288","550","
            
        <div style=""text-align: center; position: fixed; top: 5vh; left: 40vw;"">
            <div style=""margin:0 auto; width: 20vw; top: 8vh; font-size: 1vw""> 
            <font color=""green""> Bonus : $0.3 </font>
            </div>
        </div>
    
            <div> Please press any button to continue to the next trial.</div>
        ","arrowright","ITI","","","","",""
"","","","","","html-keyboard-response","111","141189","0.0-6.0-1.11","60d1294f69a16ae3ac6301cd","6552129e68c08af5079f912e","6552135479ec61a72642a288","null","
        
        <div style=""text-align: center; position: fixed; top: 5vh; left: 40vw;"">
            <div style=""margin:0 auto; width: 20vw; top: 8vh; font-size: 1vw""> 
            <font color=""green""> Bonus : $0.3 </font>
            </div>
        </div>
    
        <img class=""stim"" src=./stimuli//pack_1/cat_2/ex_2_63.png></img>
    ","null","stimulus","","","","",""
"","","","","","html-keyboard-response","112","142205","0.0-6.0-2.11","60d1294f69a16ae3ac6301cd","6552129e68c08af5079f912e","6552135479ec61a72642a288","null","
        <div style=""text-align: center; position: fixed; top: 5vh; left: 40vw;"">
            <div style=""margin:0 auto; width: 20vw; top: 8vh; font-size: 1vw""> 
            <font color=""green""> Bonus : $0.3 </font>
            </div>
        </div>
    ","null","","","","","",""
"","","","","","html-keyboard-response","113","142209","0.0-6.0-3.11","60d1294f69a16ae3ac6301cd","6552129e68c08af5079f912e","6552135479ec61a72642a288","3","./stimuli//pack_1/cat_2/ex_2_63.png","arrowright","response","ArrowRight","63","2","true",""
"","","","","","html-keyboard-response","114","142760","0.0-6.0-4.11","60d1294f69a16ae3ac6301cd","6552129e68c08af5079f912e","6552135479ec61a72642a288","551","<p> <font color=""green"" size=""4vw""> Correct category! </font> <br> <br> <font color=""green"" size=""7vw""> + $0.05 </font> </p>","arrowright","feedback","","","","","0.35"
"","","","","","html-keyboard-response","115","143227","0.0-6.0-0.12","60d1294f69a16ae3ac6301cd","6552129e68c08af5079f912e","6552135479ec61a72642a288","467","
            
        <div style=""text-align: center; position: fixed; top: 5vh; left: 40vw;"">
            <div style=""margin:0 auto; width: 20vw; top: 8vh; font-size: 1vw""> 
            <font color=""green""> Bonus : $0.35 </font>
            </div>
        </div>
    
            <div> Please press any button to continue to the next trial.</div>
        ","arrowright","ITI","","","","",""
"","","","","","html-keyboard-response","116","143835","0.0-6.0-1.12","60d1294f69a16ae3ac6301cd","6552129e68c08af5079f912e","6552135479ec61a72642a288","null","
        
        <div style=""text-align: center; position: fixed; top: 5vh; left: 40vw;"">
            <div style=""margin:0 auto; width: 20vw; top: 8vh; font-size: 1vw""> 
            <font color=""green""> Bonus : $0.35 </font>
            </div>
        </div>
    
        <img class=""stim"" src=./stimuli//pack_1/cat_1/ex_1_29.png></img>
    ","null","stimulus","","","","",""
"","","","","","html-keyboard-response","117","144838","0.0-6.0-2.12","60d1294f69a16ae3ac6301cd","6552129e68c08af5079f912e","6552135479ec61a72642a288","null","
        <div style=""text-align: center; position: fixed; top: 5vh; left: 40vw;"">
            <div style=""margin:0 auto; width: 20vw; top: 8vh; font-size: 1vw""> 
            <font color=""green""> Bonus : $0.35 </font>
            </div>
        </div>
    ","null","","","","","",""
"","","","","","html-keyboard-response","118","145243","0.0-6.0-3.12","60d1294f69a16ae3ac6301cd","6552129e68c08af5079f912e","6552135479ec61a72642a288","404","./stimuli//pack_1/cat_1/ex_1_29.png","arrowright","response","ArrowLeft","29","1","false",""
"","","","","","html-keyboard-response","119","145873","0.0-6.0-4.12","60d1294f69a16ae3ac6301cd","6552129e68c08af5079f912e","6552135479ec61a72642a288","630","<p> <font color=""red"" size=""4vw""> Wrong category! </font> </p>","arrowright","feedback","","","","","0.35"
"","","","","","html-keyboard-response","120","146290","0.0-6.0-0.13","60d1294f69a16ae3ac6301cd","6552129e68c08af5079f912e","6552135479ec61a72642a288","416","
            
        <div style=""text-align: center; position: fixed; top: 5vh; left: 40vw;"">
            <div style=""margin:0 auto; width: 20vw; top: 8vh; font-size: 1vw""> 
            <font color=""green""> Bonus : $0.35 </font>
            </div>
        </div>
    
            <div> Please press any button to continue to the next trial.</div>
        ","arrowright","ITI","","","","",""
"","","","","","html-keyboard-response","121","146891","0.0-6.0-1.13","60d1294f69a16ae3ac6301cd","6552129e68c08af5079f912e","6552135479ec61a72642a288","null","
        
        <div style=""text-align: center; position: fixed; top: 5vh; left: 40vw;"">
            <div style=""margin:0 auto; width: 20vw; top: 8vh; font-size: 1vw""> 
            <font color=""green""> Bonus : $0.35 </font>
            </div>
        </div>
    
        <img class=""stim"" src=./stimuli//pack_1/cat_2/ex_2_17.png></img>
    ","null","stimulus","","","","",""
"","","","","","html-keyboard-response","122","147892","0.0-6.0-2.13","60d1294f69a16ae3ac6301cd","6552129e68c08af5079f912e","6552135479ec61a72642a288","null","
        <div style=""text-align: center; position: fixed; top: 5vh; left: 40vw;"">
            <div style=""margin:0 auto; width: 20vw; top: 8vh; font-size: 1vw""> 
            <font color=""green""> Bonus : $0.35 </font>
            </div>
        </div>
    ","null","","","","","",""
"","","","","","html-keyboard-response","123","147930","0.0-6.0-3.13","60d1294f69a16ae3ac6301cd","6552129e68c08af5079f912e","6552135479ec61a72642a288","37","./stimuli//pack_1/cat_2/ex_2_17.png","arrowright","response","ArrowRight","17","2","true",""
"","","","","","html-keyboard-response","124","148430","0.0-6.0-4.13","60d1294f69a16ae3ac6301cd","6552129e68c08af5079f912e","6552135479ec61a72642a288","500","<p> <font color=""green"" size=""4vw""> Correct category! </font> <br> <br> <font color=""green"" size=""7vw""> + $0.05 </font> </p>","arrowright","feedback","","","","","0.4"
"","","","","","html-keyboard-response","125","148938","0.0-6.0-0.14","60d1294f69a16ae3ac6301cd","6552129e68c08af5079f912e","6552135479ec61a72642a288","508","
            
        <div style=""text-align: center; position: fixed; top: 5vh; left: 40vw;"">
            <div style=""margin:0 auto; width: 20vw; top: 8vh; font-size: 1vw""> 
            <font color=""green""> Bonus : $0.4 </font>
            </div>
        </div>
    
            <div> Please press any button to continue to the next trial.</div>
        ","arrowright","ITI","","","","",""
"","","","","","html-keyboard-response","126","149552","0.0-6.0-1.14","60d1294f69a16ae3ac6301cd","6552129e68c08af5079f912e","6552135479ec61a72642a288","null","
        
        <div style=""text-align: center; position: fixed; top: 5vh; left: 40vw;"">
            <div style=""margin:0 auto; width: 20vw; top: 8vh; font-size: 1vw""> 
            <font color=""green""> Bonus : $0.4 </font>
            </div>
        </div>
    
        <img class=""stim"" src=./stimuli//pack_1/cat_1/ex_1_97.png></img>
    ","null","stimulus","","","","",""
"","","","","","html-keyboard-response","127","150555","0.0-6.0-2.14","60d1294f69a16ae3ac6301cd","6552129e68c08af5079f912e","6552135479ec61a72642a288","null","
        <div style=""text-align: center; position: fixed; top: 5vh; left: 40vw;"">
            <div style=""margin:0 auto; width: 20vw; top: 8vh; font-size: 1vw""> 
            <font color=""green""> Bonus : $0.4 </font>
            </div>
        </div>
    ","null","","","","","",""
"","","","","","html-keyboard-response","128","150965","0.0-6.0-3.14","60d1294f69a16ae3ac6301cd","6552129e68c08af5079f912e","6552135479ec61a72642a288","410","./stimuli//pack_1/cat_1/ex_1_97.png","arrowright","response","ArrowLeft","97","1","false",""
"","","","","","html-keyboard-response","129","151401","0.0-6.0-4.14","60d1294f69a16ae3ac6301cd","6552129e68c08af5079f912e","6552135479ec61a72642a288","435","<p> <font color=""red"" size=""4vw""> Wrong category! </font> </p>","arrowright","feedback","","","","","0.4"
"","","","","","html-keyboard-response","130","151840","0.0-6.0-0.15","60d1294f69a16ae3ac6301cd","6552129e68c08af5079f912e","6552135479ec61a72642a288","438","
            
        <div style=""text-align: center; position: fixed; top: 5vh; left: 40vw;"">
            <div style=""margin:0 auto; width: 20vw; top: 8vh; font-size: 1vw""> 
            <font color=""green""> Bonus : $0.4 </font>
            </div>
        </div>
    
            <div> Please press any button to continue to the next trial.</div>
        ","arrowright","ITI","","","","",""
"","","","","","html-keyboard-response","131","152443","0.0-6.0-1.15","60d1294f69a16ae3ac6301cd","6552129e68c08af5079f912e","6552135479ec61a72642a288","null","
        
        <div style=""text-align: center; position: fixed; top: 5vh; left: 40vw;"">
            <div style=""margin:0 auto; width: 20vw; top: 8vh; font-size: 1vw""> 
            <font color=""green""> Bonus : $0.4 </font>
            </div>
        </div>
    
        <img class=""stim"" src=./stimuli//pack_1/cat_2/ex_2_36.png></img>
    ","null","stimulus","","","","",""
"","","","","","html-keyboard-response","132","153449","0.0-6.0-2.15","60d1294f69a16ae3ac6301cd","6552129e68c08af5079f912e","6552135479ec61a72642a288","null","
        <div style=""text-align: center; position: fixed; top: 5vh; left: 40vw;"">
            <div style=""margin:0 auto; width: 20vw; top: 8vh; font-size: 1vw""> 
            <font color=""green""> Bonus : $0.4 </font>
            </div>
        </div>
    ","null","","","","","",""
"","","","","","html-keyboard-response","133","153815","0.0-6.0-3.15","60d1294f69a16ae3ac6301cd","6552129e68c08af5079f912e","6552135479ec61a72642a288","365","./stimuli//pack_1/cat_2/ex_2_36.png","arrowright","response","ArrowRight","36","2","true",""
"","","","","","html-keyboard-response","134","154300","0.0-6.0-4.15","60d1294f69a16ae3ac6301cd","6552129e68c08af5079f912e","6552135479ec61a72642a288","485","<p> <font color=""green"" size=""4vw""> Correct category! </font> <br> <br> <font color=""green"" size=""7vw""> + $0.05 </font> </p>","arrowright","feedback","","","","","0.45"
"","","","","","html-keyboard-response","135","154770","0.0-6.0-0.16","60d1294f69a16ae3ac6301cd","6552129e68c08af5079f912e","6552135479ec61a72642a288","470","
            
        <div style=""text-align: center; position: fixed; top: 5vh; left: 40vw;"">
            <div style=""margin:0 auto; width: 20vw; top: 8vh; font-size: 1vw""> 
            <font color=""green""> Bonus : $0.45 </font>
            </div>
        </div>
    
            <div> Please press any button to continue to the next trial.</div>
        ","arrowright","ITI","","","","",""
"","","","","","html-keyboard-response","136","155378","0.0-6.0-1.16","60d1294f69a16ae3ac6301cd","6552129e68c08af5079f912e","6552135479ec61a72642a288","null","
        
        <div style=""text-align: center; position: fixed; top: 5vh; left: 40vw;"">
            <div style=""margin:0 auto; width: 20vw; top: 8vh; font-size: 1vw""> 
            <font color=""green""> Bonus : $0.45 </font>
            </div>
        </div>
    
        <img class=""stim"" src=./stimuli//pack_1/cat_1/ex_1_57.png></img>
    ","null","stimulus","","","","",""
"","","","","","html-keyboard-response","137","156382","0.0-6.0-2.16","60d1294f69a16ae3ac6301cd","6552129e68c08af5079f912e","6552135479ec61a72642a288","null","
        <div style=""text-align: center; position: fixed; top: 5vh; left: 40vw;"">
            <div style=""margin:0 auto; width: 20vw; top: 8vh; font-size: 1vw""> 
            <font color=""green""> Bonus : $0.45 </font>
            </div>
        </div>
    ","null","","","","","",""
"","","","","","html-keyboard-response","138","156850","0.0-6.0-3.16","60d1294f69a16ae3ac6301cd","6552129e68c08af5079f912e","6552135479ec61a72642a288","468","./stimuli//pack_1/cat_1/ex_1_57.png","arrowright","response","ArrowLeft","57","1","false",""
"","","","","","html-keyboard-response","139","157348","0.0-6.0-4.16","60d1294f69a16ae3ac6301cd","6552129e68c08af5079f912e","6552135479ec61a72642a288","497","<p> <font color=""red"" size=""4vw""> Wrong category! </font> </p>","arrowright","feedback","","","","","0.45"
"","","","","","html-keyboard-response","140","157774","0.0-6.0-0.17","60d1294f69a16ae3ac6301cd","6552129e68c08af5079f912e","6552135479ec61a72642a288","425","
            
        <div style=""text-align: center; position: fixed; top: 5vh; left: 40vw;"">
            <div style=""margin:0 auto; width: 20vw; top: 8vh; font-size: 1vw""> 
            <font color=""green""> Bonus : $0.45 </font>
            </div>
        </div>
    
            <div> Please press any button to continue to the next trial.</div>
        ","arrowright","ITI","","","","",""
"","","","","","html-keyboard-response","141","158385","0.0-6.0-1.17","60d1294f69a16ae3ac6301cd","6552129e68c08af5079f912e","6552135479ec61a72642a288","null","
        
        <div style=""text-align: center; position: fixed; top: 5vh; left: 40vw;"">
            <div style=""margin:0 auto; width: 20vw; top: 8vh; font-size: 1vw""> 
            <font color=""green""> Bonus : $0.45 </font>
            </div>
        </div>
    
        <img class=""stim"" src=./stimuli//pack_1/cat_2/ex_2_49.png></img>
    ","null","stimulus","","","","",""
"","","","","","html-keyboard-response","142","159389","0.0-6.0-2.17","60d1294f69a16ae3ac6301cd","6552129e68c08af5079f912e","6552135479ec61a72642a288","null","
        <div style=""text-align: center; position: fixed; top: 5vh; left: 40vw;"">
            <div style=""margin:0 auto; width: 20vw; top: 8vh; font-size: 1vw""> 
            <font color=""green""> Bonus : $0.45 </font>
            </div>
        </div>
    ","null","","","","","",""
"","","","","","html-keyboard-response","143","159710","0.0-6.0-3.17","60d1294f69a16ae3ac6301cd","6552129e68c08af5079f912e","6552135479ec61a72642a288","320","./stimuli//pack_1/cat_2/ex_2_49.png","arrowright","response","ArrowRight","49","2","true",""
"","","","","","html-keyboard-response","144","160196","0.0-6.0-4.17","60d1294f69a16ae3ac6301cd","6552129e68c08af5079f912e","6552135479ec61a72642a288","486","<p> <font color=""green"" size=""4vw""> Correct category! </font> <br> <br> <font color=""green"" size=""7vw""> + $0.05 </font> </p>","arrowright","feedback","","","","","0.5"
"","","","","","html-keyboard-response","145","160645","0.0-6.0-0.18","60d1294f69a16ae3ac6301cd","6552129e68c08af5079f912e","6552135479ec61a72642a288","448","
            
        <div style=""text-align: center; position: fixed; top: 5vh; left: 40vw;"">
            <div style=""margin:0 auto; width: 20vw; top: 8vh; font-size: 1vw""> 
            <font color=""green""> Bonus : $0.5 </font>
            </div>
        </div>
    
            <div> Please press any button to continue to the next trial.</div>
        ","arrowright","ITI","","","","",""
"","","","","","html-keyboard-response","146","161248","0.0-6.0-1.18","60d1294f69a16ae3ac6301cd","6552129e68c08af5079f912e","6552135479ec61a72642a288","null","
        
        <div style=""text-align: center; position: fixed; top: 5vh; left: 40vw;"">
            <div style=""margin:0 auto; width: 20vw; top: 8vh; font-size: 1vw""> 
            <font color=""green""> Bonus : $0.5 </font>
            </div>
        </div>
    
        <img class=""stim"" src=./stimuli//pack_1/cat_1/ex_1_28.png></img>
    ","null","stimulus","","","","",""
"","","","","","html-keyboard-response","147","162262","0.0-6.0-2.18","60d1294f69a16ae3ac6301cd","6552129e68c08af5079f912e","6552135479ec61a72642a288","null","
        <div style=""text-align: center; position: fixed; top: 5vh; left: 40vw;"">
            <div style=""margin:0 auto; width: 20vw; top: 8vh; font-size: 1vw""> 
            <font color=""green""> Bonus : $0.5 </font>
            </div>
        </div>
    ","null","","","","","",""
"","","","","","html-keyboard-response","148","162650","0.0-6.0-3.18","60d1294f69a16ae3ac6301cd","6552129e68c08af5079f912e","6552135479ec61a72642a288","387","./stimuli//pack_1/cat_1/ex_1_28.png","arrowright","response","ArrowLeft","28","1","false",""
"","","","","","html-keyboard-response","149","163139","0.0-6.0-4.18","60d1294f69a16ae3ac6301cd","6552129e68c08af5079f912e","6552135479ec61a72642a288","489","<p> <font color=""red"" size=""4vw""> Wrong category! </font> </p>","arrowright","feedback","","","","","0.5"
"","","","","","html-keyboard-response","150","163689","0.0-6.0-0.19","60d1294f69a16ae3ac6301cd","6552129e68c08af5079f912e","6552135479ec61a72642a288","549","
            
        <div style=""text-align: center; position: fixed; top: 5vh; left: 40vw;"">
            <div style=""margin:0 auto; width: 20vw; top: 8vh; font-size: 1vw""> 
            <font color=""green""> Bonus : $0.5 </font>
            </div>
        </div>
    
            <div> Please press any button to continue to the next trial.</div>
        ","arrowright","ITI","","","","",""
"","","","","","html-keyboard-response","151","164296","0.0-6.0-1.19","60d1294f69a16ae3ac6301cd","6552129e68c08af5079f912e","6552135479ec61a72642a288","null","
        
        <div style=""text-align: center; position: fixed; top: 5vh; left: 40vw;"">
            <div style=""margin:0 auto; width: 20vw; top: 8vh; font-size: 1vw""> 
            <font color=""green""> Bonus : $0.5 </font>
            </div>
        </div>
    
        <img class=""stim"" src=./stimuli//pack_1/cat_2/ex_2_12.png></img>
    ","null","stimulus","","","","",""
"","","","","","html-keyboard-response","152","165298","0.0-6.0-2.19","60d1294f69a16ae3ac6301cd","6552129e68c08af5079f912e","6552135479ec61a72642a288","null","
        <div style=""text-align: center; position: fixed; top: 5vh; left: 40vw;"">
            <div style=""margin:0 auto; width: 20vw; top: 8vh; font-size: 1vw""> 
            <font color=""green""> Bonus : $0.5 </font>
            </div>
        </div>
    ","null","","","","","",""
"","","","","","html-keyboard-response","153","165735","0.0-6.0-3.19","60d1294f69a16ae3ac6301cd","6552129e68c08af5079f912e","6552135479ec61a72642a288","436","./stimuli//pack_1/cat_2/ex_2_12.png","arrowright","response","ArrowRight","12","2","true",""
"","","","","","html-keyboard-response","154","166221","0.0-6.0-4.19","60d1294f69a16ae3ac6301cd","6552129e68c08af5079f912e","6552135479ec61a72642a288","486","<p> <font color=""green"" size=""4vw""> Correct category! </font> <br> <br> <font color=""green"" size=""7vw""> + $0.05 </font> </p>","arrowright","feedback","","","","","0.55"
"","","","","","html-keyboard-response","155","166791","0.0-6.0-0.20","60d1294f69a16ae3ac6301cd","6552129e68c08af5079f912e","6552135479ec61a72642a288","570","
            
        <div style=""text-align: center; position: fixed; top: 5vh; left: 40vw;"">
            <div style=""margin:0 auto; width: 20vw; top: 8vh; font-size: 1vw""> 
            <font color=""green""> Bonus : $0.55 </font>
            </div>
        </div>
    
            <div> Please press any button to continue to the next trial.</div>
        ","arrowright","ITI","","","","",""
"","","","","","html-keyboard-response","156","167405","0.0-6.0-1.20","60d1294f69a16ae3ac6301cd","6552129e68c08af5079f912e","6552135479ec61a72642a288","null","
        
        <div style=""text-align: center; position: fixed; top: 5vh; left: 40vw;"">
            <div style=""margin:0 auto; width: 20vw; top: 8vh; font-size: 1vw""> 
            <font color=""green""> Bonus : $0.55 </font>
            </div>
        </div>
    
        <img class=""stim"" src=./stimuli//pack_1/cat_2/ex_2_26.png></img>
    ","null","stimulus","","","","",""
"","","","","","html-keyboard-response","157","168420","0.0-6.0-2.20","60d1294f69a16ae3ac6301cd","6552129e68c08af5079f912e","6552135479ec61a72642a288","null","
        <div style=""text-align: center; position: fixed; top: 5vh; left: 40vw;"">
            <div style=""margin:0 auto; width: 20vw; top: 8vh; font-size: 1vw""> 
            <font color=""green""> Bonus : $0.55 </font>
            </div>
        </div>
    ","null","","","","","",""
"","","","","","html-keyboard-response","158","168616","0.0-6.0-3.20","60d1294f69a16ae3ac6301cd","6552129e68c08af5079f912e","6552135479ec61a72642a288","195","./stimuli//pack_1/cat_2/ex_2_26.png","arrowright","response","ArrowRight","26","2","true",""
"","","","","","html-keyboard-response","159","169165","0.0-6.0-4.20","60d1294f69a16ae3ac6301cd","6552129e68c08af5079f912e","6552135479ec61a72642a288","548","<p> <font color=""green"" size=""4vw""> Correct category! </font> <br> <br> <font color=""green"" size=""7vw""> + $0.05 </font> </p>","arrowright","feedback","","","","","0.6"
"","","","","","html-keyboard-response","160","169714","0.0-6.0-0.21","60d1294f69a16ae3ac6301cd","6552129e68c08af5079f912e","6552135479ec61a72642a288","549","
            
        <div style=""text-align: center; position: fixed; top: 5vh; left: 40vw;"">
            <div style=""margin:0 auto; width: 20vw; top: 8vh; font-size: 1vw""> 
            <font color=""green""> Bonus : $0.6 </font>
            </div>
        </div>
    
            <div> Please press any button to continue to the next trial.</div>
        ","arrowright","ITI","","","","",""
"","","","","","html-keyboard-response","161","170315","0.0-6.0-1.21","60d1294f69a16ae3ac6301cd","6552129e68c08af5079f912e","6552135479ec61a72642a288","null","
        
        <div style=""text-align: center; position: fixed; top: 5vh; left: 40vw;"">
            <div style=""margin:0 auto; width: 20vw; top: 8vh; font-size: 1vw""> 
            <font color=""green""> Bonus : $0.6 </font>
            </div>
        </div>
    
        <img class=""stim"" src=./stimuli//pack_1/cat_1/ex_1_39.png></img>
    ","null","stimulus","","","","",""
"","","","","","html-keyboard-response","162","171331","0.0-6.0-2.21","60d1294f69a16ae3ac6301cd","6552129e68c08af5079f912e","6552135479ec61a72642a288","null","
        <div style=""text-align: center; position: fixed; top: 5vh; left: 40vw;"">
            <div style=""margin:0 auto; width: 20vw; top: 8vh; font-size: 1vw""> 
            <font color=""green""> Bonus : $0.6 </font>
            </div>
        </div>
    ","null","","","","","",""
"","","","","","html-keyboard-response","163","171617","0.0-6.0-3.21","60d1294f69a16ae3ac6301cd","6552129e68c08af5079f912e","6552135479ec61a72642a288","286","./stimuli//pack_1/cat_1/ex_1_39.png","arrowright","response","ArrowLeft","39","1","false",""
"","","","","","html-keyboard-response","164","172189","0.0-6.0-4.21","60d1294f69a16ae3ac6301cd","6552129e68c08af5079f912e","6552135479ec61a72642a288","571","<p> <font color=""red"" size=""4vw""> Wrong category! </font> </p>","arrowright","feedback","","","","","0.6"
"","","","","","html-keyboard-response","165","172625","0.0-6.0-0.22","60d1294f69a16ae3ac6301cd","6552129e68c08af5079f912e","6552135479ec61a72642a288","436","
            
        <div style=""text-align: center; position: fixed; top: 5vh; left: 40vw;"">
            <div style=""margin:0 auto; width: 20vw; top: 8vh; font-size: 1vw""> 
            <font color=""green""> Bonus : $0.6 </font>
            </div>
        </div>
    
            <div> Please press any button to continue to the next trial.</div>
        ","arrowright","ITI","","","","",""
"","","","","","html-keyboard-response","166","173238","0.0-6.0-1.22","60d1294f69a16ae3ac6301cd","6552129e68c08af5079f912e","6552135479ec61a72642a288","null","
        
        <div style=""text-align: center; position: fixed; top: 5vh; left: 40vw;"">
            <div style=""margin:0 auto; width: 20vw; top: 8vh; font-size: 1vw""> 
            <font color=""green""> Bonus : $0.6 </font>
            </div>
        </div>
    
        <img class=""stim"" src=./stimuli//pack_1/cat_2/ex_2_35.png></img>
    ","null","stimulus","","","","",""
"","","","","","html-keyboard-response","167","174241","0.0-6.0-2.22","60d1294f69a16ae3ac6301cd","6552129e68c08af5079f912e","6552135479ec61a72642a288","null","
        <div style=""text-align: center; position: fixed; top: 5vh; left: 40vw;"">
            <div style=""margin:0 auto; width: 20vw; top: 8vh; font-size: 1vw""> 
            <font color=""green""> Bonus : $0.6 </font>
            </div>
        </div>
    ","null","","","","","",""
"","","","","","html-keyboard-response","168","174344","0.0-6.0-3.22","60d1294f69a16ae3ac6301cd","6552129e68c08af5079f912e","6552135479ec61a72642a288","102","./stimuli//pack_1/cat_2/ex_2_35.png","arrowright","response","ArrowRight","35","2","true",""
"","","","","","html-keyboard-response","169","174934","0.0-6.0-4.22","60d1294f69a16ae3ac6301cd","6552129e68c08af5079f912e","6552135479ec61a72642a288","590","<p> <font color=""green"" size=""4vw""> Correct category! </font> <br> <br> <font color=""green"" size=""7vw""> + $0.05 </font> </p>","arrowright","feedback","","","","","0.65"
"","","","","","html-keyboard-response","170","175481","0.0-6.0-0.23","60d1294f69a16ae3ac6301cd","6552129e68c08af5079f912e","6552135479ec61a72642a288","547","
            
        <div style=""text-align: center; position: fixed; top: 5vh; left: 40vw;"">
            <div style=""margin:0 auto; width: 20vw; top: 8vh; font-size: 1vw""> 
            <font color=""green""> Bonus : $0.65 </font>
            </div>
        </div>
    
            <div> Please press any button to continue to the next trial.</div>
        ","arrowright","ITI","","","","",""
"","","","","","html-keyboard-response","171","176087","0.0-6.0-1.23","60d1294f69a16ae3ac6301cd","6552129e68c08af5079f912e","6552135479ec61a72642a288","null","
        
        <div style=""text-align: center; position: fixed; top: 5vh; left: 40vw;"">
            <div style=""margin:0 auto; width: 20vw; top: 8vh; font-size: 1vw""> 
            <font color=""green""> Bonus : $0.65 </font>
            </div>
        </div>
    
        <img class=""stim"" src=./stimuli//pack_1/cat_2/ex_2_4.png></img>
    ","null","stimulus","","","","",""
"","","","","","html-keyboard-response","172","177090","0.0-6.0-2.23","60d1294f69a16ae3ac6301cd","6552129e68c08af5079f912e","6552135479ec61a72642a288","null","
        <div style=""text-align: center; position: fixed; top: 5vh; left: 40vw;"">
            <div style=""margin:0 auto; width: 20vw; top: 8vh; font-size: 1vw""> 
            <font color=""green""> Bonus : $0.65 </font>
            </div>
        </div>
    ","null","","","","","",""
"","","","","","html-keyboard-response","173","177112","0.0-6.0-3.23","60d1294f69a16ae3ac6301cd","6552129e68c08af5079f912e","6552135479ec61a72642a288","21","./stimuli//pack_1/cat_2/ex_2_4.png","arrowright","response","ArrowRight","4","2","true",""
"","","","","","html-keyboard-response","174","177651","0.0-6.0-4.23","60d1294f69a16ae3ac6301cd","6552129e68c08af5079f912e","6552135479ec61a72642a288","539","<p> <font color=""green"" size=""4vw""> Correct category! </font> <br> <br> <font color=""green"" size=""7vw""> + $0.05 </font> </p>","arrowright","feedback","","","","","0.7"
"","","","","","html-keyboard-response","175","178141","0.0-6.0-0.24","60d1294f69a16ae3ac6301cd","6552129e68c08af5079f912e","6552135479ec61a72642a288","489","
            
        <div style=""text-align: center; position: fixed; top: 5vh; left: 40vw;"">
            <div style=""margin:0 auto; width: 20vw; top: 8vh; font-size: 1vw""> 
            <font color=""green""> Bonus : $0.7 </font>
            </div>
        </div>
    
            <div> Please press any button to continue to the next trial.</div>
        ","arrowright","ITI","","","","",""
"","","","","","html-keyboard-response","176","178748","0.0-6.0-1.24","60d1294f69a16ae3ac6301cd","6552129e68c08af5079f912e","6552135479ec61a72642a288","null","
        
        <div style=""text-align: center; position: fixed; top: 5vh; left: 40vw;"">
            <div style=""margin:0 auto; width: 20vw; top: 8vh; font-size: 1vw""> 
            <font color=""green""> Bonus : $0.7 </font>
            </div>
        </div>
    
        <img class=""stim"" src=./stimuli//pack_1/cat_1/ex_1_72.png></img>
    ","null","stimulus","","","","",""
"","","","","","html-keyboard-response","177","179752","0.0-6.0-2.24","60d1294f69a16ae3ac6301cd","6552129e68c08af5079f912e","6552135479ec61a72642a288","null","
        <div style=""text-align: center; position: fixed; top: 5vh; left: 40vw;"">
            <div style=""margin:0 auto; width: 20vw; top: 8vh; font-size: 1vw""> 
            <font color=""green""> Bonus : $0.7 </font>
            </div>
        </div>
    ","null","","","","","",""
"","","","","","html-keyboard-response","178","180105","0.0-6.0-3.24","60d1294f69a16ae3ac6301cd","6552129e68c08af5079f912e","6552135479ec61a72642a288","352","./stimuli//pack_1/cat_1/ex_1_72.png","arrowright","response","ArrowLeft","72","1","false",""
"","","","","","html-keyboard-response","179","180807","0.0-6.0-4.24","60d1294f69a16ae3ac6301cd","6552129e68c08af5079f912e","6552135479ec61a72642a288","701","<p> <font color=""red"" size=""4vw""> Wrong category! </font> </p>","arrowleft","feedback","","","","","0.7"
"","","","","","html-keyboard-response","180","181234","0.0-6.0-0.25","60d1294f69a16ae3ac6301cd","6552129e68c08af5079f912e","6552135479ec61a72642a288","427","
            
        <div style=""text-align: center; position: fixed; top: 5vh; left: 40vw;"">
            <div style=""margin:0 auto; width: 20vw; top: 8vh; font-size: 1vw""> 
            <font color=""green""> Bonus : $0.7 </font>
            </div>
        </div>
    
            <div> Please press any button to continue to the next trial.</div>
        ","arrowleft","ITI","","","","",""
"","","","","","html-keyboard-response","181","181844","0.0-6.0-1.25","60d1294f69a16ae3ac6301cd","6552129e68c08af5079f912e","6552135479ec61a72642a288","null","
        
        <div style=""text-align: center; position: fixed; top: 5vh; left: 40vw;"">
            <div style=""margin:0 auto; width: 20vw; top: 8vh; font-size: 1vw""> 
            <font color=""green""> Bonus : $0.7 </font>
            </div>
        </div>
    
        <img class=""stim"" src=./stimuli//pack_1/cat_1/ex_1_52.png></img>
    ","null","stimulus","","","","",""
"","","","","","html-keyboard-response","182","182845","0.0-6.0-2.25","60d1294f69a16ae3ac6301cd","6552129e68c08af5079f912e","6552135479ec61a72642a288","null","
        <div style=""text-align: center; position: fixed; top: 5vh; left: 40vw;"">
            <div style=""margin:0 auto; width: 20vw; top: 8vh; font-size: 1vw""> 
            <font color=""green""> Bonus : $0.7 </font>
            </div>
        </div>
    ","null","","","","","",""
"","","","","","html-keyboard-response","183","183188","0.0-6.0-3.25","60d1294f69a16ae3ac6301cd","6552129e68c08af5079f912e","6552135479ec61a72642a288","342","./stimuli//pack_1/cat_1/ex_1_52.png","arrowleft","response","ArrowLeft","52","1","true",""
"","","","","","html-keyboard-response","184","183685","0.0-6.0-4.25","60d1294f69a16ae3ac6301cd","6552129e68c08af5079f912e","6552135479ec61a72642a288","497","<p> <font color=""green"" size=""4vw""> Correct category! </font> <br> <br> <font color=""green"" size=""7vw""> + $0.05 </font> </p>","arrowleft","feedback","","","","","0.75"
"","","","","","html-keyboard-response","185","184206","0.0-6.0-0.26","60d1294f69a16ae3ac6301cd","6552129e68c08af5079f912e","6552135479ec61a72642a288","520","
            
        <div style=""text-align: center; position: fixed; top: 5vh; left: 40vw;"">
            <div style=""margin:0 auto; width: 20vw; top: 8vh; font-size: 1vw""> 
            <font color=""green""> Bonus : $0.75 </font>
            </div>
        </div>
    
            <div> Please press any button to continue to the next trial.</div>
        ","arrowleft","ITI","","","","",""
"","","","","","html-keyboard-response","186","184817","0.0-6.0-1.26","60d1294f69a16ae3ac6301cd","6552129e68c08af5079f912e","6552135479ec61a72642a288","null","
        
        <div style=""text-align: center; position: fixed; top: 5vh; left: 40vw;"">
            <div style=""margin:0 auto; width: 20vw; top: 8vh; font-size: 1vw""> 
            <font color=""green""> Bonus : $0.75 </font>
            </div>
        </div>
    
        <img class=""stim"" src=./stimuli//pack_1/cat_1/ex_1_75.png></img>
    ","null","stimulus","","","","",""
"","","","","","html-keyboard-response","187","185823","0.0-6.0-2.26","60d1294f69a16ae3ac6301cd","6552129e68c08af5079f912e","6552135479ec61a72642a288","null","
        <div style=""text-align: center; position: fixed; top: 5vh; left: 40vw;"">
            <div style=""margin:0 auto; width: 20vw; top: 8vh; font-size: 1vw""> 
            <font color=""green""> Bonus : $0.75 </font>
            </div>
        </div>
    ","null","","","","","",""
"","","","","","html-keyboard-response","188","186119","0.0-6.0-3.26","60d1294f69a16ae3ac6301cd","6552129e68c08af5079f912e","6552135479ec61a72642a288","296","./stimuli//pack_1/cat_1/ex_1_75.png","arrowleft","response","ArrowLeft","75","1","true",""
"","","","","","html-keyboard-response","189","186586","0.0-6.0-4.26","60d1294f69a16ae3ac6301cd","6552129e68c08af5079f912e","6552135479ec61a72642a288","466","<p> <font color=""green"" size=""4vw""> Correct category! </font> <br> <br> <font color=""green"" size=""7vw""> + $0.05 </font> </p>","arrowleft","feedback","","","","","0.8"
"","","","","","html-keyboard-response","190","187076","0.0-6.0-0.27","60d1294f69a16ae3ac6301cd","6552129e68c08af5079f912e","6552135479ec61a72642a288","490","
            
        <div style=""text-align: center; position: fixed; top: 5vh; left: 40vw;"">
            <div style=""margin:0 auto; width: 20vw; top: 8vh; font-size: 1vw""> 
            <font color=""green""> Bonus : $0.8 </font>
            </div>
        </div>
    
            <div> Please press any button to continue to the next trial.</div>
        ","arrowleft","ITI","","","","",""
"","","","","","html-keyboard-response","191","187684","0.0-6.0-1.27","60d1294f69a16ae3ac6301cd","6552129e68c08af5079f912e","6552135479ec61a72642a288","null","
        
        <div style=""text-align: center; position: fixed; top: 5vh; left: 40vw;"">
            <div style=""margin:0 auto; width: 20vw; top: 8vh; font-size: 1vw""> 
            <font color=""green""> Bonus : $0.8 </font>
            </div>
        </div>
    
        <img class=""stim"" src=./stimuli//pack_1/cat_2/ex_2_25.png></img>
    ","null","stimulus","","","","",""
"","","","","","html-keyboard-response","192","188700","0.0-6.0-2.27","60d1294f69a16ae3ac6301cd","6552129e68c08af5079f912e","6552135479ec61a72642a288","null","
        <div style=""text-align: center; position: fixed; top: 5vh; left: 40vw;"">
            <div style=""margin:0 auto; width: 20vw; top: 8vh; font-size: 1vw""> 
            <font color=""green""> Bonus : $0.8 </font>
            </div>
        </div>
    ","null","","","","","",""
"","","","","","html-keyboard-response","193","188757","0.0-6.0-3.27","60d1294f69a16ae3ac6301cd","6552129e68c08af5079f912e","6552135479ec61a72642a288","57","./stimuli//pack_1/cat_2/ex_2_25.png","arrowleft","response","ArrowRight","25","2","false",""
"","","","","","html-keyboard-response","194","189256","0.0-6.0-4.27","60d1294f69a16ae3ac6301cd","6552129e68c08af5079f912e","6552135479ec61a72642a288","498","<p> <font color=""red"" size=""4vw""> Wrong category! </font> </p>","arrowleft","feedback","","","","","0.8"
"","","","","","html-keyboard-response","195","189704","0.0-6.0-0.28","60d1294f69a16ae3ac6301cd","6552129e68c08af5079f912e","6552135479ec61a72642a288","448","
            
        <div style=""text-align: center; position: fixed; top: 5vh; left: 40vw;"">
            <div style=""margin:0 auto; width: 20vw; top: 8vh; font-size: 1vw""> 
            <font color=""green""> Bonus : $0.8 </font>
            </div>
        </div>
    
            <div> Please press any button to continue to the next trial.</div>
        ","arrowleft","ITI","","","","",""
"","","","","","html-keyboard-response","196","190315","0.0-6.0-1.28","60d1294f69a16ae3ac6301cd","6552129e68c08af5079f912e","6552135479ec61a72642a288","null","
        
        <div style=""text-align: center; position: fixed; top: 5vh; left: 40vw;"">
            <div style=""margin:0 auto; width: 20vw; top: 8vh; font-size: 1vw""> 
            <font color=""green""> Bonus : $0.8 </font>
            </div>
        </div>
    
        <img class=""stim"" src=./stimuli//pack_1/cat_1/ex_1_19.png></img>
    ","null","stimulus","","","","",""
"","","","","","html-keyboard-response","197","191317","0.0-6.0-2.28","60d1294f69a16ae3ac6301cd","6552129e68c08af5079f912e","6552135479ec61a72642a288","null","
        <div style=""text-align: center; position: fixed; top: 5vh; left: 40vw;"">
            <div style=""margin:0 auto; width: 20vw; top: 8vh; font-size: 1vw""> 
            <font color=""green""> Bonus : $0.8 </font>
            </div>
        </div>
    ","null","","","","","",""
"","","","","","html-keyboard-response","198","191654","0.0-6.0-3.28","60d1294f69a16ae3ac6301cd","6552129e68c08af5079f912e","6552135479ec61a72642a288","336","./stimuli//pack_1/cat_1/ex_1_19.png","arrowleft","response","ArrowLeft","19","1","true",""
"","","","","","html-keyboard-response","199","192124","0.0-6.0-4.28","60d1294f69a16ae3ac6301cd","6552129e68c08af5079f912e","6552135479ec61a72642a288","470","<p> <font color=""green"" size=""4vw""> Correct category! </font> <br> <br> <font color=""green"" size=""7vw""> + $0.05 </font> </p>","arrowleft","feedback","","","","","0.85"
"","","","","","html-keyboard-response","200","192642","0.0-6.0-0.29","60d1294f69a16ae3ac6301cd","6552129e68c08af5079f912e","6552135479ec61a72642a288","517","
            
        <div style=""text-align: center; position: fixed; top: 5vh; left: 40vw;"">
            <div style=""margin:0 auto; width: 20vw; top: 8vh; font-size: 1vw""> 
            <font color=""green""> Bonus : $0.85 </font>
            </div>
        </div>
    
            <div> Please press any button to continue to the next trial.</div>
        ","arrowleft","ITI","","","","",""
"","","","","","html-keyboard-response","201","193245","0.0-6.0-1.29","60d1294f69a16ae3ac6301cd","6552129e68c08af5079f912e","6552135479ec61a72642a288","null","
        
        <div style=""text-align: center; position: fixed; top: 5vh; left: 40vw;"">
            <div style=""margin:0 auto; width: 20vw; top: 8vh; font-size: 1vw""> 
            <font color=""green""> Bonus : $0.85 </font>
            </div>
        </div>
    
        <img class=""stim"" src=./stimuli//pack_1/cat_1/ex_1_42.png></img>
    ","null","stimulus","","","","",""
"","","","","","html-keyboard-response","202","194259","0.0-6.0-2.29","60d1294f69a16ae3ac6301cd","6552129e68c08af5079f912e","6552135479ec61a72642a288","null","
        <div style=""text-align: center; position: fixed; top: 5vh; left: 40vw;"">
            <div style=""margin:0 auto; width: 20vw; top: 8vh; font-size: 1vw""> 
            <font color=""green""> Bonus : $0.85 </font>
            </div>
        </div>
    ","null","","","","","",""
"","","","","","html-keyboard-response","203","194628","0.0-6.0-3.29","60d1294f69a16ae3ac6301cd","6552129e68c08af5079f912e","6552135479ec61a72642a288","368","./stimuli//pack_1/cat_1/ex_1_42.png","arrowleft","response","ArrowLeft","42","1","true",""
"","","","","","html-keyboard-response","204","195177","0.0-6.0-4.29","60d1294f69a16ae3ac6301cd","6552129e68c08af5079f912e","6552135479ec61a72642a288","549","<p> <font color=""green"" size=""4vw""> Correct category! </font> <br> <br> <font color=""green"" size=""7vw""> + $0.05 </font> </p>","arrowleft","feedback","","","","","0.9"
"","","","","","html-keyboard-response","205","195698","0.0-6.0-0.30","60d1294f69a16ae3ac6301cd","6552129e68c08af5079f912e","6552135479ec61a72642a288","520","
            
        <div style=""text-align: center; position: fixed; top: 5vh; left: 40vw;"">
            <div style=""margin:0 auto; width: 20vw; top: 8vh; font-size: 1vw""> 
            <font color=""green""> Bonus : $0.9 </font>
            </div>
        </div>
    
            <div> Please press any button to continue to the next trial.</div>
        ","arrowleft","ITI","","","","",""
"","","","","","html-keyboard-response","206","196299","0.0-6.0-1.30","60d1294f69a16ae3ac6301cd","6552129e68c08af5079f912e","6552135479ec61a72642a288","null","
        
        <div style=""text-align: center; position: fixed; top: 5vh; left: 40vw;"">
            <div style=""margin:0 auto; width: 20vw; top: 8vh; font-size: 1vw""> 
            <font color=""green""> Bonus : $0.9 </font>
            </div>
        </div>
    
        <img class=""stim"" src=./stimuli//pack_1/cat_2/ex_2_87.png></img>
    ","null","stimulus","","","","",""
"","","","","","html-keyboard-response","207","197305","0.0-6.0-2.30","60d1294f69a16ae3ac6301cd","6552129e68c08af5079f912e","6552135479ec61a72642a288","null","
        <div style=""text-align: center; position: fixed; top: 5vh; left: 40vw;"">
            <div style=""margin:0 auto; width: 20vw; top: 8vh; font-size: 1vw""> 
            <font color=""green""> Bonus : $0.9 </font>
            </div>
        </div>
    ","null","","","","","",""
"","","","","","html-keyboard-response","208","197795","0.0-6.0-3.30","60d1294f69a16ae3ac6301cd","6552129e68c08af5079f912e","6552135479ec61a72642a288","489","./stimuli//pack_1/cat_2/ex_2_87.png","arrowleft","response","ArrowRight","87","2","false",""
"","","","","","html-keyboard-response","209","198294","0.0-6.0-4.30","60d1294f69a16ae3ac6301cd","6552129e68c08af5079f912e","6552135479ec61a72642a288","499","<p> <font color=""red"" size=""4vw""> Wrong category! </font> </p>","arrowleft","feedback","","","","","0.9"
"","","","","","html-keyboard-response","210","198792","0.0-6.0-0.31","60d1294f69a16ae3ac6301cd","6552129e68c08af5079f912e","6552135479ec61a72642a288","497","
            
        <div style=""text-align: center; position: fixed; top: 5vh; left: 40vw;"">
            <div style=""margin:0 auto; width: 20vw; top: 8vh; font-size: 1vw""> 
            <font color=""green""> Bonus : $0.9 </font>
            </div>
        </div>
    
            <div> Please press any button to continue to the next trial.</div>
        ","arrowleft","ITI","","","","",""
"","","","","","html-keyboard-response","211","199396","0.0-6.0-1.31","60d1294f69a16ae3ac6301cd","6552129e68c08af5079f912e","6552135479ec61a72642a288","null","
        
        <div style=""text-align: center; position: fixed; top: 5vh; left: 40vw;"">
            <div style=""margin:0 auto; width: 20vw; top: 8vh; font-size: 1vw""> 
            <font color=""green""> Bonus : $0.9 </font>
            </div>
        </div>
    
        <img class=""stim"" src=./stimuli//pack_1/cat_1/ex_1_96.png></img>
    ","null","stimulus","","","","",""
"","","","","","html-keyboard-response","212","200397","0.0-6.0-2.31","60d1294f69a16ae3ac6301cd","6552129e68c08af5079f912e","6552135479ec61a72642a288","null","
        <div style=""text-align: center; position: fixed; top: 5vh; left: 40vw;"">
            <div style=""margin:0 auto; width: 20vw; top: 8vh; font-size: 1vw""> 
            <font color=""green""> Bonus : $0.9 </font>
            </div>
        </div>
    ","null","","","","","",""
"","","","","","html-keyboard-response","213","201071","0.0-6.0-3.31","60d1294f69a16ae3ac6301cd","6552129e68c08af5079f912e","6552135479ec61a72642a288","673","./stimuli//pack_1/cat_1/ex_1_96.png","arrowleft","response","ArrowLeft","96","1","true",""
"","","","","","html-keyboard-response","214","201742","0.0-6.0-4.31","60d1294f69a16ae3ac6301cd","6552129e68c08af5079f912e","6552135479ec61a72642a288","671","<p> <font color=""green"" size=""4vw""> Correct category! </font> <br> <br> <font color=""green"" size=""7vw""> + $0.05 </font> </p>","arrowleft","feedback","","","","","0.95"
"","","","","","html-keyboard-response","215","202232","0.0-6.0-0.32","60d1294f69a16ae3ac6301cd","6552129e68c08af5079f912e","6552135479ec61a72642a288","489","
            
        <div style=""text-align: center; position: fixed; top: 5vh; left: 40vw;"">
            <div style=""margin:0 auto; width: 20vw; top: 8vh; font-size: 1vw""> 
            <font color=""green""> Bonus : $0.95 </font>
            </div>
        </div>
    
            <div> Please press any button to continue to the next trial.</div>
        ","arrowleft","ITI","","","","",""
"","","","","","html-keyboard-response","216","202842","0.0-6.0-1.32","60d1294f69a16ae3ac6301cd","6552129e68c08af5079f912e","6552135479ec61a72642a288","null","
        
        <div style=""text-align: center; position: fixed; top: 5vh; left: 40vw;"">
            <div style=""margin:0 auto; width: 20vw; top: 8vh; font-size: 1vw""> 
            <font color=""green""> Bonus : $0.95 </font>
            </div>
        </div>
    
        <img class=""stim"" src=./stimuli//pack_1/cat_1/ex_1_41.png></img>
    ","null","stimulus","","","","",""
"","","","","","html-keyboard-response","217","203846","0.0-6.0-2.32","60d1294f69a16ae3ac6301cd","6552129e68c08af5079f912e","6552135479ec61a72642a288","null","
        <div style=""text-align: center; position: fixed; top: 5vh; left: 40vw;"">
            <div style=""margin:0 auto; width: 20vw; top: 8vh; font-size: 1vw""> 
            <font color=""green""> Bonus : $0.95 </font>
            </div>
        </div>
    ","null","","","","","",""
"","","","","","html-keyboard-response","218","204194","0.0-6.0-3.32","60d1294f69a16ae3ac6301cd","6552129e68c08af5079f912e","6552135479ec61a72642a288","347","./stimuli//pack_1/cat_1/ex_1_41.png","arrowleft","response","ArrowLeft","41","1","true",""
"","","","","","html-keyboard-response","219","204714","0.0-6.0-4.32","60d1294f69a16ae3ac6301cd","6552129e68c08af5079f912e","6552135479ec61a72642a288","520","<p> <font color=""green"" size=""4vw""> Correct category! </font> <br> <br> <font color=""green"" size=""7vw""> + $0.05 </font> </p>","arrowleft","feedback","","","","","1"
"","","","","","html-keyboard-response","220","205460","0.0-6.0-0.33","60d1294f69a16ae3ac6301cd","6552129e68c08af5079f912e","6552135479ec61a72642a288","746","
            
        <div style=""text-align: center; position: fixed; top: 5vh; left: 40vw;"">
            <div style=""margin:0 auto; width: 20vw; top: 8vh; font-size: 1vw""> 
            <font color=""green""> Bonus : $1 </font>
            </div>
        </div>
    
            <div> Please press any button to continue to the next trial.</div>
        ","arrowleft","ITI","","","","",""
"","","","","","html-keyboard-response","221","206073","0.0-6.0-1.33","60d1294f69a16ae3ac6301cd","6552129e68c08af5079f912e","6552135479ec61a72642a288","null","
        
        <div style=""text-align: center; position: fixed; top: 5vh; left: 40vw;"">
            <div style=""margin:0 auto; width: 20vw; top: 8vh; font-size: 1vw""> 
            <font color=""green""> Bonus : $1 </font>
            </div>
        </div>
    
        <img class=""stim"" src=./stimuli//pack_1/cat_2/ex_2_82.png></img>
    ","null","stimulus","","","","",""
"","","","","","html-keyboard-response","222","207075","0.0-6.0-2.33","60d1294f69a16ae3ac6301cd","6552129e68c08af5079f912e","6552135479ec61a72642a288","null","
        <div style=""text-align: center; position: fixed; top: 5vh; left: 40vw;"">
            <div style=""margin:0 auto; width: 20vw; top: 8vh; font-size: 1vw""> 
            <font color=""green""> Bonus : $1 </font>
            </div>
        </div>
    ","null","","","","","",""
"","","","","","html-keyboard-response","223","207350","0.0-6.0-3.33","60d1294f69a16ae3ac6301cd","6552129e68c08af5079f912e","6552135479ec61a72642a288","274","./stimuli//pack_1/cat_2/ex_2_82.png","arrowleft","response","ArrowRight","82","2","false",""
"","","","","","html-keyboard-response","224","207838","0.0-6.0-4.33","60d1294f69a16ae3ac6301cd","6552129e68c08af5079f912e","6552135479ec61a72642a288","488","<p> <font color=""red"" size=""4vw""> Wrong category! </font> </p>","arrowleft","feedback","","","","","1"
"","","","","","html-keyboard-response","225","208268","0.0-6.0-0.34","60d1294f69a16ae3ac6301cd","6552129e68c08af5079f912e","6552135479ec61a72642a288","429","
            
        <div style=""text-align: center; position: fixed; top: 5vh; left: 40vw;"">
            <div style=""margin:0 auto; width: 20vw; top: 8vh; font-size: 1vw""> 
            <font color=""green""> Bonus : $1 </font>
            </div>
        </div>
    
            <div> Please press any button to continue to the next trial.</div>
        ","arrowleft","ITI","","","","",""
"","","","","","html-keyboard-response","226","208873","0.0-6.0-1.34","60d1294f69a16ae3ac6301cd","6552129e68c08af5079f912e","6552135479ec61a72642a288","null","
        
        <div style=""text-align: center; position: fixed; top: 5vh; left: 40vw;"">
            <div style=""margin:0 auto; width: 20vw; top: 8vh; font-size: 1vw""> 
            <font color=""green""> Bonus : $1 </font>
            </div>
        </div>
    
        <img class=""stim"" src=./stimuli//pack_1/cat_2/ex_2_18.png></img>
    ","null","stimulus","","","","",""
"","","","","","html-keyboard-response","227","209877","0.0-6.0-2.34","60d1294f69a16ae3ac6301cd","6552129e68c08af5079f912e","6552135479ec61a72642a288","null","
        <div style=""text-align: center; position: fixed; top: 5vh; left: 40vw;"">
            <div style=""margin:0 auto; width: 20vw; top: 8vh; font-size: 1vw""> 
            <font color=""green""> Bonus : $1 </font>
            </div>
        </div>
    ","null","","","","","",""
"","","","","","html-keyboard-response","228","210029","0.0-6.0-3.34","60d1294f69a16ae3ac6301cd","6552129e68c08af5079f912e","6552135479ec61a72642a288","152","./stimuli//pack_1/cat_2/ex_2_18.png","arrowleft","response","ArrowRight","18","2","false",""
"","","","","","html-keyboard-response","229","210620","0.0-6.0-4.34","60d1294f69a16ae3ac6301cd","6552129e68c08af5079f912e","6552135479ec61a72642a288","590","<p> <font color=""red"" size=""4vw""> Wrong category! </font> </p>","arrowright","feedback","","","","","1"
"","","","","","html-keyboard-response","230","210986","0.0-6.0-0.35","60d1294f69a16ae3ac6301cd","6552129e68c08af5079f912e","6552135479ec61a72642a288","365","
            
        <div style=""text-align: center; position: fixed; top: 5vh; left: 40vw;"">
            <div style=""margin:0 auto; width: 20vw; top: 8vh; font-size: 1vw""> 
            <font color=""green""> Bonus : $1 </font>
            </div>
        </div>
    
            <div> Please press any button to continue to the next trial.</div>
        ","arrowright","ITI","","","","",""
"","","","","","html-keyboard-response","231","211593","0.0-6.0-1.35","60d1294f69a16ae3ac6301cd","6552129e68c08af5079f912e","6552135479ec61a72642a288","null","
        
        <div style=""text-align: center; position: fixed; top: 5vh; left: 40vw;"">
            <div style=""margin:0 auto; width: 20vw; top: 8vh; font-size: 1vw""> 
            <font color=""green""> Bonus : $1 </font>
            </div>
        </div>
    
        <img class=""stim"" src=./stimuli//pack_1/cat_2/ex_2_95.png></img>
    ","null","stimulus","","","","",""
"","","","","","html-keyboard-response","232","212610","0.0-6.0-2.35","60d1294f69a16ae3ac6301cd","6552129e68c08af5079f912e","6552135479ec61a72642a288","null","
        <div style=""text-align: center; position: fixed; top: 5vh; left: 40vw;"">
            <div style=""margin:0 auto; width: 20vw; top: 8vh; font-size: 1vw""> 
            <font color=""green""> Bonus : $1 </font>
            </div>
        </div>
    ","null","","","","","",""
"","","","","","html-keyboard-response","233","212779","0.0-6.0-3.35","60d1294f69a16ae3ac6301cd","6552129e68c08af5079f912e","6552135479ec61a72642a288","168","./stimuli//pack_1/cat_2/ex_2_95.png","arrowright","response","ArrowRight","95","2","true",""
"","","","","","html-keyboard-response","234","212982","0.0-6.0-4.35","60d1294f69a16ae3ac6301cd","6552129e68c08af5079f912e","6552135479ec61a72642a288","203","<p> <font color=""green"" size=""4vw""> Correct category! </font> <br> <br> <font color=""green"" size=""7vw""> + $0.05 </font> </p>","arrowright","feedback","","","","","1.05"
"","","","","","html-keyboard-response","235","213216","0.0-6.0-0.36","60d1294f69a16ae3ac6301cd","6552129e68c08af5079f912e","6552135479ec61a72642a288","234","
            
        <div style=""text-align: center; position: fixed; top: 5vh; left: 40vw;"">
            <div style=""margin:0 auto; width: 20vw; top: 8vh; font-size: 1vw""> 
            <font color=""green""> Bonus : $1.05 </font>
            </div>
        </div>
    
            <div> Please press any button to continue to the next trial.</div>
        ","arrowright","ITI","","","","",""
"","","","","","html-keyboard-response","236","213817","0.0-6.0-1.36","60d1294f69a16ae3ac6301cd","6552129e68c08af5079f912e","6552135479ec61a72642a288","null","
        
        <div style=""text-align: center; position: fixed; top: 5vh; left: 40vw;"">
            <div style=""margin:0 auto; width: 20vw; top: 8vh; font-size: 1vw""> 
            <font color=""green""> Bonus : $1.05 </font>
            </div>
        </div>
    
        <img class=""stim"" src=./stimuli//pack_1/cat_2/ex_2_34.png></img>
    ","null","stimulus","","","","",""
"","","","","","html-keyboard-response","237","214831","0.0-6.0-2.36","60d1294f69a16ae3ac6301cd","6552129e68c08af5079f912e","6552135479ec61a72642a288","null","
        <div style=""text-align: center; position: fixed; top: 5vh; left: 40vw;"">
            <div style=""margin:0 auto; width: 20vw; top: 8vh; font-size: 1vw""> 
            <font color=""green""> Bonus : $1.05 </font>
            </div>
        </div>
    ","null","","","","","",""
