"success","timeout","failed_images","failed_audio","failed_video","trial_type","trial_index","time_elapsed","internal_node_id","subject_id","study_id","session_id","rt","stimulus","response","task","correct_response","exemplar_ID","category","correct","bonus"
"true","false","[]","[]","[]","preload","0","3","0.0-0.0","60ada064782b7869e0e55dcb","6552129e68c08af5079f912e","6552131aba62c10c30a4c6ab","","","","","","","","",""
"","","","","","html-keyboard-response","1","2866","0.0-1.0","60ada064782b7869e0e55dcb","6552129e68c08af5079f912e","6552131aba62c10c30a4c6ab","2861","Welcome to the Category Learning experiment! Press any key to continue."," ","welcome","","","","",""
"","","","","","html-keyboard-response","2","40526","0.0-2.0","60ada064782b7869e0e55dcb","6552129e68c08af5079f912e","6552131aba62c10c30a4c6ab","37665","
            <p>You will be shown images of patterns of black dots.  Some are category A, some are category B.
            <br>You will not know in advance which category a specific pattern belongs to.</p>
            <p>After you see an image, you will be asked to guess its category <b>(left arrow for category A, right arrow for category B)</b></p>
            <p>After you choose, the screen will show you whether you were correct or not.</p>
            <p><b>You will receive a bonus payment of $0.05 for each correct answer!</b></p>
            <p> So you can increase your bonus by guessing correctly, and by guessing as quickly as possible so you move on to the next image sooner.</p>
            <p>Press any key to continue.</p>
            "," ","introduction_1","","","","",""
"","","","","","html-keyboard-response","3","47837","0.0-3.0","60ada064782b7869e0e55dcb","6552129e68c08af5079f912e","6552131aba62c10c30a4c6ab","7310","
            <p> <b>The first 10 trials are a practice round that will not count towards your bonus payment.</b></p>
            <p> You will be notified when practice finishes and the test begins. </p>
            <p> Press any key to begin the practice round.</p>
            "," ","introduction_2","","","","",""
"","","","","","html-keyboard-response","4","51086","0.0-4.0-0.0","60ada064782b7869e0e55dcb","6552129e68c08af5079f912e","6552131aba62c10c30a4c6ab","3248","
            
        <div style=""text-align: center; position: fixed; top: 5vh; left: 40vw;"">
            <div style=""margin:0 auto; width: 20vw; top: 8vh; font-size: 1vw""> 
            <font color=""green""> Bonus : $0 </font>
            </div>
        </div>
    
            <div> Please press any button to continue to the next trial.</div>
        "," ","ITI","","","","",""
"","","","","","html-keyboard-response","5","51692","0.0-4.0-1.0","60ada064782b7869e0e55dcb","6552129e68c08af5079f912e","6552131aba62c10c30a4c6ab","null","
        
        <div style=""text-align: center; position: fixed; top: 5vh; left: 40vw;"">
            <div style=""margin:0 auto; width: 20vw; top: 8vh; font-size: 1vw""> 
            <font color=""green""> Bonus : $0 </font>
            </div>
        </div>
    
        <img class=""stim"" src=./stimuli//pack_1/cat_2/ex_2_78.png></img>
    ","null","stimulus","","","","",""
"","","","","","html-keyboard-response","6","52708","0.0-4.0-2.0","60ada064782b7869e0e55dcb","6552129e68c08af5079f912e","6552131aba62c10c30a4c6ab","null","
        <div style=""text-align: center; position: fixed; top: 5vh; left: 40vw;"">
            <div style=""margin:0 auto; width: 20vw; top: 8vh; font-size: 1vw""> 
            <font color=""green""> Bonus : $0 </font>
            </div>
        </div>
    ","null","","","","","",""
"","","","","","html-keyboard-response","7","54412","0.0-4.0-3.0","60ada064782b7869e0e55dcb","6552129e68c08af5079f912e","6552131aba62c10c30a4c6ab","1702","./stimuli//pack_1/cat_2/ex_2_78.png","arrowleft","response","ArrowRight","78","2","false",""
"","","","","","html-keyboard-response","8","55924","0.0-4.0-4.0","60ada064782b7869e0e55dcb","6552129e68c08af5079f912e","6552131aba62c10c30a4c6ab","null","<p> <font color=""red"" size=""4vw""> Wrong category! </font> </p>","null","feedback","","","","","0"
"","","","","","html-keyboard-response","9","56750","0.0-4.0-0.1","60ada064782b7869e0e55dcb","6552129e68c08af5079f912e","6552131aba62c10c30a4c6ab","825","
            
        <div style=""text-align: center; position: fixed; top: 5vh; left: 40vw;"">
            <div style=""margin:0 auto; width: 20vw; top: 8vh; font-size: 1vw""> 
            <font color=""green""> Bonus : $0 </font>
            </div>
        </div>
    
            <div> Please press any button to continue to the next trial.</div>
        "," ","ITI","","","","",""
"","","","","","html-keyboard-response","10","57358","0.0-4.0-1.1","60ada064782b7869e0e55dcb","6552129e68c08af5079f912e","6552131aba62c10c30a4c6ab","null","
        
        <div style=""text-align: center; position: fixed; top: 5vh; left: 40vw;"">
            <div style=""margin:0 auto; width: 20vw; top: 8vh; font-size: 1vw""> 
            <font color=""green""> Bonus : $0 </font>
            </div>
        </div>
    
        <img class=""stim"" src=./stimuli//pack_1/cat_2/ex_2_98.png></img>
    ","null","stimulus","","","","",""
"","","","","","html-keyboard-response","11","58360","0.0-4.0-2.1","60ada064782b7869e0e55dcb","6552129e68c08af5079f912e","6552131aba62c10c30a4c6ab","null","
        <div style=""text-align: center; position: fixed; top: 5vh; left: 40vw;"">
            <div style=""margin:0 auto; width: 20vw; top: 8vh; font-size: 1vw""> 
            <font color=""green""> Bonus : $0 </font>
            </div>
        </div>
    ","null","","","","","",""
"","","","","","html-keyboard-response","12","59182","0.0-4.0-3.1","60ada064782b7869e0e55dcb","6552129e68c08af5079f912e","6552131aba62c10c30a4c6ab","821","./stimuli//pack_1/cat_2/ex_2_98.png","arrowleft","response","ArrowRight","98","2","false",""
"","","","","","html-keyboard-response","13","60395","0.0-4.0-4.1","60ada064782b7869e0e55dcb","6552129e68c08af5079f912e","6552131aba62c10c30a4c6ab","1212","<p> <font color=""red"" size=""4vw""> Wrong category! </font> </p>"," ","feedback","","","","","0"
"","","","","","html-keyboard-response","14","62364","0.0-4.0-0.2","60ada064782b7869e0e55dcb","6552129e68c08af5079f912e","6552131aba62c10c30a4c6ab","1968","
            
        <div style=""text-align: center; position: fixed; top: 5vh; left: 40vw;"">
            <div style=""margin:0 auto; width: 20vw; top: 8vh; font-size: 1vw""> 
            <font color=""green""> Bonus : $0 </font>
            </div>
        </div>
    
            <div> Please press any button to continue to the next trial.</div>
        "," ","ITI","","","","",""
"","","","","","html-keyboard-response","15","62974","0.0-4.0-1.2","60ada064782b7869e0e55dcb","6552129e68c08af5079f912e","6552131aba62c10c30a4c6ab","null","
        
        <div style=""text-align: center; position: fixed; top: 5vh; left: 40vw;"">
            <div style=""margin:0 auto; width: 20vw; top: 8vh; font-size: 1vw""> 
            <font color=""green""> Bonus : $0 </font>
            </div>
        </div>
    
        <img class=""stim"" src=./stimuli//pack_1/cat_2/ex_2_26.png></img>
    ","null","stimulus","","","","",""
"","","","","","html-keyboard-response","16","63976","0.0-4.0-2.2","60ada064782b7869e0e55dcb","6552129e68c08af5079f912e","6552131aba62c10c30a4c6ab","null","
        <div style=""text-align: center; position: fixed; top: 5vh; left: 40vw;"">
            <div style=""margin:0 auto; width: 20vw; top: 8vh; font-size: 1vw""> 
            <font color=""green""> Bonus : $0 </font>
            </div>
        </div>
    ","null","","","","","",""
"","","","","","html-keyboard-response","17","64636","0.0-4.0-3.2","60ada064782b7869e0e55dcb","6552129e68c08af5079f912e","6552131aba62c10c30a4c6ab","658","./stimuli//pack_1/cat_2/ex_2_26.png","arrowright","response","ArrowRight","26","2","true",""
"","","","","","html-keyboard-response","18","66141","0.0-4.0-4.2","60ada064782b7869e0e55dcb","6552129e68c08af5079f912e","6552131aba62c10c30a4c6ab","null","<p> <font color=""green"" size=""4vw""> Correct category! </font> </p>","null","feedback","","","","","0"
"","","","","","html-keyboard-response","19","67037","0.0-4.0-0.3","60ada064782b7869e0e55dcb","6552129e68c08af5079f912e","6552131aba62c10c30a4c6ab","894","
            
        <div style=""text-align: center; position: fixed; top: 5vh; left: 40vw;"">
            <div style=""margin:0 auto; width: 20vw; top: 8vh; font-size: 1vw""> 
            <font color=""green""> Bonus : $0 </font>
            </div>
        </div>
    
            <div> Please press any button to continue to the next trial.</div>
        "," ","ITI","","","","",""
"","","","","","html-keyboard-response","20","67641","0.0-4.0-1.3","60ada064782b7869e0e55dcb","6552129e68c08af5079f912e","6552131aba62c10c30a4c6ab","null","
        
        <div style=""text-align: center; position: fixed; top: 5vh; left: 40vw;"">
            <div style=""margin:0 auto; width: 20vw; top: 8vh; font-size: 1vw""> 
            <font color=""green""> Bonus : $0 </font>
            </div>
        </div>
    
        <img class=""stim"" src=./stimuli//pack_1/cat_1/ex_1_7.png></img>
    ","null","stimulus","","","","",""
"","","","","","html-keyboard-response","21","68657","0.0-4.0-2.3","60ada064782b7869e0e55dcb","6552129e68c08af5079f912e","6552131aba62c10c30a4c6ab","null","
        <div style=""text-align: center; position: fixed; top: 5vh; left: 40vw;"">
            <div style=""margin:0 auto; width: 20vw; top: 8vh; font-size: 1vw""> 
            <font color=""green""> Bonus : $0 </font>
            </div>
        </div>
    ","null","","","","","",""
"","","","","","html-keyboard-response","22","69233","0.0-4.0-3.3","60ada064782b7869e0e55dcb","6552129e68c08af5079f912e","6552131aba62c10c30a4c6ab","575","./stimuli//pack_1/cat_1/ex_1_7.png","arrowright","response","ArrowLeft","7","1","false",""
"","","","","","html-keyboard-response","23","70740","0.0-4.0-4.3","60ada064782b7869e0e55dcb","6552129e68c08af5079f912e","6552131aba62c10c30a4c6ab","null","<p> <font color=""red"" size=""4vw""> Wrong category! </font> </p>","null","feedback","","","","","0"
"","","","","","html-keyboard-response","24","70796","0.0-4.0-0.4","60ada064782b7869e0e55dcb","6552129e68c08af5079f912e","6552131aba62c10c30a4c6ab","55","
            
        <div style=""text-align: center; position: fixed; top: 5vh; left: 40vw;"">
            <div style=""margin:0 auto; width: 20vw; top: 8vh; font-size: 1vw""> 
            <font color=""green""> Bonus : $0 </font>
            </div>
        </div>
    
            <div> Please press any button to continue to the next trial.</div>
        "," ","ITI","","","","",""
"","","","","","html-keyboard-response","25","71406","0.0-4.0-1.4","60ada064782b7869e0e55dcb","6552129e68c08af5079f912e","6552131aba62c10c30a4c6ab","null","
        
        <div style=""text-align: center; position: fixed; top: 5vh; left: 40vw;"">
            <div style=""margin:0 auto; width: 20vw; top: 8vh; font-size: 1vw""> 
            <font color=""green""> Bonus : $0 </font>
            </div>
        </div>
    
        <img class=""stim"" src=./stimuli//pack_1/cat_1/ex_1_99.png></img>
    ","null","stimulus","","","","",""
"","","","","","html-keyboard-response","26","72408","0.0-4.0-2.4","60ada064782b7869e0e55dcb","6552129e68c08af5079f912e","6552131aba62c10c30a4c6ab","null","
        <div style=""text-align: center; position: fixed; top: 5vh; left: 40vw;"">
            <div style=""margin:0 auto; width: 20vw; top: 8vh; font-size: 1vw""> 
            <font color=""green""> Bonus : $0 </font>
            </div>
        </div>
    ","null","","","","","",""
"","","","","","html-keyboard-response","27","74501","0.0-4.0-3.4","60ada064782b7869e0e55dcb","6552129e68c08af5079f912e","6552131aba62c10c30a4c6ab","2092","./stimuli//pack_1/cat_1/ex_1_99.png","arrowright","response","ArrowLeft","99","1","false",""
"","","","","","html-keyboard-response","28","76007","0.0-4.0-4.4","60ada064782b7869e0e55dcb","6552129e68c08af5079f912e","6552131aba62c10c30a4c6ab","null","<p> <font color=""red"" size=""4vw""> Wrong category! </font> </p>","null","feedback","","","","","0"
"","","","","","html-keyboard-response","29","76172","0.0-4.0-0.5","60ada064782b7869e0e55dcb","6552129e68c08af5079f912e","6552131aba62c10c30a4c6ab","164","
            
        <div style=""text-align: center; position: fixed; top: 5vh; left: 40vw;"">
            <div style=""margin:0 auto; width: 20vw; top: 8vh; font-size: 1vw""> 
            <font color=""green""> Bonus : $0 </font>
            </div>
        </div>
    
            <div> Please press any button to continue to the next trial.</div>
        "," ","ITI","","","","",""
"","","","","","html-keyboard-response","30","76788","0.0-4.0-1.5","60ada064782b7869e0e55dcb","6552129e68c08af5079f912e","6552131aba62c10c30a4c6ab","null","
        
        <div style=""text-align: center; position: fixed; top: 5vh; left: 40vw;"">
            <div style=""margin:0 auto; width: 20vw; top: 8vh; font-size: 1vw""> 
            <font color=""green""> Bonus : $0 </font>
            </div>
        </div>
    
        <img class=""stim"" src=./stimuli//pack_1/cat_1/ex_1_38.png></img>
    ","null","stimulus","","","","",""
"","","","","","html-keyboard-response","31","77792","0.0-4.0-2.5","60ada064782b7869e0e55dcb","6552129e68c08af5079f912e","6552131aba62c10c30a4c6ab","null","
        <div style=""text-align: center; position: fixed; top: 5vh; left: 40vw;"">
            <div style=""margin:0 auto; width: 20vw; top: 8vh; font-size: 1vw""> 
            <font color=""green""> Bonus : $0 </font>
            </div>
        </div>
    ","null","","","","","",""
"","","","","","html-keyboard-response","32","78445","0.0-4.0-3.5","60ada064782b7869e0e55dcb","6552129e68c08af5079f912e","6552131aba62c10c30a4c6ab","652","./stimuli//pack_1/cat_1/ex_1_38.png","arrowright","response","ArrowLeft","38","1","false",""
"","","","","","html-keyboard-response","33","79316","0.0-4.0-4.5","60ada064782b7869e0e55dcb","6552129e68c08af5079f912e","6552131aba62c10c30a4c6ab","870","<p> <font color=""red"" size=""4vw""> Wrong category! </font> </p>"," ","feedback","","","","","0"
"","","","","","html-keyboard-response","34","80109","0.0-4.0-0.6","60ada064782b7869e0e55dcb","6552129e68c08af5079f912e","6552131aba62c10c30a4c6ab","792","
            
        <div style=""text-align: center; position: fixed; top: 5vh; left: 40vw;"">
            <div style=""margin:0 auto; width: 20vw; top: 8vh; font-size: 1vw""> 
            <font color=""green""> Bonus : $0 </font>
            </div>
        </div>
    
            <div> Please press any button to continue to the next trial.</div>
        "," ","ITI","","","","",""
"","","","","","html-keyboard-response","35","80722","0.0-4.0-1.6","60ada064782b7869e0e55dcb","6552129e68c08af5079f912e","6552131aba62c10c30a4c6ab","null","
        
        <div style=""text-align: center; position: fixed; top: 5vh; left: 40vw;"">
            <div style=""margin:0 auto; width: 20vw; top: 8vh; font-size: 1vw""> 
            <font color=""green""> Bonus : $0 </font>
            </div>
        </div>
    
        <img class=""stim"" src=./stimuli//pack_1/cat_1/ex_1_62.png></img>
    ","null","stimulus","","","","",""
"","","","","","html-keyboard-response","36","81725","0.0-4.0-2.6","60ada064782b7869e0e55dcb","6552129e68c08af5079f912e","6552131aba62c10c30a4c6ab","null","
        <div style=""text-align: center; position: fixed; top: 5vh; left: 40vw;"">
            <div style=""margin:0 auto; width: 20vw; top: 8vh; font-size: 1vw""> 
            <font color=""green""> Bonus : $0 </font>
            </div>
        </div>
    ","null","","","","","",""
"","","","","","html-keyboard-response","37","82449","0.0-4.0-3.6","60ada064782b7869e0e55dcb","6552129e68c08af5079f912e","6552131aba62c10c30a4c6ab","723","./stimuli//pack_1/cat_1/ex_1_62.png","arrowleft","response","ArrowLeft","62","1","true",""
"","","","","","html-keyboard-response","38","83944","0.0-4.0-4.6","60ada064782b7869e0e55dcb","6552129e68c08af5079f912e","6552131aba62c10c30a4c6ab","1494","<p> <font color=""green"" size=""4vw""> Correct category! </font> </p>"," ","feedback","","","","","0"
"","","","","","html-keyboard-response","39","84674","0.0-4.0-0.7","60ada064782b7869e0e55dcb","6552129e68c08af5079f912e","6552131aba62c10c30a4c6ab","729","
            
        <div style=""text-align: center; position: fixed; top: 5vh; left: 40vw;"">
            <div style=""margin:0 auto; width: 20vw; top: 8vh; font-size: 1vw""> 
            <font color=""green""> Bonus : $0 </font>
            </div>
        </div>
    
            <div> Please press any button to continue to the next trial.</div>
        "," ","ITI","","","","",""
"","","","","","html-keyboard-response","40","85290","0.0-4.0-1.7","60ada064782b7869e0e55dcb","6552129e68c08af5079f912e","6552131aba62c10c30a4c6ab","null","
        
        <div style=""text-align: center; position: fixed; top: 5vh; left: 40vw;"">
            <div style=""margin:0 auto; width: 20vw; top: 8vh; font-size: 1vw""> 
            <font color=""green""> Bonus : $0 </font>
            </div>
        </div>
    
        <img class=""stim"" src=./stimuli//pack_1/cat_2/ex_2_96.png></img>
    ","null","stimulus","","","","",""
"","","","","","html-keyboard-response","41","86292","0.0-4.0-2.7","60ada064782b7869e0e55dcb","6552129e68c08af5079f912e","6552131aba62c10c30a4c6ab","null","
        <div style=""text-align: center; position: fixed; top: 5vh; left: 40vw;"">
            <div style=""margin:0 auto; width: 20vw; top: 8vh; font-size: 1vw""> 
            <font color=""green""> Bonus : $0 </font>
            </div>
        </div>
    ","null","","","","","",""
"","","","","","html-keyboard-response","42","86735","0.0-4.0-3.7","60ada064782b7869e0e55dcb","6552129e68c08af5079f912e","6552131aba62c10c30a4c6ab","443","./stimuli//pack_1/cat_2/ex_2_96.png","arrowleft","response","ArrowRight","96","2","false",""
"","","","","","html-keyboard-response","43","88241","0.0-4.0-4.7","60ada064782b7869e0e55dcb","6552129e68c08af5079f912e","6552131aba62c10c30a4c6ab","null","<p> <font color=""red"" size=""4vw""> Wrong category! </font> </p>","null","feedback","","","","","0"
"","","","","","html-keyboard-response","44","89304","0.0-4.0-0.8","60ada064782b7869e0e55dcb","6552129e68c08af5079f912e","6552131aba62c10c30a4c6ab","1062","
            
        <div style=""text-align: center; position: fixed; top: 5vh; left: 40vw;"">
            <div style=""margin:0 auto; width: 20vw; top: 8vh; font-size: 1vw""> 
            <font color=""green""> Bonus : $0 </font>
            </div>
        </div>
    
            <div> Please press any button to continue to the next trial.</div>
        "," ","ITI","","","","",""
"","","","","","html-keyboard-response","45","89908","0.0-4.0-1.8","60ada064782b7869e0e55dcb","6552129e68c08af5079f912e","6552131aba62c10c30a4c6ab","null","
        
        <div style=""text-align: center; position: fixed; top: 5vh; left: 40vw;"">
            <div style=""margin:0 auto; width: 20vw; top: 8vh; font-size: 1vw""> 
            <font color=""green""> Bonus : $0 </font>
            </div>
        </div>
    
        <img class=""stim"" src=./stimuli//pack_1/cat_1/ex_1_98.png></img>
    ","null","stimulus","","","","",""
"","","","","","html-keyboard-response","46","90924","0.0-4.0-2.8","60ada064782b7869e0e55dcb","6552129e68c08af5079f912e","6552131aba62c10c30a4c6ab","null","
        <div style=""text-align: center; position: fixed; top: 5vh; left: 40vw;"">
            <div style=""margin:0 auto; width: 20vw; top: 8vh; font-size: 1vw""> 
            <font color=""green""> Bonus : $0 </font>
            </div>
        </div>
    ","null","","","","","",""
"","","","","","html-keyboard-response","47","91678","0.0-4.0-3.8","60ada064782b7869e0e55dcb","6552129e68c08af5079f912e","6552131aba62c10c30a4c6ab","754","./stimuli//pack_1/cat_1/ex_1_98.png","arrowleft","response","ArrowLeft","98","1","true",""
"","","","","","html-keyboard-response","48","93190","0.0-4.0-4.8","60ada064782b7869e0e55dcb","6552129e68c08af5079f912e","6552131aba62c10c30a4c6ab","null","<p> <font color=""green"" size=""4vw""> Correct category! </font> </p>","null","feedback","","","","","0"
"","","","","","html-keyboard-response","49","93384","0.0-4.0-0.9","60ada064782b7869e0e55dcb","6552129e68c08af5079f912e","6552131aba62c10c30a4c6ab","194","
            
        <div style=""text-align: center; position: fixed; top: 5vh; left: 40vw;"">
            <div style=""margin:0 auto; width: 20vw; top: 8vh; font-size: 1vw""> 
            <font color=""green""> Bonus : $0 </font>
            </div>
        </div>
    
            <div> Please press any button to continue to the next trial.</div>
        "," ","ITI","","","","",""
"","","","","","html-keyboard-response","50","93989","0.0-4.0-1.9","60ada064782b7869e0e55dcb","6552129e68c08af5079f912e","6552131aba62c10c30a4c6ab","null","
        
        <div style=""text-align: center; position: fixed; top: 5vh; left: 40vw;"">
            <div style=""margin:0 auto; width: 20vw; top: 8vh; font-size: 1vw""> 
            <font color=""green""> Bonus : $0 </font>
            </div>
        </div>
    
        <img class=""stim"" src=./stimuli//pack_1/cat_2/ex_2_73.png></img>
    ","null","stimulus","","","","",""
"","","","","","html-keyboard-response","51","94992","0.0-4.0-2.9","60ada064782b7869e0e55dcb","6552129e68c08af5079f912e","6552131aba62c10c30a4c6ab","null","
        <div style=""text-align: center; position: fixed; top: 5vh; left: 40vw;"">
            <div style=""margin:0 auto; width: 20vw; top: 8vh; font-size: 1vw""> 
            <font color=""green""> Bonus : $0 </font>
            </div>
        </div>
    ","null","","","","","",""
"","","","","","html-keyboard-response","52","95581","0.0-4.0-3.9","60ada064782b7869e0e55dcb","6552129e68c08af5079f912e","6552131aba62c10c30a4c6ab","587","./stimuli//pack_1/cat_2/ex_2_73.png","arrowright","response","ArrowRight","73","2","true",""
"","","","","","html-keyboard-response","53","97090","0.0-4.0-4.9","60ada064782b7869e0e55dcb","6552129e68c08af5079f912e","6552131aba62c10c30a4c6ab","null","<p> <font color=""green"" size=""4vw""> Correct category! </font> </p>","null","feedback","","","","","0"
"","","","","","html-keyboard-response","54","102552","0.0-5.0","60ada064782b7869e0e55dcb","6552129e68c08af5079f912e","6552131aba62c10c30a4c6ab","5462","
            <b> <p> The practice round has finished.</p>
            <b> For the rest of the experiment you will receive a $0.05 bonus for each correct answer!</b>
            <p> Press any key to begin the test. </p>
            "," ","intermission","","","","",""
"","","","","","html-keyboard-response","55","103374","0.0-6.0-0.0","60ada064782b7869e0e55dcb","6552129e68c08af5079f912e","6552131aba62c10c30a4c6ab","821","
            
        <div style=""text-align: center; position: fixed; top: 5vh; left: 40vw;"">
            <div style=""margin:0 auto; width: 20vw; top: 8vh; font-size: 1vw""> 
            <font color=""green""> Bonus : $0 </font>
            </div>
        </div>
    
            <div> Please press any button to continue to the next trial.</div>
        "," ","ITI","","","","",""
"","","","","","html-keyboard-response","56","103986","0.0-6.0-1.0","60ada064782b7869e0e55dcb","6552129e68c08af5079f912e","6552131aba62c10c30a4c6ab","null","
        
        <div style=""text-align: center; position: fixed; top: 5vh; left: 40vw;"">
            <div style=""margin:0 auto; width: 20vw; top: 8vh; font-size: 1vw""> 
            <font color=""green""> Bonus : $0 </font>
            </div>
        </div>
    
        <img class=""stim"" src=./stimuli//pack_1/cat_2/ex_2_44.png></img>
    ","null","stimulus","","","","",""
"","","","","","html-keyboard-response","57","104990","0.0-6.0-2.0","60ada064782b7869e0e55dcb","6552129e68c08af5079f912e","6552131aba62c10c30a4c6ab","null","
        <div style=""text-align: center; position: fixed; top: 5vh; left: 40vw;"">
            <div style=""margin:0 auto; width: 20vw; top: 8vh; font-size: 1vw""> 
            <font color=""green""> Bonus : $0 </font>
            </div>
        </div>
    ","null","","","","","",""
"","","","","","html-keyboard-response","58","105672","0.0-6.0-3.0","60ada064782b7869e0e55dcb","6552129e68c08af5079f912e","6552131aba62c10c30a4c6ab","682","./stimuli//pack_1/cat_2/ex_2_44.png","arrowleft","response","ArrowRight","44","2","false",""
"","","","","","html-keyboard-response","59","107032","0.0-6.0-4.0","60ada064782b7869e0e55dcb","6552129e68c08af5079f912e","6552131aba62c10c30a4c6ab","1359","<p> <font color=""red"" size=""4vw""> Wrong category! </font> </p>"," ","feedback","","","","","0"
"","","","","","html-keyboard-response","60","107833","0.0-6.0-0.1","60ada064782b7869e0e55dcb","6552129e68c08af5079f912e","6552131aba62c10c30a4c6ab","800","
            
        <div style=""text-align: center; position: fixed; top: 5vh; left: 40vw;"">
            <div style=""margin:0 auto; width: 20vw; top: 8vh; font-size: 1vw""> 
            <font color=""green""> Bonus : $0 </font>
            </div>
        </div>
    
            <div> Please press any button to continue to the next trial.</div>
        "," ","ITI","","","","",""
"","","","","","html-keyboard-response","61","108437","0.0-6.0-1.1","60ada064782b7869e0e55dcb","6552129e68c08af5079f912e","6552131aba62c10c30a4c6ab","null","
        
        <div style=""text-align: center; position: fixed; top: 5vh; left: 40vw;"">
            <div style=""margin:0 auto; width: 20vw; top: 8vh; font-size: 1vw""> 
            <font color=""green""> Bonus : $0 </font>
            </div>
        </div>
    
        <img class=""stim"" src=./stimuli//pack_1/cat_1/ex_1_68.png></img>
    ","null","stimulus","","","","",""
"","","","","","html-keyboard-response","62","109440","0.0-6.0-2.1","60ada064782b7869e0e55dcb","6552129e68c08af5079f912e","6552131aba62c10c30a4c6ab","null","
        <div style=""text-align: center; position: fixed; top: 5vh; left: 40vw;"">
            <div style=""margin:0 auto; width: 20vw; top: 8vh; font-size: 1vw""> 
            <font color=""green""> Bonus : $0 </font>
            </div>
        </div>
    ","null","","","","","",""
"","","","","","html-keyboard-response","63","109992","0.0-6.0-3.1","60ada064782b7869e0e55dcb","6552129e68c08af5079f912e","6552131aba62c10c30a4c6ab","551","./stimuli//pack_1/cat_1/ex_1_68.png","arrowright","response","ArrowLeft","68","1","false",""
"","","","","","html-keyboard-response","64","111145","0.0-6.0-4.1","60ada064782b7869e0e55dcb","6552129e68c08af5079f912e","6552131aba62c10c30a4c6ab","1153","<p> <font color=""red"" size=""4vw""> Wrong category! </font> </p>"," ","feedback","","","","","0"
"","","","","","html-keyboard-response","65","111681","0.0-6.0-0.2","60ada064782b7869e0e55dcb","6552129e68c08af5079f912e","6552131aba62c10c30a4c6ab","535","
            
        <div style=""text-align: center; position: fixed; top: 5vh; left: 40vw;"">
            <div style=""margin:0 auto; width: 20vw; top: 8vh; font-size: 1vw""> 
            <font color=""green""> Bonus : $0 </font>
            </div>
        </div>
    
            <div> Please press any button to continue to the next trial.</div>
        "," ","ITI","","","","",""
"","","","","","html-keyboard-response","66","112288","0.0-6.0-1.2","60ada064782b7869e0e55dcb","6552129e68c08af5079f912e","6552131aba62c10c30a4c6ab","null","
        
        <div style=""text-align: center; position: fixed; top: 5vh; left: 40vw;"">
            <div style=""margin:0 auto; width: 20vw; top: 8vh; font-size: 1vw""> 
            <font color=""green""> Bonus : $0 </font>
            </div>
        </div>
    
        <img class=""stim"" src=./stimuli//pack_1/cat_2/ex_2_49.png></img>
    ","null","stimulus","","","","",""
"","","","","","html-keyboard-response","67","113305","0.0-6.0-2.2","60ada064782b7869e0e55dcb","6552129e68c08af5079f912e","6552131aba62c10c30a4c6ab","null","
        <div style=""text-align: center; position: fixed; top: 5vh; left: 40vw;"">
            <div style=""margin:0 auto; width: 20vw; top: 8vh; font-size: 1vw""> 
            <font color=""green""> Bonus : $0 </font>
            </div>
        </div>
    ","null","","","","","",""
"","","","","","html-keyboard-response","68","113684","0.0-6.0-3.2","60ada064782b7869e0e55dcb","6552129e68c08af5079f912e","6552131aba62c10c30a4c6ab","379","./stimuli//pack_1/cat_2/ex_2_49.png","arrowright","response","ArrowRight","49","2","true",""
"","","","","","html-keyboard-response","69","115044","0.0-6.0-4.2","60ada064782b7869e0e55dcb","6552129e68c08af5079f912e","6552131aba62c10c30a4c6ab","1359","<p> <font color=""green"" size=""4vw""> Correct category! </font> <br> <br> <font color=""green"" size=""7vw""> + $0.05 </font> </p>"," ","feedback","","","","","0.05"
"","","","","","html-keyboard-response","70","115808","0.0-6.0-0.3","60ada064782b7869e0e55dcb","6552129e68c08af5079f912e","6552131aba62c10c30a4c6ab","763","
            
        <div style=""text-align: center; position: fixed; top: 5vh; left: 40vw;"">
            <div style=""margin:0 auto; width: 20vw; top: 8vh; font-size: 1vw""> 
            <font color=""green""> Bonus : $0.05 </font>
            </div>
        </div>
    
            <div> Please press any button to continue to the next trial.</div>
        "," ","ITI","","","","",""
"","","","","","html-keyboard-response","71","116420","0.0-6.0-1.3","60ada064782b7869e0e55dcb","6552129e68c08af5079f912e","6552131aba62c10c30a4c6ab","null","
        
        <div style=""text-align: center; position: fixed; top: 5vh; left: 40vw;"">
            <div style=""margin:0 auto; width: 20vw; top: 8vh; font-size: 1vw""> 
            <font color=""green""> Bonus : $0.05 </font>
            </div>
        </div>
    
        <img class=""stim"" src=./stimuli//pack_1/cat_1/ex_1_21.png></img>
    ","null","stimulus","","","","",""
"","","","","","html-keyboard-response","72","117423","0.0-6.0-2.3","60ada064782b7869e0e55dcb","6552129e68c08af5079f912e","6552131aba62c10c30a4c6ab","null","
        <div style=""text-align: center; position: fixed; top: 5vh; left: 40vw;"">
            <div style=""margin:0 auto; width: 20vw; top: 8vh; font-size: 1vw""> 
            <font color=""green""> Bonus : $0.05 </font>
            </div>
        </div>
    ","null","","","","","",""
"","","","","","html-keyboard-response","73","118257","0.0-6.0-3.3","60ada064782b7869e0e55dcb","6552129e68c08af5079f912e","6552131aba62c10c30a4c6ab","833","./stimuli//pack_1/cat_1/ex_1_21.png","arrowleft","response","ArrowLeft","21","1","true",""
"","","","","","html-keyboard-response","74","119524","0.0-6.0-4.3","60ada064782b7869e0e55dcb","6552129e68c08af5079f912e","6552131aba62c10c30a4c6ab","1266","<p> <font color=""green"" size=""4vw""> Correct category! </font> <br> <br> <font color=""green"" size=""7vw""> + $0.05 </font> </p>"," ","feedback","","","","","0.1"
"","","","","","html-keyboard-response","75","120059","0.0-6.0-0.4","60ada064782b7869e0e55dcb","6552129e68c08af5079f912e","6552131aba62c10c30a4c6ab","534","
            
        <div style=""text-align: center; position: fixed; top: 5vh; left: 40vw;"">
            <div style=""margin:0 auto; width: 20vw; top: 8vh; font-size: 1vw""> 
            <font color=""green""> Bonus : $0.1 </font>
            </div>
        </div>
    
            <div> Please press any button to continue to the next trial.</div>
        "," ","ITI","","","","",""
"","","","","","html-keyboard-response","76","120670","0.0-6.0-1.4","60ada064782b7869e0e55dcb","6552129e68c08af5079f912e","6552131aba62c10c30a4c6ab","null","
        
        <div style=""text-align: center; position: fixed; top: 5vh; left: 40vw;"">
            <div style=""margin:0 auto; width: 20vw; top: 8vh; font-size: 1vw""> 
            <font color=""green""> Bonus : $0.1 </font>
            </div>
        </div>
    
        <img class=""stim"" src=./stimuli//pack_1/cat_1/ex_1_49.png></img>
    ","null","stimulus","","","","",""
"","","","","","html-keyboard-response","77","121673","0.0-6.0-2.4","60ada064782b7869e0e55dcb","6552129e68c08af5079f912e","6552131aba62c10c30a4c6ab","null","
        <div style=""text-align: center; position: fixed; top: 5vh; left: 40vw;"">
            <div style=""margin:0 auto; width: 20vw; top: 8vh; font-size: 1vw""> 
            <font color=""green""> Bonus : $0.1 </font>
            </div>
        </div>
    ","null","","","","","",""
"","","","","","html-keyboard-response","78","122071","0.0-6.0-3.4","60ada064782b7869e0e55dcb","6552129e68c08af5079f912e","6552131aba62c10c30a4c6ab","398","./stimuli//pack_1/cat_1/ex_1_49.png","arrowleft","response","ArrowLeft","49","1","true",""
"","","","","","html-keyboard-response","79","123103","0.0-6.0-4.4","60ada064782b7869e0e55dcb","6552129e68c08af5079f912e","6552131aba62c10c30a4c6ab","1030","<p> <font color=""green"" size=""4vw""> Correct category! </font> <br> <br> <font color=""green"" size=""7vw""> + $0.05 </font> </p>"," ","feedback","","","","","0.15"
"","","","","","html-keyboard-response","80","123558","0.0-6.0-0.5","60ada064782b7869e0e55dcb","6552129e68c08af5079f912e","6552131aba62c10c30a4c6ab","455","
            
        <div style=""text-align: center; position: fixed; top: 5vh; left: 40vw;"">
            <div style=""margin:0 auto; width: 20vw; top: 8vh; font-size: 1vw""> 
            <font color=""green""> Bonus : $0.15 </font>
            </div>
        </div>
    
            <div> Please press any button to continue to the next trial.</div>
        "," ","ITI","","","","",""
"","","","","","html-keyboard-response","81","124170","0.0-6.0-1.5","60ada064782b7869e0e55dcb","6552129e68c08af5079f912e","6552131aba62c10c30a4c6ab","null","
        
        <div style=""text-align: center; position: fixed; top: 5vh; left: 40vw;"">
            <div style=""margin:0 auto; width: 20vw; top: 8vh; font-size: 1vw""> 
            <font color=""green""> Bonus : $0.15 </font>
            </div>
        </div>
    
        <img class=""stim"" src=./stimuli//pack_1/cat_2/ex_2_56.png></img>
    ","null","stimulus","","","","",""
"","","","","","html-keyboard-response","82","125172","0.0-6.0-2.5","60ada064782b7869e0e55dcb","6552129e68c08af5079f912e","6552131aba62c10c30a4c6ab","null","
        <div style=""text-align: center; position: fixed; top: 5vh; left: 40vw;"">
            <div style=""margin:0 auto; width: 20vw; top: 8vh; font-size: 1vw""> 
            <font color=""green""> Bonus : $0.15 </font>
            </div>
        </div>
    ","null","","","","","",""
"","","","","","html-keyboard-response","83","125599","0.0-6.0-3.5","60ada064782b7869e0e55dcb","6552129e68c08af5079f912e","6552131aba62c10c30a4c6ab","426","./stimuli//pack_1/cat_2/ex_2_56.png","arrowright","response","ArrowRight","56","2","true",""
"","","","","","html-keyboard-response","84","126959","0.0-6.0-4.5","60ada064782b7869e0e55dcb","6552129e68c08af5079f912e","6552131aba62c10c30a4c6ab","1360","<p> <font color=""green"" size=""4vw""> Correct category! </font> <br> <br> <font color=""green"" size=""7vw""> + $0.05 </font> </p>"," ","feedback","","","","","0.2"
"","","","","","html-keyboard-response","85","127465","0.0-6.0-0.6","60ada064782b7869e0e55dcb","6552129e68c08af5079f912e","6552131aba62c10c30a4c6ab","505","
            
        <div style=""text-align: center; position: fixed; top: 5vh; left: 40vw;"">
            <div style=""margin:0 auto; width: 20vw; top: 8vh; font-size: 1vw""> 
            <font color=""green""> Bonus : $0.2 </font>
            </div>
        </div>
    
            <div> Please press any button to continue to the next trial.</div>
        "," ","ITI","","","","",""
"","","","","","html-keyboard-response","86","128072","0.0-6.0-1.6","60ada064782b7869e0e55dcb","6552129e68c08af5079f912e","6552131aba62c10c30a4c6ab","null","
        
        <div style=""text-align: center; position: fixed; top: 5vh; left: 40vw;"">
            <div style=""margin:0 auto; width: 20vw; top: 8vh; font-size: 1vw""> 
            <font color=""green""> Bonus : $0.2 </font>
            </div>
        </div>
    
        <img class=""stim"" src=./stimuli//pack_1/cat_2/ex_2_99.png></img>
    ","null","stimulus","","","","",""
"","","","","","html-keyboard-response","87","129088","0.0-6.0-2.6","60ada064782b7869e0e55dcb","6552129e68c08af5079f912e","6552131aba62c10c30a4c6ab","null","
        <div style=""text-align: center; position: fixed; top: 5vh; left: 40vw;"">
            <div style=""margin:0 auto; width: 20vw; top: 8vh; font-size: 1vw""> 
            <font color=""green""> Bonus : $0.2 </font>
            </div>
        </div>
    ","null","","","","","",""
"","","","","","html-keyboard-response","88","129573","0.0-6.0-3.6","60ada064782b7869e0e55dcb","6552129e68c08af5079f912e","6552131aba62c10c30a4c6ab","484","./stimuli//pack_1/cat_2/ex_2_99.png","arrowright","response","ArrowRight","99","2","true",""
"","","","","","html-keyboard-response","89","130921","0.0-6.0-4.6","60ada064782b7869e0e55dcb","6552129e68c08af5079f912e","6552131aba62c10c30a4c6ab","1347","<p> <font color=""green"" size=""4vw""> Correct category! </font> <br> <br> <font color=""green"" size=""7vw""> + $0.05 </font> </p>"," ","feedback","","","","","0.25"
"","","","","","html-keyboard-response","90","131351","0.0-6.0-0.7","60ada064782b7869e0e55dcb","6552129e68c08af5079f912e","6552131aba62c10c30a4c6ab","429","
            
        <div style=""text-align: center; position: fixed; top: 5vh; left: 40vw;"">
            <div style=""margin:0 auto; width: 20vw; top: 8vh; font-size: 1vw""> 
            <font color=""green""> Bonus : $0.25 </font>
            </div>
        </div>
    
            <div> Please press any button to continue to the next trial.</div>
        "," ","ITI","","","","",""
"","","","","","html-keyboard-response","91","131955","0.0-6.0-1.7","60ada064782b7869e0e55dcb","6552129e68c08af5079f912e","6552131aba62c10c30a4c6ab","null","
        
        <div style=""text-align: center; position: fixed; top: 5vh; left: 40vw;"">
            <div style=""margin:0 auto; width: 20vw; top: 8vh; font-size: 1vw""> 
            <font color=""green""> Bonus : $0.25 </font>
            </div>
        </div>
    
        <img class=""stim"" src=./stimuli//pack_1/cat_1/ex_1_25.png></img>
    ","null","stimulus","","","","",""
"","","","","","html-keyboard-response","92","132971","0.0-6.0-2.7","60ada064782b7869e0e55dcb","6552129e68c08af5079f912e","6552131aba62c10c30a4c6ab","null","
        <div style=""text-align: center; position: fixed; top: 5vh; left: 40vw;"">
            <div style=""margin:0 auto; width: 20vw; top: 8vh; font-size: 1vw""> 
            <font color=""green""> Bonus : $0.25 </font>
            </div>
        </div>
    ","null","","","","","",""
"","","","","","html-keyboard-response","93","133392","0.0-6.0-3.7","60ada064782b7869e0e55dcb","6552129e68c08af5079f912e","6552131aba62c10c30a4c6ab","419","./stimuli//pack_1/cat_1/ex_1_25.png","arrowright","response","ArrowLeft","25","1","false",""
"","","","","","html-keyboard-response","94","134904","0.0-6.0-4.7","60ada064782b7869e0e55dcb","6552129e68c08af5079f912e","6552131aba62c10c30a4c6ab","null","<p> <font color=""red"" size=""4vw""> Wrong category! </font> </p>","null","feedback","","","","","0.25"
"","","","","","html-keyboard-response","95","134937","0.0-6.0-0.8","60ada064782b7869e0e55dcb","6552129e68c08af5079f912e","6552131aba62c10c30a4c6ab","32","
            
        <div style=""text-align: center; position: fixed; top: 5vh; left: 40vw;"">
            <div style=""margin:0 auto; width: 20vw; top: 8vh; font-size: 1vw""> 
            <font color=""green""> Bonus : $0.25 </font>
            </div>
        </div>
    
            <div> Please press any button to continue to the next trial.</div>
        "," ","ITI","","","","",""
"","","","","","html-keyboard-response","96","135551","0.0-6.0-1.8","60ada064782b7869e0e55dcb","6552129e68c08af5079f912e","6552131aba62c10c30a4c6ab","null","
        
        <div style=""text-align: center; position: fixed; top: 5vh; left: 40vw;"">
            <div style=""margin:0 auto; width: 20vw; top: 8vh; font-size: 1vw""> 
            <font color=""green""> Bonus : $0.25 </font>
            </div>
        </div>
    
        <img class=""stim"" src=./stimuli//pack_1/cat_2/ex_2_41.png></img>
    ","null","stimulus","","","","",""
"","","","","","html-keyboard-response","97","136555","0.0-6.0-2.8","60ada064782b7869e0e55dcb","6552129e68c08af5079f912e","6552131aba62c10c30a4c6ab","null","
        <div style=""text-align: center; position: fixed; top: 5vh; left: 40vw;"">
            <div style=""margin:0 auto; width: 20vw; top: 8vh; font-size: 1vw""> 
            <font color=""green""> Bonus : $0.25 </font>
            </div>
        </div>
    ","null","","","","","",""
"","","","","","html-keyboard-response","98","137109","0.0-6.0-3.8","60ada064782b7869e0e55dcb","6552129e68c08af5079f912e","6552131aba62c10c30a4c6ab","553","./stimuli//pack_1/cat_2/ex_2_41.png","arrowleft","response","ArrowRight","41","2","false",""
"","","","","","html-keyboard-response","99","138098","0.0-6.0-4.8","60ada064782b7869e0e55dcb","6552129e68c08af5079f912e","6552131aba62c10c30a4c6ab","988","<p> <font color=""red"" size=""4vw""> Wrong category! </font> </p>"," ","feedback","","","","","0.25"
"","","","","","html-keyboard-response","100","138398","0.0-6.0-0.9","60ada064782b7869e0e55dcb","6552129e68c08af5079f912e","6552131aba62c10c30a4c6ab","299","
            
        <div style=""text-align: center; position: fixed; top: 5vh; left: 40vw;"">
            <div style=""margin:0 auto; width: 20vw; top: 8vh; font-size: 1vw""> 
            <font color=""green""> Bonus : $0.25 </font>
            </div>
        </div>
    
            <div> Please press any button to continue to the next trial.</div>
        "," ","ITI","","","","",""
"","","","","","html-keyboard-response","101","139003","0.0-6.0-1.9","60ada064782b7869e0e55dcb","6552129e68c08af5079f912e","6552131aba62c10c30a4c6ab","null","
        
        <div style=""text-align: center; position: fixed; top: 5vh; left: 40vw;"">
            <div style=""margin:0 auto; width: 20vw; top: 8vh; font-size: 1vw""> 
            <font color=""green""> Bonus : $0.25 </font>
            </div>
        </div>
    
        <img class=""stim"" src=./stimuli//pack_1/cat_1/ex_1_15.png></img>
    ","null","stimulus","","","","",""
"","","","","","html-keyboard-response","102","140006","0.0-6.0-2.9","60ada064782b7869e0e55dcb","6552129e68c08af5079f912e","6552131aba62c10c30a4c6ab","null","
        <div style=""text-align: center; position: fixed; top: 5vh; left: 40vw;"">
            <div style=""margin:0 auto; width: 20vw; top: 8vh; font-size: 1vw""> 
            <font color=""green""> Bonus : $0.25 </font>
            </div>
        </div>
    ","null","","","","","",""
"","","","","","html-keyboard-response","103","140851","0.0-6.0-3.9","60ada064782b7869e0e55dcb","6552129e68c08af5079f912e","6552131aba62c10c30a4c6ab","844","./stimuli//pack_1/cat_1/ex_1_15.png","arrowright","response","ArrowLeft","15","1","false",""
"","","","","","html-keyboard-response","104","141778","0.0-6.0-4.9","60ada064782b7869e0e55dcb","6552129e68c08af5079f912e","6552131aba62c10c30a4c6ab","926","<p> <font color=""red"" size=""4vw""> Wrong category! </font> </p>"," ","feedback","","","","","0.25"
"","","","","","html-keyboard-response","105","142043","0.0-6.0-0.10","60ada064782b7869e0e55dcb","6552129e68c08af5079f912e","6552131aba62c10c30a4c6ab","265","
            
        <div style=""text-align: center; position: fixed; top: 5vh; left: 40vw;"">
            <div style=""margin:0 auto; width: 20vw; top: 8vh; font-size: 1vw""> 
            <font color=""green""> Bonus : $0.25 </font>
            </div>
        </div>
    
            <div> Please press any button to continue to the next trial.</div>
        "," ","ITI","","","","",""
"","","","","","html-keyboard-response","106","142653","0.0-6.0-1.10","60ada064782b7869e0e55dcb","6552129e68c08af5079f912e","6552131aba62c10c30a4c6ab","null","
        
        <div style=""text-align: center; position: fixed; top: 5vh; left: 40vw;"">
            <div style=""margin:0 auto; width: 20vw; top: 8vh; font-size: 1vw""> 
            <font color=""green""> Bonus : $0.25 </font>
            </div>
        </div>
    
        <img class=""stim"" src=./stimuli//pack_1/cat_2/ex_2_90.png></img>
    ","null","stimulus","","","","",""
"","","","","","html-keyboard-response","107","143656","0.0-6.0-2.10","60ada064782b7869e0e55dcb","6552129e68c08af5079f912e","6552131aba62c10c30a4c6ab","null","
        <div style=""text-align: center; position: fixed; top: 5vh; left: 40vw;"">
            <div style=""margin:0 auto; width: 20vw; top: 8vh; font-size: 1vw""> 
            <font color=""green""> Bonus : $0.25 </font>
            </div>
        </div>
    ","null","","","","","",""
"","","","","","html-keyboard-response","108","144396","0.0-6.0-3.10","60ada064782b7869e0e55dcb","6552129e68c08af5079f912e","6552131aba62c10c30a4c6ab","739","./stimuli//pack_1/cat_2/ex_2_90.png","arrowright","response","ArrowRight","90","2","true",""
"","","","","","html-keyboard-response","109","145394","0.0-6.0-4.10","60ada064782b7869e0e55dcb","6552129e68c08af5079f912e","6552131aba62c10c30a4c6ab","997","<p> <font color=""green"" size=""4vw""> Correct category! </font> <br> <br> <font color=""green"" size=""7vw""> + $0.05 </font> </p>"," ","feedback","","","","","0.3"
"","","","","","html-keyboard-response","110","145668","0.0-6.0-0.11","60ada064782b7869e0e55dcb","6552129e68c08af5079f912e","6552131aba62c10c30a4c6ab","274","
            
        <div style=""text-align: center; position: fixed; top: 5vh; left: 40vw;"">
            <div style=""margin:0 auto; width: 20vw; top: 8vh; font-size: 1vw""> 
            <font color=""green""> Bonus : $0.3 </font>
            </div>
        </div>
    
            <div> Please press any button to continue to the next trial.</div>
        "," ","ITI","","","","",""
"","","","","","html-keyboard-response","111","146269","0.0-6.0-1.11","60ada064782b7869e0e55dcb","6552129e68c08af5079f912e","6552131aba62c10c30a4c6ab","null","
        
        <div style=""text-align: center; position: fixed; top: 5vh; left: 40vw;"">
            <div style=""margin:0 auto; width: 20vw; top: 8vh; font-size: 1vw""> 
            <font color=""green""> Bonus : $0.3 </font>
            </div>
        </div>
    
        <img class=""stim"" src=./stimuli//pack_1/cat_2/ex_2_55.png></img>
    ","null","stimulus","","","","",""
"","","","","","html-keyboard-response","112","147273","0.0-6.0-2.11","60ada064782b7869e0e55dcb","6552129e68c08af5079f912e","6552131aba62c10c30a4c6ab","null","
        <div style=""text-align: center; position: fixed; top: 5vh; left: 40vw;"">
            <div style=""margin:0 auto; width: 20vw; top: 8vh; font-size: 1vw""> 
            <font color=""green""> Bonus : $0.3 </font>
            </div>
        </div>
    ","null","","","","","",""
"","","","","","html-keyboard-response","113","147785","0.0-6.0-3.11","60ada064782b7869e0e55dcb","6552129e68c08af5079f912e","6552131aba62c10c30a4c6ab","511","./stimuli//pack_1/cat_2/ex_2_55.png","arrowleft","response","ArrowRight","55","2","false",""
"","","","","","html-keyboard-response","114","148602","0.0-6.0-4.11","60ada064782b7869e0e55dcb","6552129e68c08af5079f912e","6552131aba62c10c30a4c6ab","816","<p> <font color=""red"" size=""4vw""> Wrong category! </font> </p>"," ","feedback","","","","","0.3"
"","","","","","html-keyboard-response","115","148859","0.0-6.0-0.12","60ada064782b7869e0e55dcb","6552129e68c08af5079f912e","6552131aba62c10c30a4c6ab","256","
            
        <div style=""text-align: center; position: fixed; top: 5vh; left: 40vw;"">
            <div style=""margin:0 auto; width: 20vw; top: 8vh; font-size: 1vw""> 
            <font color=""green""> Bonus : $0.3 </font>
            </div>
        </div>
    
            <div> Please press any button to continue to the next trial.</div>
        "," ","ITI","","","","",""
"","","","","","html-keyboard-response","116","149470","0.0-6.0-1.12","60ada064782b7869e0e55dcb","6552129e68c08af5079f912e","6552131aba62c10c30a4c6ab","null","
        
        <div style=""text-align: center; position: fixed; top: 5vh; left: 40vw;"">
            <div style=""margin:0 auto; width: 20vw; top: 8vh; font-size: 1vw""> 
            <font color=""green""> Bonus : $0.3 </font>
            </div>
        </div>
    
        <img class=""stim"" src=./stimuli//pack_1/cat_2/ex_2_37.png></img>
    ","null","stimulus","","","","",""
"","","","","","html-keyboard-response","117","150473","0.0-6.0-2.12","60ada064782b7869e0e55dcb","6552129e68c08af5079f912e","6552131aba62c10c30a4c6ab","null","
        <div style=""text-align: center; position: fixed; top: 5vh; left: 40vw;"">
            <div style=""margin:0 auto; width: 20vw; top: 8vh; font-size: 1vw""> 
            <font color=""green""> Bonus : $0.3 </font>
            </div>
        </div>
    ","null","","","","","",""
"","","","","","html-keyboard-response","118","151228","0.0-6.0-3.12","60ada064782b7869e0e55dcb","6552129e68c08af5079f912e","6552131aba62c10c30a4c6ab","754","./stimuli//pack_1/cat_2/ex_2_37.png","arrowleft","response","ArrowRight","37","2","false",""
"","","","","","html-keyboard-response","119","151838","0.0-6.0-4.12","60ada064782b7869e0e55dcb","6552129e68c08af5079f912e","6552131aba62c10c30a4c6ab","610","<p> <font color=""red"" size=""4vw""> Wrong category! </font> </p>"," ","feedback","","","","","0.3"
"","","","","","html-keyboard-response","120","152096","0.0-6.0-0.13","60ada064782b7869e0e55dcb","6552129e68c08af5079f912e","6552131aba62c10c30a4c6ab","256","
            
        <div style=""text-align: center; position: fixed; top: 5vh; left: 40vw;"">
            <div style=""margin:0 auto; width: 20vw; top: 8vh; font-size: 1vw""> 
            <font color=""green""> Bonus : $0.3 </font>
            </div>
        </div>
    
            <div> Please press any button to continue to the next trial.</div>
        "," ","ITI","","","","",""
"","","","","","html-keyboard-response","121","152701","0.0-6.0-1.13","60ada064782b7869e0e55dcb","6552129e68c08af5079f912e","6552131aba62c10c30a4c6ab","null","
        
        <div style=""text-align: center; position: fixed; top: 5vh; left: 40vw;"">
            <div style=""margin:0 auto; width: 20vw; top: 8vh; font-size: 1vw""> 
            <font color=""green""> Bonus : $0.3 </font>
            </div>
        </div>
    
        <img class=""stim"" src=./stimuli//pack_1/cat_1/ex_1_93.png></img>
    ","null","stimulus","","","","",""
"","","","","","html-keyboard-response","122","153705","0.0-6.0-2.13","60ada064782b7869e0e55dcb","6552129e68c08af5079f912e","6552131aba62c10c30a4c6ab","null","
        <div style=""text-align: center; position: fixed; top: 5vh; left: 40vw;"">
            <div style=""margin:0 auto; width: 20vw; top: 8vh; font-size: 1vw""> 
            <font color=""green""> Bonus : $0.3 </font>
            </div>
        </div>
    ","null","","","","","",""
"","","","","","html-keyboard-response","123","154149","0.0-6.0-3.13","60ada064782b7869e0e55dcb","6552129e68c08af5079f912e","6552131aba62c10c30a4c6ab","443","./stimuli//pack_1/cat_1/ex_1_93.png","arrowright","response","ArrowLeft","93","1","false",""
"","","","","","html-keyboard-response","124","155654","0.0-6.0-4.13","60ada064782b7869e0e55dcb","6552129e68c08af5079f912e","6552131aba62c10c30a4c6ab","null","<p> <font color=""red"" size=""4vw""> Wrong category! </font> </p>","null","feedback","","","","","0.3"
"","","","","","html-keyboard-response","125","155753","0.0-6.0-0.14","60ada064782b7869e0e55dcb","6552129e68c08af5079f912e","6552131aba62c10c30a4c6ab","99","
            
        <div style=""text-align: center; position: fixed; top: 5vh; left: 40vw;"">
            <div style=""margin:0 auto; width: 20vw; top: 8vh; font-size: 1vw""> 
            <font color=""green""> Bonus : $0.3 </font>
            </div>
        </div>
    
            <div> Please press any button to continue to the next trial.</div>
        "," ","ITI","","","","",""
"","","","","","html-keyboard-response","126","156368","0.0-6.0-1.14","60ada064782b7869e0e55dcb","6552129e68c08af5079f912e","6552131aba62c10c30a4c6ab","null","
        
        <div style=""text-align: center; position: fixed; top: 5vh; left: 40vw;"">
            <div style=""margin:0 auto; width: 20vw; top: 8vh; font-size: 1vw""> 
            <font color=""green""> Bonus : $0.3 </font>
            </div>
        </div>
    
        <img class=""stim"" src=./stimuli//pack_1/cat_1/ex_1_2.png></img>
    ","null","stimulus","","","","",""
"","","","","","html-keyboard-response","127","157372","0.0-6.0-2.14","60ada064782b7869e0e55dcb","6552129e68c08af5079f912e","6552131aba62c10c30a4c6ab","null","
        <div style=""text-align: center; position: fixed; top: 5vh; left: 40vw;"">
            <div style=""margin:0 auto; width: 20vw; top: 8vh; font-size: 1vw""> 
            <font color=""green""> Bonus : $0.3 </font>
            </div>
        </div>
    ","null","","","","","",""
"","","","","","html-keyboard-response","128","157782","0.0-6.0-3.14","60ada064782b7869e0e55dcb","6552129e68c08af5079f912e","6552131aba62c10c30a4c6ab","410","./stimuli//pack_1/cat_1/ex_1_2.png","arrowleft","response","ArrowLeft","2","1","true",""
"","","","","","html-keyboard-response","129","158928","0.0-6.0-4.14","60ada064782b7869e0e55dcb","6552129e68c08af5079f912e","6552131aba62c10c30a4c6ab","1145","<p> <font color=""green"" size=""4vw""> Correct category! </font> <br> <br> <font color=""green"" size=""7vw""> + $0.05 </font> </p>"," ","feedback","","","","","0.35"
"","","","","","html-keyboard-response","130","159167","0.0-6.0-0.15","60ada064782b7869e0e55dcb","6552129e68c08af5079f912e","6552131aba62c10c30a4c6ab","239","
            
        <div style=""text-align: center; position: fixed; top: 5vh; left: 40vw;"">
            <div style=""margin:0 auto; width: 20vw; top: 8vh; font-size: 1vw""> 
            <font color=""green""> Bonus : $0.35 </font>
            </div>
        </div>
    
            <div> Please press any button to continue to the next trial.</div>
        "," ","ITI","","","","",""
"","","","","","html-keyboard-response","131","159770","0.0-6.0-1.15","60ada064782b7869e0e55dcb","6552129e68c08af5079f912e","6552131aba62c10c30a4c6ab","null","
        
        <div style=""text-align: center; position: fixed; top: 5vh; left: 40vw;"">
            <div style=""margin:0 auto; width: 20vw; top: 8vh; font-size: 1vw""> 
            <font color=""green""> Bonus : $0.35 </font>
            </div>
        </div>
    
        <img class=""stim"" src=./stimuli//pack_1/cat_1/ex_1_33.png></img>
    ","null","stimulus","","","","",""
"","","","","","html-keyboard-response","132","160783","0.0-6.0-2.15","60ada064782b7869e0e55dcb","6552129e68c08af5079f912e","6552131aba62c10c30a4c6ab","null","
        <div style=""text-align: center; position: fixed; top: 5vh; left: 40vw;"">
            <div style=""margin:0 auto; width: 20vw; top: 8vh; font-size: 1vw""> 
            <font color=""green""> Bonus : $0.35 </font>
            </div>
        </div>
    ","null","","","","","",""
"","","","","","html-keyboard-response","133","161318","0.0-6.0-3.15","60ada064782b7869e0e55dcb","6552129e68c08af5079f912e","6552131aba62c10c30a4c6ab","534","./stimuli//pack_1/cat_1/ex_1_33.png","arrowright","response","ArrowLeft","33","1","false",""
"","","","","","html-keyboard-response","134","161979","0.0-6.0-4.15","60ada064782b7869e0e55dcb","6552129e68c08af5079f912e","6552131aba62c10c30a4c6ab","660","<p> <font color=""red"" size=""4vw""> Wrong category! </font> </p>"," ","feedback","","","","","0.35"
"","","","","","html-keyboard-response","135","162262","0.0-6.0-0.16","60ada064782b7869e0e55dcb","6552129e68c08af5079f912e","6552131aba62c10c30a4c6ab","282","
            
        <div style=""text-align: center; position: fixed; top: 5vh; left: 40vw;"">
            <div style=""margin:0 auto; width: 20vw; top: 8vh; font-size: 1vw""> 
            <font color=""green""> Bonus : $0.35 </font>
            </div>
        </div>
    
            <div> Please press any button to continue to the next trial.</div>
        "," ","ITI","","","","",""
"","","","","","html-keyboard-response","136","162873","0.0-6.0-1.16","60ada064782b7869e0e55dcb","6552129e68c08af5079f912e","6552131aba62c10c30a4c6ab","null","
        
        <div style=""text-align: center; position: fixed; top: 5vh; left: 40vw;"">
            <div style=""margin:0 auto; width: 20vw; top: 8vh; font-size: 1vw""> 
            <font color=""green""> Bonus : $0.35 </font>
            </div>
        </div>
    
        <img class=""stim"" src=./stimuli//pack_1/cat_1/ex_1_78.png></img>
    ","null","stimulus","","","","",""
"","","","","","html-keyboard-response","137","163875","0.0-6.0-2.16","60ada064782b7869e0e55dcb","6552129e68c08af5079f912e","6552131aba62c10c30a4c6ab","null","
        <div style=""text-align: center; position: fixed; top: 5vh; left: 40vw;"">
            <div style=""margin:0 auto; width: 20vw; top: 8vh; font-size: 1vw""> 
            <font color=""green""> Bonus : $0.35 </font>
            </div>
        </div>
    ","null","","","","","",""
"","","","","","html-keyboard-response","138","164237","0.0-6.0-3.16","60ada064782b7869e0e55dcb","6552129e68c08af5079f912e","6552131aba62c10c30a4c6ab","361","./stimuli//pack_1/cat_1/ex_1_78.png","arrowleft","response","ArrowLeft","78","1","true",""
"","","","","","html-keyboard-response","139","164978","0.0-6.0-4.16","60ada064782b7869e0e55dcb","6552129e68c08af5079f912e","6552131aba62c10c30a4c6ab","740","<p> <font color=""green"" size=""4vw""> Correct category! </font> <br> <br> <font color=""green"" size=""7vw""> + $0.05 </font> </p>"," ","feedback","","","","","0.4"
"","","","","","html-keyboard-response","140","165252","0.0-6.0-0.17","60ada064782b7869e0e55dcb","6552129e68c08af5079f912e","6552131aba62c10c30a4c6ab","273","
            
        <div style=""text-align: center; position: fixed; top: 5vh; left: 40vw;"">
            <div style=""margin:0 auto; width: 20vw; top: 8vh; font-size: 1vw""> 
            <font color=""green""> Bonus : $0.4 </font>
            </div>
        </div>
    
            <div> Please press any button to continue to the next trial.</div>
        "," ","ITI","","","","",""
"","","","","","html-keyboard-response","141","165864","0.0-6.0-1.17","60ada064782b7869e0e55dcb","6552129e68c08af5079f912e","6552131aba62c10c30a4c6ab","null","
        
        <div style=""text-align: center; position: fixed; top: 5vh; left: 40vw;"">
            <div style=""margin:0 auto; width: 20vw; top: 8vh; font-size: 1vw""> 
            <font color=""green""> Bonus : $0.4 </font>
            </div>
        </div>
    
        <img class=""stim"" src=./stimuli//pack_1/cat_1/ex_1_1.png></img>
    ","null","stimulus","","","","",""
"","","","","","html-keyboard-response","142","166866","0.0-6.0-2.17","60ada064782b7869e0e55dcb","6552129e68c08af5079f912e","6552131aba62c10c30a4c6ab","null","
        <div style=""text-align: center; position: fixed; top: 5vh; left: 40vw;"">
            <div style=""margin:0 auto; width: 20vw; top: 8vh; font-size: 1vw""> 
            <font color=""green""> Bonus : $0.4 </font>
            </div>
        </div>
    ","null","","","","","",""
"","","","","","html-keyboard-response","143","167268","0.0-6.0-3.17","60ada064782b7869e0e55dcb","6552129e68c08af5079f912e","6552131aba62c10c30a4c6ab","401","./stimuli//pack_1/cat_1/ex_1_1.png","arrowleft","response","ArrowLeft","1","1","true",""
"","","","","","html-keyboard-response","144","168527","0.0-6.0-4.17","60ada064782b7869e0e55dcb","6552129e68c08af5079f912e","6552131aba62c10c30a4c6ab","1258","<p> <font color=""green"" size=""4vw""> Correct category! </font> <br> <br> <font color=""green"" size=""7vw""> + $0.05 </font> </p>"," ","feedback","","","","","0.45"
"","","","","","html-keyboard-response","145","168767","0.0-6.0-0.18","60ada064782b7869e0e55dcb","6552129e68c08af5079f912e","6552131aba62c10c30a4c6ab","239","
            
        <div style=""text-align: center; position: fixed; top: 5vh; left: 40vw;"">
            <div style=""margin:0 auto; width: 20vw; top: 8vh; font-size: 1vw""> 
            <font color=""green""> Bonus : $0.45 </font>
            </div>
        </div>
    
            <div> Please press any button to continue to the next trial.</div>
        "," ","ITI","","","","",""
"","","","","","html-keyboard-response","146","169371","0.0-6.0-1.18","60ada064782b7869e0e55dcb","6552129e68c08af5079f912e","6552131aba62c10c30a4c6ab","null","
        
        <div style=""text-align: center; position: fixed; top: 5vh; left: 40vw;"">
            <div style=""margin:0 auto; width: 20vw; top: 8vh; font-size: 1vw""> 
            <font color=""green""> Bonus : $0.45 </font>
            </div>
        </div>
    
        <img class=""stim"" src=./stimuli//pack_1/cat_2/ex_2_52.png></img>
    ","null","stimulus","","","","",""
"","","","","","html-keyboard-response","147","170374","0.0-6.0-2.18","60ada064782b7869e0e55dcb","6552129e68c08af5079f912e","6552131aba62c10c30a4c6ab","null","
        <div style=""text-align: center; position: fixed; top: 5vh; left: 40vw;"">
            <div style=""margin:0 auto; width: 20vw; top: 8vh; font-size: 1vw""> 
            <font color=""green""> Bonus : $0.45 </font>
            </div>
        </div>
    ","null","","","","","",""
"","","","","","html-keyboard-response","148","171187","0.0-6.0-3.18","60ada064782b7869e0e55dcb","6552129e68c08af5079f912e","6552131aba62c10c30a4c6ab","813","./stimuli//pack_1/cat_2/ex_2_52.png","arrowright","response","ArrowRight","52","2","true",""
"","","","","","html-keyboard-response","149","172387","0.0-6.0-4.18","60ada064782b7869e0e55dcb","6552129e68c08af5079f912e","6552131aba62c10c30a4c6ab","1199","<p> <font color=""green"" size=""4vw""> Correct category! </font> <br> <br> <font color=""green"" size=""7vw""> + $0.05 </font> </p>"," ","feedback","","","","","0.5"
"","","","","","html-keyboard-response","150","172628","0.0-6.0-0.19","60ada064782b7869e0e55dcb","6552129e68c08af5079f912e","6552131aba62c10c30a4c6ab","241","
            
        <div style=""text-align: center; position: fixed; top: 5vh; left: 40vw;"">
            <div style=""margin:0 auto; width: 20vw; top: 8vh; font-size: 1vw""> 
            <font color=""green""> Bonus : $0.5 </font>
            </div>
        </div>
    
            <div> Please press any button to continue to the next trial.</div>
        "," ","ITI","","","","",""
"","","","","","html-keyboard-response","151","173229","0.0-6.0-1.19","60ada064782b7869e0e55dcb","6552129e68c08af5079f912e","6552131aba62c10c30a4c6ab","null","
        
        <div style=""text-align: center; position: fixed; top: 5vh; left: 40vw;"">
            <div style=""margin:0 auto; width: 20vw; top: 8vh; font-size: 1vw""> 
            <font color=""green""> Bonus : $0.5 </font>
            </div>
        </div>
    
        <img class=""stim"" src=./stimuli//pack_1/cat_2/ex_2_3.png></img>
    ","null","stimulus","","","","",""
"","","","","","html-keyboard-response","152","174232","0.0-6.0-2.19","60ada064782b7869e0e55dcb","6552129e68c08af5079f912e","6552131aba62c10c30a4c6ab","null","
        <div style=""text-align: center; position: fixed; top: 5vh; left: 40vw;"">
            <div style=""margin:0 auto; width: 20vw; top: 8vh; font-size: 1vw""> 
            <font color=""green""> Bonus : $0.5 </font>
            </div>
        </div>
    ","null","","","","","",""
"","","","","","html-keyboard-response","153","174592","0.0-6.0-3.19","60ada064782b7869e0e55dcb","6552129e68c08af5079f912e","6552131aba62c10c30a4c6ab","359","./stimuli//pack_1/cat_2/ex_2_3.png","arrowright","response","ArrowRight","3","2","true",""
"","","","","","html-keyboard-response","154","175784","0.0-6.0-4.19","60ada064782b7869e0e55dcb","6552129e68c08af5079f912e","6552131aba62c10c30a4c6ab","1191","<p> <font color=""green"" size=""4vw""> Correct category! </font> <br> <br> <font color=""green"" size=""7vw""> + $0.05 </font> </p>"," ","feedback","","","","","0.55"
"","","","","","html-keyboard-response","155","176050","0.0-6.0-0.20","60ada064782b7869e0e55dcb","6552129e68c08af5079f912e","6552131aba62c10c30a4c6ab","265","
            
        <div style=""text-align: center; position: fixed; top: 5vh; left: 40vw;"">
            <div style=""margin:0 auto; width: 20vw; top: 8vh; font-size: 1vw""> 
            <font color=""green""> Bonus : $0.55 </font>
            </div>
        </div>
    
            <div> Please press any button to continue to the next trial.</div>
        "," ","ITI","","","","",""
"","","","","","html-keyboard-response","156","176662","0.0-6.0-1.20","60ada064782b7869e0e55dcb","6552129e68c08af5079f912e","6552131aba62c10c30a4c6ab","null","
        
        <div style=""text-align: center; position: fixed; top: 5vh; left: 40vw;"">
            <div style=""margin:0 auto; width: 20vw; top: 8vh; font-size: 1vw""> 
            <font color=""green""> Bonus : $0.55 </font>
            </div>
        </div>
    
        <img class=""stim"" src=./stimuli//pack_1/cat_1/ex_1_70.png></img>
    ","null","stimulus","","","","",""
"","","","","","html-keyboard-response","157","177665","0.0-6.0-2.20","60ada064782b7869e0e55dcb","6552129e68c08af5079f912e","6552131aba62c10c30a4c6ab","null","
        <div style=""text-align: center; position: fixed; top: 5vh; left: 40vw;"">
            <div style=""margin:0 auto; width: 20vw; top: 8vh; font-size: 1vw""> 
            <font color=""green""> Bonus : $0.55 </font>
            </div>
        </div>
    ","null","","","","","",""
"","","","","","html-keyboard-response","158","178078","0.0-6.0-3.20","60ada064782b7869e0e55dcb","6552129e68c08af5079f912e","6552131aba62c10c30a4c6ab","412","./stimuli//pack_1/cat_1/ex_1_70.png","arrowleft","response","ArrowLeft","70","1","true",""
"","","","","","html-keyboard-response","159","178966","0.0-6.0-4.20","60ada064782b7869e0e55dcb","6552129e68c08af5079f912e","6552131aba62c10c30a4c6ab","887","<p> <font color=""green"" size=""4vw""> Correct category! </font> <br> <br> <font color=""green"" size=""7vw""> + $0.05 </font> </p>"," ","feedback","","","","","0.6"
"","","","","","html-keyboard-response","160","179236","0.0-6.0-0.21","60ada064782b7869e0e55dcb","6552129e68c08af5079f912e","6552131aba62c10c30a4c6ab","269","
            
        <div style=""text-align: center; position: fixed; top: 5vh; left: 40vw;"">
            <div style=""margin:0 auto; width: 20vw; top: 8vh; font-size: 1vw""> 
            <font color=""green""> Bonus : $0.6 </font>
            </div>
        </div>
    
            <div> Please press any button to continue to the next trial.</div>
        "," ","ITI","","","","",""
"","","","","","html-keyboard-response","161","179845","0.0-6.0-1.21","60ada064782b7869e0e55dcb","6552129e68c08af5079f912e","6552131aba62c10c30a4c6ab","null","
        
        <div style=""text-align: center; position: fixed; top: 5vh; left: 40vw;"">
            <div style=""margin:0 auto; width: 20vw; top: 8vh; font-size: 1vw""> 
            <font color=""green""> Bonus : $0.6 </font>
            </div>
        </div>
    
        <img class=""stim"" src=./stimuli//pack_1/cat_2/ex_2_64.png></img>
    ","null","stimulus","","","","",""
"","","","","","html-keyboard-response","162","180849","0.0-6.0-2.21","60ada064782b7869e0e55dcb","6552129e68c08af5079f912e","6552131aba62c10c30a4c6ab","null","
        <div style=""text-align: center; position: fixed; top: 5vh; left: 40vw;"">
            <div style=""margin:0 auto; width: 20vw; top: 8vh; font-size: 1vw""> 
            <font color=""green""> Bonus : $0.6 </font>
            </div>
        </div>
    ","null","","","","","",""
"","","","","","html-keyboard-response","163","182020","0.0-6.0-3.21","60ada064782b7869e0e55dcb","6552129e68c08af5079f912e","6552131aba62c10c30a4c6ab","1170","./stimuli//pack_1/cat_2/ex_2_64.png","arrowright","response","ArrowRight","64","2","true",""
"","","","","","html-keyboard-response","164","182785","0.0-6.0-4.21","60ada064782b7869e0e55dcb","6552129e68c08af5079f912e","6552131aba62c10c30a4c6ab","765","<p> <font color=""green"" size=""4vw""> Correct category! </font> <br> <br> <font color=""green"" size=""7vw""> + $0.05 </font> </p>"," ","feedback","","","","","0.65"
"","","","","","html-keyboard-response","165","183038","0.0-6.0-0.22","60ada064782b7869e0e55dcb","6552129e68c08af5079f912e","6552131aba62c10c30a4c6ab","253","
            
        <div style=""text-align: center; position: fixed; top: 5vh; left: 40vw;"">
            <div style=""margin:0 auto; width: 20vw; top: 8vh; font-size: 1vw""> 
            <font color=""green""> Bonus : $0.65 </font>
            </div>
        </div>
    
            <div> Please press any button to continue to the next trial.</div>
        "," ","ITI","","","","",""
"","","","","","html-keyboard-response","166","183647","0.0-6.0-1.22","60ada064782b7869e0e55dcb","6552129e68c08af5079f912e","6552131aba62c10c30a4c6ab","null","
        
        <div style=""text-align: center; position: fixed; top: 5vh; left: 40vw;"">
            <div style=""margin:0 auto; width: 20vw; top: 8vh; font-size: 1vw""> 
            <font color=""green""> Bonus : $0.65 </font>
            </div>
        </div>
    
        <img class=""stim"" src=./stimuli//pack_1/cat_1/ex_1_66.png></img>
    ","null","stimulus","","","","",""
"","","","","","html-keyboard-response","167","184663","0.0-6.0-2.22","60ada064782b7869e0e55dcb","6552129e68c08af5079f912e","6552131aba62c10c30a4c6ab","null","
        <div style=""text-align: center; position: fixed; top: 5vh; left: 40vw;"">
            <div style=""margin:0 auto; width: 20vw; top: 8vh; font-size: 1vw""> 
            <font color=""green""> Bonus : $0.65 </font>
            </div>
        </div>
    ","null","","","","","",""
"","","","","","html-keyboard-response","168","185416","0.0-6.0-3.22","60ada064782b7869e0e55dcb","6552129e68c08af5079f912e","6552131aba62c10c30a4c6ab","752","./stimuli//pack_1/cat_1/ex_1_66.png","arrowleft","response","ArrowLeft","66","1","true",""
"","","","","","html-keyboard-response","169","186064","0.0-6.0-4.22","60ada064782b7869e0e55dcb","6552129e68c08af5079f912e","6552131aba62c10c30a4c6ab","647","<p> <font color=""green"" size=""4vw""> Correct category! </font> <br> <br> <font color=""green"" size=""7vw""> + $0.05 </font> </p>"," ","feedback","","","","","0.7"
"","","","","","html-keyboard-response","170","186334","0.0-6.0-0.23","60ada064782b7869e0e55dcb","6552129e68c08af5079f912e","6552131aba62c10c30a4c6ab","269","
            
        <div style=""text-align: center; position: fixed; top: 5vh; left: 40vw;"">
            <div style=""margin:0 auto; width: 20vw; top: 8vh; font-size: 1vw""> 
            <font color=""green""> Bonus : $0.7 </font>
            </div>
        </div>
    
            <div> Please press any button to continue to the next trial.</div>
        "," ","ITI","","","","",""
"","","","","","html-keyboard-response","171","186944","0.0-6.0-1.23","60ada064782b7869e0e55dcb","6552129e68c08af5079f912e","6552131aba62c10c30a4c6ab","null","
        
        <div style=""text-align: center; position: fixed; top: 5vh; left: 40vw;"">
            <div style=""margin:0 auto; width: 20vw; top: 8vh; font-size: 1vw""> 
            <font color=""green""> Bonus : $0.7 </font>
            </div>
        </div>
    
        <img class=""stim"" src=./stimuli//pack_1/cat_2/ex_2_75.png></img>
    ","null","stimulus","","","","",""
"","","","","","html-keyboard-response","172","187948","0.0-6.0-2.23","60ada064782b7869e0e55dcb","6552129e68c08af5079f912e","6552131aba62c10c30a4c6ab","null","
        <div style=""text-align: center; position: fixed; top: 5vh; left: 40vw;"">
            <div style=""margin:0 auto; width: 20vw; top: 8vh; font-size: 1vw""> 
            <font color=""green""> Bonus : $0.7 </font>
            </div>
        </div>
    ","null","","","","","",""
"","","","","","html-keyboard-response","173","188345","0.0-6.0-3.23","60ada064782b7869e0e55dcb","6552129e68c08af5079f912e","6552131aba62c10c30a4c6ab","396","./stimuli//pack_1/cat_2/ex_2_75.png","arrowright","response","ArrowRight","75","2","true",""
"","","","","","html-keyboard-response","174","189183","0.0-6.0-4.23","60ada064782b7869e0e55dcb","6552129e68c08af5079f912e","6552131aba62c10c30a4c6ab","837","<p> <font color=""green"" size=""4vw""> Correct category! </font> <br> <br> <font color=""green"" size=""7vw""> + $0.05 </font> </p>"," ","feedback","","","","","0.75"
"","","","","","html-keyboard-response","175","189470","0.0-6.0-0.24","60ada064782b7869e0e55dcb","6552129e68c08af5079f912e","6552131aba62c10c30a4c6ab","287","
            
        <div style=""text-align: center; position: fixed; top: 5vh; left: 40vw;"">
            <div style=""margin:0 auto; width: 20vw; top: 8vh; font-size: 1vw""> 
            <font color=""green""> Bonus : $0.75 </font>
            </div>
        </div>
    
            <div> Please press any button to continue to the next trial.</div>
        "," ","ITI","","","","",""
"","","","","","html-keyboard-response","176","190079","0.0-6.0-1.24","60ada064782b7869e0e55dcb","6552129e68c08af5079f912e","6552131aba62c10c30a4c6ab","null","
        
        <div style=""text-align: center; position: fixed; top: 5vh; left: 40vw;"">
            <div style=""margin:0 auto; width: 20vw; top: 8vh; font-size: 1vw""> 
            <font color=""green""> Bonus : $0.75 </font>
            </div>
        </div>
    
        <img class=""stim"" src=./stimuli//pack_1/cat_1/ex_1_42.png></img>
    ","null","stimulus","","","","",""
"","","","","","html-keyboard-response","177","191081","0.0-6.0-2.24","60ada064782b7869e0e55dcb","6552129e68c08af5079f912e","6552131aba62c10c30a4c6ab","null","
        <div style=""text-align: center; position: fixed; top: 5vh; left: 40vw;"">
            <div style=""margin:0 auto; width: 20vw; top: 8vh; font-size: 1vw""> 
            <font color=""green""> Bonus : $0.75 </font>
            </div>
        </div>
    ","null","","","","","",""
"","","","","","html-keyboard-response","178","191561","0.0-6.0-3.24","60ada064782b7869e0e55dcb","6552129e68c08af5079f912e","6552131aba62c10c30a4c6ab","479","./stimuli//pack_1/cat_1/ex_1_42.png","arrowleft","response","ArrowLeft","42","1","true",""
"","","","","","html-keyboard-response","179","193018","0.0-6.0-4.24","60ada064782b7869e0e55dcb","6552129e68c08af5079f912e","6552131aba62c10c30a4c6ab","1457","<p> <font color=""green"" size=""4vw""> Correct category! </font> <br> <br> <font color=""green"" size=""7vw""> + $0.05 </font> </p>"," ","feedback","","","","","0.8"
"","","","","","html-keyboard-response","180","193272","0.0-6.0-0.25","60ada064782b7869e0e55dcb","6552129e68c08af5079f912e","6552131aba62c10c30a4c6ab","253","
            
        <div style=""text-align: center; position: fixed; top: 5vh; left: 40vw;"">
            <div style=""margin:0 auto; width: 20vw; top: 8vh; font-size: 1vw""> 
            <font color=""green""> Bonus : $0.8 </font>
            </div>
        </div>
    
            <div> Please press any button to continue to the next trial.</div>
        "," ","ITI","","","","",""
"","","","","","html-keyboard-response","181","193880","0.0-6.0-1.25","60ada064782b7869e0e55dcb","6552129e68c08af5079f912e","6552131aba62c10c30a4c6ab","null","
        
        <div style=""text-align: center; position: fixed; top: 5vh; left: 40vw;"">
            <div style=""margin:0 auto; width: 20vw; top: 8vh; font-size: 1vw""> 
            <font color=""green""> Bonus : $0.8 </font>
            </div>
        </div>
    
        <img class=""stim"" src=./stimuli//pack_1/cat_1/ex_1_45.png></img>
    ","null","stimulus","","","","",""
"","","","","","html-keyboard-response","182","194897","0.0-6.0-2.25","60ada064782b7869e0e55dcb","6552129e68c08af5079f912e","6552131aba62c10c30a4c6ab","null","
        <div style=""text-align: center; position: fixed; top: 5vh; left: 40vw;"">
            <div style=""margin:0 auto; width: 20vw; top: 8vh; font-size: 1vw""> 
            <font color=""green""> Bonus : $0.8 </font>
            </div>
        </div>
    ","null","","","","","",""
"","","","","","html-keyboard-response","183","195266","0.0-6.0-3.25","60ada064782b7869e0e55dcb","6552129e68c08af5079f912e","6552131aba62c10c30a4c6ab","368","./stimuli//pack_1/cat_1/ex_1_45.png","arrowleft","response","ArrowLeft","45","1","true",""
"","","","","","html-keyboard-response","184","195969","0.0-6.0-4.25","60ada064782b7869e0e55dcb","6552129e68c08af5079f912e","6552131aba62c10c30a4c6ab","703","<p> <font color=""green"" size=""4vw""> Correct category! </font> <br> <br> <font color=""green"" size=""7vw""> + $0.05 </font> </p>"," ","feedback","","","","","0.85"
"","","","","","html-keyboard-response","185","196235","0.0-6.0-0.26","60ada064782b7869e0e55dcb","6552129e68c08af5079f912e","6552131aba62c10c30a4c6ab","265","
            
        <div style=""text-align: center; position: fixed; top: 5vh; left: 40vw;"">
            <div style=""margin:0 auto; width: 20vw; top: 8vh; font-size: 1vw""> 
            <font color=""green""> Bonus : $0.85 </font>
            </div>
        </div>
    
            <div> Please press any button to continue to the next trial.</div>
        "," ","ITI","","","","",""
"","","","","","html-keyboard-response","186","196844","0.0-6.0-1.26","60ada064782b7869e0e55dcb","6552129e68c08af5079f912e","6552131aba62c10c30a4c6ab","null","
        
        <div style=""text-align: center; position: fixed; top: 5vh; left: 40vw;"">
            <div style=""margin:0 auto; width: 20vw; top: 8vh; font-size: 1vw""> 
            <font color=""green""> Bonus : $0.85 </font>
            </div>
        </div>
    
        <img class=""stim"" src=./stimuli//pack_1/cat_2/ex_2_53.png></img>
    ","null","stimulus","","","","",""
"","","","","","html-keyboard-response","187","197848","0.0-6.0-2.26","60ada064782b7869e0e55dcb","6552129e68c08af5079f912e","6552131aba62c10c30a4c6ab","null","
        <div style=""text-align: center; position: fixed; top: 5vh; left: 40vw;"">
            <div style=""margin:0 auto; width: 20vw; top: 8vh; font-size: 1vw""> 
            <font color=""green""> Bonus : $0.85 </font>
            </div>
        </div>
    ","null","","","","","",""
"","","","","","html-keyboard-response","188","198296","0.0-6.0-3.26","60ada064782b7869e0e55dcb","6552129e68c08af5079f912e","6552131aba62c10c30a4c6ab","447","./stimuli//pack_1/cat_2/ex_2_53.png","arrowright","response","ArrowRight","53","2","true",""
"","","","","","html-keyboard-response","189","199130","0.0-6.0-4.26","60ada064782b7869e0e55dcb","6552129e68c08af5079f912e","6552131aba62c10c30a4c6ab","833","<p> <font color=""green"" size=""4vw""> Correct category! </font> <br> <br> <font color=""green"" size=""7vw""> + $0.05 </font> </p>"," ","feedback","","","","","0.9"
"","","","","","html-keyboard-response","190","199412","0.0-6.0-0.27","60ada064782b7869e0e55dcb","6552129e68c08af5079f912e","6552131aba62c10c30a4c6ab","282","
            
        <div style=""text-align: center; position: fixed; top: 5vh; left: 40vw;"">
            <div style=""margin:0 auto; width: 20vw; top: 8vh; font-size: 1vw""> 
            <font color=""green""> Bonus : $0.9 </font>
            </div>
        </div>
    
            <div> Please press any button to continue to the next trial.</div>
        "," ","ITI","","","","",""
"","","","","","html-keyboard-response","191","200028","0.0-6.0-1.27","60ada064782b7869e0e55dcb","6552129e68c08af5079f912e","6552131aba62c10c30a4c6ab","null","
        
        <div style=""text-align: center; position: fixed; top: 5vh; left: 40vw;"">
            <div style=""margin:0 auto; width: 20vw; top: 8vh; font-size: 1vw""> 
            <font color=""green""> Bonus : $0.9 </font>
            </div>
        </div>
    
        <img class=""stim"" src=./stimuli//pack_1/cat_2/ex_2_72.png></img>
    ","null","stimulus","","","","",""
"","","","","","html-keyboard-response","192","201030","0.0-6.0-2.27","60ada064782b7869e0e55dcb","6552129e68c08af5079f912e","6552131aba62c10c30a4c6ab","null","
        <div style=""text-align: center; position: fixed; top: 5vh; left: 40vw;"">
            <div style=""margin:0 auto; width: 20vw; top: 8vh; font-size: 1vw""> 
            <font color=""green""> Bonus : $0.9 </font>
            </div>
        </div>
    ","null","","","","","",""
"","","","","","html-keyboard-response","193","201740","0.0-6.0-3.27","60ada064782b7869e0e55dcb","6552129e68c08af5079f912e","6552131aba62c10c30a4c6ab","709","./stimuli//pack_1/cat_2/ex_2_72.png","arrowright","response","ArrowRight","72","2","true",""
"","","","","","html-keyboard-response","194","202472","0.0-6.0-4.27","60ada064782b7869e0e55dcb","6552129e68c08af5079f912e","6552131aba62c10c30a4c6ab","732","<p> <font color=""green"" size=""4vw""> Correct category! </font> <br> <br> <font color=""green"" size=""7vw""> + $0.05 </font> </p>"," ","feedback","","","","","0.95"
"","","","","","html-keyboard-response","195","202751","0.0-6.0-0.28","60ada064782b7869e0e55dcb","6552129e68c08af5079f912e","6552131aba62c10c30a4c6ab","278","
            
        <div style=""text-align: center; position: fixed; top: 5vh; left: 40vw;"">
            <div style=""margin:0 auto; width: 20vw; top: 8vh; font-size: 1vw""> 
            <font color=""green""> Bonus : $0.95 </font>
            </div>
        </div>
    
            <div> Please press any button to continue to the next trial.</div>
        "," ","ITI","","","","",""
"","","","","","html-keyboard-response","196","203362","0.0-6.0-1.28","60ada064782b7869e0e55dcb","6552129e68c08af5079f912e","6552131aba62c10c30a4c6ab","null","
        
        <div style=""text-align: center; position: fixed; top: 5vh; left: 40vw;"">
            <div style=""margin:0 auto; width: 20vw; top: 8vh; font-size: 1vw""> 
            <font color=""green""> Bonus : $0.95 </font>
            </div>
        </div>
    
        <img class=""stim"" src=./stimuli//pack_1/cat_2/ex_2_59.png></img>
    ","null","stimulus","","","","",""
"","","","","","html-keyboard-response","197","204365","0.0-6.0-2.28","60ada064782b7869e0e55dcb","6552129e68c08af5079f912e","6552131aba62c10c30a4c6ab","null","
        <div style=""text-align: center; position: fixed; top: 5vh; left: 40vw;"">
            <div style=""margin:0 auto; width: 20vw; top: 8vh; font-size: 1vw""> 
            <font color=""green""> Bonus : $0.95 </font>
            </div>
        </div>
    ","null","","","","","",""
"","","","","","html-keyboard-response","198","204750","0.0-6.0-3.28","60ada064782b7869e0e55dcb","6552129e68c08af5079f912e","6552131aba62c10c30a4c6ab","384","./stimuli//pack_1/cat_2/ex_2_59.png","arrowright","response","ArrowRight","59","2","true",""
"","","","","","html-keyboard-response","199","205599","0.0-6.0-4.28","60ada064782b7869e0e55dcb","6552129e68c08af5079f912e","6552131aba62c10c30a4c6ab","848","<p> <font color=""green"" size=""4vw""> Correct category! </font> <br> <br> <font color=""green"" size=""7vw""> + $0.05 </font> </p>"," ","feedback","","","","","1"
"","","","","","html-keyboard-response","200","205857","0.0-6.0-0.29","60ada064782b7869e0e55dcb","6552129e68c08af5079f912e","6552131aba62c10c30a4c6ab","258","
            
        <div style=""text-align: center; position: fixed; top: 5vh; left: 40vw;"">
            <div style=""margin:0 auto; width: 20vw; top: 8vh; font-size: 1vw""> 
            <font color=""green""> Bonus : $1 </font>
            </div>
        </div>
    
            <div> Please press any button to continue to the next trial.</div>
        "," ","ITI","","","","",""
"","","","","","html-keyboard-response","201","206463","0.0-6.0-1.29","60ada064782b7869e0e55dcb","6552129e68c08af5079f912e","6552131aba62c10c30a4c6ab","null","
        
        <div style=""text-align: center; position: fixed; top: 5vh; left: 40vw;"">
            <div style=""margin:0 auto; width: 20vw; top: 8vh; font-size: 1vw""> 
            <font color=""green""> Bonus : $1 </font>
            </div>
        </div>
    
        <img class=""stim"" src=./stimuli//pack_1/cat_1/ex_1_4.png></img>
    ","null","stimulus","","","","",""
"","","","","","html-keyboard-response","202","207465","0.0-6.0-2.29","60ada064782b7869e0e55dcb","6552129e68c08af5079f912e","6552131aba62c10c30a4c6ab","null","
        <div style=""text-align: center; position: fixed; top: 5vh; left: 40vw;"">
            <div style=""margin:0 auto; width: 20vw; top: 8vh; font-size: 1vw""> 
            <font color=""green""> Bonus : $1 </font>
            </div>
        </div>
    ","null","","","","","",""
"","","","","","html-keyboard-response","203","207902","0.0-6.0-3.29","60ada064782b7869e0e55dcb","6552129e68c08af5079f912e","6552131aba62c10c30a4c6ab","436","./stimuli//pack_1/cat_1/ex_1_4.png","arrowright","response","ArrowLeft","4","1","false",""
"","","","","","html-keyboard-response","204","209229","0.0-6.0-4.29","60ada064782b7869e0e55dcb","6552129e68c08af5079f912e","6552131aba62c10c30a4c6ab","1326","<p> <font color=""red"" size=""4vw""> Wrong category! </font> </p>"," ","feedback","","","","","1"
"","","","","","html-keyboard-response","205","209503","0.0-6.0-0.30","60ada064782b7869e0e55dcb","6552129e68c08af5079f912e","6552131aba62c10c30a4c6ab","273","
            
        <div style=""text-align: center; position: fixed; top: 5vh; left: 40vw;"">
            <div style=""margin:0 auto; width: 20vw; top: 8vh; font-size: 1vw""> 
            <font color=""green""> Bonus : $1 </font>
            </div>
        </div>
    
            <div> Please press any button to continue to the next trial.</div>
        "," ","ITI","","","","",""
"","","","","","html-keyboard-response","206","210110","0.0-6.0-1.30","60ada064782b7869e0e55dcb","6552129e68c08af5079f912e","6552131aba62c10c30a4c6ab","null","
        
        <div style=""text-align: center; position: fixed; top: 5vh; left: 40vw;"">
            <div style=""margin:0 auto; width: 20vw; top: 8vh; font-size: 1vw""> 
            <font color=""green""> Bonus : $1 </font>
            </div>
        </div>
    
        <img class=""stim"" src=./stimuli//pack_1/cat_1/ex_1_16.png></img>
    ","null","stimulus","","","","",""
"","","","","","html-keyboard-response","207","211114","0.0-6.0-2.30","60ada064782b7869e0e55dcb","6552129e68c08af5079f912e","6552131aba62c10c30a4c6ab","null","
        <div style=""text-align: center; position: fixed; top: 5vh; left: 40vw;"">
            <div style=""margin:0 auto; width: 20vw; top: 8vh; font-size: 1vw""> 
            <font color=""green""> Bonus : $1 </font>
            </div>
        </div>
    ","null","","","","","",""
"","","","","","html-keyboard-response","208","211481","0.0-6.0-3.30","60ada064782b7869e0e55dcb","6552129e68c08af5079f912e","6552131aba62c10c30a4c6ab","366","./stimuli//pack_1/cat_1/ex_1_16.png","arrowleft","response","ArrowLeft","16","1","true",""
"","","","","","html-keyboard-response","209","212268","0.0-6.0-4.30","60ada064782b7869e0e55dcb","6552129e68c08af5079f912e","6552131aba62c10c30a4c6ab","786","<p> <font color=""green"" size=""4vw""> Correct category! </font> <br> <br> <font color=""green"" size=""7vw""> + $0.05 </font> </p>"," ","feedback","","","","","1.05"
"","","","","","html-keyboard-response","210","212538","0.0-6.0-0.31","60ada064782b7869e0e55dcb","6552129e68c08af5079f912e","6552131aba62c10c30a4c6ab","270","
            
        <div style=""text-align: center; position: fixed; top: 5vh; left: 40vw;"">
            <div style=""margin:0 auto; width: 20vw; top: 8vh; font-size: 1vw""> 
            <font color=""green""> Bonus : $1.05 </font>
            </div>
        </div>
    
            <div> Please press any button to continue to the next trial.</div>
        "," ","ITI","","","","",""
"","","","","","html-keyboard-response","211","213145","0.0-6.0-1.31","60ada064782b7869e0e55dcb","6552129e68c08af5079f912e","6552131aba62c10c30a4c6ab","null","
        
        <div style=""text-align: center; position: fixed; top: 5vh; left: 40vw;"">
            <div style=""margin:0 auto; width: 20vw; top: 8vh; font-size: 1vw""> 
            <font color=""green""> Bonus : $1.05 </font>
            </div>
        </div>
    
        <img class=""stim"" src=./stimuli//pack_1/cat_2/ex_2_40.png></img>
    ","null","stimulus","","","","",""
"","","","","","html-keyboard-response","212","214147","0.0-6.0-2.31","60ada064782b7869e0e55dcb","6552129e68c08af5079f912e","6552131aba62c10c30a4c6ab","null","
        <div style=""text-align: center; position: fixed; top: 5vh; left: 40vw;"">
            <div style=""margin:0 auto; width: 20vw; top: 8vh; font-size: 1vw""> 
            <font color=""green""> Bonus : $1.05 </font>
            </div>
        </div>
    ","null","","","","","",""
"","","","","","html-keyboard-response","213","214364","0.0-6.0-3.31","60ada064782b7869e0e55dcb","6552129e68c08af5079f912e","6552131aba62c10c30a4c6ab","215","./stimuli//pack_1/cat_2/ex_2_40.png","arrowright","response","ArrowRight","40","2","true",""
"","","","","","html-keyboard-response","214","215632","0.0-6.0-4.31","60ada064782b7869e0e55dcb","6552129e68c08af5079f912e","6552131aba62c10c30a4c6ab","1268","<p> <font color=""green"" size=""4vw""> Correct category! </font> <br> <br> <font color=""green"" size=""7vw""> + $0.05 </font> </p>"," ","feedback","","","","","1.1"
"","","","","","html-keyboard-response","215","215876","0.0-6.0-0.32","60ada064782b7869e0e55dcb","6552129e68c08af5079f912e","6552131aba62c10c30a4c6ab","243","
            
        <div style=""text-align: center; position: fixed; top: 5vh; left: 40vw;"">
            <div style=""margin:0 auto; width: 20vw; top: 8vh; font-size: 1vw""> 
            <font color=""green""> Bonus : $1.1 </font>
            </div>
        </div>
    
            <div> Please press any button to continue to the next trial.</div>
        "," ","ITI","","","","",""
"","","","","","html-keyboard-response","216","216478","0.0-6.0-1.32","60ada064782b7869e0e55dcb","6552129e68c08af5079f912e","6552131aba62c10c30a4c6ab","null","
        
        <div style=""text-align: center; position: fixed; top: 5vh; left: 40vw;"">
            <div style=""margin:0 auto; width: 20vw; top: 8vh; font-size: 1vw""> 
            <font color=""green""> Bonus : $1.1 </font>
            </div>
        </div>
    
        <img class=""stim"" src=./stimuli//pack_1/cat_1/ex_1_55.png></img>
    ","null","stimulus","","","","",""
"","","","","","html-keyboard-response","217","217480","0.0-6.0-2.32","60ada064782b7869e0e55dcb","6552129e68c08af5079f912e","6552131aba62c10c30a4c6ab","null","
        <div style=""text-align: center; position: fixed; top: 5vh; left: 40vw;"">
            <div style=""margin:0 auto; width: 20vw; top: 8vh; font-size: 1vw""> 
            <font color=""green""> Bonus : $1.1 </font>
            </div>
        </div>
    ","null","","","","","",""
"","","","","","html-keyboard-response","218","219332","0.0-6.0-3.32","60ada064782b7869e0e55dcb","6552129e68c08af5079f912e","6552131aba62c10c30a4c6ab","1851","./stimuli//pack_1/cat_1/ex_1_55.png","arrowleft","response","ArrowLeft","55","1","true",""
"","","","","","html-keyboard-response","219","220107","0.0-6.0-4.32","60ada064782b7869e0e55dcb","6552129e68c08af5079f912e","6552131aba62c10c30a4c6ab","774","<p> <font color=""green"" size=""4vw""> Correct category! </font> <br> <br> <font color=""green"" size=""7vw""> + $0.05 </font> </p>"," ","feedback","","","","","1.15"
"","","","","","html-keyboard-response","220","220391","0.0-6.0-0.33","60ada064782b7869e0e55dcb","6552129e68c08af5079f912e","6552131aba62c10c30a4c6ab","283","
            
        <div style=""text-align: center; position: fixed; top: 5vh; left: 40vw;"">
            <div style=""margin:0 auto; width: 20vw; top: 8vh; font-size: 1vw""> 
            <font color=""green""> Bonus : $1.15 </font>
            </div>
        </div>
    
            <div> Please press any button to continue to the next trial.</div>
        "," ","ITI","","","","",""
"","","","","","html-keyboard-response","221","220995","0.0-6.0-1.33","60ada064782b7869e0e55dcb","6552129e68c08af5079f912e","6552131aba62c10c30a4c6ab","null","
        
        <div style=""text-align: center; position: fixed; top: 5vh; left: 40vw;"">
            <div style=""margin:0 auto; width: 20vw; top: 8vh; font-size: 1vw""> 
            <font color=""green""> Bonus : $1.15 </font>
            </div>
        </div>
    
        <img class=""stim"" src=./stimuli//pack_1/cat_2/ex_2_69.png></img>
    ","null","stimulus","","","","",""
"","","","","","html-keyboard-response","222","221997","0.0-6.0-2.33","60ada064782b7869e0e55dcb","6552129e68c08af5079f912e","6552131aba62c10c30a4c6ab","null","
        <div style=""text-align: center; position: fixed; top: 5vh; left: 40vw;"">
            <div style=""margin:0 auto; width: 20vw; top: 8vh; font-size: 1vw""> 
            <font color=""green""> Bonus : $1.15 </font>
            </div>
        </div>
    ","null","","","","","",""
"","","","","","html-keyboard-response","223","222430","0.0-6.0-3.33","60ada064782b7869e0e55dcb","6552129e68c08af5079f912e","6552131aba62c10c30a4c6ab","432","./stimuli//pack_1/cat_2/ex_2_69.png","arrowleft","response","ArrowRight","69","2","false",""
"","","","","","html-keyboard-response","224","223119","0.0-6.0-4.33","60ada064782b7869e0e55dcb","6552129e68c08af5079f912e","6552131aba62c10c30a4c6ab","702","<p> <font color=""red"" size=""4vw""> Wrong category! </font> </p>"," ","feedback","","","","","1.15"
"","","","","","html-keyboard-response","225","223399","0.0-6.0-0.34","60ada064782b7869e0e55dcb","6552129e68c08af5079f912e","6552131aba62c10c30a4c6ab","279","
            
        <div style=""text-align: center; position: fixed; top: 5vh; left: 40vw;"">
            <div style=""margin:0 auto; width: 20vw; top: 8vh; font-size: 1vw""> 
            <font color=""green""> Bonus : $1.15 </font>
            </div>
        </div>
    
            <div> Please press any button to continue to the next trial.</div>
        "," ","ITI","","","","",""
"","","","","","html-keyboard-response","226","224014","0.0-6.0-1.34","60ada064782b7869e0e55dcb","6552129e68c08af5079f912e","6552131aba62c10c30a4c6ab","null","
        
        <div style=""text-align: center; position: fixed; top: 5vh; left: 40vw;"">
            <div style=""margin:0 auto; width: 20vw; top: 8vh; font-size: 1vw""> 
            <font color=""green""> Bonus : $1.15 </font>
            </div>
        </div>
    
        <img class=""stim"" src=./stimuli//pack_1/cat_2/ex_2_36.png></img>
    ","null","stimulus","","","","",""
"","","","","","html-keyboard-response","227","225017","0.0-6.0-2.34","60ada064782b7869e0e55dcb","6552129e68c08af5079f912e","6552131aba62c10c30a4c6ab","null","
        <div style=""text-align: center; position: fixed; top: 5vh; left: 40vw;"">
            <div style=""margin:0 auto; width: 20vw; top: 8vh; font-size: 1vw""> 
            <font color=""green""> Bonus : $1.15 </font>
            </div>
        </div>
    ","null","","","","","",""
"","","","","","html-keyboard-response","228","225034","0.0-6.0-3.34","60ada064782b7869e0e55dcb","6552129e68c08af5079f912e","6552131aba62c10c30a4c6ab","17","./stimuli//pack_1/cat_2/ex_2_36.png","arrowright","response","ArrowRight","36","2","true",""
"","","","","","html-keyboard-response","229","225704","0.0-6.0-4.34","60ada064782b7869e0e55dcb","6552129e68c08af5079f912e","6552131aba62c10c30a4c6ab","669","<p> <font color=""green"" size=""4vw""> Correct category! </font> <br> <br> <font color=""green"" size=""7vw""> + $0.05 </font> </p>"," ","feedback","","","","","1.2"
"","","","","","html-keyboard-response","230","225974","0.0-6.0-0.35","60ada064782b7869e0e55dcb","6552129e68c08af5079f912e","6552131aba62c10c30a4c6ab","269","
            
        <div style=""text-align: center; position: fixed; top: 5vh; left: 40vw;"">
            <div style=""margin:0 auto; width: 20vw; top: 8vh; font-size: 1vw""> 
            <font color=""green""> Bonus : $1.2 </font>
            </div>
        </div>
    
            <div> Please press any button to continue to the next trial.</div>
        "," ","ITI","","","","",""
"","","","","","html-keyboard-response","231","226581","0.0-6.0-1.35","60ada064782b7869e0e55dcb","6552129e68c08af5079f912e","6552131aba62c10c30a4c6ab","null","
        
        <div style=""text-align: center; position: fixed; top: 5vh; left: 40vw;"">
            <div style=""margin:0 auto; width: 20vw; top: 8vh; font-size: 1vw""> 
            <font color=""green""> Bonus : $1.2 </font>
            </div>
        </div>
    
        <img class=""stim"" src=./stimuli//pack_1/cat_1/ex_1_32.png></img>
    ","null","stimulus","","","","",""
"","","","","","html-keyboard-response","232","227584","0.0-6.0-2.35","60ada064782b7869e0e55dcb","6552129e68c08af5079f912e","6552131aba62c10c30a4c6ab","null","
        <div style=""text-align: center; position: fixed; top: 5vh; left: 40vw;"">
            <div style=""margin:0 auto; width: 20vw; top: 8vh; font-size: 1vw""> 
            <font color=""green""> Bonus : $1.2 </font>
            </div>
        </div>
    ","null","","","","","",""
"","","","","","html-keyboard-response","233","228115","0.0-6.0-3.35","60ada064782b7869e0e55dcb","6552129e68c08af5079f912e","6552131aba62c10c30a4c6ab","530","./stimuli//pack_1/cat_1/ex_1_32.png","arrowright","response","ArrowLeft","32","1","false",""
"","","","","","html-keyboard-response","234","228717","0.0-6.0-4.35","60ada064782b7869e0e55dcb","6552129e68c08af5079f912e","6552131aba62c10c30a4c6ab","601","<p> <font color=""red"" size=""4vw""> Wrong category! </font> </p>"," ","feedback","","","","","1.2"
"","","","","","html-keyboard-response","235","229000","0.0-6.0-0.36","60ada064782b7869e0e55dcb","6552129e68c08af5079f912e","6552131aba62c10c30a4c6ab","282","
            
        <div style=""text-align: center; position: fixed; top: 5vh; left: 40vw;"">
            <div style=""margin:0 auto; width: 20vw; top: 8vh; font-size: 1vw""> 
            <font color=""green""> Bonus : $1.2 </font>
            </div>
        </div>
    
            <div> Please press any button to continue to the next trial.</div>
        "," ","ITI","","","","",""
"","","","","","html-keyboard-response","236","229613","0.0-6.0-1.36","60ada064782b7869e0e55dcb","6552129e68c08af5079f912e","6552131aba62c10c30a4c6ab","null","
        
        <div style=""text-align: center; position: fixed; top: 5vh; left: 40vw;"">
            <div style=""margin:0 auto; width: 20vw; top: 8vh; font-size: 1vw""> 
            <font color=""green""> Bonus : $1.2 </font>
            </div>
        </div>
    
        <img class=""stim"" src=./stimuli//pack_1/cat_2/ex_2_85.png></img>
    ","null","stimulus","","","","",""
"","","","","","html-keyboard-response","237","230616","0.0-6.0-2.36","60ada064782b7869e0e55dcb","6552129e68c08af5079f912e","6552131aba62c10c30a4c6ab","null","
        <div style=""text-align: center; position: fixed; top: 5vh; left: 40vw;"">
            <div style=""margin:0 auto; width: 20vw; top: 8vh; font-size: 1vw""> 
            <font color=""green""> Bonus : $1.2 </font>
            </div>
        </div>
    ","null","","","","","",""
"","","","","","html-keyboard-response","238","231003","0.0-6.0-3.36","60ada064782b7869e0e55dcb","6552129e68c08af5079f912e","6552131aba62c10c30a4c6ab","385","./stimuli//pack_1/cat_2/ex_2_85.png","arrowleft","response","ArrowRight","85","2","false",""
"","","","","","html-keyboard-response","239","231697","0.0-6.0-4.36","60ada064782b7869e0e55dcb","6552129e68c08af5079f912e","6552131aba62c10c30a4c6ab","694","<p> <font color=""red"" size=""4vw""> Wrong category! </font> </p>"," ","feedback","","","","","1.2"
