"success","timeout","failed_images","failed_audio","failed_video","trial_type","trial_index","time_elapsed","internal_node_id","subject_id","study_id","session_id","rt","stimulus","response","task","correct_response","exemplar_ID","category","correct","bonus"
"true","false","[]","[]","[]","preload","0","2","0.0-0.0","60733d6690d0d13013e9f40a","6552129e68c08af5079f912e","6552131cc591fd1166079781","","","","","","","","",""
"","","","","","html-keyboard-response","1","3401","0.0-1.0","60733d6690d0d13013e9f40a","6552129e68c08af5079f912e","6552131cc591fd1166079781","3398","Welcome to the Category Learning experiment! Press any key to continue.","arrowright","welcome","","","","",""
"","","","","","html-keyboard-response","2","21938","0.0-2.0","60733d6690d0d13013e9f40a","6552129e68c08af5079f912e","6552131cc591fd1166079781","18537","
            <p>You will be shown images of patterns of black dots.  Some are category A, some are category B.
            <br>You will not know in advance which category a specific pattern belongs to.</p>
            <p>After you see an image, you will be asked to guess its category <b>(left arrow for category A, right arrow for category B)</b></p>
            <p>After you choose, the screen will show you whether you were correct or not.</p>
            <p><b>You will receive a bonus payment of $0.05 for each correct answer!</b></p>
            <p> So you can increase your bonus by guessing correctly, and by guessing as quickly as possible so you move on to the next image sooner.</p>
            <p>Press any key to continue.</p>
            ","arrowright","introduction_1","","","","",""
"","","","","","html-keyboard-response","3","26345","0.0-3.0","60733d6690d0d13013e9f40a","6552129e68c08af5079f912e","6552131cc591fd1166079781","4407","
            <p> <b>The first 10 trials are a practice round that will not count towards your bonus payment.</b></p>
            <p> You will be notified when practice finishes and the test begins. </p>
            <p> Press any key to begin the practice round.</p>
            ","arrowright","introduction_2","","","","",""
"","","","","","html-keyboard-response","4","30269","0.0-4.0-0.0","60733d6690d0d13013e9f40a","6552129e68c08af5079f912e","6552131cc591fd1166079781","3924","
            
        <div style=""text-align: center; position: fixed; top: 5vh; left: 40vw;"">
            <div style=""margin:0 auto; width: 20vw; top: 8vh; font-size: 1vw""> 
            <font color=""green""> Bonus : $0 </font>
            </div>
        </div>
    
            <div> Please press any button to continue to the next trial.</div>
        ","arrowright","ITI","","","","",""
"","","","","","html-keyboard-response","5","30874","0.0-4.0-1.0","60733d6690d0d13013e9f40a","6552129e68c08af5079f912e","6552131cc591fd1166079781","null","
        
        <div style=""text-align: center; position: fixed; top: 5vh; left: 40vw;"">
            <div style=""margin:0 auto; width: 20vw; top: 8vh; font-size: 1vw""> 
            <font color=""green""> Bonus : $0 </font>
            </div>
        </div>
    
        <img class=""stim"" src=./stimuli//pack_1/cat_2/ex_2_54.png></img>
    ","null","stimulus","","","","",""
"","","","","","html-keyboard-response","6","31883","0.0-4.0-2.0","60733d6690d0d13013e9f40a","6552129e68c08af5079f912e","6552131cc591fd1166079781","null","
        <div style=""text-align: center; position: fixed; top: 5vh; left: 40vw;"">
            <div style=""margin:0 auto; width: 20vw; top: 8vh; font-size: 1vw""> 
            <font color=""green""> Bonus : $0 </font>
            </div>
        </div>
    ","null","","","","","",""
"","","","","","html-keyboard-response","7","32807","0.0-4.0-3.0","60733d6690d0d13013e9f40a","6552129e68c08af5079f912e","6552131cc591fd1166079781","924","./stimuli//pack_1/cat_2/ex_2_54.png","arrowright","response","ArrowRight","54","2","true",""
"","","","","","html-keyboard-response","8","34318","0.0-4.0-4.0","60733d6690d0d13013e9f40a","6552129e68c08af5079f912e","6552131cc591fd1166079781","null","<p> <font color=""green"" size=""4vw""> Correct category! </font> </p>","null","feedback","","","","","0"
"","","","","","html-keyboard-response","9","36346","0.0-4.0-0.1","60733d6690d0d13013e9f40a","6552129e68c08af5079f912e","6552131cc591fd1166079781","2026","
            
        <div style=""text-align: center; position: fixed; top: 5vh; left: 40vw;"">
            <div style=""margin:0 auto; width: 20vw; top: 8vh; font-size: 1vw""> 
            <font color=""green""> Bonus : $0 </font>
            </div>
        </div>
    
            <div> Please press any button to continue to the next trial.</div>
        ","arrowright","ITI","","","","",""
"","","","","","html-keyboard-response","10","36951","0.0-4.0-1.1","60733d6690d0d13013e9f40a","6552129e68c08af5079f912e","6552131cc591fd1166079781","null","
        
        <div style=""text-align: center; position: fixed; top: 5vh; left: 40vw;"">
            <div style=""margin:0 auto; width: 20vw; top: 8vh; font-size: 1vw""> 
            <font color=""green""> Bonus : $0 </font>
            </div>
        </div>
    
        <img class=""stim"" src=./stimuli//pack_1/cat_1/ex_1_95.png></img>
    ","null","stimulus","","","","",""
"","","","","","html-keyboard-response","11","37957","0.0-4.0-2.1","60733d6690d0d13013e9f40a","6552129e68c08af5079f912e","6552131cc591fd1166079781","null","
        <div style=""text-align: center; position: fixed; top: 5vh; left: 40vw;"">
            <div style=""margin:0 auto; width: 20vw; top: 8vh; font-size: 1vw""> 
            <font color=""green""> Bonus : $0 </font>
            </div>
        </div>
    ","null","","","","","",""
"","","","","","html-keyboard-response","12","38692","0.0-4.0-3.1","60733d6690d0d13013e9f40a","6552129e68c08af5079f912e","6552131cc591fd1166079781","732","./stimuli//pack_1/cat_1/ex_1_95.png","arrowleft","response","ArrowLeft","95","1","true",""
"","","","","","html-keyboard-response","13","40206","0.0-4.0-4.1","60733d6690d0d13013e9f40a","6552129e68c08af5079f912e","6552131cc591fd1166079781","null","<p> <font color=""green"" size=""4vw""> Correct category! </font> </p>","null","feedback","","","","","0"
"","","","","","html-keyboard-response","14","41520","0.0-4.0-0.2","60733d6690d0d13013e9f40a","6552129e68c08af5079f912e","6552131cc591fd1166079781","1314","
            
        <div style=""text-align: center; position: fixed; top: 5vh; left: 40vw;"">
            <div style=""margin:0 auto; width: 20vw; top: 8vh; font-size: 1vw""> 
            <font color=""green""> Bonus : $0 </font>
            </div>
        </div>
    
            <div> Please press any button to continue to the next trial.</div>
        ","arrowleft","ITI","","","","",""
"","","","","","html-keyboard-response","15","42130","0.0-4.0-1.2","60733d6690d0d13013e9f40a","6552129e68c08af5079f912e","6552131cc591fd1166079781","null","
        
        <div style=""text-align: center; position: fixed; top: 5vh; left: 40vw;"">
            <div style=""margin:0 auto; width: 20vw; top: 8vh; font-size: 1vw""> 
            <font color=""green""> Bonus : $0 </font>
            </div>
        </div>
    
        <img class=""stim"" src=./stimuli//pack_1/cat_1/ex_1_44.png></img>
    ","null","stimulus","","","","",""
"","","","","","html-keyboard-response","16","43145","0.0-4.0-2.2","60733d6690d0d13013e9f40a","6552129e68c08af5079f912e","6552131cc591fd1166079781","null","
        <div style=""text-align: center; position: fixed; top: 5vh; left: 40vw;"">
            <div style=""margin:0 auto; width: 20vw; top: 8vh; font-size: 1vw""> 
            <font color=""green""> Bonus : $0 </font>
            </div>
        </div>
    ","null","","","","","",""
"","","","","","html-keyboard-response","17","43433","0.0-4.0-3.2","60733d6690d0d13013e9f40a","6552129e68c08af5079f912e","6552131cc591fd1166079781","288","./stimuli//pack_1/cat_1/ex_1_44.png","arrowleft","response","ArrowLeft","44","1","true",""
"","","","","","html-keyboard-response","18","44942","0.0-4.0-4.2","60733d6690d0d13013e9f40a","6552129e68c08af5079f912e","6552131cc591fd1166079781","null","<p> <font color=""green"" size=""4vw""> Correct category! </font> </p>","null","feedback","","","","","0"
"","","","","","html-keyboard-response","19","45424","0.0-4.0-0.3","60733d6690d0d13013e9f40a","6552129e68c08af5079f912e","6552131cc591fd1166079781","481","
            
        <div style=""text-align: center; position: fixed; top: 5vh; left: 40vw;"">
            <div style=""margin:0 auto; width: 20vw; top: 8vh; font-size: 1vw""> 
            <font color=""green""> Bonus : $0 </font>
            </div>
        </div>
    
            <div> Please press any button to continue to the next trial.</div>
        ","arrowleft","ITI","","","","",""
"","","","","","html-keyboard-response","20","46035","0.0-4.0-1.3","60733d6690d0d13013e9f40a","6552129e68c08af5079f912e","6552131cc591fd1166079781","null","
        
        <div style=""text-align: center; position: fixed; top: 5vh; left: 40vw;"">
            <div style=""margin:0 auto; width: 20vw; top: 8vh; font-size: 1vw""> 
            <font color=""green""> Bonus : $0 </font>
            </div>
        </div>
    
        <img class=""stim"" src=./stimuli//pack_1/cat_1/ex_1_50.png></img>
    ","null","stimulus","","","","",""
"","","","","","html-keyboard-response","21","47044","0.0-4.0-2.3","60733d6690d0d13013e9f40a","6552129e68c08af5079f912e","6552131cc591fd1166079781","null","
        <div style=""text-align: center; position: fixed; top: 5vh; left: 40vw;"">
            <div style=""margin:0 auto; width: 20vw; top: 8vh; font-size: 1vw""> 
            <font color=""green""> Bonus : $0 </font>
            </div>
        </div>
    ","null","","","","","",""
"","","","","","html-keyboard-response","22","47466","0.0-4.0-3.3","60733d6690d0d13013e9f40a","6552129e68c08af5079f912e","6552131cc591fd1166079781","419","./stimuli//pack_1/cat_1/ex_1_50.png","arrowright","response","ArrowLeft","50","1","false",""
"","","","","","html-keyboard-response","23","48983","0.0-4.0-4.3","60733d6690d0d13013e9f40a","6552129e68c08af5079f912e","6552131cc591fd1166079781","null","<p> <font color=""red"" size=""4vw""> Wrong category! </font> </p>","null","feedback","","","","","0"
"","","","","","html-keyboard-response","24","49566","0.0-4.0-0.4","60733d6690d0d13013e9f40a","6552129e68c08af5079f912e","6552131cc591fd1166079781","583","
            
        <div style=""text-align: center; position: fixed; top: 5vh; left: 40vw;"">
            <div style=""margin:0 auto; width: 20vw; top: 8vh; font-size: 1vw""> 
            <font color=""green""> Bonus : $0 </font>
            </div>
        </div>
    
            <div> Please press any button to continue to the next trial.</div>
        ","arrowright","ITI","","","","",""
"","","","","","html-keyboard-response","25","50177","0.0-4.0-1.4","60733d6690d0d13013e9f40a","6552129e68c08af5079f912e","6552131cc591fd1166079781","null","
        
        <div style=""text-align: center; position: fixed; top: 5vh; left: 40vw;"">
            <div style=""margin:0 auto; width: 20vw; top: 8vh; font-size: 1vw""> 
            <font color=""green""> Bonus : $0 </font>
            </div>
        </div>
    
        <img class=""stim"" src=./stimuli//pack_1/cat_1/ex_1_74.png></img>
    ","null","stimulus","","","","",""
"","","","","","html-keyboard-response","26","51185","0.0-4.0-2.4","60733d6690d0d13013e9f40a","6552129e68c08af5079f912e","6552131cc591fd1166079781","null","
        <div style=""text-align: center; position: fixed; top: 5vh; left: 40vw;"">
            <div style=""margin:0 auto; width: 20vw; top: 8vh; font-size: 1vw""> 
            <font color=""green""> Bonus : $0 </font>
            </div>
        </div>
    ","null","","","","","",""
"","","","","","html-keyboard-response","27","51547","0.0-4.0-3.4","60733d6690d0d13013e9f40a","6552129e68c08af5079f912e","6552131cc591fd1166079781","361","./stimuli//pack_1/cat_1/ex_1_74.png","arrowleft","response","ArrowLeft","74","1","true",""
"","","","","","html-keyboard-response","28","53063","0.0-4.0-4.4","60733d6690d0d13013e9f40a","6552129e68c08af5079f912e","6552131cc591fd1166079781","null","<p> <font color=""green"" size=""4vw""> Correct category! </font> </p>","null","feedback","","","","","0"
"","","","","","html-keyboard-response","29","53512","0.0-4.0-0.5","60733d6690d0d13013e9f40a","6552129e68c08af5079f912e","6552131cc591fd1166079781","447","
            
        <div style=""text-align: center; position: fixed; top: 5vh; left: 40vw;"">
            <div style=""margin:0 auto; width: 20vw; top: 8vh; font-size: 1vw""> 
            <font color=""green""> Bonus : $0 </font>
            </div>
        </div>
    
            <div> Please press any button to continue to the next trial.</div>
        ","arrowleft","ITI","","","","",""
"","","","","","html-keyboard-response","30","54121","0.0-4.0-1.5","60733d6690d0d13013e9f40a","6552129e68c08af5079f912e","6552131cc591fd1166079781","null","
        
        <div style=""text-align: center; position: fixed; top: 5vh; left: 40vw;"">
            <div style=""margin:0 auto; width: 20vw; top: 8vh; font-size: 1vw""> 
            <font color=""green""> Bonus : $0 </font>
            </div>
        </div>
    
        <img class=""stim"" src=./stimuli//pack_1/cat_2/ex_2_76.png></img>
    ","null","stimulus","","","","",""
"","","","","","html-keyboard-response","31","55130","0.0-4.0-2.5","60733d6690d0d13013e9f40a","6552129e68c08af5079f912e","6552131cc591fd1166079781","null","
        <div style=""text-align: center; position: fixed; top: 5vh; left: 40vw;"">
            <div style=""margin:0 auto; width: 20vw; top: 8vh; font-size: 1vw""> 
            <font color=""green""> Bonus : $0 </font>
            </div>
        </div>
    ","null","","","","","",""
"","","","","","html-keyboard-response","32","55392","0.0-4.0-3.5","60733d6690d0d13013e9f40a","6552129e68c08af5079f912e","6552131cc591fd1166079781","261","./stimuli//pack_1/cat_2/ex_2_76.png","arrowright","response","ArrowRight","76","2","true",""
"","","","","","html-keyboard-response","33","56904","0.0-4.0-4.5","60733d6690d0d13013e9f40a","6552129e68c08af5079f912e","6552131cc591fd1166079781","null","<p> <font color=""green"" size=""4vw""> Correct category! </font> </p>","null","feedback","","","","","0"
"","","","","","html-keyboard-response","34","57612","0.0-4.0-0.6","60733d6690d0d13013e9f40a","6552129e68c08af5079f912e","6552131cc591fd1166079781","707","
            
        <div style=""text-align: center; position: fixed; top: 5vh; left: 40vw;"">
            <div style=""margin:0 auto; width: 20vw; top: 8vh; font-size: 1vw""> 
            <font color=""green""> Bonus : $0 </font>
            </div>
        </div>
    
            <div> Please press any button to continue to the next trial.</div>
        ","arrowright","ITI","","","","",""
"","","","","","html-keyboard-response","35","58222","0.0-4.0-1.6","60733d6690d0d13013e9f40a","6552129e68c08af5079f912e","6552131cc591fd1166079781","null","
        
        <div style=""text-align: center; position: fixed; top: 5vh; left: 40vw;"">
            <div style=""margin:0 auto; width: 20vw; top: 8vh; font-size: 1vw""> 
            <font color=""green""> Bonus : $0 </font>
            </div>
        </div>
    
        <img class=""stim"" src=./stimuli//pack_1/cat_1/ex_1_10.png></img>
    ","null","stimulus","","","","",""
"","","","","","html-keyboard-response","36","59223","0.0-4.0-2.6","60733d6690d0d13013e9f40a","6552129e68c08af5079f912e","6552131cc591fd1166079781","null","
        <div style=""text-align: center; position: fixed; top: 5vh; left: 40vw;"">
            <div style=""margin:0 auto; width: 20vw; top: 8vh; font-size: 1vw""> 
            <font color=""green""> Bonus : $0 </font>
            </div>
        </div>
    ","null","","","","","",""
"","","","","","html-keyboard-response","37","59453","0.0-4.0-3.6","60733d6690d0d13013e9f40a","6552129e68c08af5079f912e","6552131cc591fd1166079781","229","./stimuli//pack_1/cat_1/ex_1_10.png","arrowleft","response","ArrowLeft","10","1","true",""
"","","","","","html-keyboard-response","38","60960","0.0-4.0-4.6","60733d6690d0d13013e9f40a","6552129e68c08af5079f912e","6552131cc591fd1166079781","null","<p> <font color=""green"" size=""4vw""> Correct category! </font> </p>","null","feedback","","","","","0"
"","","","","","html-keyboard-response","39","61434","0.0-4.0-0.7","60733d6690d0d13013e9f40a","6552129e68c08af5079f912e","6552131cc591fd1166079781","472","
            
        <div style=""text-align: center; position: fixed; top: 5vh; left: 40vw;"">
            <div style=""margin:0 auto; width: 20vw; top: 8vh; font-size: 1vw""> 
            <font color=""green""> Bonus : $0 </font>
            </div>
        </div>
    
            <div> Please press any button to continue to the next trial.</div>
        ","arrowleft","ITI","","","","",""
"","","","","","html-keyboard-response","40","62044","0.0-4.0-1.7","60733d6690d0d13013e9f40a","6552129e68c08af5079f912e","6552131cc591fd1166079781","null","
        
        <div style=""text-align: center; position: fixed; top: 5vh; left: 40vw;"">
            <div style=""margin:0 auto; width: 20vw; top: 8vh; font-size: 1vw""> 
            <font color=""green""> Bonus : $0 </font>
            </div>
        </div>
    
        <img class=""stim"" src=./stimuli//pack_1/cat_2/ex_2_35.png></img>
    ","null","stimulus","","","","",""
"","","","","","html-keyboard-response","41","63051","0.0-4.0-2.7","60733d6690d0d13013e9f40a","6552129e68c08af5079f912e","6552131cc591fd1166079781","null","
        <div style=""text-align: center; position: fixed; top: 5vh; left: 40vw;"">
            <div style=""margin:0 auto; width: 20vw; top: 8vh; font-size: 1vw""> 
            <font color=""green""> Bonus : $0 </font>
            </div>
        </div>
    ","null","","","","","",""
"","","","","","html-keyboard-response","42","63307","0.0-4.0-3.7","60733d6690d0d13013e9f40a","6552129e68c08af5079f912e","6552131cc591fd1166079781","254","./stimuli//pack_1/cat_2/ex_2_35.png","arrowright","response","ArrowRight","35","2","true",""
"","","","","","html-keyboard-response","43","64813","0.0-4.0-4.7","60733d6690d0d13013e9f40a","6552129e68c08af5079f912e","6552131cc591fd1166079781","null","<p> <font color=""green"" size=""4vw""> Correct category! </font> </p>","null","feedback","","","","","0"
"","","","","","html-keyboard-response","44","65267","0.0-4.0-0.8","60733d6690d0d13013e9f40a","6552129e68c08af5079f912e","6552131cc591fd1166079781","453","
            
        <div style=""text-align: center; position: fixed; top: 5vh; left: 40vw;"">
            <div style=""margin:0 auto; width: 20vw; top: 8vh; font-size: 1vw""> 
            <font color=""green""> Bonus : $0 </font>
            </div>
        </div>
    
            <div> Please press any button to continue to the next trial.</div>
        ","arrowright","ITI","","","","",""
"","","","","","html-keyboard-response","45","65883","0.0-4.0-1.8","60733d6690d0d13013e9f40a","6552129e68c08af5079f912e","6552131cc591fd1166079781","null","
        
        <div style=""text-align: center; position: fixed; top: 5vh; left: 40vw;"">
            <div style=""margin:0 auto; width: 20vw; top: 8vh; font-size: 1vw""> 
            <font color=""green""> Bonus : $0 </font>
            </div>
        </div>
    
        <img class=""stim"" src=./stimuli//pack_1/cat_2/ex_2_45.png></img>
    ","null","stimulus","","","","",""
"","","","","","html-keyboard-response","46","66890","0.0-4.0-2.8","60733d6690d0d13013e9f40a","6552129e68c08af5079f912e","6552131cc591fd1166079781","null","
        <div style=""text-align: center; position: fixed; top: 5vh; left: 40vw;"">
            <div style=""margin:0 auto; width: 20vw; top: 8vh; font-size: 1vw""> 
            <font color=""green""> Bonus : $0 </font>
            </div>
        </div>
    ","null","","","","","",""
"","","","","","html-keyboard-response","47","67148","0.0-4.0-3.8","60733d6690d0d13013e9f40a","6552129e68c08af5079f912e","6552131cc591fd1166079781","256","./stimuli//pack_1/cat_2/ex_2_45.png","arrowright","response","ArrowRight","45","2","true",""
"","","","","","html-keyboard-response","48","68649","0.0-4.0-4.8","60733d6690d0d13013e9f40a","6552129e68c08af5079f912e","6552131cc591fd1166079781","null","<p> <font color=""green"" size=""4vw""> Correct category! </font> </p>","null","feedback","","","","","0"
"","","","","","html-keyboard-response","49","79490","0.0-4.0-0.9","60733d6690d0d13013e9f40a","6552129e68c08af5079f912e","6552131cc591fd1166079781","10841","
            
        <div style=""text-align: center; position: fixed; top: 5vh; left: 40vw;"">
            <div style=""margin:0 auto; width: 20vw; top: 8vh; font-size: 1vw""> 
            <font color=""green""> Bonus : $0 </font>
            </div>
        </div>
    
            <div> Please press any button to continue to the next trial.</div>
        ","arrowup","ITI","","","","",""
"","","","","","html-keyboard-response","50","80093","0.0-4.0-1.9","60733d6690d0d13013e9f40a","6552129e68c08af5079f912e","6552131cc591fd1166079781","null","
        
        <div style=""text-align: center; position: fixed; top: 5vh; left: 40vw;"">
            <div style=""margin:0 auto; width: 20vw; top: 8vh; font-size: 1vw""> 
            <font color=""green""> Bonus : $0 </font>
            </div>
        </div>
    
        <img class=""stim"" src=./stimuli//pack_1/cat_2/ex_2_6.png></img>
    ","null","stimulus","","","","",""
"","","","","","html-keyboard-response","51","81101","0.0-4.0-2.9","60733d6690d0d13013e9f40a","6552129e68c08af5079f912e","6552131cc591fd1166079781","null","
        <div style=""text-align: center; position: fixed; top: 5vh; left: 40vw;"">
            <div style=""margin:0 auto; width: 20vw; top: 8vh; font-size: 1vw""> 
            <font color=""green""> Bonus : $0 </font>
            </div>
        </div>
    ","null","","","","","",""
"","","","","","html-keyboard-response","52","81324","0.0-4.0-3.9","60733d6690d0d13013e9f40a","6552129e68c08af5079f912e","6552131cc591fd1166079781","221","./stimuli//pack_1/cat_2/ex_2_6.png","arrowright","response","ArrowRight","6","2","true",""
"","","","","","html-keyboard-response","53","82830","0.0-4.0-4.9","60733d6690d0d13013e9f40a","6552129e68c08af5079f912e","6552131cc591fd1166079781","null","<p> <font color=""green"" size=""4vw""> Correct category! </font> </p>","null","feedback","","","","","0"
"","","","","","html-keyboard-response","54","85666","0.0-5.0","60733d6690d0d13013e9f40a","6552129e68c08af5079f912e","6552131cc591fd1166079781","2835","
            <b> <p> The practice round has finished.</p>
            <b> For the rest of the experiment you will receive a $0.05 bonus for each correct answer!</b>
            <p> Press any key to begin the test. </p>
            ","arrowright","intermission","","","","",""
"","","","","","html-keyboard-response","55","86567","0.0-6.0-0.0","60733d6690d0d13013e9f40a","6552129e68c08af5079f912e","6552131cc591fd1166079781","901","
            
        <div style=""text-align: center; position: fixed; top: 5vh; left: 40vw;"">
            <div style=""margin:0 auto; width: 20vw; top: 8vh; font-size: 1vw""> 
            <font color=""green""> Bonus : $0 </font>
            </div>
        </div>
    
            <div> Please press any button to continue to the next trial.</div>
        ","arrowright","ITI","","","","",""
"","","","","","html-keyboard-response","56","87170","0.0-6.0-1.0","60733d6690d0d13013e9f40a","6552129e68c08af5079f912e","6552131cc591fd1166079781","null","
        
        <div style=""text-align: center; position: fixed; top: 5vh; left: 40vw;"">
            <div style=""margin:0 auto; width: 20vw; top: 8vh; font-size: 1vw""> 
            <font color=""green""> Bonus : $0 </font>
            </div>
        </div>
    
        <img class=""stim"" src=./stimuli//pack_1/cat_1/ex_1_14.png></img>
    ","null","stimulus","","","","",""
"","","","","","html-keyboard-response","57","88177","0.0-6.0-2.0","60733d6690d0d13013e9f40a","6552129e68c08af5079f912e","6552131cc591fd1166079781","null","
        <div style=""text-align: center; position: fixed; top: 5vh; left: 40vw;"">
            <div style=""margin:0 auto; width: 20vw; top: 8vh; font-size: 1vw""> 
            <font color=""green""> Bonus : $0 </font>
            </div>
        </div>
    ","null","","","","","",""
"","","","","","html-keyboard-response","58","88570","0.0-6.0-3.0","60733d6690d0d13013e9f40a","6552129e68c08af5079f912e","6552131cc591fd1166079781","391","./stimuli//pack_1/cat_1/ex_1_14.png","arrowright","response","ArrowLeft","14","1","false",""
"","","","","","html-keyboard-response","59","90081","0.0-6.0-4.0","60733d6690d0d13013e9f40a","6552129e68c08af5079f912e","6552131cc591fd1166079781","null","<p> <font color=""red"" size=""4vw""> Wrong category! </font> </p>","null","feedback","","","","","0"
"","","","","","html-keyboard-response","60","90555","0.0-6.0-0.1","60733d6690d0d13013e9f40a","6552129e68c08af5079f912e","6552131cc591fd1166079781","473","
            
        <div style=""text-align: center; position: fixed; top: 5vh; left: 40vw;"">
            <div style=""margin:0 auto; width: 20vw; top: 8vh; font-size: 1vw""> 
            <font color=""green""> Bonus : $0 </font>
            </div>
        </div>
    
            <div> Please press any button to continue to the next trial.</div>
        ","arrowright","ITI","","","","",""
"","","","","","html-keyboard-response","61","91163","0.0-6.0-1.1","60733d6690d0d13013e9f40a","6552129e68c08af5079f912e","6552131cc591fd1166079781","null","
        
        <div style=""text-align: center; position: fixed; top: 5vh; left: 40vw;"">
            <div style=""margin:0 auto; width: 20vw; top: 8vh; font-size: 1vw""> 
            <font color=""green""> Bonus : $0 </font>
            </div>
        </div>
    
        <img class=""stim"" src=./stimuli//pack_1/cat_2/ex_2_84.png></img>
    ","null","stimulus","","","","",""
"","","","","","html-keyboard-response","62","92171","0.0-6.0-2.1","60733d6690d0d13013e9f40a","6552129e68c08af5079f912e","6552131cc591fd1166079781","null","
        <div style=""text-align: center; position: fixed; top: 5vh; left: 40vw;"">
            <div style=""margin:0 auto; width: 20vw; top: 8vh; font-size: 1vw""> 
            <font color=""green""> Bonus : $0 </font>
            </div>
        </div>
    ","null","","","","","",""
"","","","","","html-keyboard-response","63","92456","0.0-6.0-3.1","60733d6690d0d13013e9f40a","6552129e68c08af5079f912e","6552131cc591fd1166079781","284","./stimuli//pack_1/cat_2/ex_2_84.png","arrowright","response","ArrowRight","84","2","true",""
"","","","","","html-keyboard-response","64","93966","0.0-6.0-4.1","60733d6690d0d13013e9f40a","6552129e68c08af5079f912e","6552131cc591fd1166079781","null","<p> <font color=""green"" size=""4vw""> Correct category! </font> <br> <br> <font color=""green"" size=""7vw""> + $0.05 </font> </p>","null","feedback","","","","","0.05"
"","","","","","html-keyboard-response","65","94389","0.0-6.0-0.2","60733d6690d0d13013e9f40a","6552129e68c08af5079f912e","6552131cc591fd1166079781","422","
            
        <div style=""text-align: center; position: fixed; top: 5vh; left: 40vw;"">
            <div style=""margin:0 auto; width: 20vw; top: 8vh; font-size: 1vw""> 
            <font color=""green""> Bonus : $0.05 </font>
            </div>
        </div>
    
            <div> Please press any button to continue to the next trial.</div>
        ","arrowright","ITI","","","","",""
"","","","","","html-keyboard-response","66","95004","0.0-6.0-1.2","60733d6690d0d13013e9f40a","6552129e68c08af5079f912e","6552131cc591fd1166079781","null","
        
        <div style=""text-align: center; position: fixed; top: 5vh; left: 40vw;"">
            <div style=""margin:0 auto; width: 20vw; top: 8vh; font-size: 1vw""> 
            <font color=""green""> Bonus : $0.05 </font>
            </div>
        </div>
    
        <img class=""stim"" src=./stimuli//pack_1/cat_2/ex_2_49.png></img>
    ","null","stimulus","","","","",""
"","","","","","html-keyboard-response","67","96017","0.0-6.0-2.2","60733d6690d0d13013e9f40a","6552129e68c08af5079f912e","6552131cc591fd1166079781","null","
        <div style=""text-align: center; position: fixed; top: 5vh; left: 40vw;"">
            <div style=""margin:0 auto; width: 20vw; top: 8vh; font-size: 1vw""> 
            <font color=""green""> Bonus : $0.05 </font>
            </div>
        </div>
    ","null","","","","","",""
"","","","","","html-keyboard-response","68","96278","0.0-6.0-3.2","60733d6690d0d13013e9f40a","6552129e68c08af5079f912e","6552131cc591fd1166079781","260","./stimuli//pack_1/cat_2/ex_2_49.png","arrowleft","response","ArrowRight","49","2","false",""
"","","","","","html-keyboard-response","69","97786","0.0-6.0-4.2","60733d6690d0d13013e9f40a","6552129e68c08af5079f912e","6552131cc591fd1166079781","null","<p> <font color=""red"" size=""4vw""> Wrong category! </font> </p>","null","feedback","","","","","0.05"
"","","","","","html-keyboard-response","70","98109","0.0-6.0-0.3","60733d6690d0d13013e9f40a","6552129e68c08af5079f912e","6552131cc591fd1166079781","322","
            
        <div style=""text-align: center; position: fixed; top: 5vh; left: 40vw;"">
            <div style=""margin:0 auto; width: 20vw; top: 8vh; font-size: 1vw""> 
            <font color=""green""> Bonus : $0.05 </font>
            </div>
        </div>
    
            <div> Please press any button to continue to the next trial.</div>
        ","arrowleft","ITI","","","","",""
"","","","","","html-keyboard-response","71","98723","0.0-6.0-1.3","60733d6690d0d13013e9f40a","6552129e68c08af5079f912e","6552131cc591fd1166079781","null","
        
        <div style=""text-align: center; position: fixed; top: 5vh; left: 40vw;"">
            <div style=""margin:0 auto; width: 20vw; top: 8vh; font-size: 1vw""> 
            <font color=""green""> Bonus : $0.05 </font>
            </div>
        </div>
    
        <img class=""stim"" src=./stimuli//pack_1/cat_2/ex_2_61.png></img>
    ","null","stimulus","","","","",""
"","","","","","html-keyboard-response","72","99737","0.0-6.0-2.3","60733d6690d0d13013e9f40a","6552129e68c08af5079f912e","6552131cc591fd1166079781","null","
        <div style=""text-align: center; position: fixed; top: 5vh; left: 40vw;"">
            <div style=""margin:0 auto; width: 20vw; top: 8vh; font-size: 1vw""> 
            <font color=""green""> Bonus : $0.05 </font>
            </div>
        </div>
    ","null","","","","","",""
"","","","","","html-keyboard-response","73","100009","0.0-6.0-3.3","60733d6690d0d13013e9f40a","6552129e68c08af5079f912e","6552131cc591fd1166079781","271","./stimuli//pack_1/cat_2/ex_2_61.png","arrowright","response","ArrowRight","61","2","true",""
"","","","","","html-keyboard-response","74","101518","0.0-6.0-4.3","60733d6690d0d13013e9f40a","6552129e68c08af5079f912e","6552131cc591fd1166079781","null","<p> <font color=""green"" size=""4vw""> Correct category! </font> <br> <br> <font color=""green"" size=""7vw""> + $0.05 </font> </p>","null","feedback","","","","","0.1"
"","","","","","html-keyboard-response","75","101864","0.0-6.0-0.4","60733d6690d0d13013e9f40a","6552129e68c08af5079f912e","6552131cc591fd1166079781","345","
            
        <div style=""text-align: center; position: fixed; top: 5vh; left: 40vw;"">
            <div style=""margin:0 auto; width: 20vw; top: 8vh; font-size: 1vw""> 
            <font color=""green""> Bonus : $0.1 </font>
            </div>
        </div>
    
            <div> Please press any button to continue to the next trial.</div>
        ","arrowright","ITI","","","","",""
"","","","","","html-keyboard-response","76","102477","0.0-6.0-1.4","60733d6690d0d13013e9f40a","6552129e68c08af5079f912e","6552131cc591fd1166079781","null","
        
        <div style=""text-align: center; position: fixed; top: 5vh; left: 40vw;"">
            <div style=""margin:0 auto; width: 20vw; top: 8vh; font-size: 1vw""> 
            <font color=""green""> Bonus : $0.1 </font>
            </div>
        </div>
    
        <img class=""stim"" src=./stimuli//pack_1/cat_1/ex_1_97.png></img>
    ","null","stimulus","","","","",""
"","","","","","html-keyboard-response","77","103491","0.0-6.0-2.4","60733d6690d0d13013e9f40a","6552129e68c08af5079f912e","6552131cc591fd1166079781","null","
        <div style=""text-align: center; position: fixed; top: 5vh; left: 40vw;"">
            <div style=""margin:0 auto; width: 20vw; top: 8vh; font-size: 1vw""> 
            <font color=""green""> Bonus : $0.1 </font>
            </div>
        </div>
    ","null","","","","","",""
"","","","","","html-keyboard-response","78","103711","0.0-6.0-3.4","60733d6690d0d13013e9f40a","6552129e68c08af5079f912e","6552131cc591fd1166079781","218","./stimuli//pack_1/cat_1/ex_1_97.png","arrowleft","response","ArrowLeft","97","1","true",""
"","","","","","html-keyboard-response","79","105216","0.0-6.0-4.4","60733d6690d0d13013e9f40a","6552129e68c08af5079f912e","6552131cc591fd1166079781","null","<p> <font color=""green"" size=""4vw""> Correct category! </font> <br> <br> <font color=""green"" size=""7vw""> + $0.05 </font> </p>","null","feedback","","","","","0.15"
"","","","","","html-keyboard-response","80","105625","0.0-6.0-0.5","60733d6690d0d13013e9f40a","6552129e68c08af5079f912e","6552131cc591fd1166079781","408","
            
        <div style=""text-align: center; position: fixed; top: 5vh; left: 40vw;"">
            <div style=""margin:0 auto; width: 20vw; top: 8vh; font-size: 1vw""> 
            <font color=""green""> Bonus : $0.15 </font>
            </div>
        </div>
    
            <div> Please press any button to continue to the next trial.</div>
        ","arrowleft","ITI","","","","",""
"","","","","","html-keyboard-response","81","106240","0.0-6.0-1.5","60733d6690d0d13013e9f40a","6552129e68c08af5079f912e","6552131cc591fd1166079781","null","
        
        <div style=""text-align: center; position: fixed; top: 5vh; left: 40vw;"">
            <div style=""margin:0 auto; width: 20vw; top: 8vh; font-size: 1vw""> 
            <font color=""green""> Bonus : $0.15 </font>
            </div>
        </div>
    
        <img class=""stim"" src=./stimuli//pack_1/cat_1/ex_1_78.png></img>
    ","null","stimulus","","","","",""
"","","","","","html-keyboard-response","82","107254","0.0-6.0-2.5","60733d6690d0d13013e9f40a","6552129e68c08af5079f912e","6552131cc591fd1166079781","null","
        <div style=""text-align: center; position: fixed; top: 5vh; left: 40vw;"">
            <div style=""margin:0 auto; width: 20vw; top: 8vh; font-size: 1vw""> 
            <font color=""green""> Bonus : $0.15 </font>
            </div>
        </div>
    ","null","","","","","",""
"","","","","","html-keyboard-response","83","107645","0.0-6.0-3.5","60733d6690d0d13013e9f40a","6552129e68c08af5079f912e","6552131cc591fd1166079781","389","./stimuli//pack_1/cat_1/ex_1_78.png","arrowleft","response","ArrowLeft","78","1","true",""
"","","","","","html-keyboard-response","84","109159","0.0-6.0-4.5","60733d6690d0d13013e9f40a","6552129e68c08af5079f912e","6552131cc591fd1166079781","null","<p> <font color=""green"" size=""4vw""> Correct category! </font> <br> <br> <font color=""green"" size=""7vw""> + $0.05 </font> </p>","null","feedback","","","","","0.2"
"","","","","","html-keyboard-response","85","109605","0.0-6.0-0.6","60733d6690d0d13013e9f40a","6552129e68c08af5079f912e","6552131cc591fd1166079781","446","
            
        <div style=""text-align: center; position: fixed; top: 5vh; left: 40vw;"">
            <div style=""margin:0 auto; width: 20vw; top: 8vh; font-size: 1vw""> 
            <font color=""green""> Bonus : $0.2 </font>
            </div>
        </div>
    
            <div> Please press any button to continue to the next trial.</div>
        ","arrowleft","ITI","","","","",""
"","","","","","html-keyboard-response","86","110215","0.0-6.0-1.6","60733d6690d0d13013e9f40a","6552129e68c08af5079f912e","6552131cc591fd1166079781","null","
        
        <div style=""text-align: center; position: fixed; top: 5vh; left: 40vw;"">
            <div style=""margin:0 auto; width: 20vw; top: 8vh; font-size: 1vw""> 
            <font color=""green""> Bonus : $0.2 </font>
            </div>
        </div>
    
        <img class=""stim"" src=./stimuli//pack_1/cat_2/ex_2_11.png></img>
    ","null","stimulus","","","","",""
"","","","","","html-keyboard-response","87","111220","0.0-6.0-2.6","60733d6690d0d13013e9f40a","6552129e68c08af5079f912e","6552131cc591fd1166079781","null","
        <div style=""text-align: center; position: fixed; top: 5vh; left: 40vw;"">
            <div style=""margin:0 auto; width: 20vw; top: 8vh; font-size: 1vw""> 
            <font color=""green""> Bonus : $0.2 </font>
            </div>
        </div>
    ","null","","","","","",""
"","","","","","html-keyboard-response","88","111460","0.0-6.0-3.6","60733d6690d0d13013e9f40a","6552129e68c08af5079f912e","6552131cc591fd1166079781","238","./stimuli//pack_1/cat_2/ex_2_11.png","arrowleft","response","ArrowRight","11","2","false",""
"","","","","","html-keyboard-response","89","112975","0.0-6.0-4.6","60733d6690d0d13013e9f40a","6552129e68c08af5079f912e","6552131cc591fd1166079781","null","<p> <font color=""red"" size=""4vw""> Wrong category! </font> </p>","null","feedback","","","","","0.2"
"","","","","","html-keyboard-response","90","113441","0.0-6.0-0.7","60733d6690d0d13013e9f40a","6552129e68c08af5079f912e","6552131cc591fd1166079781","465","
            
        <div style=""text-align: center; position: fixed; top: 5vh; left: 40vw;"">
            <div style=""margin:0 auto; width: 20vw; top: 8vh; font-size: 1vw""> 
            <font color=""green""> Bonus : $0.2 </font>
            </div>
        </div>
    
            <div> Please press any button to continue to the next trial.</div>
        ","arrowleft","ITI","","","","",""
"","","","","","html-keyboard-response","91","114054","0.0-6.0-1.7","60733d6690d0d13013e9f40a","6552129e68c08af5079f912e","6552131cc591fd1166079781","null","
        
        <div style=""text-align: center; position: fixed; top: 5vh; left: 40vw;"">
            <div style=""margin:0 auto; width: 20vw; top: 8vh; font-size: 1vw""> 
            <font color=""green""> Bonus : $0.2 </font>
            </div>
        </div>
    
        <img class=""stim"" src=./stimuli//pack_1/cat_2/ex_2_73.png></img>
    ","null","stimulus","","","","",""
"","","","","","html-keyboard-response","92","115063","0.0-6.0-2.7","60733d6690d0d13013e9f40a","6552129e68c08af5079f912e","6552131cc591fd1166079781","null","
        <div style=""text-align: center; position: fixed; top: 5vh; left: 40vw;"">
            <div style=""margin:0 auto; width: 20vw; top: 8vh; font-size: 1vw""> 
            <font color=""green""> Bonus : $0.2 </font>
            </div>
        </div>
    ","null","","","","","",""
"","","","","","html-keyboard-response","93","115276","0.0-6.0-3.7","60733d6690d0d13013e9f40a","6552129e68c08af5079f912e","6552131cc591fd1166079781","212","./stimuli//pack_1/cat_2/ex_2_73.png","arrowright","response","ArrowRight","73","2","true",""
"","","","","","html-keyboard-response","94","116782","0.0-6.0-4.7","60733d6690d0d13013e9f40a","6552129e68c08af5079f912e","6552131cc591fd1166079781","null","<p> <font color=""green"" size=""4vw""> Correct category! </font> <br> <br> <font color=""green"" size=""7vw""> + $0.05 </font> </p>","null","feedback","","","","","0.25"
"","","","","","html-keyboard-response","95","117304","0.0-6.0-0.8","60733d6690d0d13013e9f40a","6552129e68c08af5079f912e","6552131cc591fd1166079781","520","
            
        <div style=""text-align: center; position: fixed; top: 5vh; left: 40vw;"">
            <div style=""margin:0 auto; width: 20vw; top: 8vh; font-size: 1vw""> 
            <font color=""green""> Bonus : $0.25 </font>
            </div>
        </div>
    
            <div> Please press any button to continue to the next trial.</div>
        ","arrowright","ITI","","","","",""
"","","","","","html-keyboard-response","96","117906","0.0-6.0-1.8","60733d6690d0d13013e9f40a","6552129e68c08af5079f912e","6552131cc591fd1166079781","null","
        
        <div style=""text-align: center; position: fixed; top: 5vh; left: 40vw;"">
            <div style=""margin:0 auto; width: 20vw; top: 8vh; font-size: 1vw""> 
            <font color=""green""> Bonus : $0.25 </font>
            </div>
        </div>
    
        <img class=""stim"" src=./stimuli//pack_1/cat_2/ex_2_90.png></img>
    ","null","stimulus","","","","",""
"","","","","","html-keyboard-response","97","118916","0.0-6.0-2.8","60733d6690d0d13013e9f40a","6552129e68c08af5079f912e","6552131cc591fd1166079781","null","
        <div style=""text-align: center; position: fixed; top: 5vh; left: 40vw;"">
            <div style=""margin:0 auto; width: 20vw; top: 8vh; font-size: 1vw""> 
            <font color=""green""> Bonus : $0.25 </font>
            </div>
        </div>
    ","null","","","","","",""
"","","","","","html-keyboard-response","98","119003","0.0-6.0-3.8","60733d6690d0d13013e9f40a","6552129e68c08af5079f912e","6552131cc591fd1166079781","87","./stimuli//pack_1/cat_2/ex_2_90.png","arrowleft","response","ArrowRight","90","2","false",""
"","","","","","html-keyboard-response","99","120508","0.0-6.0-4.8","60733d6690d0d13013e9f40a","6552129e68c08af5079f912e","6552131cc591fd1166079781","null","<p> <font color=""red"" size=""4vw""> Wrong category! </font> </p>","null","feedback","","","","","0.25"
"","","","","","html-keyboard-response","100","121120","0.0-6.0-0.9","60733d6690d0d13013e9f40a","6552129e68c08af5079f912e","6552131cc591fd1166079781","611","
            
        <div style=""text-align: center; position: fixed; top: 5vh; left: 40vw;"">
            <div style=""margin:0 auto; width: 20vw; top: 8vh; font-size: 1vw""> 
            <font color=""green""> Bonus : $0.25 </font>
            </div>
        </div>
    
            <div> Please press any button to continue to the next trial.</div>
        ","arrowleft","ITI","","","","",""
"","","","","","html-keyboard-response","101","121732","0.0-6.0-1.9","60733d6690d0d13013e9f40a","6552129e68c08af5079f912e","6552131cc591fd1166079781","null","
        
        <div style=""text-align: center; position: fixed; top: 5vh; left: 40vw;"">
            <div style=""margin:0 auto; width: 20vw; top: 8vh; font-size: 1vw""> 
            <font color=""green""> Bonus : $0.25 </font>
            </div>
        </div>
    
        <img class=""stim"" src=./stimuli//pack_1/cat_2/ex_2_93.png></img>
    ","null","stimulus","","","","",""
"","","","","","html-keyboard-response","102","122741","0.0-6.0-2.9","60733d6690d0d13013e9f40a","6552129e68c08af5079f912e","6552131cc591fd1166079781","null","
        <div style=""text-align: center; position: fixed; top: 5vh; left: 40vw;"">
            <div style=""margin:0 auto; width: 20vw; top: 8vh; font-size: 1vw""> 
            <font color=""green""> Bonus : $0.25 </font>
            </div>
        </div>
    ","null","","","","","",""
"","","","","","html-keyboard-response","103","122969","0.0-6.0-3.9","60733d6690d0d13013e9f40a","6552129e68c08af5079f912e","6552131cc591fd1166079781","227","./stimuli//pack_1/cat_2/ex_2_93.png","arrowright","response","ArrowRight","93","2","true",""
"","","","","","html-keyboard-response","104","124471","0.0-6.0-4.9","60733d6690d0d13013e9f40a","6552129e68c08af5079f912e","6552131cc591fd1166079781","null","<p> <font color=""green"" size=""4vw""> Correct category! </font> <br> <br> <font color=""green"" size=""7vw""> + $0.05 </font> </p>","null","feedback","","","","","0.3"
"","","","","","html-keyboard-response","105","124833","0.0-6.0-0.10","60733d6690d0d13013e9f40a","6552129e68c08af5079f912e","6552131cc591fd1166079781","361","
            
        <div style=""text-align: center; position: fixed; top: 5vh; left: 40vw;"">
            <div style=""margin:0 auto; width: 20vw; top: 8vh; font-size: 1vw""> 
            <font color=""green""> Bonus : $0.3 </font>
            </div>
        </div>
    
            <div> Please press any button to continue to the next trial.</div>
        ","arrowright","ITI","","","","",""
"","","","","","html-keyboard-response","106","125445","0.0-6.0-1.10","60733d6690d0d13013e9f40a","6552129e68c08af5079f912e","6552131cc591fd1166079781","null","
        
        <div style=""text-align: center; position: fixed; top: 5vh; left: 40vw;"">
            <div style=""margin:0 auto; width: 20vw; top: 8vh; font-size: 1vw""> 
            <font color=""green""> Bonus : $0.3 </font>
            </div>
        </div>
    
        <img class=""stim"" src=./stimuli//pack_1/cat_2/ex_2_44.png></img>
    ","null","stimulus","","","","",""
"","","","","","html-keyboard-response","107","126455","0.0-6.0-2.10","60733d6690d0d13013e9f40a","6552129e68c08af5079f912e","6552131cc591fd1166079781","null","
        <div style=""text-align: center; position: fixed; top: 5vh; left: 40vw;"">
            <div style=""margin:0 auto; width: 20vw; top: 8vh; font-size: 1vw""> 
            <font color=""green""> Bonus : $0.3 </font>
            </div>
        </div>
    ","null","","","","","",""
"","","","","","html-keyboard-response","108","126718","0.0-6.0-3.10","60733d6690d0d13013e9f40a","6552129e68c08af5079f912e","6552131cc591fd1166079781","261","./stimuli//pack_1/cat_2/ex_2_44.png","arrowright","response","ArrowRight","44","2","true",""
"","","","","","html-keyboard-response","109","128233","0.0-6.0-4.10","60733d6690d0d13013e9f40a","6552129e68c08af5079f912e","6552131cc591fd1166079781","null","<p> <font color=""green"" size=""4vw""> Correct category! </font> <br> <br> <font color=""green"" size=""7vw""> + $0.05 </font> </p>","null","feedback","","","","","0.35"
"","","","","","html-keyboard-response","110","128637","0.0-6.0-0.11","60733d6690d0d13013e9f40a","6552129e68c08af5079f912e","6552131cc591fd1166079781","403","
            
        <div style=""text-align: center; position: fixed; top: 5vh; left: 40vw;"">
            <div style=""margin:0 auto; width: 20vw; top: 8vh; font-size: 1vw""> 
            <font color=""green""> Bonus : $0.35 </font>
            </div>
        </div>
    
            <div> Please press any button to continue to the next trial.</div>
        ","arrowright","ITI","","","","",""
"","","","","","html-keyboard-response","111","129250","0.0-6.0-1.11","60733d6690d0d13013e9f40a","6552129e68c08af5079f912e","6552131cc591fd1166079781","null","
        
        <div style=""text-align: center; position: fixed; top: 5vh; left: 40vw;"">
            <div style=""margin:0 auto; width: 20vw; top: 8vh; font-size: 1vw""> 
            <font color=""green""> Bonus : $0.35 </font>
            </div>
        </div>
    
        <img class=""stim"" src=./stimuli//pack_1/cat_2/ex_2_9.png></img>
    ","null","stimulus","","","","",""
"","","","","","html-keyboard-response","112","130264","0.0-6.0-2.11","60733d6690d0d13013e9f40a","6552129e68c08af5079f912e","6552131cc591fd1166079781","null","
        <div style=""text-align: center; position: fixed; top: 5vh; left: 40vw;"">
            <div style=""margin:0 auto; width: 20vw; top: 8vh; font-size: 1vw""> 
            <font color=""green""> Bonus : $0.35 </font>
            </div>
        </div>
    ","null","","","","","",""
"","","","","","html-keyboard-response","113","130509","0.0-6.0-3.11","60733d6690d0d13013e9f40a","6552129e68c08af5079f912e","6552131cc591fd1166079781","243","./stimuli//pack_1/cat_2/ex_2_9.png","arrowright","response","ArrowRight","9","2","true",""
"","","","","","html-keyboard-response","114","132019","0.0-6.0-4.11","60733d6690d0d13013e9f40a","6552129e68c08af5079f912e","6552131cc591fd1166079781","null","<p> <font color=""green"" size=""4vw""> Correct category! </font> <br> <br> <font color=""green"" size=""7vw""> + $0.05 </font> </p>","null","feedback","","","","","0.4"
"","","","","","html-keyboard-response","115","132317","0.0-6.0-0.12","60733d6690d0d13013e9f40a","6552129e68c08af5079f912e","6552131cc591fd1166079781","297","
            
        <div style=""text-align: center; position: fixed; top: 5vh; left: 40vw;"">
            <div style=""margin:0 auto; width: 20vw; top: 8vh; font-size: 1vw""> 
            <font color=""green""> Bonus : $0.4 </font>
            </div>
        </div>
    
            <div> Please press any button to continue to the next trial.</div>
        ","arrowright","ITI","","","","",""
"","","","","","html-keyboard-response","116","132926","0.0-6.0-1.12","60733d6690d0d13013e9f40a","6552129e68c08af5079f912e","6552131cc591fd1166079781","null","
        
        <div style=""text-align: center; position: fixed; top: 5vh; left: 40vw;"">
            <div style=""margin:0 auto; width: 20vw; top: 8vh; font-size: 1vw""> 
            <font color=""green""> Bonus : $0.4 </font>
            </div>
        </div>
    
        <img class=""stim"" src=./stimuli//pack_1/cat_2/ex_2_33.png></img>
    ","null","stimulus","","","","",""
"","","","","","html-keyboard-response","117","133940","0.0-6.0-2.12","60733d6690d0d13013e9f40a","6552129e68c08af5079f912e","6552131cc591fd1166079781","null","
        <div style=""text-align: center; position: fixed; top: 5vh; left: 40vw;"">
            <div style=""margin:0 auto; width: 20vw; top: 8vh; font-size: 1vw""> 
            <font color=""green""> Bonus : $0.4 </font>
            </div>
        </div>
    ","null","","","","","",""
"","","","","","html-keyboard-response","118","134193","0.0-6.0-3.12","60733d6690d0d13013e9f40a","6552129e68c08af5079f912e","6552131cc591fd1166079781","253","./stimuli//pack_1/cat_2/ex_2_33.png","arrowleft","response","ArrowRight","33","2","false",""
"","","","","","html-keyboard-response","119","135706","0.0-6.0-4.12","60733d6690d0d13013e9f40a","6552129e68c08af5079f912e","6552131cc591fd1166079781","null","<p> <font color=""red"" size=""4vw""> Wrong category! </font> </p>","null","feedback","","","","","0.4"
"","","","","","html-keyboard-response","120","136215","0.0-6.0-0.13","60733d6690d0d13013e9f40a","6552129e68c08af5079f912e","6552131cc591fd1166079781","508","
            
        <div style=""text-align: center; position: fixed; top: 5vh; left: 40vw;"">
            <div style=""margin:0 auto; width: 20vw; top: 8vh; font-size: 1vw""> 
            <font color=""green""> Bonus : $0.4 </font>
            </div>
        </div>
    
            <div> Please press any button to continue to the next trial.</div>
        ","arrowleft","ITI","","","","",""
"","","","","","html-keyboard-response","121","136826","0.0-6.0-1.13","60733d6690d0d13013e9f40a","6552129e68c08af5079f912e","6552131cc591fd1166079781","null","
        
        <div style=""text-align: center; position: fixed; top: 5vh; left: 40vw;"">
            <div style=""margin:0 auto; width: 20vw; top: 8vh; font-size: 1vw""> 
            <font color=""green""> Bonus : $0.4 </font>
            </div>
        </div>
    
        <img class=""stim"" src=./stimuli//pack_1/cat_2/ex_2_26.png></img>
    ","null","stimulus","","","","",""
"","","","","","html-keyboard-response","122","137838","0.0-6.0-2.13","60733d6690d0d13013e9f40a","6552129e68c08af5079f912e","6552131cc591fd1166079781","null","
        <div style=""text-align: center; position: fixed; top: 5vh; left: 40vw;"">
            <div style=""margin:0 auto; width: 20vw; top: 8vh; font-size: 1vw""> 
            <font color=""green""> Bonus : $0.4 </font>
            </div>
        </div>
    ","null","","","","","",""
"","","","","","html-keyboard-response","123","138300","0.0-6.0-3.13","60733d6690d0d13013e9f40a","6552129e68c08af5079f912e","6552131cc591fd1166079781","461","./stimuli//pack_1/cat_2/ex_2_26.png","arrowright","response","ArrowRight","26","2","true",""
"","","","","","html-keyboard-response","124","139816","0.0-6.0-4.13","60733d6690d0d13013e9f40a","6552129e68c08af5079f912e","6552131cc591fd1166079781","null","<p> <font color=""green"" size=""4vw""> Correct category! </font> <br> <br> <font color=""green"" size=""7vw""> + $0.05 </font> </p>","null","feedback","","","","","0.45"
"","","","","","html-keyboard-response","125","140100","0.0-6.0-0.14","60733d6690d0d13013e9f40a","6552129e68c08af5079f912e","6552131cc591fd1166079781","283","
            
        <div style=""text-align: center; position: fixed; top: 5vh; left: 40vw;"">
            <div style=""margin:0 auto; width: 20vw; top: 8vh; font-size: 1vw""> 
            <font color=""green""> Bonus : $0.45 </font>
            </div>
        </div>
    
            <div> Please press any button to continue to the next trial.</div>
        ","arrowright","ITI","","","","",""
"","","","","","html-keyboard-response","126","140702","0.0-6.0-1.14","60733d6690d0d13013e9f40a","6552129e68c08af5079f912e","6552131cc591fd1166079781","null","
        
        <div style=""text-align: center; position: fixed; top: 5vh; left: 40vw;"">
            <div style=""margin:0 auto; width: 20vw; top: 8vh; font-size: 1vw""> 
            <font color=""green""> Bonus : $0.45 </font>
            </div>
        </div>
    
        <img class=""stim"" src=./stimuli//pack_1/cat_2/ex_2_52.png></img>
    ","null","stimulus","","","","",""
"","","","","","html-keyboard-response","127","141707","0.0-6.0-2.14","60733d6690d0d13013e9f40a","6552129e68c08af5079f912e","6552131cc591fd1166079781","null","
        <div style=""text-align: center; position: fixed; top: 5vh; left: 40vw;"">
            <div style=""margin:0 auto; width: 20vw; top: 8vh; font-size: 1vw""> 
            <font color=""green""> Bonus : $0.45 </font>
            </div>
        </div>
    ","null","","","","","",""
"","","","","","html-keyboard-response","128","141946","0.0-6.0-3.14","60733d6690d0d13013e9f40a","6552129e68c08af5079f912e","6552131cc591fd1166079781","240","./stimuli//pack_1/cat_2/ex_2_52.png","arrowright","response","ArrowRight","52","2","true",""
"","","","","","html-keyboard-response","129","143457","0.0-6.0-4.14","60733d6690d0d13013e9f40a","6552129e68c08af5079f912e","6552131cc591fd1166079781","null","<p> <font color=""green"" size=""4vw""> Correct category! </font> <br> <br> <font color=""green"" size=""7vw""> + $0.05 </font> </p>","null","feedback","","","","","0.5"
"","","","","","html-keyboard-response","130","143776","0.0-6.0-0.15","60733d6690d0d13013e9f40a","6552129e68c08af5079f912e","6552131cc591fd1166079781","318","
            
        <div style=""text-align: center; position: fixed; top: 5vh; left: 40vw;"">
            <div style=""margin:0 auto; width: 20vw; top: 8vh; font-size: 1vw""> 
            <font color=""green""> Bonus : $0.5 </font>
            </div>
        </div>
    
            <div> Please press any button to continue to the next trial.</div>
        ","arrowright","ITI","","","","",""
"","","","","","html-keyboard-response","131","144388","0.0-6.0-1.15","60733d6690d0d13013e9f40a","6552129e68c08af5079f912e","6552131cc591fd1166079781","null","
        
        <div style=""text-align: center; position: fixed; top: 5vh; left: 40vw;"">
            <div style=""margin:0 auto; width: 20vw; top: 8vh; font-size: 1vw""> 
            <font color=""green""> Bonus : $0.5 </font>
            </div>
        </div>
    
        <img class=""stim"" src=./stimuli//pack_1/cat_1/ex_1_31.png></img>
    ","null","stimulus","","","","",""
"","","","","","html-keyboard-response","132","145395","0.0-6.0-2.15","60733d6690d0d13013e9f40a","6552129e68c08af5079f912e","6552131cc591fd1166079781","null","
        <div style=""text-align: center; position: fixed; top: 5vh; left: 40vw;"">
            <div style=""margin:0 auto; width: 20vw; top: 8vh; font-size: 1vw""> 
            <font color=""green""> Bonus : $0.5 </font>
            </div>
        </div>
    ","null","","","","","",""
"","","","","","html-keyboard-response","133","145676","0.0-6.0-3.15","60733d6690d0d13013e9f40a","6552129e68c08af5079f912e","6552131cc591fd1166079781","280","./stimuli//pack_1/cat_1/ex_1_31.png","arrowright","response","ArrowLeft","31","1","false",""
"","","","","","html-keyboard-response","134","147185","0.0-6.0-4.15","60733d6690d0d13013e9f40a","6552129e68c08af5079f912e","6552131cc591fd1166079781","null","<p> <font color=""red"" size=""4vw""> Wrong category! </font> </p>","null","feedback","","","","","0.5"
"","","","","","html-keyboard-response","135","147613","0.0-6.0-0.16","60733d6690d0d13013e9f40a","6552129e68c08af5079f912e","6552131cc591fd1166079781","427","
            
        <div style=""text-align: center; position: fixed; top: 5vh; left: 40vw;"">
            <div style=""margin:0 auto; width: 20vw; top: 8vh; font-size: 1vw""> 
            <font color=""green""> Bonus : $0.5 </font>
            </div>
        </div>
    
            <div> Please press any button to continue to the next trial.</div>
        ","arrowright","ITI","","","","",""
"","","","","","html-keyboard-response","136","148226","0.0-6.0-1.16","60733d6690d0d13013e9f40a","6552129e68c08af5079f912e","6552131cc591fd1166079781","null","
        
        <div style=""text-align: center; position: fixed; top: 5vh; left: 40vw;"">
            <div style=""margin:0 auto; width: 20vw; top: 8vh; font-size: 1vw""> 
            <font color=""green""> Bonus : $0.5 </font>
            </div>
        </div>
    
        <img class=""stim"" src=./stimuli//pack_1/cat_1/ex_1_12.png></img>
    ","null","stimulus","","","","",""
"","","","","","html-keyboard-response","137","149235","0.0-6.0-2.16","60733d6690d0d13013e9f40a","6552129e68c08af5079f912e","6552131cc591fd1166079781","null","
        <div style=""text-align: center; position: fixed; top: 5vh; left: 40vw;"">
            <div style=""margin:0 auto; width: 20vw; top: 8vh; font-size: 1vw""> 
            <font color=""green""> Bonus : $0.5 </font>
            </div>
        </div>
    ","null","","","","","",""
"","","","","","html-keyboard-response","138","149527","0.0-6.0-3.16","60733d6690d0d13013e9f40a","6552129e68c08af5079f912e","6552131cc591fd1166079781","290","./stimuli//pack_1/cat_1/ex_1_12.png","arrowright","response","ArrowLeft","12","1","false",""
"","","","","","html-keyboard-response","139","151042","0.0-6.0-4.16","60733d6690d0d13013e9f40a","6552129e68c08af5079f912e","6552131cc591fd1166079781","null","<p> <font color=""red"" size=""4vw""> Wrong category! </font> </p>","null","feedback","","","","","0.5"
"","","","","","html-keyboard-response","140","151381","0.0-6.0-0.17","60733d6690d0d13013e9f40a","6552129e68c08af5079f912e","6552131cc591fd1166079781","337","
            
        <div style=""text-align: center; position: fixed; top: 5vh; left: 40vw;"">
            <div style=""margin:0 auto; width: 20vw; top: 8vh; font-size: 1vw""> 
            <font color=""green""> Bonus : $0.5 </font>
            </div>
        </div>
    
            <div> Please press any button to continue to the next trial.</div>
        ","arrowright","ITI","","","","",""
"","","","","","html-keyboard-response","141","151989","0.0-6.0-1.17","60733d6690d0d13013e9f40a","6552129e68c08af5079f912e","6552131cc591fd1166079781","null","
        
        <div style=""text-align: center; position: fixed; top: 5vh; left: 40vw;"">
            <div style=""margin:0 auto; width: 20vw; top: 8vh; font-size: 1vw""> 
            <font color=""green""> Bonus : $0.5 </font>
            </div>
        </div>
    
        <img class=""stim"" src=./stimuli//pack_1/cat_2/ex_2_48.png></img>
    ","null","stimulus","","","","",""
"","","","","","html-keyboard-response","142","153000","0.0-6.0-2.17","60733d6690d0d13013e9f40a","6552129e68c08af5079f912e","6552131cc591fd1166079781","null","
        <div style=""text-align: center; position: fixed; top: 5vh; left: 40vw;"">
            <div style=""margin:0 auto; width: 20vw; top: 8vh; font-size: 1vw""> 
            <font color=""green""> Bonus : $0.5 </font>
            </div>
        </div>
    ","null","","","","","",""
"","","","","","html-keyboard-response","143","153276","0.0-6.0-3.17","60733d6690d0d13013e9f40a","6552129e68c08af5079f912e","6552131cc591fd1166079781","275","./stimuli//pack_1/cat_2/ex_2_48.png","arrowright","response","ArrowRight","48","2","true",""
"","","","","","html-keyboard-response","144","154779","0.0-6.0-4.17","60733d6690d0d13013e9f40a","6552129e68c08af5079f912e","6552131cc591fd1166079781","null","<p> <font color=""green"" size=""4vw""> Correct category! </font> <br> <br> <font color=""green"" size=""7vw""> + $0.05 </font> </p>","null","feedback","","","","","0.55"
"","","","","","html-keyboard-response","145","155123","0.0-6.0-0.18","60733d6690d0d13013e9f40a","6552129e68c08af5079f912e","6552131cc591fd1166079781","344","
            
        <div style=""text-align: center; position: fixed; top: 5vh; left: 40vw;"">
            <div style=""margin:0 auto; width: 20vw; top: 8vh; font-size: 1vw""> 
            <font color=""green""> Bonus : $0.55 </font>
            </div>
        </div>
    
            <div> Please press any button to continue to the next trial.</div>
        ","arrowright","ITI","","","","",""
"","","","","","html-keyboard-response","146","155725","0.0-6.0-1.18","60733d6690d0d13013e9f40a","6552129e68c08af5079f912e","6552131cc591fd1166079781","null","
        
        <div style=""text-align: center; position: fixed; top: 5vh; left: 40vw;"">
            <div style=""margin:0 auto; width: 20vw; top: 8vh; font-size: 1vw""> 
            <font color=""green""> Bonus : $0.55 </font>
            </div>
        </div>
    
        <img class=""stim"" src=./stimuli//pack_1/cat_1/ex_1_2.png></img>
    ","null","stimulus","","","","",""
"","","","","","html-keyboard-response","147","156734","0.0-6.0-2.18","60733d6690d0d13013e9f40a","6552129e68c08af5079f912e","6552131cc591fd1166079781","null","
        <div style=""text-align: center; position: fixed; top: 5vh; left: 40vw;"">
            <div style=""margin:0 auto; width: 20vw; top: 8vh; font-size: 1vw""> 
            <font color=""green""> Bonus : $0.55 </font>
            </div>
        </div>
    ","null","","","","","",""
"","","","","","html-keyboard-response","148","157039","0.0-6.0-3.18","60733d6690d0d13013e9f40a","6552129e68c08af5079f912e","6552131cc591fd1166079781","302","./stimuli//pack_1/cat_1/ex_1_2.png","arrowleft","response","ArrowLeft","2","1","true",""
"","","","","","html-keyboard-response","149","158545","0.0-6.0-4.18","60733d6690d0d13013e9f40a","6552129e68c08af5079f912e","6552131cc591fd1166079781","null","<p> <font color=""green"" size=""4vw""> Correct category! </font> <br> <br> <font color=""green"" size=""7vw""> + $0.05 </font> </p>","null","feedback","","","","","0.6"
"","","","","","html-keyboard-response","150","158995","0.0-6.0-0.19","60733d6690d0d13013e9f40a","6552129e68c08af5079f912e","6552131cc591fd1166079781","449","
            
        <div style=""text-align: center; position: fixed; top: 5vh; left: 40vw;"">
            <div style=""margin:0 auto; width: 20vw; top: 8vh; font-size: 1vw""> 
            <font color=""green""> Bonus : $0.6 </font>
            </div>
        </div>
    
            <div> Please press any button to continue to the next trial.</div>
        ","arrowleft","ITI","","","","",""
"","","","","","html-keyboard-response","151","159598","0.0-6.0-1.19","60733d6690d0d13013e9f40a","6552129e68c08af5079f912e","6552131cc591fd1166079781","null","
        
        <div style=""text-align: center; position: fixed; top: 5vh; left: 40vw;"">
            <div style=""margin:0 auto; width: 20vw; top: 8vh; font-size: 1vw""> 
            <font color=""green""> Bonus : $0.6 </font>
            </div>
        </div>
    
        <img class=""stim"" src=./stimuli//pack_1/cat_1/ex_1_52.png></img>
    ","null","stimulus","","","","",""
"","","","","","html-keyboard-response","152","160603","0.0-6.0-2.19","60733d6690d0d13013e9f40a","6552129e68c08af5079f912e","6552131cc591fd1166079781","null","
        <div style=""text-align: center; position: fixed; top: 5vh; left: 40vw;"">
            <div style=""margin:0 auto; width: 20vw; top: 8vh; font-size: 1vw""> 
            <font color=""green""> Bonus : $0.6 </font>
            </div>
        </div>
    ","null","","","","","",""
"","","","","","html-keyboard-response","153","160856","0.0-6.0-3.19","60733d6690d0d13013e9f40a","6552129e68c08af5079f912e","6552131cc591fd1166079781","251","./stimuli//pack_1/cat_1/ex_1_52.png","arrowleft","response","ArrowLeft","52","1","true",""
"","","","","","html-keyboard-response","154","162371","0.0-6.0-4.19","60733d6690d0d13013e9f40a","6552129e68c08af5079f912e","6552131cc591fd1166079781","null","<p> <font color=""green"" size=""4vw""> Correct category! </font> <br> <br> <font color=""green"" size=""7vw""> + $0.05 </font> </p>","null","feedback","","","","","0.65"
"","","","","","html-keyboard-response","155","162695","0.0-6.0-0.20","60733d6690d0d13013e9f40a","6552129e68c08af5079f912e","6552131cc591fd1166079781","324","
            
        <div style=""text-align: center; position: fixed; top: 5vh; left: 40vw;"">
            <div style=""margin:0 auto; width: 20vw; top: 8vh; font-size: 1vw""> 
            <font color=""green""> Bonus : $0.65 </font>
            </div>
        </div>
    
            <div> Please press any button to continue to the next trial.</div>
        ","arrowleft","ITI","","","","",""
"","","","","","html-keyboard-response","156","163303","0.0-6.0-1.20","60733d6690d0d13013e9f40a","6552129e68c08af5079f912e","6552131cc591fd1166079781","null","
        
        <div style=""text-align: center; position: fixed; top: 5vh; left: 40vw;"">
            <div style=""margin:0 auto; width: 20vw; top: 8vh; font-size: 1vw""> 
            <font color=""green""> Bonus : $0.65 </font>
            </div>
        </div>
    
        <img class=""stim"" src=./stimuli//pack_1/cat_1/ex_1_68.png></img>
    ","null","stimulus","","","","",""
"","","","","","html-keyboard-response","157","164312","0.0-6.0-2.20","60733d6690d0d13013e9f40a","6552129e68c08af5079f912e","6552131cc591fd1166079781","null","
        <div style=""text-align: center; position: fixed; top: 5vh; left: 40vw;"">
            <div style=""margin:0 auto; width: 20vw; top: 8vh; font-size: 1vw""> 
            <font color=""green""> Bonus : $0.65 </font>
            </div>
        </div>
    ","null","","","","","",""
"","","","","","html-keyboard-response","158","164564","0.0-6.0-3.20","60733d6690d0d13013e9f40a","6552129e68c08af5079f912e","6552131cc591fd1166079781","251","./stimuli//pack_1/cat_1/ex_1_68.png","arrowleft","response","ArrowLeft","68","1","true",""
"","","","","","html-keyboard-response","159","166066","0.0-6.0-4.20","60733d6690d0d13013e9f40a","6552129e68c08af5079f912e","6552131cc591fd1166079781","null","<p> <font color=""green"" size=""4vw""> Correct category! </font> <br> <br> <font color=""green"" size=""7vw""> + $0.05 </font> </p>","null","feedback","","","","","0.7"
"","","","","","html-keyboard-response","160","166606","0.0-6.0-0.21","60733d6690d0d13013e9f40a","6552129e68c08af5079f912e","6552131cc591fd1166079781","538","
            
        <div style=""text-align: center; position: fixed; top: 5vh; left: 40vw;"">
            <div style=""margin:0 auto; width: 20vw; top: 8vh; font-size: 1vw""> 
            <font color=""green""> Bonus : $0.7 </font>
            </div>
        </div>
    
            <div> Please press any button to continue to the next trial.</div>
        ","arrowleft","ITI","","","","",""
"","","","","","html-keyboard-response","161","167216","0.0-6.0-1.21","60733d6690d0d13013e9f40a","6552129e68c08af5079f912e","6552131cc591fd1166079781","null","
        
        <div style=""text-align: center; position: fixed; top: 5vh; left: 40vw;"">
            <div style=""margin:0 auto; width: 20vw; top: 8vh; font-size: 1vw""> 
            <font color=""green""> Bonus : $0.7 </font>
            </div>
        </div>
    
        <img class=""stim"" src=./stimuli//pack_1/cat_1/ex_1_8.png></img>
    ","null","stimulus","","","","",""
"","","","","","html-keyboard-response","162","168221","0.0-6.0-2.21","60733d6690d0d13013e9f40a","6552129e68c08af5079f912e","6552131cc591fd1166079781","null","
        <div style=""text-align: center; position: fixed; top: 5vh; left: 40vw;"">
            <div style=""margin:0 auto; width: 20vw; top: 8vh; font-size: 1vw""> 
            <font color=""green""> Bonus : $0.7 </font>
            </div>
        </div>
    ","null","","","","","",""
"","","","","","html-keyboard-response","163","168473","0.0-6.0-3.21","60733d6690d0d13013e9f40a","6552129e68c08af5079f912e","6552131cc591fd1166079781","251","./stimuli//pack_1/cat_1/ex_1_8.png","arrowleft","response","ArrowLeft","8","1","true",""
"","","","","","html-keyboard-response","164","169983","0.0-6.0-4.21","60733d6690d0d13013e9f40a","6552129e68c08af5079f912e","6552131cc591fd1166079781","null","<p> <font color=""green"" size=""4vw""> Correct category! </font> <br> <br> <font color=""green"" size=""7vw""> + $0.05 </font> </p>","null","feedback","","","","","0.75"
"","","","","","html-keyboard-response","165","170519","0.0-6.0-0.22","60733d6690d0d13013e9f40a","6552129e68c08af5079f912e","6552131cc591fd1166079781","536","
            
        <div style=""text-align: center; position: fixed; top: 5vh; left: 40vw;"">
            <div style=""margin:0 auto; width: 20vw; top: 8vh; font-size: 1vw""> 
            <font color=""green""> Bonus : $0.75 </font>
            </div>
        </div>
    
            <div> Please press any button to continue to the next trial.</div>
        ","arrowleft","ITI","","","","",""
"","","","","","html-keyboard-response","166","171128","0.0-6.0-1.22","60733d6690d0d13013e9f40a","6552129e68c08af5079f912e","6552131cc591fd1166079781","null","
        
        <div style=""text-align: center; position: fixed; top: 5vh; left: 40vw;"">
            <div style=""margin:0 auto; width: 20vw; top: 8vh; font-size: 1vw""> 
            <font color=""green""> Bonus : $0.75 </font>
            </div>
        </div>
    
        <img class=""stim"" src=./stimuli//pack_1/cat_2/ex_2_81.png></img>
    ","null","stimulus","","","","",""
"","","","","","html-keyboard-response","167","172144","0.0-6.0-2.22","60733d6690d0d13013e9f40a","6552129e68c08af5079f912e","6552131cc591fd1166079781","null","
        <div style=""text-align: center; position: fixed; top: 5vh; left: 40vw;"">
            <div style=""margin:0 auto; width: 20vw; top: 8vh; font-size: 1vw""> 
            <font color=""green""> Bonus : $0.75 </font>
            </div>
        </div>
    ","null","","","","","",""
"","","","","","html-keyboard-response","168","172379","0.0-6.0-3.22","60733d6690d0d13013e9f40a","6552129e68c08af5079f912e","6552131cc591fd1166079781","233","./stimuli//pack_1/cat_2/ex_2_81.png","arrowright","response","ArrowRight","81","2","true",""
"","","","","","html-keyboard-response","169","173893","0.0-6.0-4.22","60733d6690d0d13013e9f40a","6552129e68c08af5079f912e","6552131cc591fd1166079781","null","<p> <font color=""green"" size=""4vw""> Correct category! </font> <br> <br> <font color=""green"" size=""7vw""> + $0.05 </font> </p>","null","feedback","","","","","0.8"
"","","","","","html-keyboard-response","170","174278","0.0-6.0-0.23","60733d6690d0d13013e9f40a","6552129e68c08af5079f912e","6552131cc591fd1166079781","383","
            
        <div style=""text-align: center; position: fixed; top: 5vh; left: 40vw;"">
            <div style=""margin:0 auto; width: 20vw; top: 8vh; font-size: 1vw""> 
            <font color=""green""> Bonus : $0.8 </font>
            </div>
        </div>
    
            <div> Please press any button to continue to the next trial.</div>
        ","arrowleft","ITI","","","","",""
"","","","","","html-keyboard-response","171","174888","0.0-6.0-1.23","60733d6690d0d13013e9f40a","6552129e68c08af5079f912e","6552131cc591fd1166079781","null","
        
        <div style=""text-align: center; position: fixed; top: 5vh; left: 40vw;"">
            <div style=""margin:0 auto; width: 20vw; top: 8vh; font-size: 1vw""> 
            <font color=""green""> Bonus : $0.8 </font>
            </div>
        </div>
    
        <img class=""stim"" src=./stimuli//pack_1/cat_1/ex_1_71.png></img>
    ","null","stimulus","","","","",""
"","","","","","html-keyboard-response","172","175903","0.0-6.0-2.23","60733d6690d0d13013e9f40a","6552129e68c08af5079f912e","6552131cc591fd1166079781","null","
        <div style=""text-align: center; position: fixed; top: 5vh; left: 40vw;"">
            <div style=""margin:0 auto; width: 20vw; top: 8vh; font-size: 1vw""> 
            <font color=""green""> Bonus : $0.8 </font>
            </div>
        </div>
    ","null","","","","","",""
"","","","","","html-keyboard-response","173","176128","0.0-6.0-3.23","60733d6690d0d13013e9f40a","6552129e68c08af5079f912e","6552131cc591fd1166079781","223","./stimuli//pack_1/cat_1/ex_1_71.png","arrowleft","response","ArrowLeft","71","1","true",""
"","","","","","html-keyboard-response","174","177643","0.0-6.0-4.23","60733d6690d0d13013e9f40a","6552129e68c08af5079f912e","6552131cc591fd1166079781","null","<p> <font color=""green"" size=""4vw""> Correct category! </font> <br> <br> <font color=""green"" size=""7vw""> + $0.05 </font> </p>","null","feedback","","","","","0.85"
"","","","","","html-keyboard-response","175","177958","0.0-6.0-0.24","60733d6690d0d13013e9f40a","6552129e68c08af5079f912e","6552131cc591fd1166079781","314","
            
        <div style=""text-align: center; position: fixed; top: 5vh; left: 40vw;"">
            <div style=""margin:0 auto; width: 20vw; top: 8vh; font-size: 1vw""> 
            <font color=""green""> Bonus : $0.85 </font>
            </div>
        </div>
    
            <div> Please press any button to continue to the next trial.</div>
        ","arrowleft","ITI","","","","",""
"","","","","","html-keyboard-response","176","178569","0.0-6.0-1.24","60733d6690d0d13013e9f40a","6552129e68c08af5079f912e","6552131cc591fd1166079781","null","
        
        <div style=""text-align: center; position: fixed; top: 5vh; left: 40vw;"">
            <div style=""margin:0 auto; width: 20vw; top: 8vh; font-size: 1vw""> 
            <font color=""green""> Bonus : $0.85 </font>
            </div>
        </div>
    
        <img class=""stim"" src=./stimuli//pack_1/cat_1/ex_1_47.png></img>
    ","null","stimulus","","","","",""
"","","","","","html-keyboard-response","177","179583","0.0-6.0-2.24","60733d6690d0d13013e9f40a","6552129e68c08af5079f912e","6552131cc591fd1166079781","null","
        <div style=""text-align: center; position: fixed; top: 5vh; left: 40vw;"">
            <div style=""margin:0 auto; width: 20vw; top: 8vh; font-size: 1vw""> 
            <font color=""green""> Bonus : $0.85 </font>
            </div>
        </div>
    ","null","","","","","",""
"","","","","","html-keyboard-response","178","179976","0.0-6.0-3.24","60733d6690d0d13013e9f40a","6552129e68c08af5079f912e","6552131cc591fd1166079781","392","./stimuli//pack_1/cat_1/ex_1_47.png","arrowleft","response","ArrowLeft","47","1","true",""
"","","","","","html-keyboard-response","179","181490","0.0-6.0-4.24","60733d6690d0d13013e9f40a","6552129e68c08af5079f912e","6552131cc591fd1166079781","null","<p> <font color=""green"" size=""4vw""> Correct category! </font> <br> <br> <font color=""green"" size=""7vw""> + $0.05 </font> </p>","null","feedback","","","","","0.9"
"","","","","","html-keyboard-response","180","181832","0.0-6.0-0.25","60733d6690d0d13013e9f40a","6552129e68c08af5079f912e","6552131cc591fd1166079781","342","
            
        <div style=""text-align: center; position: fixed; top: 5vh; left: 40vw;"">
            <div style=""margin:0 auto; width: 20vw; top: 8vh; font-size: 1vw""> 
            <font color=""green""> Bonus : $0.9 </font>
            </div>
        </div>
    
            <div> Please press any button to continue to the next trial.</div>
        ","arrowleft","ITI","","","","",""
"","","","","","html-keyboard-response","181","182446","0.0-6.0-1.25","60733d6690d0d13013e9f40a","6552129e68c08af5079f912e","6552131cc591fd1166079781","null","
        
        <div style=""text-align: center; position: fixed; top: 5vh; left: 40vw;"">
            <div style=""margin:0 auto; width: 20vw; top: 8vh; font-size: 1vw""> 
            <font color=""green""> Bonus : $0.9 </font>
            </div>
        </div>
    
        <img class=""stim"" src=./stimuli//pack_1/cat_1/ex_1_55.png></img>
    ","null","stimulus","","","","",""
"","","","","","html-keyboard-response","182","183453","0.0-6.0-2.25","60733d6690d0d13013e9f40a","6552129e68c08af5079f912e","6552131cc591fd1166079781","null","
        <div style=""text-align: center; position: fixed; top: 5vh; left: 40vw;"">
            <div style=""margin:0 auto; width: 20vw; top: 8vh; font-size: 1vw""> 
            <font color=""green""> Bonus : $0.9 </font>
            </div>
        </div>
    ","null","","","","","",""
"","","","","","html-keyboard-response","183","183722","0.0-6.0-3.25","60733d6690d0d13013e9f40a","6552129e68c08af5079f912e","6552131cc591fd1166079781","268","./stimuli//pack_1/cat_1/ex_1_55.png","arrowleft","response","ArrowLeft","55","1","true",""
"","","","","","html-keyboard-response","184","185238","0.0-6.0-4.25","60733d6690d0d13013e9f40a","6552129e68c08af5079f912e","6552131cc591fd1166079781","null","<p> <font color=""green"" size=""4vw""> Correct category! </font> <br> <br> <font color=""green"" size=""7vw""> + $0.05 </font> </p>","null","feedback","","","","","0.95"
"","","","","","html-keyboard-response","185","185501","0.0-6.0-0.26","60733d6690d0d13013e9f40a","6552129e68c08af5079f912e","6552131cc591fd1166079781","263","
            
        <div style=""text-align: center; position: fixed; top: 5vh; left: 40vw;"">
            <div style=""margin:0 auto; width: 20vw; top: 8vh; font-size: 1vw""> 
            <font color=""green""> Bonus : $0.95 </font>
            </div>
        </div>
    
            <div> Please press any button to continue to the next trial.</div>
        ","arrowleft","ITI","","","","",""
"","","","","","html-keyboard-response","186","186107","0.0-6.0-1.26","60733d6690d0d13013e9f40a","6552129e68c08af5079f912e","6552131cc591fd1166079781","null","
        
        <div style=""text-align: center; position: fixed; top: 5vh; left: 40vw;"">
            <div style=""margin:0 auto; width: 20vw; top: 8vh; font-size: 1vw""> 
            <font color=""green""> Bonus : $0.95 </font>
            </div>
        </div>
    
        <img class=""stim"" src=./stimuli//pack_1/cat_2/ex_2_59.png></img>
    ","null","stimulus","","","","",""
"","","","","","html-keyboard-response","187","187113","0.0-6.0-2.26","60733d6690d0d13013e9f40a","6552129e68c08af5079f912e","6552131cc591fd1166079781","null","
        <div style=""text-align: center; position: fixed; top: 5vh; left: 40vw;"">
            <div style=""margin:0 auto; width: 20vw; top: 8vh; font-size: 1vw""> 
            <font color=""green""> Bonus : $0.95 </font>
            </div>
        </div>
    ","null","","","","","",""
"","","","","","html-keyboard-response","188","187388","0.0-6.0-3.26","60733d6690d0d13013e9f40a","6552129e68c08af5079f912e","6552131cc591fd1166079781","273","./stimuli//pack_1/cat_2/ex_2_59.png","arrowright","response","ArrowRight","59","2","true",""
"","","","","","html-keyboard-response","189","188903","0.0-6.0-4.26","60733d6690d0d13013e9f40a","6552129e68c08af5079f912e","6552131cc591fd1166079781","null","<p> <font color=""green"" size=""4vw""> Correct category! </font> <br> <br> <font color=""green"" size=""7vw""> + $0.05 </font> </p>","null","feedback","","","","","1"
"","","","","","html-keyboard-response","190","189378","0.0-6.0-0.27","60733d6690d0d13013e9f40a","6552129e68c08af5079f912e","6552131cc591fd1166079781","474","
            
        <div style=""text-align: center; position: fixed; top: 5vh; left: 40vw;"">
            <div style=""margin:0 auto; width: 20vw; top: 8vh; font-size: 1vw""> 
            <font color=""green""> Bonus : $1 </font>
            </div>
        </div>
    
            <div> Please press any button to continue to the next trial.</div>
        ","arrowleft","ITI","","","","",""
"","","","","","html-keyboard-response","191","189992","0.0-6.0-1.27","60733d6690d0d13013e9f40a","6552129e68c08af5079f912e","6552131cc591fd1166079781","null","
        
        <div style=""text-align: center; position: fixed; top: 5vh; left: 40vw;"">
            <div style=""margin:0 auto; width: 20vw; top: 8vh; font-size: 1vw""> 
            <font color=""green""> Bonus : $1 </font>
            </div>
        </div>
    
        <img class=""stim"" src=./stimuli//pack_1/cat_2/ex_2_85.png></img>
    ","null","stimulus","","","","",""
"","","","","","html-keyboard-response","192","190999","0.0-6.0-2.27","60733d6690d0d13013e9f40a","6552129e68c08af5079f912e","6552131cc591fd1166079781","null","
        <div style=""text-align: center; position: fixed; top: 5vh; left: 40vw;"">
            <div style=""margin:0 auto; width: 20vw; top: 8vh; font-size: 1vw""> 
            <font color=""green""> Bonus : $1 </font>
            </div>
        </div>
    ","null","","","","","",""
"","","","","","html-keyboard-response","193","191242","0.0-6.0-3.27","60733d6690d0d13013e9f40a","6552129e68c08af5079f912e","6552131cc591fd1166079781","243","./stimuli//pack_1/cat_2/ex_2_85.png","arrowright","response","ArrowRight","85","2","true",""
"","","","","","html-keyboard-response","194","192747","0.0-6.0-4.27","60733d6690d0d13013e9f40a","6552129e68c08af5079f912e","6552131cc591fd1166079781","null","<p> <font color=""green"" size=""4vw""> Correct category! </font> <br> <br> <font color=""green"" size=""7vw""> + $0.05 </font> </p>","null","feedback","","","","","1.05"
"","","","","","html-keyboard-response","195","193189","0.0-6.0-0.28","60733d6690d0d13013e9f40a","6552129e68c08af5079f912e","6552131cc591fd1166079781","442","
            
        <div style=""text-align: center; position: fixed; top: 5vh; left: 40vw;"">
            <div style=""margin:0 auto; width: 20vw; top: 8vh; font-size: 1vw""> 
            <font color=""green""> Bonus : $1.05 </font>
            </div>
        </div>
    
            <div> Please press any button to continue to the next trial.</div>
        ","arrowright","ITI","","","","",""
"","","","","","html-keyboard-response","196","193797","0.0-6.0-1.28","60733d6690d0d13013e9f40a","6552129e68c08af5079f912e","6552131cc591fd1166079781","null","
        
        <div style=""text-align: center; position: fixed; top: 5vh; left: 40vw;"">
            <div style=""margin:0 auto; width: 20vw; top: 8vh; font-size: 1vw""> 
            <font color=""green""> Bonus : $1.05 </font>
            </div>
        </div>
    
        <img class=""stim"" src=./stimuli//pack_1/cat_2/ex_2_100.png></img>
    ","null","stimulus","","","","",""
"","","","","","html-keyboard-response","197","194813","0.0-6.0-2.28","60733d6690d0d13013e9f40a","6552129e68c08af5079f912e","6552131cc591fd1166079781","null","
        <div style=""text-align: center; position: fixed; top: 5vh; left: 40vw;"">
            <div style=""margin:0 auto; width: 20vw; top: 8vh; font-size: 1vw""> 
            <font color=""green""> Bonus : $1.05 </font>
            </div>
        </div>
    ","null","","","","","",""
"","","","","","html-keyboard-response","198","195048","0.0-6.0-3.28","60733d6690d0d13013e9f40a","6552129e68c08af5079f912e","6552131cc591fd1166079781","233","./stimuli//pack_1/cat_2/ex_2_100.png","arrowright","response","ArrowRight","100","2","true",""
"","","","","","html-keyboard-response","199","196551","0.0-6.0-4.28","60733d6690d0d13013e9f40a","6552129e68c08af5079f912e","6552131cc591fd1166079781","null","<p> <font color=""green"" size=""4vw""> Correct category! </font> <br> <br> <font color=""green"" size=""7vw""> + $0.05 </font> </p>","null","feedback","","","","","1.1"
"","","","","","html-keyboard-response","200","197007","0.0-6.0-0.29","60733d6690d0d13013e9f40a","6552129e68c08af5079f912e","6552131cc591fd1166079781","455","
            
        <div style=""text-align: center; position: fixed; top: 5vh; left: 40vw;"">
            <div style=""margin:0 auto; width: 20vw; top: 8vh; font-size: 1vw""> 
            <font color=""green""> Bonus : $1.1 </font>
            </div>
        </div>
    
            <div> Please press any button to continue to the next trial.</div>
        ","arrowright","ITI","","","","",""
"","","","","","html-keyboard-response","201","197623","0.0-6.0-1.29","60733d6690d0d13013e9f40a","6552129e68c08af5079f912e","6552131cc591fd1166079781","null","
        
        <div style=""text-align: center; position: fixed; top: 5vh; left: 40vw;"">
            <div style=""margin:0 auto; width: 20vw; top: 8vh; font-size: 1vw""> 
            <font color=""green""> Bonus : $1.1 </font>
            </div>
        </div>
    
        <img class=""stim"" src=./stimuli//pack_1/cat_2/ex_2_56.png></img>
    ","null","stimulus","","","","",""
"","","","","","html-keyboard-response","202","198632","0.0-6.0-2.29","60733d6690d0d13013e9f40a","6552129e68c08af5079f912e","6552131cc591fd1166079781","null","
        <div style=""text-align: center; position: fixed; top: 5vh; left: 40vw;"">
            <div style=""margin:0 auto; width: 20vw; top: 8vh; font-size: 1vw""> 
            <font color=""green""> Bonus : $1.1 </font>
            </div>
        </div>
    ","null","","","","","",""
"","","","","","html-keyboard-response","203","198856","0.0-6.0-3.29","60733d6690d0d13013e9f40a","6552129e68c08af5079f912e","6552131cc591fd1166079781","223","./stimuli//pack_1/cat_2/ex_2_56.png","arrowright","response","ArrowRight","56","2","true",""
"","","","","","html-keyboard-response","204","200366","0.0-6.0-4.29","60733d6690d0d13013e9f40a","6552129e68c08af5079f912e","6552131cc591fd1166079781","null","<p> <font color=""green"" size=""4vw""> Correct category! </font> <br> <br> <font color=""green"" size=""7vw""> + $0.05 </font> </p>","null","feedback","","","","","1.15"
"","","","","","html-keyboard-response","205","200770","0.0-6.0-0.30","60733d6690d0d13013e9f40a","6552129e68c08af5079f912e","6552131cc591fd1166079781","402","
            
        <div style=""text-align: center; position: fixed; top: 5vh; left: 40vw;"">
            <div style=""margin:0 auto; width: 20vw; top: 8vh; font-size: 1vw""> 
            <font color=""green""> Bonus : $1.15 </font>
            </div>
        </div>
    
            <div> Please press any button to continue to the next trial.</div>
        ","arrowright","ITI","","","","",""
"","","","","","html-keyboard-response","206","201381","0.0-6.0-1.30","60733d6690d0d13013e9f40a","6552129e68c08af5079f912e","6552131cc591fd1166079781","null","
        
        <div style=""text-align: center; position: fixed; top: 5vh; left: 40vw;"">
            <div style=""margin:0 auto; width: 20vw; top: 8vh; font-size: 1vw""> 
            <font color=""green""> Bonus : $1.15 </font>
            </div>
        </div>
    
        <img class=""stim"" src=./stimuli//pack_1/cat_2/ex_2_38.png></img>
    ","null","stimulus","","","","",""
"","","","","","html-keyboard-response","207","202383","0.0-6.0-2.30","60733d6690d0d13013e9f40a","6552129e68c08af5079f912e","6552131cc591fd1166079781","null","
        <div style=""text-align: center; position: fixed; top: 5vh; left: 40vw;"">
            <div style=""margin:0 auto; width: 20vw; top: 8vh; font-size: 1vw""> 
            <font color=""green""> Bonus : $1.15 </font>
            </div>
        </div>
    ","null","","","","","",""
"","","","","","html-keyboard-response","208","202584","0.0-6.0-3.30","60733d6690d0d13013e9f40a","6552129e68c08af5079f912e","6552131cc591fd1166079781","200","./stimuli//pack_1/cat_2/ex_2_38.png","arrowright","response","ArrowRight","38","2","true",""
"","","","","","html-keyboard-response","209","203366","0.0-6.0-4.30","60733d6690d0d13013e9f40a","6552129e68c08af5079f912e","6552131cc591fd1166079781","782","<p> <font color=""green"" size=""4vw""> Correct category! </font> <br> <br> <font color=""green"" size=""7vw""> + $0.05 </font> </p>","arrowright","feedback","","","","","1.2"
"","","","","","html-keyboard-response","210","203721","0.0-6.0-0.31","60733d6690d0d13013e9f40a","6552129e68c08af5079f912e","6552131cc591fd1166079781","355","
            
        <div style=""text-align: center; position: fixed; top: 5vh; left: 40vw;"">
            <div style=""margin:0 auto; width: 20vw; top: 8vh; font-size: 1vw""> 
            <font color=""green""> Bonus : $1.2 </font>
            </div>
        </div>
    
            <div> Please press any button to continue to the next trial.</div>
        ","arrowright","ITI","","","","",""
"","","","","","html-keyboard-response","211","204333","0.0-6.0-1.31","60733d6690d0d13013e9f40a","6552129e68c08af5079f912e","6552131cc591fd1166079781","null","
        
        <div style=""text-align: center; position: fixed; top: 5vh; left: 40vw;"">
            <div style=""margin:0 auto; width: 20vw; top: 8vh; font-size: 1vw""> 
            <font color=""green""> Bonus : $1.2 </font>
            </div>
        </div>
    
        <img class=""stim"" src=./stimuli//pack_1/cat_1/ex_1_91.png></img>
    ","null","stimulus","","","","",""
"","","","","","html-keyboard-response","212","205348","0.0-6.0-2.31","60733d6690d0d13013e9f40a","6552129e68c08af5079f912e","6552131cc591fd1166079781","null","
        <div style=""text-align: center; position: fixed; top: 5vh; left: 40vw;"">
            <div style=""margin:0 auto; width: 20vw; top: 8vh; font-size: 1vw""> 
            <font color=""green""> Bonus : $1.2 </font>
            </div>
        </div>
    ","null","","","","","",""
"","","","","","html-keyboard-response","213","205540","0.0-6.0-3.31","60733d6690d0d13013e9f40a","6552129e68c08af5079f912e","6552131cc591fd1166079781","191","./stimuli//pack_1/cat_1/ex_1_91.png","arrowleft","response","ArrowLeft","91","1","true",""
"","","","","","html-keyboard-response","214","207004","0.0-6.0-4.31","60733d6690d0d13013e9f40a","6552129e68c08af5079f912e","6552131cc591fd1166079781","1464","<p> <font color=""green"" size=""4vw""> Correct category! </font> <br> <br> <font color=""green"" size=""7vw""> + $0.05 </font> </p>","arrowleft","feedback","","","","","1.25"
"","","","","","html-keyboard-response","215","207384","0.0-6.0-0.32","60733d6690d0d13013e9f40a","6552129e68c08af5079f912e","6552131cc591fd1166079781","379","
            
        <div style=""text-align: center; position: fixed; top: 5vh; left: 40vw;"">
            <div style=""margin:0 auto; width: 20vw; top: 8vh; font-size: 1vw""> 
            <font color=""green""> Bonus : $1.25 </font>
            </div>
        </div>
    
            <div> Please press any button to continue to the next trial.</div>
        ","arrowleft","ITI","","","","",""
"","","","","","html-keyboard-response","216","207997","0.0-6.0-1.32","60733d6690d0d13013e9f40a","6552129e68c08af5079f912e","6552131cc591fd1166079781","null","
        
        <div style=""text-align: center; position: fixed; top: 5vh; left: 40vw;"">
            <div style=""margin:0 auto; width: 20vw; top: 8vh; font-size: 1vw""> 
            <font color=""green""> Bonus : $1.25 </font>
            </div>
        </div>
    
        <img class=""stim"" src=./stimuli//pack_1/cat_1/ex_1_61.png></img>
    ","null","stimulus","","","","",""
"","","","","","html-keyboard-response","217","209006","0.0-6.0-2.32","60733d6690d0d13013e9f40a","6552129e68c08af5079f912e","6552131cc591fd1166079781","null","
        <div style=""text-align: center; position: fixed; top: 5vh; left: 40vw;"">
            <div style=""margin:0 auto; width: 20vw; top: 8vh; font-size: 1vw""> 
            <font color=""green""> Bonus : $1.25 </font>
            </div>
        </div>
    ","null","","","","","",""
"","","","","","html-keyboard-response","218","209235","0.0-6.0-3.32","60733d6690d0d13013e9f40a","6552129e68c08af5079f912e","6552131cc591fd1166079781","227","./stimuli//pack_1/cat_1/ex_1_61.png","arrowleft","response","ArrowLeft","61","1","true",""
"","","","","","html-keyboard-response","219","210748","0.0-6.0-4.32","60733d6690d0d13013e9f40a","6552129e68c08af5079f912e","6552131cc591fd1166079781","null","<p> <font color=""green"" size=""4vw""> Correct category! </font> <br> <br> <font color=""green"" size=""7vw""> + $0.05 </font> </p>","null","feedback","","","","","1.3"
"","","","","","html-keyboard-response","220","211157","0.0-6.0-0.33","60733d6690d0d13013e9f40a","6552129e68c08af5079f912e","6552131cc591fd1166079781","409","
            
        <div style=""text-align: center; position: fixed; top: 5vh; left: 40vw;"">
            <div style=""margin:0 auto; width: 20vw; top: 8vh; font-size: 1vw""> 
            <font color=""green""> Bonus : $1.3 </font>
            </div>
        </div>
    
            <div> Please press any button to continue to the next trial.</div>
        ","arrowleft","ITI","","","","",""
"","","","","","html-keyboard-response","221","211761","0.0-6.0-1.33","60733d6690d0d13013e9f40a","6552129e68c08af5079f912e","6552131cc591fd1166079781","null","
        
        <div style=""text-align: center; position: fixed; top: 5vh; left: 40vw;"">
            <div style=""margin:0 auto; width: 20vw; top: 8vh; font-size: 1vw""> 
            <font color=""green""> Bonus : $1.3 </font>
            </div>
        </div>
    
        <img class=""stim"" src=./stimuli//pack_1/cat_1/ex_1_43.png></img>
    ","null","stimulus","","","","",""
"","","","","","html-keyboard-response","222","212769","0.0-6.0-2.33","60733d6690d0d13013e9f40a","6552129e68c08af5079f912e","6552131cc591fd1166079781","null","
        <div style=""text-align: center; position: fixed; top: 5vh; left: 40vw;"">
            <div style=""margin:0 auto; width: 20vw; top: 8vh; font-size: 1vw""> 
            <font color=""green""> Bonus : $1.3 </font>
            </div>
        </div>
    ","null","","","","","",""
"","","","","","html-keyboard-response","223","213014","0.0-6.0-3.33","60733d6690d0d13013e9f40a","6552129e68c08af5079f912e","6552131cc591fd1166079781","243","./stimuli//pack_1/cat_1/ex_1_43.png","arrowleft","response","ArrowLeft","43","1","true",""
"","","","","","html-keyboard-response","224","214522","0.0-6.0-4.33","60733d6690d0d13013e9f40a","6552129e68c08af5079f912e","6552131cc591fd1166079781","null","<p> <font color=""green"" size=""4vw""> Correct category! </font> <br> <br> <font color=""green"" size=""7vw""> + $0.05 </font> </p>","null","feedback","","","","","1.35"
"","","","","","html-keyboard-response","225","215001","0.0-6.0-0.34","60733d6690d0d13013e9f40a","6552129e68c08af5079f912e","6552131cc591fd1166079781","479","
            
        <div style=""text-align: center; position: fixed; top: 5vh; left: 40vw;"">
            <div style=""margin:0 auto; width: 20vw; top: 8vh; font-size: 1vw""> 
            <font color=""green""> Bonus : $1.35 </font>
            </div>
        </div>
    
            <div> Please press any button to continue to the next trial.</div>
        ","arrowleft","ITI","","","","",""
"","","","","","html-keyboard-response","226","215606","0.0-6.0-1.34","60733d6690d0d13013e9f40a","6552129e68c08af5079f912e","6552131cc591fd1166079781","null","
        
        <div style=""text-align: center; position: fixed; top: 5vh; left: 40vw;"">
            <div style=""margin:0 auto; width: 20vw; top: 8vh; font-size: 1vw""> 
            <font color=""green""> Bonus : $1.35 </font>
            </div>
        </div>
    
        <img class=""stim"" src=./stimuli//pack_1/cat_2/ex_2_5.png></img>
    ","null","stimulus","","","","",""
"","","","","","html-keyboard-response","227","216620","0.0-6.0-2.34","60733d6690d0d13013e9f40a","6552129e68c08af5079f912e","6552131cc591fd1166079781","null","
        <div style=""text-align: center; position: fixed; top: 5vh; left: 40vw;"">
            <div style=""margin:0 auto; width: 20vw; top: 8vh; font-size: 1vw""> 
            <font color=""green""> Bonus : $1.35 </font>
            </div>
        </div>
    ","null","","","","","",""
"","","","","","html-keyboard-response","228","216841","0.0-6.0-3.34","60733d6690d0d13013e9f40a","6552129e68c08af5079f912e","6552131cc591fd1166079781","220","./stimuli//pack_1/cat_2/ex_2_5.png","arrowright","response","ArrowRight","5","2","true",""
"","","","","","html-keyboard-response","229","218352","0.0-6.0-4.34","60733d6690d0d13013e9f40a","6552129e68c08af5079f912e","6552131cc591fd1166079781","null","<p> <font color=""green"" size=""4vw""> Correct category! </font> <br> <br> <font color=""green"" size=""7vw""> + $0.05 </font> </p>","null","feedback","","","","","1.4"
"","","","","","html-keyboard-response","230","218854","0.0-6.0-0.35","60733d6690d0d13013e9f40a","6552129e68c08af5079f912e","6552131cc591fd1166079781","501","
            
        <div style=""text-align: center; position: fixed; top: 5vh; left: 40vw;"">
            <div style=""margin:0 auto; width: 20vw; top: 8vh; font-size: 1vw""> 
            <font color=""green""> Bonus : $1.4 </font>
            </div>
        </div>
    
            <div> Please press any button to continue to the next trial.</div>
        ","arrowright","ITI","","","","",""
"","","","","","html-keyboard-response","231","219456","0.0-6.0-1.35","60733d6690d0d13013e9f40a","6552129e68c08af5079f912e","6552131cc591fd1166079781","null","
        
        <div style=""text-align: center; position: fixed; top: 5vh; left: 40vw;"">
            <div style=""margin:0 auto; width: 20vw; top: 8vh; font-size: 1vw""> 
            <font color=""green""> Bonus : $1.4 </font>
            </div>
        </div>
    
        <img class=""stim"" src=./stimuli//pack_1/cat_2/ex_2_18.png></img>
    ","null","stimulus","","","","",""
"","","","","","html-keyboard-response","232","220464","0.0-6.0-2.35","60733d6690d0d13013e9f40a","6552129e68c08af5079f912e","6552131cc591fd1166079781","null","
        <div style=""text-align: center; position: fixed; top: 5vh; left: 40vw;"">
            <div style=""margin:0 auto; width: 20vw; top: 8vh; font-size: 1vw""> 
            <font color=""green""> Bonus : $1.4 </font>
            </div>
        </div>
    ","null","","","","","",""
"","","","","","html-keyboard-response","233","220768","0.0-6.0-3.35","60733d6690d0d13013e9f40a","6552129e68c08af5079f912e","6552131cc591fd1166079781","304","./stimuli//pack_1/cat_2/ex_2_18.png","arrowright","response","ArrowRight","18","2","true",""
"","","","","","html-keyboard-response","234","222273","0.0-6.0-4.35","60733d6690d0d13013e9f40a","6552129e68c08af5079f912e","6552131cc591fd1166079781","null","<p> <font color=""green"" size=""4vw""> Correct category! </font> <br> <br> <font color=""green"" size=""7vw""> + $0.05 </font> </p>","null","feedback","","","","","1.45"
"","","","","","html-keyboard-response","235","222671","0.0-6.0-0.36","60733d6690d0d13013e9f40a","6552129e68c08af5079f912e","6552131cc591fd1166079781","398","
            
        <div style=""text-align: center; position: fixed; top: 5vh; left: 40vw;"">
            <div style=""margin:0 auto; width: 20vw; top: 8vh; font-size: 1vw""> 
            <font color=""green""> Bonus : $1.45 </font>
            </div>
        </div>
    
            <div> Please press any button to continue to the next trial.</div>
        ","arrowright","ITI","","","","",""
"","","","","","html-keyboard-response","236","223286","0.0-6.0-1.36","60733d6690d0d13013e9f40a","6552129e68c08af5079f912e","6552131cc591fd1166079781","null","
        
        <div style=""text-align: center; position: fixed; top: 5vh; left: 40vw;"">
            <div style=""margin:0 auto; width: 20vw; top: 8vh; font-size: 1vw""> 
            <font color=""green""> Bonus : $1.45 </font>
            </div>
        </div>
    
        <img class=""stim"" src=./stimuli//pack_1/cat_2/ex_2_14.png></img>
    ","null","stimulus","","","","",""
