"success","timeout","failed_images","failed_audio","failed_video","trial_type","trial_index","time_elapsed","internal_node_id","subject_id","study_id","session_id","rt","stimulus","response","task","correct_response","exemplar_ID","category","correct","bonus"
"true","false","[]","[]","[]","preload","0","1","0.0-0.0","5b9a2688ca449d0001deca4b","6552129e68c08af5079f912e","655213c3ff04c0aac04a97b0","","","","","","","","",""
"","","","","","html-keyboard-response","1","3594","0.0-1.0","5b9a2688ca449d0001deca4b","6552129e68c08af5079f912e","655213c3ff04c0aac04a97b0","3594","Welcome to the Category Learning experiment! Press any key to continue."," ","welcome","","","","",""
"","","","","","html-keyboard-response","2","45719","0.0-2.0","5b9a2688ca449d0001deca4b","6552129e68c08af5079f912e","655213c3ff04c0aac04a97b0","42124","
            <p>You will be shown images of patterns of black dots.  Some are category A, some are category B.
            <br>You will not know in advance which category a specific pattern belongs to.</p>
            <p>After you see an image, you will be asked to guess its category <b>(left arrow for category A, right arrow for category B)</b></p>
            <p>After you choose, the screen will show you whether you were correct or not.</p>
            <p><b>You will receive a bonus payment of $0.05 for each correct answer!</b></p>
            <p> So you can increase your bonus by guessing correctly, and by guessing as quickly as possible so you move on to the next image sooner.</p>
            <p>Press any key to continue.</p>
            "," ","introduction_1","","","","",""
"","","","","","html-keyboard-response","3","50288","0.0-3.0","5b9a2688ca449d0001deca4b","6552129e68c08af5079f912e","655213c3ff04c0aac04a97b0","4569","
            <p> <b>The first 10 trials are a practice round that will not count towards your bonus payment.</b></p>
            <p> You will be notified when practice finishes and the test begins. </p>
            <p> Press any key to begin the practice round.</p>
            "," ","introduction_2","","","","",""
"","","","","","html-keyboard-response","4","54500","0.0-4.0-0.0","5b9a2688ca449d0001deca4b","6552129e68c08af5079f912e","655213c3ff04c0aac04a97b0","4211","
            
        <div style=""text-align: center; position: fixed; top: 5vh; left: 40vw;"">
            <div style=""margin:0 auto; width: 20vw; top: 8vh; font-size: 1vw""> 
            <font color=""green""> Bonus : $0 </font>
            </div>
        </div>
    
            <div> Please press any button to continue to the next trial.</div>
        "," ","ITI","","","","",""
"","","","","","html-keyboard-response","5","55114","0.0-4.0-1.0","5b9a2688ca449d0001deca4b","6552129e68c08af5079f912e","655213c3ff04c0aac04a97b0","null","
        
        <div style=""text-align: center; position: fixed; top: 5vh; left: 40vw;"">
            <div style=""margin:0 auto; width: 20vw; top: 8vh; font-size: 1vw""> 
            <font color=""green""> Bonus : $0 </font>
            </div>
        </div>
    
        <img class=""stim"" src=./stimuli//pack_1/cat_2/ex_2_3.png></img>
    ","null","stimulus","","","","",""
"","","","","","html-keyboard-response","6","56122","0.0-4.0-2.0","5b9a2688ca449d0001deca4b","6552129e68c08af5079f912e","655213c3ff04c0aac04a97b0","null","
        <div style=""text-align: center; position: fixed; top: 5vh; left: 40vw;"">
            <div style=""margin:0 auto; width: 20vw; top: 8vh; font-size: 1vw""> 
            <font color=""green""> Bonus : $0 </font>
            </div>
        </div>
    ","null","","","","","",""
"","","","","","html-keyboard-response","7","56988","0.0-4.0-3.0","5b9a2688ca449d0001deca4b","6552129e68c08af5079f912e","655213c3ff04c0aac04a97b0","864","./stimuli//pack_1/cat_2/ex_2_3.png","arrowright","response","ArrowRight","3","2","true",""
"","","","","","html-keyboard-response","8","58526","0.0-4.0-4.0","5b9a2688ca449d0001deca4b","6552129e68c08af5079f912e","655213c3ff04c0aac04a97b0","null","<p> <font color=""green"" size=""4vw""> Correct category! </font> </p>","null","feedback","","","","","0"
"","","","","","html-keyboard-response","9","59968","0.0-4.0-0.1","5b9a2688ca449d0001deca4b","6552129e68c08af5079f912e","655213c3ff04c0aac04a97b0","1441","
            
        <div style=""text-align: center; position: fixed; top: 5vh; left: 40vw;"">
            <div style=""margin:0 auto; width: 20vw; top: 8vh; font-size: 1vw""> 
            <font color=""green""> Bonus : $0 </font>
            </div>
        </div>
    
            <div> Please press any button to continue to the next trial.</div>
        "," ","ITI","","","","",""
"","","","","","html-keyboard-response","10","60579","0.0-4.0-1.1","5b9a2688ca449d0001deca4b","6552129e68c08af5079f912e","655213c3ff04c0aac04a97b0","null","
        
        <div style=""text-align: center; position: fixed; top: 5vh; left: 40vw;"">
            <div style=""margin:0 auto; width: 20vw; top: 8vh; font-size: 1vw""> 
            <font color=""green""> Bonus : $0 </font>
            </div>
        </div>
    
        <img class=""stim"" src=./stimuli//pack_1/cat_1/ex_1_56.png></img>
    ","null","stimulus","","","","",""
"","","","","","html-keyboard-response","11","61588","0.0-4.0-2.1","5b9a2688ca449d0001deca4b","6552129e68c08af5079f912e","655213c3ff04c0aac04a97b0","null","
        <div style=""text-align: center; position: fixed; top: 5vh; left: 40vw;"">
            <div style=""margin:0 auto; width: 20vw; top: 8vh; font-size: 1vw""> 
            <font color=""green""> Bonus : $0 </font>
            </div>
        </div>
    ","null","","","","","",""
"","","","","","html-keyboard-response","12","62028","0.0-4.0-3.1","5b9a2688ca449d0001deca4b","6552129e68c08af5079f912e","655213c3ff04c0aac04a97b0","441","./stimuli//pack_1/cat_1/ex_1_56.png","arrowright","response","ArrowLeft","56","1","false",""
"","","","","","html-keyboard-response","13","63530","0.0-4.0-4.1","5b9a2688ca449d0001deca4b","6552129e68c08af5079f912e","655213c3ff04c0aac04a97b0","null","<p> <font color=""red"" size=""4vw""> Wrong category! </font> </p>","null","feedback","","","","","0"
"","","","","","html-keyboard-response","14","64291","0.0-4.0-0.2","5b9a2688ca449d0001deca4b","6552129e68c08af5079f912e","655213c3ff04c0aac04a97b0","760","
            
        <div style=""text-align: center; position: fixed; top: 5vh; left: 40vw;"">
            <div style=""margin:0 auto; width: 20vw; top: 8vh; font-size: 1vw""> 
            <font color=""green""> Bonus : $0 </font>
            </div>
        </div>
    
            <div> Please press any button to continue to the next trial.</div>
        "," ","ITI","","","","",""
"","","","","","html-keyboard-response","15","64900","0.0-4.0-1.2","5b9a2688ca449d0001deca4b","6552129e68c08af5079f912e","655213c3ff04c0aac04a97b0","null","
        
        <div style=""text-align: center; position: fixed; top: 5vh; left: 40vw;"">
            <div style=""margin:0 auto; width: 20vw; top: 8vh; font-size: 1vw""> 
            <font color=""green""> Bonus : $0 </font>
            </div>
        </div>
    
        <img class=""stim"" src=./stimuli//pack_1/cat_2/ex_2_12.png></img>
    ","null","stimulus","","","","",""
"","","","","","html-keyboard-response","16","65911","0.0-4.0-2.2","5b9a2688ca449d0001deca4b","6552129e68c08af5079f912e","655213c3ff04c0aac04a97b0","null","
        <div style=""text-align: center; position: fixed; top: 5vh; left: 40vw;"">
            <div style=""margin:0 auto; width: 20vw; top: 8vh; font-size: 1vw""> 
            <font color=""green""> Bonus : $0 </font>
            </div>
        </div>
    ","null","","","","","",""
"","","","","","html-keyboard-response","17","68722","0.0-4.0-3.2","5b9a2688ca449d0001deca4b","6552129e68c08af5079f912e","655213c3ff04c0aac04a97b0","2810","./stimuli//pack_1/cat_2/ex_2_12.png","arrowleft","response","ArrowRight","12","2","false",""
"","","","","","html-keyboard-response","18","70235","0.0-4.0-4.2","5b9a2688ca449d0001deca4b","6552129e68c08af5079f912e","655213c3ff04c0aac04a97b0","null","<p> <font color=""red"" size=""4vw""> Wrong category! </font> </p>","null","feedback","","","","","0"
"","","","","","html-keyboard-response","19","70732","0.0-4.0-0.3","5b9a2688ca449d0001deca4b","6552129e68c08af5079f912e","655213c3ff04c0aac04a97b0","496","
            
        <div style=""text-align: center; position: fixed; top: 5vh; left: 40vw;"">
            <div style=""margin:0 auto; width: 20vw; top: 8vh; font-size: 1vw""> 
            <font color=""green""> Bonus : $0 </font>
            </div>
        </div>
    
            <div> Please press any button to continue to the next trial.</div>
        "," ","ITI","","","","",""
"","","","","","html-keyboard-response","20","71348","0.0-4.0-1.3","5b9a2688ca449d0001deca4b","6552129e68c08af5079f912e","655213c3ff04c0aac04a97b0","null","
        
        <div style=""text-align: center; position: fixed; top: 5vh; left: 40vw;"">
            <div style=""margin:0 auto; width: 20vw; top: 8vh; font-size: 1vw""> 
            <font color=""green""> Bonus : $0 </font>
            </div>
        </div>
    
        <img class=""stim"" src=./stimuli//pack_1/cat_1/ex_1_87.png></img>
    ","null","stimulus","","","","",""
"","","","","","html-keyboard-response","21","72358","0.0-4.0-2.3","5b9a2688ca449d0001deca4b","6552129e68c08af5079f912e","655213c3ff04c0aac04a97b0","null","
        <div style=""text-align: center; position: fixed; top: 5vh; left: 40vw;"">
            <div style=""margin:0 auto; width: 20vw; top: 8vh; font-size: 1vw""> 
            <font color=""green""> Bonus : $0 </font>
            </div>
        </div>
    ","null","","","","","",""
"","","","","","html-keyboard-response","22","72828","0.0-4.0-3.3","5b9a2688ca449d0001deca4b","6552129e68c08af5079f912e","655213c3ff04c0aac04a97b0","470","./stimuli//pack_1/cat_1/ex_1_87.png","arrowright","response","ArrowLeft","87","1","false",""
"","","","","","html-keyboard-response","23","74124","0.0-4.0-4.3","5b9a2688ca449d0001deca4b","6552129e68c08af5079f912e","655213c3ff04c0aac04a97b0","1295","<p> <font color=""red"" size=""4vw""> Wrong category! </font> </p>","arrowleft","feedback","","","","","0"
"","","","","","html-keyboard-response","24","74788","0.0-4.0-0.4","5b9a2688ca449d0001deca4b","6552129e68c08af5079f912e","655213c3ff04c0aac04a97b0","663","
            
        <div style=""text-align: center; position: fixed; top: 5vh; left: 40vw;"">
            <div style=""margin:0 auto; width: 20vw; top: 8vh; font-size: 1vw""> 
            <font color=""green""> Bonus : $0 </font>
            </div>
        </div>
    
            <div> Please press any button to continue to the next trial.</div>
        "," ","ITI","","","","",""
"","","","","","html-keyboard-response","25","75393","0.0-4.0-1.4","5b9a2688ca449d0001deca4b","6552129e68c08af5079f912e","655213c3ff04c0aac04a97b0","null","
        
        <div style=""text-align: center; position: fixed; top: 5vh; left: 40vw;"">
            <div style=""margin:0 auto; width: 20vw; top: 8vh; font-size: 1vw""> 
            <font color=""green""> Bonus : $0 </font>
            </div>
        </div>
    
        <img class=""stim"" src=./stimuli//pack_1/cat_2/ex_2_26.png></img>
    ","null","stimulus","","","","",""
"","","","","","html-keyboard-response","26","76400","0.0-4.0-2.4","5b9a2688ca449d0001deca4b","6552129e68c08af5079f912e","655213c3ff04c0aac04a97b0","null","
        <div style=""text-align: center; position: fixed; top: 5vh; left: 40vw;"">
            <div style=""margin:0 auto; width: 20vw; top: 8vh; font-size: 1vw""> 
            <font color=""green""> Bonus : $0 </font>
            </div>
        </div>
    ","null","","","","","",""
"","","","","","html-keyboard-response","27","76639","0.0-4.0-3.4","5b9a2688ca449d0001deca4b","6552129e68c08af5079f912e","655213c3ff04c0aac04a97b0","239","./stimuli//pack_1/cat_2/ex_2_26.png","arrowleft","response","ArrowRight","26","2","false",""
"","","","","","html-keyboard-response","28","76688","0.0-4.0-4.4","5b9a2688ca449d0001deca4b","6552129e68c08af5079f912e","655213c3ff04c0aac04a97b0","47","<p> <font color=""red"" size=""4vw""> Wrong category! </font> </p>","arrowleft","feedback","","","","","0"
"","","","","","html-keyboard-response","29","78150","0.0-4.0-0.5","5b9a2688ca449d0001deca4b","6552129e68c08af5079f912e","655213c3ff04c0aac04a97b0","1462","
            
        <div style=""text-align: center; position: fixed; top: 5vh; left: 40vw;"">
            <div style=""margin:0 auto; width: 20vw; top: 8vh; font-size: 1vw""> 
            <font color=""green""> Bonus : $0 </font>
            </div>
        </div>
    
            <div> Please press any button to continue to the next trial.</div>
        "," ","ITI","","","","",""
"","","","","","html-keyboard-response","30","78762","0.0-4.0-1.5","5b9a2688ca449d0001deca4b","6552129e68c08af5079f912e","655213c3ff04c0aac04a97b0","null","
        
        <div style=""text-align: center; position: fixed; top: 5vh; left: 40vw;"">
            <div style=""margin:0 auto; width: 20vw; top: 8vh; font-size: 1vw""> 
            <font color=""green""> Bonus : $0 </font>
            </div>
        </div>
    
        <img class=""stim"" src=./stimuli//pack_1/cat_2/ex_2_43.png></img>
    ","null","stimulus","","","","",""
"","","","","","html-keyboard-response","31","79764","0.0-4.0-2.5","5b9a2688ca449d0001deca4b","6552129e68c08af5079f912e","655213c3ff04c0aac04a97b0","null","
        <div style=""text-align: center; position: fixed; top: 5vh; left: 40vw;"">
            <div style=""margin:0 auto; width: 20vw; top: 8vh; font-size: 1vw""> 
            <font color=""green""> Bonus : $0 </font>
            </div>
        </div>
    ","null","","","","","",""
"","","","","","html-keyboard-response","32","80047","0.0-4.0-3.5","5b9a2688ca449d0001deca4b","6552129e68c08af5079f912e","655213c3ff04c0aac04a97b0","282","./stimuli//pack_1/cat_2/ex_2_43.png","arrowright","response","ArrowRight","43","2","true",""
"","","","","","html-keyboard-response","33","81549","0.0-4.0-4.5","5b9a2688ca449d0001deca4b","6552129e68c08af5079f912e","655213c3ff04c0aac04a97b0","null","<p> <font color=""green"" size=""4vw""> Correct category! </font> </p>","null","feedback","","","","","0"
"","","","","","html-keyboard-response","34","82191","0.0-4.0-0.6","5b9a2688ca449d0001deca4b","6552129e68c08af5079f912e","655213c3ff04c0aac04a97b0","639","
            
        <div style=""text-align: center; position: fixed; top: 5vh; left: 40vw;"">
            <div style=""margin:0 auto; width: 20vw; top: 8vh; font-size: 1vw""> 
            <font color=""green""> Bonus : $0 </font>
            </div>
        </div>
    
            <div> Please press any button to continue to the next trial.</div>
        "," ","ITI","","","","",""
"","","","","","html-keyboard-response","35","82806","0.0-4.0-1.6","5b9a2688ca449d0001deca4b","6552129e68c08af5079f912e","655213c3ff04c0aac04a97b0","null","
        
        <div style=""text-align: center; position: fixed; top: 5vh; left: 40vw;"">
            <div style=""margin:0 auto; width: 20vw; top: 8vh; font-size: 1vw""> 
            <font color=""green""> Bonus : $0 </font>
            </div>
        </div>
    
        <img class=""stim"" src=./stimuli//pack_1/cat_1/ex_1_28.png></img>
    ","null","stimulus","","","","",""
"","","","","","html-keyboard-response","36","83818","0.0-4.0-2.6","5b9a2688ca449d0001deca4b","6552129e68c08af5079f912e","655213c3ff04c0aac04a97b0","null","
        <div style=""text-align: center; position: fixed; top: 5vh; left: 40vw;"">
            <div style=""margin:0 auto; width: 20vw; top: 8vh; font-size: 1vw""> 
            <font color=""green""> Bonus : $0 </font>
            </div>
        </div>
    ","null","","","","","",""
"","","","","","html-keyboard-response","37","84040","0.0-4.0-3.6","5b9a2688ca449d0001deca4b","6552129e68c08af5079f912e","655213c3ff04c0aac04a97b0","222","./stimuli//pack_1/cat_1/ex_1_28.png","arrowleft","response","ArrowLeft","28","1","true",""
"","","","","","html-keyboard-response","38","85549","0.0-4.0-4.6","5b9a2688ca449d0001deca4b","6552129e68c08af5079f912e","655213c3ff04c0aac04a97b0","null","<p> <font color=""green"" size=""4vw""> Correct category! </font> </p>","null","feedback","","","","","0"
"","","","","","html-keyboard-response","39","86389","0.0-4.0-0.7","5b9a2688ca449d0001deca4b","6552129e68c08af5079f912e","655213c3ff04c0aac04a97b0","840","
            
        <div style=""text-align: center; position: fixed; top: 5vh; left: 40vw;"">
            <div style=""margin:0 auto; width: 20vw; top: 8vh; font-size: 1vw""> 
            <font color=""green""> Bonus : $0 </font>
            </div>
        </div>
    
            <div> Please press any button to continue to the next trial.</div>
        "," ","ITI","","","","",""
"","","","","","html-keyboard-response","40","87000","0.0-4.0-1.7","5b9a2688ca449d0001deca4b","6552129e68c08af5079f912e","655213c3ff04c0aac04a97b0","null","
        
        <div style=""text-align: center; position: fixed; top: 5vh; left: 40vw;"">
            <div style=""margin:0 auto; width: 20vw; top: 8vh; font-size: 1vw""> 
            <font color=""green""> Bonus : $0 </font>
            </div>
        </div>
    
        <img class=""stim"" src=./stimuli//pack_1/cat_2/ex_2_90.png></img>
    ","null","stimulus","","","","",""
"","","","","","html-keyboard-response","41","88012","0.0-4.0-2.7","5b9a2688ca449d0001deca4b","6552129e68c08af5079f912e","655213c3ff04c0aac04a97b0","null","
        <div style=""text-align: center; position: fixed; top: 5vh; left: 40vw;"">
            <div style=""margin:0 auto; width: 20vw; top: 8vh; font-size: 1vw""> 
            <font color=""green""> Bonus : $0 </font>
            </div>
        </div>
    ","null","","","","","",""
"","","","","","html-keyboard-response","42","88445","0.0-4.0-3.7","5b9a2688ca449d0001deca4b","6552129e68c08af5079f912e","655213c3ff04c0aac04a97b0","433","./stimuli//pack_1/cat_2/ex_2_90.png","arrowright","response","ArrowRight","90","2","true",""
"","","","","","html-keyboard-response","43","89949","0.0-4.0-4.7","5b9a2688ca449d0001deca4b","6552129e68c08af5079f912e","655213c3ff04c0aac04a97b0","null","<p> <font color=""green"" size=""4vw""> Correct category! </font> </p>","null","feedback","","","","","0"
"","","","","","html-keyboard-response","44","90676","0.0-4.0-0.8","5b9a2688ca449d0001deca4b","6552129e68c08af5079f912e","655213c3ff04c0aac04a97b0","727","
            
        <div style=""text-align: center; position: fixed; top: 5vh; left: 40vw;"">
            <div style=""margin:0 auto; width: 20vw; top: 8vh; font-size: 1vw""> 
            <font color=""green""> Bonus : $0 </font>
            </div>
        </div>
    
            <div> Please press any button to continue to the next trial.</div>
        "," ","ITI","","","","",""
"","","","","","html-keyboard-response","45","91284","0.0-4.0-1.8","5b9a2688ca449d0001deca4b","6552129e68c08af5079f912e","655213c3ff04c0aac04a97b0","null","
        
        <div style=""text-align: center; position: fixed; top: 5vh; left: 40vw;"">
            <div style=""margin:0 auto; width: 20vw; top: 8vh; font-size: 1vw""> 
            <font color=""green""> Bonus : $0 </font>
            </div>
        </div>
    
        <img class=""stim"" src=./stimuli//pack_1/cat_1/ex_1_17.png></img>
    ","null","stimulus","","","","",""
"","","","","","html-keyboard-response","46","92296","0.0-4.0-2.8","5b9a2688ca449d0001deca4b","6552129e68c08af5079f912e","655213c3ff04c0aac04a97b0","null","
        <div style=""text-align: center; position: fixed; top: 5vh; left: 40vw;"">
            <div style=""margin:0 auto; width: 20vw; top: 8vh; font-size: 1vw""> 
            <font color=""green""> Bonus : $0 </font>
            </div>
        </div>
    ","null","","","","","",""
"","","","","","html-keyboard-response","47","92629","0.0-4.0-3.8","5b9a2688ca449d0001deca4b","6552129e68c08af5079f912e","655213c3ff04c0aac04a97b0","332","./stimuli//pack_1/cat_1/ex_1_17.png","arrowright","response","ArrowLeft","17","1","false",""
"","","","","","html-keyboard-response","48","94141","0.0-4.0-4.8","5b9a2688ca449d0001deca4b","6552129e68c08af5079f912e","655213c3ff04c0aac04a97b0","null","<p> <font color=""red"" size=""4vw""> Wrong category! </font> </p>","null","feedback","","","","","0"
"","","","","","html-keyboard-response","49","94301","0.0-4.0-0.9","5b9a2688ca449d0001deca4b","6552129e68c08af5079f912e","655213c3ff04c0aac04a97b0","161","
            
        <div style=""text-align: center; position: fixed; top: 5vh; left: 40vw;"">
            <div style=""margin:0 auto; width: 20vw; top: 8vh; font-size: 1vw""> 
            <font color=""green""> Bonus : $0 </font>
            </div>
        </div>
    
            <div> Please press any button to continue to the next trial.</div>
        "," ","ITI","","","","",""
"","","","","","html-keyboard-response","50","94920","0.0-4.0-1.9","5b9a2688ca449d0001deca4b","6552129e68c08af5079f912e","655213c3ff04c0aac04a97b0","null","
        
        <div style=""text-align: center; position: fixed; top: 5vh; left: 40vw;"">
            <div style=""margin:0 auto; width: 20vw; top: 8vh; font-size: 1vw""> 
            <font color=""green""> Bonus : $0 </font>
            </div>
        </div>
    
        <img class=""stim"" src=./stimuli//pack_1/cat_1/ex_1_23.png></img>
    ","null","stimulus","","","","",""
"","","","","","html-keyboard-response","51","95934","0.0-4.0-2.9","5b9a2688ca449d0001deca4b","6552129e68c08af5079f912e","655213c3ff04c0aac04a97b0","null","
        <div style=""text-align: center; position: fixed; top: 5vh; left: 40vw;"">
            <div style=""margin:0 auto; width: 20vw; top: 8vh; font-size: 1vw""> 
            <font color=""green""> Bonus : $0 </font>
            </div>
        </div>
    ","null","","","","","",""
"","","","","","html-keyboard-response","52","96027","0.0-4.0-3.9","5b9a2688ca449d0001deca4b","6552129e68c08af5079f912e","655213c3ff04c0aac04a97b0","92","./stimuli//pack_1/cat_1/ex_1_23.png","arrowleft","response","ArrowLeft","23","1","true",""
"","","","","","html-keyboard-response","53","97466","0.0-4.0-4.9","5b9a2688ca449d0001deca4b","6552129e68c08af5079f912e","655213c3ff04c0aac04a97b0","1439","<p> <font color=""green"" size=""4vw""> Correct category! </font> </p>"," ","feedback","","","","","0"
"","","","","","html-keyboard-response","54","126645","0.0-5.0","5b9a2688ca449d0001deca4b","6552129e68c08af5079f912e","655213c3ff04c0aac04a97b0","29180","
            <b> <p> The practice round has finished.</p>
            <b> For the rest of the experiment you will receive a $0.05 bonus for each correct answer!</b>
            <p> Press any key to begin the test. </p>
            "," ","intermission","","","","",""
"","","","","","html-keyboard-response","55","128175","0.0-6.0-0.0","5b9a2688ca449d0001deca4b","6552129e68c08af5079f912e","655213c3ff04c0aac04a97b0","1529","
            
        <div style=""text-align: center; position: fixed; top: 5vh; left: 40vw;"">
            <div style=""margin:0 auto; width: 20vw; top: 8vh; font-size: 1vw""> 
            <font color=""green""> Bonus : $0 </font>
            </div>
        </div>
    
            <div> Please press any button to continue to the next trial.</div>
        "," ","ITI","","","","",""
"","","","","","html-keyboard-response","56","128784","0.0-6.0-1.0","5b9a2688ca449d0001deca4b","6552129e68c08af5079f912e","655213c3ff04c0aac04a97b0","null","
        
        <div style=""text-align: center; position: fixed; top: 5vh; left: 40vw;"">
            <div style=""margin:0 auto; width: 20vw; top: 8vh; font-size: 1vw""> 
            <font color=""green""> Bonus : $0 </font>
            </div>
        </div>
    
        <img class=""stim"" src=./stimuli//pack_1/cat_2/ex_2_79.png></img>
    ","null","stimulus","","","","",""
"","","","","","html-keyboard-response","57","129795","0.0-6.0-2.0","5b9a2688ca449d0001deca4b","6552129e68c08af5079f912e","655213c3ff04c0aac04a97b0","null","
        <div style=""text-align: center; position: fixed; top: 5vh; left: 40vw;"">
            <div style=""margin:0 auto; width: 20vw; top: 8vh; font-size: 1vw""> 
            <font color=""green""> Bonus : $0 </font>
            </div>
        </div>
    ","null","","","","","",""
"","","","","","html-keyboard-response","58","129842","0.0-6.0-3.0","5b9a2688ca449d0001deca4b","6552129e68c08af5079f912e","655213c3ff04c0aac04a97b0","46","./stimuli//pack_1/cat_2/ex_2_79.png","arrowright","response","ArrowRight","79","2","true",""
"","","","","","html-keyboard-response","59","131347","0.0-6.0-4.0","5b9a2688ca449d0001deca4b","6552129e68c08af5079f912e","655213c3ff04c0aac04a97b0","null","<p> <font color=""green"" size=""4vw""> Correct category! </font> <br> <br> <font color=""green"" size=""7vw""> + $0.05 </font> </p>","null","feedback","","","","","0.05"
"","","","","","html-keyboard-response","60","132943","0.0-6.0-0.1","5b9a2688ca449d0001deca4b","6552129e68c08af5079f912e","655213c3ff04c0aac04a97b0","1595","
            
        <div style=""text-align: center; position: fixed; top: 5vh; left: 40vw;"">
            <div style=""margin:0 auto; width: 20vw; top: 8vh; font-size: 1vw""> 
            <font color=""green""> Bonus : $0.05 </font>
            </div>
        </div>
    
            <div> Please press any button to continue to the next trial.</div>
        "," ","ITI","","","","",""
"","","","","","html-keyboard-response","61","133546","0.0-6.0-1.1","5b9a2688ca449d0001deca4b","6552129e68c08af5079f912e","655213c3ff04c0aac04a97b0","null","
        
        <div style=""text-align: center; position: fixed; top: 5vh; left: 40vw;"">
            <div style=""margin:0 auto; width: 20vw; top: 8vh; font-size: 1vw""> 
            <font color=""green""> Bonus : $0.05 </font>
            </div>
        </div>
    
        <img class=""stim"" src=./stimuli//pack_1/cat_1/ex_1_92.png></img>
    ","null","stimulus","","","","",""
"","","","","","html-keyboard-response","62","134561","0.0-6.0-2.1","5b9a2688ca449d0001deca4b","6552129e68c08af5079f912e","655213c3ff04c0aac04a97b0","null","
        <div style=""text-align: center; position: fixed; top: 5vh; left: 40vw;"">
            <div style=""margin:0 auto; width: 20vw; top: 8vh; font-size: 1vw""> 
            <font color=""green""> Bonus : $0.05 </font>
            </div>
        </div>
    ","null","","","","","",""
"","","","","","html-keyboard-response","63","134868","0.0-6.0-3.1","5b9a2688ca449d0001deca4b","6552129e68c08af5079f912e","655213c3ff04c0aac04a97b0","306","./stimuli//pack_1/cat_1/ex_1_92.png","arrowright","response","ArrowLeft","92","1","false",""
"","","","","","html-keyboard-response","64","136379","0.0-6.0-4.1","5b9a2688ca449d0001deca4b","6552129e68c08af5079f912e","655213c3ff04c0aac04a97b0","null","<p> <font color=""red"" size=""4vw""> Wrong category! </font> </p>","null","feedback","","","","","0.05"
"","","","","","html-keyboard-response","65","136969","0.0-6.0-0.2","5b9a2688ca449d0001deca4b","6552129e68c08af5079f912e","655213c3ff04c0aac04a97b0","590","
            
        <div style=""text-align: center; position: fixed; top: 5vh; left: 40vw;"">
            <div style=""margin:0 auto; width: 20vw; top: 8vh; font-size: 1vw""> 
            <font color=""green""> Bonus : $0.05 </font>
            </div>
        </div>
    
            <div> Please press any button to continue to the next trial.</div>
        "," ","ITI","","","","",""
"","","","","","html-keyboard-response","66","137576","0.0-6.0-1.2","5b9a2688ca449d0001deca4b","6552129e68c08af5079f912e","655213c3ff04c0aac04a97b0","null","
        
        <div style=""text-align: center; position: fixed; top: 5vh; left: 40vw;"">
            <div style=""margin:0 auto; width: 20vw; top: 8vh; font-size: 1vw""> 
            <font color=""green""> Bonus : $0.05 </font>
            </div>
        </div>
    
        <img class=""stim"" src=./stimuli//pack_1/cat_1/ex_1_44.png></img>
    ","null","stimulus","","","","",""
"","","","","","html-keyboard-response","67","138580","0.0-6.0-2.2","5b9a2688ca449d0001deca4b","6552129e68c08af5079f912e","655213c3ff04c0aac04a97b0","null","
        <div style=""text-align: center; position: fixed; top: 5vh; left: 40vw;"">
            <div style=""margin:0 auto; width: 20vw; top: 8vh; font-size: 1vw""> 
            <font color=""green""> Bonus : $0.05 </font>
            </div>
        </div>
    ","null","","","","","",""
"","","","","","html-keyboard-response","68","138855","0.0-6.0-3.2","5b9a2688ca449d0001deca4b","6552129e68c08af5079f912e","655213c3ff04c0aac04a97b0","273","./stimuli//pack_1/cat_1/ex_1_44.png","arrowleft","response","ArrowLeft","44","1","true",""
"","","","","","html-keyboard-response","69","140366","0.0-6.0-4.2","5b9a2688ca449d0001deca4b","6552129e68c08af5079f912e","655213c3ff04c0aac04a97b0","null","<p> <font color=""green"" size=""4vw""> Correct category! </font> <br> <br> <font color=""green"" size=""7vw""> + $0.05 </font> </p>","null","feedback","","","","","0.1"
"","","","","","html-keyboard-response","70","140821","0.0-6.0-0.3","5b9a2688ca449d0001deca4b","6552129e68c08af5079f912e","655213c3ff04c0aac04a97b0","455","
            
        <div style=""text-align: center; position: fixed; top: 5vh; left: 40vw;"">
            <div style=""margin:0 auto; width: 20vw; top: 8vh; font-size: 1vw""> 
            <font color=""green""> Bonus : $0.1 </font>
            </div>
        </div>
    
            <div> Please press any button to continue to the next trial.</div>
        "," ","ITI","","","","",""
"","","","","","html-keyboard-response","71","141434","0.0-6.0-1.3","5b9a2688ca449d0001deca4b","6552129e68c08af5079f912e","655213c3ff04c0aac04a97b0","null","
        
        <div style=""text-align: center; position: fixed; top: 5vh; left: 40vw;"">
            <div style=""margin:0 auto; width: 20vw; top: 8vh; font-size: 1vw""> 
            <font color=""green""> Bonus : $0.1 </font>
            </div>
        </div>
    
        <img class=""stim"" src=./stimuli//pack_1/cat_2/ex_2_87.png></img>
    ","null","stimulus","","","","",""
"","","","","","html-keyboard-response","72","142438","0.0-6.0-2.3","5b9a2688ca449d0001deca4b","6552129e68c08af5079f912e","655213c3ff04c0aac04a97b0","null","
        <div style=""text-align: center; position: fixed; top: 5vh; left: 40vw;"">
            <div style=""margin:0 auto; width: 20vw; top: 8vh; font-size: 1vw""> 
            <font color=""green""> Bonus : $0.1 </font>
            </div>
        </div>
    ","null","","","","","",""
"","","","","","html-keyboard-response","73","142699","0.0-6.0-3.3","5b9a2688ca449d0001deca4b","6552129e68c08af5079f912e","655213c3ff04c0aac04a97b0","260","./stimuli//pack_1/cat_2/ex_2_87.png","arrowright","response","ArrowRight","87","2","true",""
"","","","","","html-keyboard-response","74","144204","0.0-6.0-4.3","5b9a2688ca449d0001deca4b","6552129e68c08af5079f912e","655213c3ff04c0aac04a97b0","null","<p> <font color=""green"" size=""4vw""> Correct category! </font> <br> <br> <font color=""green"" size=""7vw""> + $0.05 </font> </p>","null","feedback","","","","","0.15"
"","","","","","html-keyboard-response","75","144680","0.0-6.0-0.4","5b9a2688ca449d0001deca4b","6552129e68c08af5079f912e","655213c3ff04c0aac04a97b0","475","
            
        <div style=""text-align: center; position: fixed; top: 5vh; left: 40vw;"">
            <div style=""margin:0 auto; width: 20vw; top: 8vh; font-size: 1vw""> 
            <font color=""green""> Bonus : $0.15 </font>
            </div>
        </div>
    
            <div> Please press any button to continue to the next trial.</div>
        "," ","ITI","","","","",""
"","","","","","html-keyboard-response","76","145360","0.0-6.0-1.4","5b9a2688ca449d0001deca4b","6552129e68c08af5079f912e","655213c3ff04c0aac04a97b0","null","
        
        <div style=""text-align: center; position: fixed; top: 5vh; left: 40vw;"">
            <div style=""margin:0 auto; width: 20vw; top: 8vh; font-size: 1vw""> 
            <font color=""green""> Bonus : $0.15 </font>
            </div>
        </div>
    
        <img class=""stim"" src=./stimuli//pack_1/cat_1/ex_1_78.png></img>
    ","null","stimulus","","","","",""
"","","","","","html-keyboard-response","77","146374","0.0-6.0-2.4","5b9a2688ca449d0001deca4b","6552129e68c08af5079f912e","655213c3ff04c0aac04a97b0","null","
        <div style=""text-align: center; position: fixed; top: 5vh; left: 40vw;"">
            <div style=""margin:0 auto; width: 20vw; top: 8vh; font-size: 1vw""> 
            <font color=""green""> Bonus : $0.15 </font>
            </div>
        </div>
    ","null","","","","","",""
"","","","","","html-keyboard-response","78","146659","0.0-6.0-3.4","5b9a2688ca449d0001deca4b","6552129e68c08af5079f912e","655213c3ff04c0aac04a97b0","285","./stimuli//pack_1/cat_1/ex_1_78.png","arrowright","response","ArrowLeft","78","1","false",""
"","","","","","html-keyboard-response","79","148170","0.0-6.0-4.4","5b9a2688ca449d0001deca4b","6552129e68c08af5079f912e","655213c3ff04c0aac04a97b0","null","<p> <font color=""red"" size=""4vw""> Wrong category! </font> </p>","null","feedback","","","","","0.15"
"","","","","","html-keyboard-response","80","148496","0.0-6.0-0.5","5b9a2688ca449d0001deca4b","6552129e68c08af5079f912e","655213c3ff04c0aac04a97b0","326","
            
        <div style=""text-align: center; position: fixed; top: 5vh; left: 40vw;"">
            <div style=""margin:0 auto; width: 20vw; top: 8vh; font-size: 1vw""> 
            <font color=""green""> Bonus : $0.15 </font>
            </div>
        </div>
    
            <div> Please press any button to continue to the next trial.</div>
        "," ","ITI","","","","",""
"","","","","","html-keyboard-response","81","149102","0.0-6.0-1.5","5b9a2688ca449d0001deca4b","6552129e68c08af5079f912e","655213c3ff04c0aac04a97b0","null","
        
        <div style=""text-align: center; position: fixed; top: 5vh; left: 40vw;"">
            <div style=""margin:0 auto; width: 20vw; top: 8vh; font-size: 1vw""> 
            <font color=""green""> Bonus : $0.15 </font>
            </div>
        </div>
    
        <img class=""stim"" src=./stimuli//pack_1/cat_1/ex_1_97.png></img>
    ","null","stimulus","","","","",""
"","","","","","html-keyboard-response","82","150107","0.0-6.0-2.5","5b9a2688ca449d0001deca4b","6552129e68c08af5079f912e","655213c3ff04c0aac04a97b0","null","
        <div style=""text-align: center; position: fixed; top: 5vh; left: 40vw;"">
            <div style=""margin:0 auto; width: 20vw; top: 8vh; font-size: 1vw""> 
            <font color=""green""> Bonus : $0.15 </font>
            </div>
        </div>
    ","null","","","","","",""
"","","","","","html-keyboard-response","83","150314","0.0-6.0-3.5","5b9a2688ca449d0001deca4b","6552129e68c08af5079f912e","655213c3ff04c0aac04a97b0","206","./stimuli//pack_1/cat_1/ex_1_97.png","arrowleft","response","ArrowLeft","97","1","true",""
"","","","","","html-keyboard-response","84","151819","0.0-6.0-4.5","5b9a2688ca449d0001deca4b","6552129e68c08af5079f912e","655213c3ff04c0aac04a97b0","null","<p> <font color=""green"" size=""4vw""> Correct category! </font> <br> <br> <font color=""green"" size=""7vw""> + $0.05 </font> </p>","null","feedback","","","","","0.2"
"","","","","","html-keyboard-response","85","151829","0.0-6.0-0.6","5b9a2688ca449d0001deca4b","6552129e68c08af5079f912e","655213c3ff04c0aac04a97b0","8","
            
        <div style=""text-align: center; position: fixed; top: 5vh; left: 40vw;"">
            <div style=""margin:0 auto; width: 20vw; top: 8vh; font-size: 1vw""> 
            <font color=""green""> Bonus : $0.2 </font>
            </div>
        </div>
    
            <div> Please press any button to continue to the next trial.</div>
        "," ","ITI","","","","",""
"","","","","","html-keyboard-response","86","152435","0.0-6.0-1.6","5b9a2688ca449d0001deca4b","6552129e68c08af5079f912e","655213c3ff04c0aac04a97b0","null","
        
        <div style=""text-align: center; position: fixed; top: 5vh; left: 40vw;"">
            <div style=""margin:0 auto; width: 20vw; top: 8vh; font-size: 1vw""> 
            <font color=""green""> Bonus : $0.2 </font>
            </div>
        </div>
    
        <img class=""stim"" src=./stimuli//pack_1/cat_2/ex_2_17.png></img>
    ","null","stimulus","","","","",""
"","","","","","html-keyboard-response","87","153448","0.0-6.0-2.6","5b9a2688ca449d0001deca4b","6552129e68c08af5079f912e","655213c3ff04c0aac04a97b0","null","
        <div style=""text-align: center; position: fixed; top: 5vh; left: 40vw;"">
            <div style=""margin:0 auto; width: 20vw; top: 8vh; font-size: 1vw""> 
            <font color=""green""> Bonus : $0.2 </font>
            </div>
        </div>
    ","null","","","","","",""
"","","","","","html-keyboard-response","88","153770","0.0-6.0-3.6","5b9a2688ca449d0001deca4b","6552129e68c08af5079f912e","655213c3ff04c0aac04a97b0","321","./stimuli//pack_1/cat_2/ex_2_17.png","arrowleft","response","ArrowRight","17","2","false",""
"","","","","","html-keyboard-response","89","154788","0.0-6.0-4.6","5b9a2688ca449d0001deca4b","6552129e68c08af5079f912e","655213c3ff04c0aac04a97b0","1018","<p> <font color=""red"" size=""4vw""> Wrong category! </font> </p>"," ","feedback","","","","","0.2"
"","","","","","html-keyboard-response","90","155285","0.0-6.0-0.7","5b9a2688ca449d0001deca4b","6552129e68c08af5079f912e","655213c3ff04c0aac04a97b0","496","
            
        <div style=""text-align: center; position: fixed; top: 5vh; left: 40vw;"">
            <div style=""margin:0 auto; width: 20vw; top: 8vh; font-size: 1vw""> 
            <font color=""green""> Bonus : $0.2 </font>
            </div>
        </div>
    
            <div> Please press any button to continue to the next trial.</div>
        "," ","ITI","","","","",""
"","","","","","html-keyboard-response","91","155897","0.0-6.0-1.7","5b9a2688ca449d0001deca4b","6552129e68c08af5079f912e","655213c3ff04c0aac04a97b0","null","
        
        <div style=""text-align: center; position: fixed; top: 5vh; left: 40vw;"">
            <div style=""margin:0 auto; width: 20vw; top: 8vh; font-size: 1vw""> 
            <font color=""green""> Bonus : $0.2 </font>
            </div>
        </div>
    
        <img class=""stim"" src=./stimuli//pack_1/cat_2/ex_2_95.png></img>
    ","null","stimulus","","","","",""
"","","","","","html-keyboard-response","92","156912","0.0-6.0-2.7","5b9a2688ca449d0001deca4b","6552129e68c08af5079f912e","655213c3ff04c0aac04a97b0","null","
        <div style=""text-align: center; position: fixed; top: 5vh; left: 40vw;"">
            <div style=""margin:0 auto; width: 20vw; top: 8vh; font-size: 1vw""> 
            <font color=""green""> Bonus : $0.2 </font>
            </div>
        </div>
    ","null","","","","","",""
"","","","","","html-keyboard-response","93","157135","0.0-6.0-3.7","5b9a2688ca449d0001deca4b","6552129e68c08af5079f912e","655213c3ff04c0aac04a97b0","222","./stimuli//pack_1/cat_2/ex_2_95.png","arrowright","response","ArrowRight","95","2","true",""
"","","","","","html-keyboard-response","94","158602","0.0-6.0-4.7","5b9a2688ca449d0001deca4b","6552129e68c08af5079f912e","655213c3ff04c0aac04a97b0","1467","<p> <font color=""green"" size=""4vw""> Correct category! </font> <br> <br> <font color=""green"" size=""7vw""> + $0.05 </font> </p>"," ","feedback","","","","","0.25"
"","","","","","html-keyboard-response","95","159226","0.0-6.0-0.8","5b9a2688ca449d0001deca4b","6552129e68c08af5079f912e","655213c3ff04c0aac04a97b0","624","
            
        <div style=""text-align: center; position: fixed; top: 5vh; left: 40vw;"">
            <div style=""margin:0 auto; width: 20vw; top: 8vh; font-size: 1vw""> 
            <font color=""green""> Bonus : $0.25 </font>
            </div>
        </div>
    
            <div> Please press any button to continue to the next trial.</div>
        "," ","ITI","","","","",""
"","","","","","html-keyboard-response","96","159838","0.0-6.0-1.8","5b9a2688ca449d0001deca4b","6552129e68c08af5079f912e","655213c3ff04c0aac04a97b0","null","
        
        <div style=""text-align: center; position: fixed; top: 5vh; left: 40vw;"">
            <div style=""margin:0 auto; width: 20vw; top: 8vh; font-size: 1vw""> 
            <font color=""green""> Bonus : $0.25 </font>
            </div>
        </div>
    
        <img class=""stim"" src=./stimuli//pack_1/cat_2/ex_2_36.png></img>
    ","null","stimulus","","","","",""
"","","","","","html-keyboard-response","97","160842","0.0-6.0-2.8","5b9a2688ca449d0001deca4b","6552129e68c08af5079f912e","655213c3ff04c0aac04a97b0","null","
        <div style=""text-align: center; position: fixed; top: 5vh; left: 40vw;"">
            <div style=""margin:0 auto; width: 20vw; top: 8vh; font-size: 1vw""> 
            <font color=""green""> Bonus : $0.25 </font>
            </div>
        </div>
    ","null","","","","","",""
"","","","","","html-keyboard-response","98","161146","0.0-6.0-3.8","5b9a2688ca449d0001deca4b","6552129e68c08af5079f912e","655213c3ff04c0aac04a97b0","303","./stimuli//pack_1/cat_2/ex_2_36.png","arrowright","response","ArrowRight","36","2","true",""
"","","","","","html-keyboard-response","99","162660","0.0-6.0-4.8","5b9a2688ca449d0001deca4b","6552129e68c08af5079f912e","655213c3ff04c0aac04a97b0","null","<p> <font color=""green"" size=""4vw""> Correct category! </font> <br> <br> <font color=""green"" size=""7vw""> + $0.05 </font> </p>","null","feedback","","","","","0.3"
"","","","","","html-keyboard-response","100","163070","0.0-6.0-0.9","5b9a2688ca449d0001deca4b","6552129e68c08af5079f912e","655213c3ff04c0aac04a97b0","410","
            
        <div style=""text-align: center; position: fixed; top: 5vh; left: 40vw;"">
            <div style=""margin:0 auto; width: 20vw; top: 8vh; font-size: 1vw""> 
            <font color=""green""> Bonus : $0.3 </font>
            </div>
        </div>
    
            <div> Please press any button to continue to the next trial.</div>
        "," ","ITI","","","","",""
"","","","","","html-keyboard-response","101","163677","0.0-6.0-1.9","5b9a2688ca449d0001deca4b","6552129e68c08af5079f912e","655213c3ff04c0aac04a97b0","null","
        
        <div style=""text-align: center; position: fixed; top: 5vh; left: 40vw;"">
            <div style=""margin:0 auto; width: 20vw; top: 8vh; font-size: 1vw""> 
            <font color=""green""> Bonus : $0.3 </font>
            </div>
        </div>
    
        <img class=""stim"" src=./stimuli//pack_1/cat_2/ex_2_88.png></img>
    ","null","stimulus","","","","",""
"","","","","","html-keyboard-response","102","164680","0.0-6.0-2.9","5b9a2688ca449d0001deca4b","6552129e68c08af5079f912e","655213c3ff04c0aac04a97b0","null","
        <div style=""text-align: center; position: fixed; top: 5vh; left: 40vw;"">
            <div style=""margin:0 auto; width: 20vw; top: 8vh; font-size: 1vw""> 
            <font color=""green""> Bonus : $0.3 </font>
            </div>
        </div>
    ","null","","","","","",""
"","","","","","html-keyboard-response","103","164941","0.0-6.0-3.9","5b9a2688ca449d0001deca4b","6552129e68c08af5079f912e","655213c3ff04c0aac04a97b0","261","./stimuli//pack_1/cat_2/ex_2_88.png","arrowright","response","ArrowRight","88","2","true",""
"","","","","","html-keyboard-response","104","166454","0.0-6.0-4.9","5b9a2688ca449d0001deca4b","6552129e68c08af5079f912e","655213c3ff04c0aac04a97b0","null","<p> <font color=""green"" size=""4vw""> Correct category! </font> <br> <br> <font color=""green"" size=""7vw""> + $0.05 </font> </p>","null","feedback","","","","","0.35"
"","","","","","html-keyboard-response","105","166902","0.0-6.0-0.10","5b9a2688ca449d0001deca4b","6552129e68c08af5079f912e","655213c3ff04c0aac04a97b0","448","
            
        <div style=""text-align: center; position: fixed; top: 5vh; left: 40vw;"">
            <div style=""margin:0 auto; width: 20vw; top: 8vh; font-size: 1vw""> 
            <font color=""green""> Bonus : $0.35 </font>
            </div>
        </div>
    
            <div> Please press any button to continue to the next trial.</div>
        "," ","ITI","","","","",""
"","","","","","html-keyboard-response","106","167548","0.0-6.0-1.10","5b9a2688ca449d0001deca4b","6552129e68c08af5079f912e","655213c3ff04c0aac04a97b0","null","
        
        <div style=""text-align: center; position: fixed; top: 5vh; left: 40vw;"">
            <div style=""margin:0 auto; width: 20vw; top: 8vh; font-size: 1vw""> 
            <font color=""green""> Bonus : $0.35 </font>
            </div>
        </div>
    
        <img class=""stim"" src=./stimuli//pack_1/cat_1/ex_1_90.png></img>
    ","null","stimulus","","","","",""
"","","","","","html-keyboard-response","107","168558","0.0-6.0-2.10","5b9a2688ca449d0001deca4b","6552129e68c08af5079f912e","655213c3ff04c0aac04a97b0","null","
        <div style=""text-align: center; position: fixed; top: 5vh; left: 40vw;"">
            <div style=""margin:0 auto; width: 20vw; top: 8vh; font-size: 1vw""> 
            <font color=""green""> Bonus : $0.35 </font>
            </div>
        </div>
    ","null","","","","","",""
"","","","","","html-keyboard-response","108","170101","0.0-6.0-3.10","5b9a2688ca449d0001deca4b","6552129e68c08af5079f912e","655213c3ff04c0aac04a97b0","1542","./stimuli//pack_1/cat_1/ex_1_90.png","arrowleft","response","ArrowLeft","90","1","true",""
"","","","","","html-keyboard-response","109","171607","0.0-6.0-4.10","5b9a2688ca449d0001deca4b","6552129e68c08af5079f912e","655213c3ff04c0aac04a97b0","null","<p> <font color=""green"" size=""4vw""> Correct category! </font> <br> <br> <font color=""green"" size=""7vw""> + $0.05 </font> </p>","null","feedback","","","","","0.4"
"","","","","","html-keyboard-response","110","172034","0.0-6.0-0.11","5b9a2688ca449d0001deca4b","6552129e68c08af5079f912e","655213c3ff04c0aac04a97b0","426","
            
        <div style=""text-align: center; position: fixed; top: 5vh; left: 40vw;"">
            <div style=""margin:0 auto; width: 20vw; top: 8vh; font-size: 1vw""> 
            <font color=""green""> Bonus : $0.4 </font>
            </div>
        </div>
    
            <div> Please press any button to continue to the next trial.</div>
        "," ","ITI","","","","",""
"","","","","","html-keyboard-response","111","172646","0.0-6.0-1.11","5b9a2688ca449d0001deca4b","6552129e68c08af5079f912e","655213c3ff04c0aac04a97b0","null","
        
        <div style=""text-align: center; position: fixed; top: 5vh; left: 40vw;"">
            <div style=""margin:0 auto; width: 20vw; top: 8vh; font-size: 1vw""> 
            <font color=""green""> Bonus : $0.4 </font>
            </div>
        </div>
    
        <img class=""stim"" src=./stimuli//pack_1/cat_1/ex_1_46.png></img>
    ","null","stimulus","","","","",""
"","","","","","html-keyboard-response","112","173648","0.0-6.0-2.11","5b9a2688ca449d0001deca4b","6552129e68c08af5079f912e","655213c3ff04c0aac04a97b0","null","
        <div style=""text-align: center; position: fixed; top: 5vh; left: 40vw;"">
            <div style=""margin:0 auto; width: 20vw; top: 8vh; font-size: 1vw""> 
            <font color=""green""> Bonus : $0.4 </font>
            </div>
        </div>
    ","null","","","","","",""
"","","","","","html-keyboard-response","113","175959","0.0-6.0-3.11","5b9a2688ca449d0001deca4b","6552129e68c08af5079f912e","655213c3ff04c0aac04a97b0","2309","./stimuli//pack_1/cat_1/ex_1_46.png","arrowleft","response","ArrowLeft","46","1","true",""
"","","","","","html-keyboard-response","114","176121","0.0-6.0-4.11","5b9a2688ca449d0001deca4b","6552129e68c08af5079f912e","655213c3ff04c0aac04a97b0","162","<p> <font color=""green"" size=""4vw""> Correct category! </font> <br> <br> <font color=""green"" size=""7vw""> + $0.05 </font> </p>","arrowleft","feedback","","","","","0.45"
"","","","","","html-keyboard-response","115","176541","0.0-6.0-0.12","5b9a2688ca449d0001deca4b","6552129e68c08af5079f912e","655213c3ff04c0aac04a97b0","420","
            
        <div style=""text-align: center; position: fixed; top: 5vh; left: 40vw;"">
            <div style=""margin:0 auto; width: 20vw; top: 8vh; font-size: 1vw""> 
            <font color=""green""> Bonus : $0.45 </font>
            </div>
        </div>
    
            <div> Please press any button to continue to the next trial.</div>
        "," ","ITI","","","","",""
"","","","","","html-keyboard-response","116","177149","0.0-6.0-1.12","5b9a2688ca449d0001deca4b","6552129e68c08af5079f912e","655213c3ff04c0aac04a97b0","null","
        
        <div style=""text-align: center; position: fixed; top: 5vh; left: 40vw;"">
            <div style=""margin:0 auto; width: 20vw; top: 8vh; font-size: 1vw""> 
            <font color=""green""> Bonus : $0.45 </font>
            </div>
        </div>
    
        <img class=""stim"" src=./stimuli//pack_1/cat_2/ex_2_41.png></img>
    ","null","stimulus","","","","",""
"","","","","","html-keyboard-response","117","178153","0.0-6.0-2.12","5b9a2688ca449d0001deca4b","6552129e68c08af5079f912e","655213c3ff04c0aac04a97b0","null","
        <div style=""text-align: center; position: fixed; top: 5vh; left: 40vw;"">
            <div style=""margin:0 auto; width: 20vw; top: 8vh; font-size: 1vw""> 
            <font color=""green""> Bonus : $0.45 </font>
            </div>
        </div>
    ","null","","","","","",""
"","","","","","html-keyboard-response","118","178434","0.0-6.0-3.12","5b9a2688ca449d0001deca4b","6552129e68c08af5079f912e","655213c3ff04c0aac04a97b0","281","./stimuli//pack_1/cat_2/ex_2_41.png","arrowright","response","ArrowRight","41","2","true",""
"","","","","","html-keyboard-response","119","179943","0.0-6.0-4.12","5b9a2688ca449d0001deca4b","6552129e68c08af5079f912e","655213c3ff04c0aac04a97b0","null","<p> <font color=""green"" size=""4vw""> Correct category! </font> <br> <br> <font color=""green"" size=""7vw""> + $0.05 </font> </p>","null","feedback","","","","","0.5"
"","","","","","html-keyboard-response","120","180321","0.0-6.0-0.13","5b9a2688ca449d0001deca4b","6552129e68c08af5079f912e","655213c3ff04c0aac04a97b0","378","
            
        <div style=""text-align: center; position: fixed; top: 5vh; left: 40vw;"">
            <div style=""margin:0 auto; width: 20vw; top: 8vh; font-size: 1vw""> 
            <font color=""green""> Bonus : $0.5 </font>
            </div>
        </div>
    
            <div> Please press any button to continue to the next trial.</div>
        "," ","ITI","","","","",""
"","","","","","html-keyboard-response","121","180932","0.0-6.0-1.13","5b9a2688ca449d0001deca4b","6552129e68c08af5079f912e","655213c3ff04c0aac04a97b0","null","
        
        <div style=""text-align: center; position: fixed; top: 5vh; left: 40vw;"">
            <div style=""margin:0 auto; width: 20vw; top: 8vh; font-size: 1vw""> 
            <font color=""green""> Bonus : $0.5 </font>
            </div>
        </div>
    
        <img class=""stim"" src=./stimuli//pack_1/cat_2/ex_2_61.png></img>
    ","null","stimulus","","","","",""
"","","","","","html-keyboard-response","122","181939","0.0-6.0-2.13","5b9a2688ca449d0001deca4b","6552129e68c08af5079f912e","655213c3ff04c0aac04a97b0","null","
        <div style=""text-align: center; position: fixed; top: 5vh; left: 40vw;"">
            <div style=""margin:0 auto; width: 20vw; top: 8vh; font-size: 1vw""> 
            <font color=""green""> Bonus : $0.5 </font>
            </div>
        </div>
    ","null","","","","","",""
"","","","","","html-keyboard-response","123","182219","0.0-6.0-3.13","5b9a2688ca449d0001deca4b","6552129e68c08af5079f912e","655213c3ff04c0aac04a97b0","281","./stimuli//pack_1/cat_2/ex_2_61.png","arrowright","response","ArrowRight","61","2","true",""
"","","","","","html-keyboard-response","124","183722","0.0-6.0-4.13","5b9a2688ca449d0001deca4b","6552129e68c08af5079f912e","655213c3ff04c0aac04a97b0","null","<p> <font color=""green"" size=""4vw""> Correct category! </font> <br> <br> <font color=""green"" size=""7vw""> + $0.05 </font> </p>","null","feedback","","","","","0.55"
"","","","","","html-keyboard-response","125","184148","0.0-6.0-0.14","5b9a2688ca449d0001deca4b","6552129e68c08af5079f912e","655213c3ff04c0aac04a97b0","424","
            
        <div style=""text-align: center; position: fixed; top: 5vh; left: 40vw;"">
            <div style=""margin:0 auto; width: 20vw; top: 8vh; font-size: 1vw""> 
            <font color=""green""> Bonus : $0.55 </font>
            </div>
        </div>
    
            <div> Please press any button to continue to the next trial.</div>
        "," ","ITI","","","","",""
"","","","","","html-keyboard-response","126","184753","0.0-6.0-1.14","5b9a2688ca449d0001deca4b","6552129e68c08af5079f912e","655213c3ff04c0aac04a97b0","null","
        
        <div style=""text-align: center; position: fixed; top: 5vh; left: 40vw;"">
            <div style=""margin:0 auto; width: 20vw; top: 8vh; font-size: 1vw""> 
            <font color=""green""> Bonus : $0.55 </font>
            </div>
        </div>
    
        <img class=""stim"" src=./stimuli//pack_1/cat_2/ex_2_48.png></img>
    ","null","stimulus","","","","",""
"","","","","","html-keyboard-response","127","185760","0.0-6.0-2.14","5b9a2688ca449d0001deca4b","6552129e68c08af5079f912e","655213c3ff04c0aac04a97b0","null","
        <div style=""text-align: center; position: fixed; top: 5vh; left: 40vw;"">
            <div style=""margin:0 auto; width: 20vw; top: 8vh; font-size: 1vw""> 
            <font color=""green""> Bonus : $0.55 </font>
            </div>
        </div>
    ","null","","","","","",""
"","","","","","html-keyboard-response","128","187202","0.0-6.0-3.14","5b9a2688ca449d0001deca4b","6552129e68c08af5079f912e","655213c3ff04c0aac04a97b0","1442","./stimuli//pack_1/cat_2/ex_2_48.png","arrowleft","response","ArrowRight","48","2","false",""
"","","","","","html-keyboard-response","129","187907","0.0-6.0-4.14","5b9a2688ca449d0001deca4b","6552129e68c08af5079f912e","655213c3ff04c0aac04a97b0","705","<p> <font color=""red"" size=""4vw""> Wrong category! </font> </p>"," ","feedback","","","","","0.55"
"","","","","","html-keyboard-response","130","188700","0.0-6.0-0.15","5b9a2688ca449d0001deca4b","6552129e68c08af5079f912e","655213c3ff04c0aac04a97b0","793","
            
        <div style=""text-align: center; position: fixed; top: 5vh; left: 40vw;"">
            <div style=""margin:0 auto; width: 20vw; top: 8vh; font-size: 1vw""> 
            <font color=""green""> Bonus : $0.55 </font>
            </div>
        </div>
    
            <div> Please press any button to continue to the next trial.</div>
        "," ","ITI","","","","",""
"","","","","","html-keyboard-response","131","189310","0.0-6.0-1.15","5b9a2688ca449d0001deca4b","6552129e68c08af5079f912e","655213c3ff04c0aac04a97b0","null","
        
        <div style=""text-align: center; position: fixed; top: 5vh; left: 40vw;"">
            <div style=""margin:0 auto; width: 20vw; top: 8vh; font-size: 1vw""> 
            <font color=""green""> Bonus : $0.55 </font>
            </div>
        </div>
    
        <img class=""stim"" src=./stimuli//pack_1/cat_1/ex_1_42.png></img>
    ","null","stimulus","","","","",""
"","","","","","html-keyboard-response","132","190313","0.0-6.0-2.15","5b9a2688ca449d0001deca4b","6552129e68c08af5079f912e","655213c3ff04c0aac04a97b0","null","
        <div style=""text-align: center; position: fixed; top: 5vh; left: 40vw;"">
            <div style=""margin:0 auto; width: 20vw; top: 8vh; font-size: 1vw""> 
            <font color=""green""> Bonus : $0.55 </font>
            </div>
        </div>
    ","null","","","","","",""
"","","","","","html-keyboard-response","133","192784","0.0-6.0-3.15","5b9a2688ca449d0001deca4b","6552129e68c08af5079f912e","655213c3ff04c0aac04a97b0","2470","./stimuli//pack_1/cat_1/ex_1_42.png","arrowleft","response","ArrowLeft","42","1","true",""
"","","","","","html-keyboard-response","134","193625","0.0-6.0-4.15","5b9a2688ca449d0001deca4b","6552129e68c08af5079f912e","655213c3ff04c0aac04a97b0","840","<p> <font color=""green"" size=""4vw""> Correct category! </font> <br> <br> <font color=""green"" size=""7vw""> + $0.05 </font> </p>"," ","feedback","","","","","0.6"
"","","","","","html-keyboard-response","135","194406","0.0-6.0-0.16","5b9a2688ca449d0001deca4b","6552129e68c08af5079f912e","655213c3ff04c0aac04a97b0","782","
            
        <div style=""text-align: center; position: fixed; top: 5vh; left: 40vw;"">
            <div style=""margin:0 auto; width: 20vw; top: 8vh; font-size: 1vw""> 
            <font color=""green""> Bonus : $0.6 </font>
            </div>
        </div>
    
            <div> Please press any button to continue to the next trial.</div>
        "," ","ITI","","","","",""
"","","","","","html-keyboard-response","136","195022","0.0-6.0-1.16","5b9a2688ca449d0001deca4b","6552129e68c08af5079f912e","655213c3ff04c0aac04a97b0","null","
        
        <div style=""text-align: center; position: fixed; top: 5vh; left: 40vw;"">
            <div style=""margin:0 auto; width: 20vw; top: 8vh; font-size: 1vw""> 
            <font color=""green""> Bonus : $0.6 </font>
            </div>
        </div>
    
        <img class=""stim"" src=./stimuli//pack_1/cat_1/ex_1_9.png></img>
    ","null","stimulus","","","","",""
"","","","","","html-keyboard-response","137","196027","0.0-6.0-2.16","5b9a2688ca449d0001deca4b","6552129e68c08af5079f912e","655213c3ff04c0aac04a97b0","null","
        <div style=""text-align: center; position: fixed; top: 5vh; left: 40vw;"">
            <div style=""margin:0 auto; width: 20vw; top: 8vh; font-size: 1vw""> 
            <font color=""green""> Bonus : $0.6 </font>
            </div>
        </div>
    ","null","","","","","",""
"","","","","","html-keyboard-response","138","197134","0.0-6.0-3.16","5b9a2688ca449d0001deca4b","6552129e68c08af5079f912e","655213c3ff04c0aac04a97b0","1107","./stimuli//pack_1/cat_1/ex_1_9.png","arrowleft","response","ArrowLeft","9","1","true",""
"","","","","","html-keyboard-response","139","198086","0.0-6.0-4.16","5b9a2688ca449d0001deca4b","6552129e68c08af5079f912e","655213c3ff04c0aac04a97b0","951","<p> <font color=""green"" size=""4vw""> Correct category! </font> <br> <br> <font color=""green"" size=""7vw""> + $0.05 </font> </p>"," ","feedback","","","","","0.65"
"","","","","","html-keyboard-response","140","198613","0.0-6.0-0.17","5b9a2688ca449d0001deca4b","6552129e68c08af5079f912e","655213c3ff04c0aac04a97b0","528","
            
        <div style=""text-align: center; position: fixed; top: 5vh; left: 40vw;"">
            <div style=""margin:0 auto; width: 20vw; top: 8vh; font-size: 1vw""> 
            <font color=""green""> Bonus : $0.65 </font>
            </div>
        </div>
    
            <div> Please press any button to continue to the next trial.</div>
        "," ","ITI","","","","",""
"","","","","","html-keyboard-response","141","199217","0.0-6.0-1.17","5b9a2688ca449d0001deca4b","6552129e68c08af5079f912e","655213c3ff04c0aac04a97b0","null","
        
        <div style=""text-align: center; position: fixed; top: 5vh; left: 40vw;"">
            <div style=""margin:0 auto; width: 20vw; top: 8vh; font-size: 1vw""> 
            <font color=""green""> Bonus : $0.65 </font>
            </div>
        </div>
    
        <img class=""stim"" src=./stimuli//pack_1/cat_1/ex_1_67.png></img>
    ","null","stimulus","","","","",""
"","","","","","html-keyboard-response","142","200232","0.0-6.0-2.17","5b9a2688ca449d0001deca4b","6552129e68c08af5079f912e","655213c3ff04c0aac04a97b0","null","
        <div style=""text-align: center; position: fixed; top: 5vh; left: 40vw;"">
            <div style=""margin:0 auto; width: 20vw; top: 8vh; font-size: 1vw""> 
            <font color=""green""> Bonus : $0.65 </font>
            </div>
        </div>
    ","null","","","","","",""
"","","","","","html-keyboard-response","143","200684","0.0-6.0-3.17","5b9a2688ca449d0001deca4b","6552129e68c08af5079f912e","655213c3ff04c0aac04a97b0","452","./stimuli//pack_1/cat_1/ex_1_67.png","arrowright","response","ArrowLeft","67","1","false",""
"","","","","","html-keyboard-response","144","202197","0.0-6.0-4.17","5b9a2688ca449d0001deca4b","6552129e68c08af5079f912e","655213c3ff04c0aac04a97b0","null","<p> <font color=""red"" size=""4vw""> Wrong category! </font> </p>","null","feedback","","","","","0.65"
"","","","","","html-keyboard-response","145","202475","0.0-6.0-0.18","5b9a2688ca449d0001deca4b","6552129e68c08af5079f912e","655213c3ff04c0aac04a97b0","278","
            
        <div style=""text-align: center; position: fixed; top: 5vh; left: 40vw;"">
            <div style=""margin:0 auto; width: 20vw; top: 8vh; font-size: 1vw""> 
            <font color=""green""> Bonus : $0.65 </font>
            </div>
        </div>
    
            <div> Please press any button to continue to the next trial.</div>
        ","arrowleft","ITI","","","","",""
"","","","","","html-keyboard-response","146","203080","0.0-6.0-1.18","5b9a2688ca449d0001deca4b","6552129e68c08af5079f912e","655213c3ff04c0aac04a97b0","null","
        
        <div style=""text-align: center; position: fixed; top: 5vh; left: 40vw;"">
            <div style=""margin:0 auto; width: 20vw; top: 8vh; font-size: 1vw""> 
            <font color=""green""> Bonus : $0.65 </font>
            </div>
        </div>
    
        <img class=""stim"" src=./stimuli//pack_1/cat_1/ex_1_43.png></img>
    ","null","stimulus","","","","",""
"","","","","","html-keyboard-response","147","204090","0.0-6.0-2.18","5b9a2688ca449d0001deca4b","6552129e68c08af5079f912e","655213c3ff04c0aac04a97b0","null","
        <div style=""text-align: center; position: fixed; top: 5vh; left: 40vw;"">
            <div style=""margin:0 auto; width: 20vw; top: 8vh; font-size: 1vw""> 
            <font color=""green""> Bonus : $0.65 </font>
            </div>
        </div>
    ","null","","","","","",""
"","","","","","html-keyboard-response","148","208095","0.0-6.0-3.18","5b9a2688ca449d0001deca4b","6552129e68c08af5079f912e","655213c3ff04c0aac04a97b0","null","./stimuli//pack_1/cat_1/ex_1_43.png","null","response","ArrowLeft","43","1","false",""
"","","","","","html-keyboard-response","149","209640","0.0-6.0-4.18","5b9a2688ca449d0001deca4b","6552129e68c08af5079f912e","655213c3ff04c0aac04a97b0","1545","<p> <font color=""red"" size=""5vw""> Time out! </font> <br> Please try to respond as quickly as possible. </p>"," ","feedback","","","","","0.65"
"","","","","","html-keyboard-response","150","211029","0.0-6.0-0.19","5b9a2688ca449d0001deca4b","6552129e68c08af5079f912e","655213c3ff04c0aac04a97b0","1389","
            
        <div style=""text-align: center; position: fixed; top: 5vh; left: 40vw;"">
            <div style=""margin:0 auto; width: 20vw; top: 8vh; font-size: 1vw""> 
            <font color=""green""> Bonus : $0.65 </font>
            </div>
        </div>
    
            <div> Please press any button to continue to the next trial.</div>
        "," ","ITI","","","","",""
"","","","","","html-keyboard-response","151","211632","0.0-6.0-1.19","5b9a2688ca449d0001deca4b","6552129e68c08af5079f912e","655213c3ff04c0aac04a97b0","null","
        
        <div style=""text-align: center; position: fixed; top: 5vh; left: 40vw;"">
            <div style=""margin:0 auto; width: 20vw; top: 8vh; font-size: 1vw""> 
            <font color=""green""> Bonus : $0.65 </font>
            </div>
        </div>
    
        <img class=""stim"" src=./stimuli//pack_1/cat_1/ex_1_58.png></img>
    ","null","stimulus","","","","",""
"","","","","","html-keyboard-response","152","212641","0.0-6.0-2.19","5b9a2688ca449d0001deca4b","6552129e68c08af5079f912e","655213c3ff04c0aac04a97b0","null","
        <div style=""text-align: center; position: fixed; top: 5vh; left: 40vw;"">
            <div style=""margin:0 auto; width: 20vw; top: 8vh; font-size: 1vw""> 
            <font color=""green""> Bonus : $0.65 </font>
            </div>
        </div>
    ","null","","","","","",""
"","","","","","html-keyboard-response","153","212949","0.0-6.0-3.19","5b9a2688ca449d0001deca4b","6552129e68c08af5079f912e","655213c3ff04c0aac04a97b0","307","./stimuli//pack_1/cat_1/ex_1_58.png","arrowright","response","ArrowLeft","58","1","false",""
"","","","","","html-keyboard-response","154","214450","0.0-6.0-4.19","5b9a2688ca449d0001deca4b","6552129e68c08af5079f912e","655213c3ff04c0aac04a97b0","null","<p> <font color=""red"" size=""4vw""> Wrong category! </font> </p>","null","feedback","","","","","0.65"
"","","","","","html-keyboard-response","155","214560","0.0-6.0-0.20","5b9a2688ca449d0001deca4b","6552129e68c08af5079f912e","655213c3ff04c0aac04a97b0","109","
            
        <div style=""text-align: center; position: fixed; top: 5vh; left: 40vw;"">
            <div style=""margin:0 auto; width: 20vw; top: 8vh; font-size: 1vw""> 
            <font color=""green""> Bonus : $0.65 </font>
            </div>
        </div>
    
            <div> Please press any button to continue to the next trial.</div>
        "," ","ITI","","","","",""
"","","","","","html-keyboard-response","156","215175","0.0-6.0-1.20","5b9a2688ca449d0001deca4b","6552129e68c08af5079f912e","655213c3ff04c0aac04a97b0","null","
        
        <div style=""text-align: center; position: fixed; top: 5vh; left: 40vw;"">
            <div style=""margin:0 auto; width: 20vw; top: 8vh; font-size: 1vw""> 
            <font color=""green""> Bonus : $0.65 </font>
            </div>
        </div>
    
        <img class=""stim"" src=./stimuli//pack_1/cat_2/ex_2_55.png></img>
    ","null","stimulus","","","","",""
"","","","","","html-keyboard-response","157","216189","0.0-6.0-2.20","5b9a2688ca449d0001deca4b","6552129e68c08af5079f912e","655213c3ff04c0aac04a97b0","null","
        <div style=""text-align: center; position: fixed; top: 5vh; left: 40vw;"">
            <div style=""margin:0 auto; width: 20vw; top: 8vh; font-size: 1vw""> 
            <font color=""green""> Bonus : $0.65 </font>
            </div>
        </div>
    ","null","","","","","",""
"","","","","","html-keyboard-response","158","216439","0.0-6.0-3.20","5b9a2688ca449d0001deca4b","6552129e68c08af5079f912e","655213c3ff04c0aac04a97b0","250","./stimuli//pack_1/cat_2/ex_2_55.png","arrowright","response","ArrowRight","55","2","true",""
"","","","","","html-keyboard-response","159","217422","0.0-6.0-4.20","5b9a2688ca449d0001deca4b","6552129e68c08af5079f912e","655213c3ff04c0aac04a97b0","981","<p> <font color=""green"" size=""4vw""> Correct category! </font> <br> <br> <font color=""green"" size=""7vw""> + $0.05 </font> </p>"," ","feedback","","","","","0.7"
"","","","","","html-keyboard-response","160","217796","0.0-6.0-0.21","5b9a2688ca449d0001deca4b","6552129e68c08af5079f912e","655213c3ff04c0aac04a97b0","374","
            
        <div style=""text-align: center; position: fixed; top: 5vh; left: 40vw;"">
            <div style=""margin:0 auto; width: 20vw; top: 8vh; font-size: 1vw""> 
            <font color=""green""> Bonus : $0.7 </font>
            </div>
        </div>
    
            <div> Please press any button to continue to the next trial.</div>
        "," ","ITI","","","","",""
"","","","","","html-keyboard-response","161","218408","0.0-6.0-1.21","5b9a2688ca449d0001deca4b","6552129e68c08af5079f912e","655213c3ff04c0aac04a97b0","null","
        
        <div style=""text-align: center; position: fixed; top: 5vh; left: 40vw;"">
            <div style=""margin:0 auto; width: 20vw; top: 8vh; font-size: 1vw""> 
            <font color=""green""> Bonus : $0.7 </font>
            </div>
        </div>
    
        <img class=""stim"" src=./stimuli//pack_1/cat_2/ex_2_45.png></img>
    ","null","stimulus","","","","",""
"","","","","","html-keyboard-response","162","219437","0.0-6.0-2.21","5b9a2688ca449d0001deca4b","6552129e68c08af5079f912e","655213c3ff04c0aac04a97b0","null","
        <div style=""text-align: center; position: fixed; top: 5vh; left: 40vw;"">
            <div style=""margin:0 auto; width: 20vw; top: 8vh; font-size: 1vw""> 
            <font color=""green""> Bonus : $0.7 </font>
            </div>
        </div>
    ","null","","","","","",""
"","","","","","html-keyboard-response","163","219711","0.0-6.0-3.21","5b9a2688ca449d0001deca4b","6552129e68c08af5079f912e","655213c3ff04c0aac04a97b0","274","./stimuli//pack_1/cat_2/ex_2_45.png","arrowright","response","ArrowRight","45","2","true",""
"","","","","","html-keyboard-response","164","220479","0.0-6.0-4.21","5b9a2688ca449d0001deca4b","6552129e68c08af5079f912e","655213c3ff04c0aac04a97b0","768","<p> <font color=""green"" size=""4vw""> Correct category! </font> <br> <br> <font color=""green"" size=""7vw""> + $0.05 </font> </p>"," ","feedback","","","","","0.75"
"","","","","","html-keyboard-response","165","220884","0.0-6.0-0.22","5b9a2688ca449d0001deca4b","6552129e68c08af5079f912e","655213c3ff04c0aac04a97b0","404","
            
        <div style=""text-align: center; position: fixed; top: 5vh; left: 40vw;"">
            <div style=""margin:0 auto; width: 20vw; top: 8vh; font-size: 1vw""> 
            <font color=""green""> Bonus : $0.75 </font>
            </div>
        </div>
    
            <div> Please press any button to continue to the next trial.</div>
        "," ","ITI","","","","",""
"","","","","","html-keyboard-response","166","221494","0.0-6.0-1.22","5b9a2688ca449d0001deca4b","6552129e68c08af5079f912e","655213c3ff04c0aac04a97b0","null","
        
        <div style=""text-align: center; position: fixed; top: 5vh; left: 40vw;"">
            <div style=""margin:0 auto; width: 20vw; top: 8vh; font-size: 1vw""> 
            <font color=""green""> Bonus : $0.75 </font>
            </div>
        </div>
    
        <img class=""stim"" src=./stimuli//pack_1/cat_2/ex_2_76.png></img>
    ","null","stimulus","","","","",""
"","","","","","html-keyboard-response","167","222499","0.0-6.0-2.22","5b9a2688ca449d0001deca4b","6552129e68c08af5079f912e","655213c3ff04c0aac04a97b0","null","
        <div style=""text-align: center; position: fixed; top: 5vh; left: 40vw;"">
            <div style=""margin:0 auto; width: 20vw; top: 8vh; font-size: 1vw""> 
            <font color=""green""> Bonus : $0.75 </font>
            </div>
        </div>
    ","null","","","","","",""
"","","","","","html-keyboard-response","168","222743","0.0-6.0-3.22","5b9a2688ca449d0001deca4b","6552129e68c08af5079f912e","655213c3ff04c0aac04a97b0","243","./stimuli//pack_1/cat_2/ex_2_76.png","arrowright","response","ArrowRight","76","2","true",""
"","","","","","html-keyboard-response","169","223562","0.0-6.0-4.22","5b9a2688ca449d0001deca4b","6552129e68c08af5079f912e","655213c3ff04c0aac04a97b0","819","<p> <font color=""green"" size=""4vw""> Correct category! </font> <br> <br> <font color=""green"" size=""7vw""> + $0.05 </font> </p>"," ","feedback","","","","","0.8"
"","","","","","html-keyboard-response","170","223929","0.0-6.0-0.23","5b9a2688ca449d0001deca4b","6552129e68c08af5079f912e","655213c3ff04c0aac04a97b0","367","
            
        <div style=""text-align: center; position: fixed; top: 5vh; left: 40vw;"">
            <div style=""margin:0 auto; width: 20vw; top: 8vh; font-size: 1vw""> 
            <font color=""green""> Bonus : $0.8 </font>
            </div>
        </div>
    
            <div> Please press any button to continue to the next trial.</div>
        "," ","ITI","","","","",""
"","","","","","html-keyboard-response","171","224545","0.0-6.0-1.23","5b9a2688ca449d0001deca4b","6552129e68c08af5079f912e","655213c3ff04c0aac04a97b0","null","
        
        <div style=""text-align: center; position: fixed; top: 5vh; left: 40vw;"">
            <div style=""margin:0 auto; width: 20vw; top: 8vh; font-size: 1vw""> 
            <font color=""green""> Bonus : $0.8 </font>
            </div>
        </div>
    
        <img class=""stim"" src=./stimuli//pack_1/cat_2/ex_2_52.png></img>
    ","null","stimulus","","","","",""
"","","","","","html-keyboard-response","172","225554","0.0-6.0-2.23","5b9a2688ca449d0001deca4b","6552129e68c08af5079f912e","655213c3ff04c0aac04a97b0","null","
        <div style=""text-align: center; position: fixed; top: 5vh; left: 40vw;"">
            <div style=""margin:0 auto; width: 20vw; top: 8vh; font-size: 1vw""> 
            <font color=""green""> Bonus : $0.8 </font>
            </div>
        </div>
    ","null","","","","","",""
"","","","","","html-keyboard-response","173","225822","0.0-6.0-3.23","5b9a2688ca449d0001deca4b","6552129e68c08af5079f912e","655213c3ff04c0aac04a97b0","268","./stimuli//pack_1/cat_2/ex_2_52.png","arrowright","response","ArrowRight","52","2","true",""
"","","","","","html-keyboard-response","174","226670","0.0-6.0-4.23","5b9a2688ca449d0001deca4b","6552129e68c08af5079f912e","655213c3ff04c0aac04a97b0","847","<p> <font color=""green"" size=""4vw""> Correct category! </font> <br> <br> <font color=""green"" size=""7vw""> + $0.05 </font> </p>"," ","feedback","","","","","0.85"
"","","","","","html-keyboard-response","175","227024","0.0-6.0-0.24","5b9a2688ca449d0001deca4b","6552129e68c08af5079f912e","655213c3ff04c0aac04a97b0","354","
            
        <div style=""text-align: center; position: fixed; top: 5vh; left: 40vw;"">
            <div style=""margin:0 auto; width: 20vw; top: 8vh; font-size: 1vw""> 
            <font color=""green""> Bonus : $0.85 </font>
            </div>
        </div>
    
            <div> Please press any button to continue to the next trial.</div>
        "," ","ITI","","","","",""
"","","","","","html-keyboard-response","176","227631","0.0-6.0-1.24","5b9a2688ca449d0001deca4b","6552129e68c08af5079f912e","655213c3ff04c0aac04a97b0","null","
        
        <div style=""text-align: center; position: fixed; top: 5vh; left: 40vw;"">
            <div style=""margin:0 auto; width: 20vw; top: 8vh; font-size: 1vw""> 
            <font color=""green""> Bonus : $0.85 </font>
            </div>
        </div>
    
        <img class=""stim"" src=./stimuli//pack_1/cat_2/ex_2_72.png></img>
    ","null","stimulus","","","","",""
"","","","","","html-keyboard-response","177","228636","0.0-6.0-2.24","5b9a2688ca449d0001deca4b","6552129e68c08af5079f912e","655213c3ff04c0aac04a97b0","null","
        <div style=""text-align: center; position: fixed; top: 5vh; left: 40vw;"">
            <div style=""margin:0 auto; width: 20vw; top: 8vh; font-size: 1vw""> 
            <font color=""green""> Bonus : $0.85 </font>
            </div>
        </div>
    ","null","","","","","",""
"","","","","","html-keyboard-response","178","228894","0.0-6.0-3.24","5b9a2688ca449d0001deca4b","6552129e68c08af5079f912e","655213c3ff04c0aac04a97b0","256","./stimuli//pack_1/cat_2/ex_2_72.png","arrowleft","response","ArrowRight","72","2","false",""
"","","","","","html-keyboard-response","179","229099","0.0-6.0-4.24","5b9a2688ca449d0001deca4b","6552129e68c08af5079f912e","655213c3ff04c0aac04a97b0","204","<p> <font color=""red"" size=""4vw""> Wrong category! </font> </p>","arrowleft","feedback","","","","","0.85"
"","","","","","html-keyboard-response","180","230183","0.0-6.0-0.25","5b9a2688ca449d0001deca4b","6552129e68c08af5079f912e","655213c3ff04c0aac04a97b0","1085","
            
        <div style=""text-align: center; position: fixed; top: 5vh; left: 40vw;"">
            <div style=""margin:0 auto; width: 20vw; top: 8vh; font-size: 1vw""> 
            <font color=""green""> Bonus : $0.85 </font>
            </div>
        </div>
    
            <div> Please press any button to continue to the next trial.</div>
        "," ","ITI","","","","",""
"","","","","","html-keyboard-response","181","230790","0.0-6.0-1.25","5b9a2688ca449d0001deca4b","6552129e68c08af5079f912e","655213c3ff04c0aac04a97b0","null","
        
        <div style=""text-align: center; position: fixed; top: 5vh; left: 40vw;"">
            <div style=""margin:0 auto; width: 20vw; top: 8vh; font-size: 1vw""> 
            <font color=""green""> Bonus : $0.85 </font>
            </div>
        </div>
    
        <img class=""stim"" src=./stimuli//pack_1/cat_2/ex_2_32.png></img>
    ","null","stimulus","","","","",""
"","","","","","html-keyboard-response","182","231802","0.0-6.0-2.25","5b9a2688ca449d0001deca4b","6552129e68c08af5079f912e","655213c3ff04c0aac04a97b0","null","
        <div style=""text-align: center; position: fixed; top: 5vh; left: 40vw;"">
            <div style=""margin:0 auto; width: 20vw; top: 8vh; font-size: 1vw""> 
            <font color=""green""> Bonus : $0.85 </font>
            </div>
        </div>
    ","null","","","","","",""
"","","","","","html-keyboard-response","183","232083","0.0-6.0-3.25","5b9a2688ca449d0001deca4b","6552129e68c08af5079f912e","655213c3ff04c0aac04a97b0","281","./stimuli//pack_1/cat_2/ex_2_32.png","arrowright","response","ArrowRight","32","2","true",""
"","","","","","html-keyboard-response","184","232951","0.0-6.0-4.25","5b9a2688ca449d0001deca4b","6552129e68c08af5079f912e","655213c3ff04c0aac04a97b0","866","<p> <font color=""green"" size=""4vw""> Correct category! </font> <br> <br> <font color=""green"" size=""7vw""> + $0.05 </font> </p>"," ","feedback","","","","","0.9"
"","","","","","html-keyboard-response","185","233289","0.0-6.0-0.26","5b9a2688ca449d0001deca4b","6552129e68c08af5079f912e","655213c3ff04c0aac04a97b0","338","
            
        <div style=""text-align: center; position: fixed; top: 5vh; left: 40vw;"">
            <div style=""margin:0 auto; width: 20vw; top: 8vh; font-size: 1vw""> 
            <font color=""green""> Bonus : $0.9 </font>
            </div>
        </div>
    
            <div> Please press any button to continue to the next trial.</div>
        "," ","ITI","","","","",""
"","","","","","html-keyboard-response","186","233893","0.0-6.0-1.26","5b9a2688ca449d0001deca4b","6552129e68c08af5079f912e","655213c3ff04c0aac04a97b0","null","
        
        <div style=""text-align: center; position: fixed; top: 5vh; left: 40vw;"">
            <div style=""margin:0 auto; width: 20vw; top: 8vh; font-size: 1vw""> 
            <font color=""green""> Bonus : $0.9 </font>
            </div>
        </div>
    
        <img class=""stim"" src=./stimuli//pack_1/cat_2/ex_2_13.png></img>
    ","null","stimulus","","","","",""
"","","","","","html-keyboard-response","187","234895","0.0-6.0-2.26","5b9a2688ca449d0001deca4b","6552129e68c08af5079f912e","655213c3ff04c0aac04a97b0","null","
        <div style=""text-align: center; position: fixed; top: 5vh; left: 40vw;"">
            <div style=""margin:0 auto; width: 20vw; top: 8vh; font-size: 1vw""> 
            <font color=""green""> Bonus : $0.9 </font>
            </div>
        </div>
    ","null","","","","","",""
"","","","","","html-keyboard-response","188","235137","0.0-6.0-3.26","5b9a2688ca449d0001deca4b","6552129e68c08af5079f912e","655213c3ff04c0aac04a97b0","242","./stimuli//pack_1/cat_2/ex_2_13.png","arrowright","response","ArrowRight","13","2","true",""
"","","","","","html-keyboard-response","189","235830","0.0-6.0-4.26","5b9a2688ca449d0001deca4b","6552129e68c08af5079f912e","655213c3ff04c0aac04a97b0","693","<p> <font color=""green"" size=""4vw""> Correct category! </font> <br> <br> <font color=""green"" size=""7vw""> + $0.05 </font> </p>"," ","feedback","","","","","0.95"
"","","","","","html-keyboard-response","190","236119","0.0-6.0-0.27","5b9a2688ca449d0001deca4b","6552129e68c08af5079f912e","655213c3ff04c0aac04a97b0","288","
            
        <div style=""text-align: center; position: fixed; top: 5vh; left: 40vw;"">
            <div style=""margin:0 auto; width: 20vw; top: 8vh; font-size: 1vw""> 
            <font color=""green""> Bonus : $0.95 </font>
            </div>
        </div>
    
            <div> Please press any button to continue to the next trial.</div>
        "," ","ITI","","","","",""
"","","","","","html-keyboard-response","191","236727","0.0-6.0-1.27","5b9a2688ca449d0001deca4b","6552129e68c08af5079f912e","655213c3ff04c0aac04a97b0","null","
        
        <div style=""text-align: center; position: fixed; top: 5vh; left: 40vw;"">
            <div style=""margin:0 auto; width: 20vw; top: 8vh; font-size: 1vw""> 
            <font color=""green""> Bonus : $0.95 </font>
            </div>
        </div>
    
        <img class=""stim"" src=./stimuli//pack_1/cat_1/ex_1_79.png></img>
    ","null","stimulus","","","","",""
"","","","","","html-keyboard-response","192","237740","0.0-6.0-2.27","5b9a2688ca449d0001deca4b","6552129e68c08af5079f912e","655213c3ff04c0aac04a97b0","null","
        <div style=""text-align: center; position: fixed; top: 5vh; left: 40vw;"">
            <div style=""margin:0 auto; width: 20vw; top: 8vh; font-size: 1vw""> 
            <font color=""green""> Bonus : $0.95 </font>
            </div>
        </div>
    ","null","","","","","",""
"","","","","","html-keyboard-response","193","238052","0.0-6.0-3.27","5b9a2688ca449d0001deca4b","6552129e68c08af5079f912e","655213c3ff04c0aac04a97b0","311","./stimuli//pack_1/cat_1/ex_1_79.png","arrowleft","response","ArrowLeft","79","1","true",""
"","","","","","html-keyboard-response","194","238681","0.0-6.0-4.27","5b9a2688ca449d0001deca4b","6552129e68c08af5079f912e","655213c3ff04c0aac04a97b0","628","<p> <font color=""green"" size=""4vw""> Correct category! </font> <br> <br> <font color=""green"" size=""7vw""> + $0.05 </font> </p>"," ","feedback","","","","","1"
"","","","","","html-keyboard-response","195","239010","0.0-6.0-0.28","5b9a2688ca449d0001deca4b","6552129e68c08af5079f912e","655213c3ff04c0aac04a97b0","330","
            
        <div style=""text-align: center; position: fixed; top: 5vh; left: 40vw;"">
            <div style=""margin:0 auto; width: 20vw; top: 8vh; font-size: 1vw""> 
            <font color=""green""> Bonus : $1 </font>
            </div>
        </div>
    
            <div> Please press any button to continue to the next trial.</div>
        "," ","ITI","","","","",""
"","","","","","html-keyboard-response","196","239614","0.0-6.0-1.28","5b9a2688ca449d0001deca4b","6552129e68c08af5079f912e","655213c3ff04c0aac04a97b0","null","
        
        <div style=""text-align: center; position: fixed; top: 5vh; left: 40vw;"">
            <div style=""margin:0 auto; width: 20vw; top: 8vh; font-size: 1vw""> 
            <font color=""green""> Bonus : $1 </font>
            </div>
        </div>
    
        <img class=""stim"" src=./stimuli//pack_1/cat_1/ex_1_83.png></img>
    ","null","stimulus","","","","",""
"","","","","","html-keyboard-response","197","240624","0.0-6.0-2.28","5b9a2688ca449d0001deca4b","6552129e68c08af5079f912e","655213c3ff04c0aac04a97b0","null","
        <div style=""text-align: center; position: fixed; top: 5vh; left: 40vw;"">
            <div style=""margin:0 auto; width: 20vw; top: 8vh; font-size: 1vw""> 
            <font color=""green""> Bonus : $1 </font>
            </div>
        </div>
    ","null","","","","","",""
"","","","","","html-keyboard-response","198","240747","0.0-6.0-3.28","5b9a2688ca449d0001deca4b","6552129e68c08af5079f912e","655213c3ff04c0aac04a97b0","122","./stimuli//pack_1/cat_1/ex_1_83.png","arrowleft","response","ArrowLeft","83","1","true",""
"","","","","","html-keyboard-response","199","240805","0.0-6.0-4.28","5b9a2688ca449d0001deca4b","6552129e68c08af5079f912e","655213c3ff04c0aac04a97b0","58","<p> <font color=""green"" size=""4vw""> Correct category! </font> <br> <br> <font color=""green"" size=""7vw""> + $0.05 </font> </p>","arrowleft","feedback","","","","","1.05"
"","","","","","html-keyboard-response","200","241373","0.0-6.0-0.29","5b9a2688ca449d0001deca4b","6552129e68c08af5079f912e","655213c3ff04c0aac04a97b0","568","
            
        <div style=""text-align: center; position: fixed; top: 5vh; left: 40vw;"">
            <div style=""margin:0 auto; width: 20vw; top: 8vh; font-size: 1vw""> 
            <font color=""green""> Bonus : $1.05 </font>
            </div>
        </div>
    
            <div> Please press any button to continue to the next trial.</div>
        "," ","ITI","","","","",""
"","","","","","html-keyboard-response","201","241978","0.0-6.0-1.29","5b9a2688ca449d0001deca4b","6552129e68c08af5079f912e","655213c3ff04c0aac04a97b0","null","
        
        <div style=""text-align: center; position: fixed; top: 5vh; left: 40vw;"">
            <div style=""margin:0 auto; width: 20vw; top: 8vh; font-size: 1vw""> 
            <font color=""green""> Bonus : $1.05 </font>
            </div>
        </div>
    
        <img class=""stim"" src=./stimuli//pack_1/cat_1/ex_1_19.png></img>
    ","null","stimulus","","","","",""
"","","","","","html-keyboard-response","202","242992","0.0-6.0-2.29","5b9a2688ca449d0001deca4b","6552129e68c08af5079f912e","655213c3ff04c0aac04a97b0","null","
        <div style=""text-align: center; position: fixed; top: 5vh; left: 40vw;"">
            <div style=""margin:0 auto; width: 20vw; top: 8vh; font-size: 1vw""> 
            <font color=""green""> Bonus : $1.05 </font>
            </div>
        </div>
    ","null","","","","","",""
"","","","","","html-keyboard-response","203","244029","0.0-6.0-3.29","5b9a2688ca449d0001deca4b","6552129e68c08af5079f912e","655213c3ff04c0aac04a97b0","1039","./stimuli//pack_1/cat_1/ex_1_19.png","arrowleft","response","ArrowLeft","19","1","true",""
"","","","","","html-keyboard-response","204","244446","0.0-6.0-4.29","5b9a2688ca449d0001deca4b","6552129e68c08af5079f912e","655213c3ff04c0aac04a97b0","415","<p> <font color=""green"" size=""4vw""> Correct category! </font> <br> <br> <font color=""green"" size=""7vw""> + $0.05 </font> </p>"," ","feedback","","","","","1.1"
"","","","","","html-keyboard-response","205","244790","0.0-6.0-0.30","5b9a2688ca449d0001deca4b","6552129e68c08af5079f912e","655213c3ff04c0aac04a97b0","345","
            
        <div style=""text-align: center; position: fixed; top: 5vh; left: 40vw;"">
            <div style=""margin:0 auto; width: 20vw; top: 8vh; font-size: 1vw""> 
            <font color=""green""> Bonus : $1.1 </font>
            </div>
        </div>
    
            <div> Please press any button to continue to the next trial.</div>
        "," ","ITI","","","","",""
"","","","","","html-keyboard-response","206","245393","0.0-6.0-1.30","5b9a2688ca449d0001deca4b","6552129e68c08af5079f912e","655213c3ff04c0aac04a97b0","null","
        
        <div style=""text-align: center; position: fixed; top: 5vh; left: 40vw;"">
            <div style=""margin:0 auto; width: 20vw; top: 8vh; font-size: 1vw""> 
            <font color=""green""> Bonus : $1.1 </font>
            </div>
        </div>
    
        <img class=""stim"" src=./stimuli//pack_1/cat_2/ex_2_29.png></img>
    ","null","stimulus","","","","",""
"","","","","","html-keyboard-response","207","246401","0.0-6.0-2.30","5b9a2688ca449d0001deca4b","6552129e68c08af5079f912e","655213c3ff04c0aac04a97b0","null","
        <div style=""text-align: center; position: fixed; top: 5vh; left: 40vw;"">
            <div style=""margin:0 auto; width: 20vw; top: 8vh; font-size: 1vw""> 
            <font color=""green""> Bonus : $1.1 </font>
            </div>
        </div>
    ","null","","","","","",""
"","","","","","html-keyboard-response","208","246696","0.0-6.0-3.30","5b9a2688ca449d0001deca4b","6552129e68c08af5079f912e","655213c3ff04c0aac04a97b0","295","./stimuli//pack_1/cat_2/ex_2_29.png","arrowright","response","ArrowRight","29","2","true",""
"","","","","","html-keyboard-response","209","247203","0.0-6.0-4.30","5b9a2688ca449d0001deca4b","6552129e68c08af5079f912e","655213c3ff04c0aac04a97b0","506","<p> <font color=""green"" size=""4vw""> Correct category! </font> <br> <br> <font color=""green"" size=""7vw""> + $0.05 </font> </p>"," ","feedback","","","","","1.15"
"","","","","","html-keyboard-response","210","247600","0.0-6.0-0.31","5b9a2688ca449d0001deca4b","6552129e68c08af5079f912e","655213c3ff04c0aac04a97b0","397","
            
        <div style=""text-align: center; position: fixed; top: 5vh; left: 40vw;"">
            <div style=""margin:0 auto; width: 20vw; top: 8vh; font-size: 1vw""> 
            <font color=""green""> Bonus : $1.15 </font>
            </div>
        </div>
    
            <div> Please press any button to continue to the next trial.</div>
        "," ","ITI","","","","",""
"","","","","","html-keyboard-response","211","248213","0.0-6.0-1.31","5b9a2688ca449d0001deca4b","6552129e68c08af5079f912e","655213c3ff04c0aac04a97b0","null","
        
        <div style=""text-align: center; position: fixed; top: 5vh; left: 40vw;"">
            <div style=""margin:0 auto; width: 20vw; top: 8vh; font-size: 1vw""> 
            <font color=""green""> Bonus : $1.15 </font>
            </div>
        </div>
    
        <img class=""stim"" src=./stimuli//pack_1/cat_1/ex_1_73.png></img>
    ","null","stimulus","","","","",""
"","","","","","html-keyboard-response","212","249215","0.0-6.0-2.31","5b9a2688ca449d0001deca4b","6552129e68c08af5079f912e","655213c3ff04c0aac04a97b0","null","
        <div style=""text-align: center; position: fixed; top: 5vh; left: 40vw;"">
            <div style=""margin:0 auto; width: 20vw; top: 8vh; font-size: 1vw""> 
            <font color=""green""> Bonus : $1.15 </font>
            </div>
        </div>
    ","null","","","","","",""
"","","","","","html-keyboard-response","213","250815","0.0-6.0-3.31","5b9a2688ca449d0001deca4b","6552129e68c08af5079f912e","655213c3ff04c0aac04a97b0","1599","./stimuli//pack_1/cat_1/ex_1_73.png","arrowleft","response","ArrowLeft","73","1","true",""
"","","","","","html-keyboard-response","214","251242","0.0-6.0-4.31","5b9a2688ca449d0001deca4b","6552129e68c08af5079f912e","655213c3ff04c0aac04a97b0","427","<p> <font color=""green"" size=""4vw""> Correct category! </font> <br> <br> <font color=""green"" size=""7vw""> + $0.05 </font> </p>"," ","feedback","","","","","1.2"
"","","","","","html-keyboard-response","215","251600","0.0-6.0-0.32","5b9a2688ca449d0001deca4b","6552129e68c08af5079f912e","655213c3ff04c0aac04a97b0","357","
            
        <div style=""text-align: center; position: fixed; top: 5vh; left: 40vw;"">
            <div style=""margin:0 auto; width: 20vw; top: 8vh; font-size: 1vw""> 
            <font color=""green""> Bonus : $1.2 </font>
            </div>
        </div>
    
            <div> Please press any button to continue to the next trial.</div>
        "," ","ITI","","","","",""
"","","","","","html-keyboard-response","216","252202","0.0-6.0-1.32","5b9a2688ca449d0001deca4b","6552129e68c08af5079f912e","655213c3ff04c0aac04a97b0","null","
        
        <div style=""text-align: center; position: fixed; top: 5vh; left: 40vw;"">
            <div style=""margin:0 auto; width: 20vw; top: 8vh; font-size: 1vw""> 
            <font color=""green""> Bonus : $1.2 </font>
            </div>
        </div>
    
        <img class=""stim"" src=./stimuli//pack_1/cat_1/ex_1_50.png></img>
    ","null","stimulus","","","","",""
"","","","","","html-keyboard-response","217","253215","0.0-6.0-2.32","5b9a2688ca449d0001deca4b","6552129e68c08af5079f912e","655213c3ff04c0aac04a97b0","null","
        <div style=""text-align: center; position: fixed; top: 5vh; left: 40vw;"">
            <div style=""margin:0 auto; width: 20vw; top: 8vh; font-size: 1vw""> 
            <font color=""green""> Bonus : $1.2 </font>
            </div>
        </div>
    ","null","","","","","",""
"","","","","","html-keyboard-response","218","254436","0.0-6.0-3.32","5b9a2688ca449d0001deca4b","6552129e68c08af5079f912e","655213c3ff04c0aac04a97b0","1220","./stimuli//pack_1/cat_1/ex_1_50.png","arrowleft","response","ArrowLeft","50","1","true",""
"","","","","","html-keyboard-response","219","254971","0.0-6.0-4.32","5b9a2688ca449d0001deca4b","6552129e68c08af5079f912e","655213c3ff04c0aac04a97b0","535","<p> <font color=""green"" size=""4vw""> Correct category! </font> <br> <br> <font color=""green"" size=""7vw""> + $0.05 </font> </p>"," ","feedback","","","","","1.25"
"","","","","","html-keyboard-response","220","255314","0.0-6.0-0.33","5b9a2688ca449d0001deca4b","6552129e68c08af5079f912e","655213c3ff04c0aac04a97b0","342","
            
        <div style=""text-align: center; position: fixed; top: 5vh; left: 40vw;"">
            <div style=""margin:0 auto; width: 20vw; top: 8vh; font-size: 1vw""> 
            <font color=""green""> Bonus : $1.25 </font>
            </div>
        </div>
    
            <div> Please press any button to continue to the next trial.</div>
        "," ","ITI","","","","",""
"","","","","","html-keyboard-response","221","255927","0.0-6.0-1.33","5b9a2688ca449d0001deca4b","6552129e68c08af5079f912e","655213c3ff04c0aac04a97b0","null","
        
        <div style=""text-align: center; position: fixed; top: 5vh; left: 40vw;"">
            <div style=""margin:0 auto; width: 20vw; top: 8vh; font-size: 1vw""> 
            <font color=""green""> Bonus : $1.25 </font>
            </div>
        </div>
    
        <img class=""stim"" src=./stimuli//pack_1/cat_2/ex_2_56.png></img>
    ","null","stimulus","","","","",""
"","","","","","html-keyboard-response","222","256934","0.0-6.0-2.33","5b9a2688ca449d0001deca4b","6552129e68c08af5079f912e","655213c3ff04c0aac04a97b0","null","
        <div style=""text-align: center; position: fixed; top: 5vh; left: 40vw;"">
            <div style=""margin:0 auto; width: 20vw; top: 8vh; font-size: 1vw""> 
            <font color=""green""> Bonus : $1.25 </font>
            </div>
        </div>
    ","null","","","","","",""
"","","","","","html-keyboard-response","223","257168","0.0-6.0-3.33","5b9a2688ca449d0001deca4b","6552129e68c08af5079f912e","655213c3ff04c0aac04a97b0","233","./stimuli//pack_1/cat_2/ex_2_56.png","arrowright","response","ArrowRight","56","2","true",""
"","","","","","html-keyboard-response","224","257689","0.0-6.0-4.33","5b9a2688ca449d0001deca4b","6552129e68c08af5079f912e","655213c3ff04c0aac04a97b0","519","<p> <font color=""green"" size=""4vw""> Correct category! </font> <br> <br> <font color=""green"" size=""7vw""> + $0.05 </font> </p>"," ","feedback","","","","","1.3"
"","","","","","html-keyboard-response","225","258049","0.0-6.0-0.34","5b9a2688ca449d0001deca4b","6552129e68c08af5079f912e","655213c3ff04c0aac04a97b0","361","
            
        <div style=""text-align: center; position: fixed; top: 5vh; left: 40vw;"">
            <div style=""margin:0 auto; width: 20vw; top: 8vh; font-size: 1vw""> 
            <font color=""green""> Bonus : $1.3 </font>
            </div>
        </div>
    
            <div> Please press any button to continue to the next trial.</div>
        "," ","ITI","","","","",""
"","","","","","html-keyboard-response","226","258654","0.0-6.0-1.34","5b9a2688ca449d0001deca4b","6552129e68c08af5079f912e","655213c3ff04c0aac04a97b0","null","
        
        <div style=""text-align: center; position: fixed; top: 5vh; left: 40vw;"">
            <div style=""margin:0 auto; width: 20vw; top: 8vh; font-size: 1vw""> 
            <font color=""green""> Bonus : $1.3 </font>
            </div>
        </div>
    
        <img class=""stim"" src=./stimuli//pack_1/cat_2/ex_2_60.png></img>
    ","null","stimulus","","","","",""
"","","","","","html-keyboard-response","227","259665","0.0-6.0-2.34","5b9a2688ca449d0001deca4b","6552129e68c08af5079f912e","655213c3ff04c0aac04a97b0","null","
        <div style=""text-align: center; position: fixed; top: 5vh; left: 40vw;"">
            <div style=""margin:0 auto; width: 20vw; top: 8vh; font-size: 1vw""> 
            <font color=""green""> Bonus : $1.3 </font>
            </div>
        </div>
    ","null","","","","","",""
"","","","","","html-keyboard-response","228","259908","0.0-6.0-3.34","5b9a2688ca449d0001deca4b","6552129e68c08af5079f912e","655213c3ff04c0aac04a97b0","241","./stimuli//pack_1/cat_2/ex_2_60.png","arrowleft","response","ArrowRight","60","2","false",""
"","","","","","html-keyboard-response","229","260462","0.0-6.0-4.34","5b9a2688ca449d0001deca4b","6552129e68c08af5079f912e","655213c3ff04c0aac04a97b0","555","<p> <font color=""red"" size=""4vw""> Wrong category! </font> </p>"," ","feedback","","","","","1.3"
"","","","","","html-keyboard-response","230","260777","0.0-6.0-0.35","5b9a2688ca449d0001deca4b","6552129e68c08af5079f912e","655213c3ff04c0aac04a97b0","315","
            
        <div style=""text-align: center; position: fixed; top: 5vh; left: 40vw;"">
            <div style=""margin:0 auto; width: 20vw; top: 8vh; font-size: 1vw""> 
            <font color=""green""> Bonus : $1.3 </font>
            </div>
        </div>
    
            <div> Please press any button to continue to the next trial.</div>
        "," ","ITI","","","","",""
"","","","","","html-keyboard-response","231","261389","0.0-6.0-1.35","5b9a2688ca449d0001deca4b","6552129e68c08af5079f912e","655213c3ff04c0aac04a97b0","null","
        
        <div style=""text-align: center; position: fixed; top: 5vh; left: 40vw;"">
            <div style=""margin:0 auto; width: 20vw; top: 8vh; font-size: 1vw""> 
            <font color=""green""> Bonus : $1.3 </font>
            </div>
        </div>
    
        <img class=""stim"" src=./stimuli//pack_1/cat_2/ex_2_59.png></img>
    ","null","stimulus","","","","",""
"","","","","","html-keyboard-response","232","262391","0.0-6.0-2.35","5b9a2688ca449d0001deca4b","6552129e68c08af5079f912e","655213c3ff04c0aac04a97b0","null","
        <div style=""text-align: center; position: fixed; top: 5vh; left: 40vw;"">
            <div style=""margin:0 auto; width: 20vw; top: 8vh; font-size: 1vw""> 
            <font color=""green""> Bonus : $1.3 </font>
            </div>
        </div>
    ","null","","","","","",""
"","","","","","html-keyboard-response","233","262624","0.0-6.0-3.35","5b9a2688ca449d0001deca4b","6552129e68c08af5079f912e","655213c3ff04c0aac04a97b0","234","./stimuli//pack_1/cat_2/ex_2_59.png","arrowright","response","ArrowRight","59","2","true",""
"","","","","","html-keyboard-response","234","263041","0.0-6.0-4.35","5b9a2688ca449d0001deca4b","6552129e68c08af5079f912e","655213c3ff04c0aac04a97b0","415","<p> <font color=""green"" size=""4vw""> Correct category! </font> <br> <br> <font color=""green"" size=""7vw""> + $0.05 </font> </p>"," ","feedback","","","","","1.35"
"","","","","","html-keyboard-response","235","263364","0.0-6.0-0.36","5b9a2688ca449d0001deca4b","6552129e68c08af5079f912e","655213c3ff04c0aac04a97b0","323","
            
        <div style=""text-align: center; position: fixed; top: 5vh; left: 40vw;"">
            <div style=""margin:0 auto; width: 20vw; top: 8vh; font-size: 1vw""> 
            <font color=""green""> Bonus : $1.35 </font>
            </div>
        </div>
    
            <div> Please press any button to continue to the next trial.</div>
        "," ","ITI","","","","",""
"","","","","","html-keyboard-response","236","263969","0.0-6.0-1.36","5b9a2688ca449d0001deca4b","6552129e68c08af5079f912e","655213c3ff04c0aac04a97b0","null","
        
        <div style=""text-align: center; position: fixed; top: 5vh; left: 40vw;"">
            <div style=""margin:0 auto; width: 20vw; top: 8vh; font-size: 1vw""> 
            <font color=""green""> Bonus : $1.35 </font>
            </div>
        </div>
    
        <img class=""stim"" src=./stimuli//pack_1/cat_1/ex_1_25.png></img>
    ","null","stimulus","","","","",""
"","","","","","html-keyboard-response","237","264974","0.0-6.0-2.36","5b9a2688ca449d0001deca4b","6552129e68c08af5079f912e","655213c3ff04c0aac04a97b0","null","
        <div style=""text-align: center; position: fixed; top: 5vh; left: 40vw;"">
            <div style=""margin:0 auto; width: 20vw; top: 8vh; font-size: 1vw""> 
            <font color=""green""> Bonus : $1.35 </font>
            </div>
        </div>
    ","null","","","","","",""
