"success","timeout","failed_images","failed_audio","failed_video","trial_type","trial_index","time_elapsed","internal_node_id","subject_id","study_id","session_id","rt","stimulus","response","task","correct_response","exemplar_ID","category","correct","bonus"
"true","false","[]","[]","[]","preload","0","2","0.0-0.0","603fcfd294815b1095e13571","6552129e68c08af5079f912e","655212f6e02d5be722369454","","","","","","","","",""
"","","","","","html-keyboard-response","1","6435","0.0-1.0","603fcfd294815b1095e13571","6552129e68c08af5079f912e","655212f6e02d5be722369454","6433","Welcome to the Category Learning experiment! Press any key to continue."," ","welcome","","","","",""
"","","","","","html-keyboard-response","2","9883","0.0-2.0","603fcfd294815b1095e13571","6552129e68c08af5079f912e","655212f6e02d5be722369454","3448","
            <p>You will be shown images of patterns of black dots.  Some are category A, some are category B.
            <br>You will not know in advance which category a specific pattern belongs to.</p>
            <p>After you see an image, you will be asked to guess its category <b>(left arrow for category A, right arrow for category B)</b></p>
            <p>After you choose, the screen will show you whether you were correct or not.</p>
            <p><b>You will receive a bonus payment of $0.05 for each correct answer!</b></p>
            <p> So you can increase your bonus by guessing correctly, and by guessing as quickly as possible so you move on to the next image sooner.</p>
            <p>Press any key to continue.</p>
            "," ","introduction_1","","","","",""
"","","","","","html-keyboard-response","3","11378","0.0-3.0","603fcfd294815b1095e13571","6552129e68c08af5079f912e","655212f6e02d5be722369454","1495","
            <p> <b>The first 10 trials are a practice round that will not count towards your bonus payment.</b></p>
            <p> You will be notified when practice finishes and the test begins. </p>
            <p> Press any key to begin the practice round.</p>
            "," ","introduction_2","","","","",""
"","","","","","html-keyboard-response","4","12370","0.0-4.0-0.0","603fcfd294815b1095e13571","6552129e68c08af5079f912e","655212f6e02d5be722369454","992","
            
        <div style=""text-align: center; position: fixed; top: 5vh; left: 40vw;"">
            <div style=""margin:0 auto; width: 20vw; top: 8vh; font-size: 1vw""> 
            <font color=""green""> Bonus : $0 </font>
            </div>
        </div>
    
            <div> Please press any button to continue to the next trial.</div>
        "," ","ITI","","","","",""
"","","","","","html-keyboard-response","5","12973","0.0-4.0-1.0","603fcfd294815b1095e13571","6552129e68c08af5079f912e","655212f6e02d5be722369454","null","
        
        <div style=""text-align: center; position: fixed; top: 5vh; left: 40vw;"">
            <div style=""margin:0 auto; width: 20vw; top: 8vh; font-size: 1vw""> 
            <font color=""green""> Bonus : $0 </font>
            </div>
        </div>
    
        <img class=""stim"" src=./stimuli//pack_1/cat_2/ex_2_4.png></img>
    ","null","stimulus","","","","",""
"","","","","","html-keyboard-response","6","13979","0.0-4.0-2.0","603fcfd294815b1095e13571","6552129e68c08af5079f912e","655212f6e02d5be722369454","null","
        <div style=""text-align: center; position: fixed; top: 5vh; left: 40vw;"">
            <div style=""margin:0 auto; width: 20vw; top: 8vh; font-size: 1vw""> 
            <font color=""green""> Bonus : $0 </font>
            </div>
        </div>
    ","null","","","","","",""
"","","","","","html-keyboard-response","7","14778","0.0-4.0-3.0","603fcfd294815b1095e13571","6552129e68c08af5079f912e","655212f6e02d5be722369454","799","./stimuli//pack_1/cat_2/ex_2_4.png","arrowleft","response","ArrowRight","4","2","false",""
"","","","","","html-keyboard-response","8","16280","0.0-4.0-4.0","603fcfd294815b1095e13571","6552129e68c08af5079f912e","655212f6e02d5be722369454","null","<p> <font color=""red"" size=""4vw""> Wrong category! </font> </p>","null","feedback","","","","","0"
"","","","","","html-keyboard-response","9","17763","0.0-4.0-0.1","603fcfd294815b1095e13571","6552129e68c08af5079f912e","655212f6e02d5be722369454","1482","
            
        <div style=""text-align: center; position: fixed; top: 5vh; left: 40vw;"">
            <div style=""margin:0 auto; width: 20vw; top: 8vh; font-size: 1vw""> 
            <font color=""green""> Bonus : $0 </font>
            </div>
        </div>
    
            <div> Please press any button to continue to the next trial.</div>
        "," ","ITI","","","","",""
"","","","","","html-keyboard-response","10","18368","0.0-4.0-1.1","603fcfd294815b1095e13571","6552129e68c08af5079f912e","655212f6e02d5be722369454","null","
        
        <div style=""text-align: center; position: fixed; top: 5vh; left: 40vw;"">
            <div style=""margin:0 auto; width: 20vw; top: 8vh; font-size: 1vw""> 
            <font color=""green""> Bonus : $0 </font>
            </div>
        </div>
    
        <img class=""stim"" src=./stimuli//pack_1/cat_1/ex_1_28.png></img>
    ","null","stimulus","","","","",""
"","","","","","html-keyboard-response","11","19375","0.0-4.0-2.1","603fcfd294815b1095e13571","6552129e68c08af5079f912e","655212f6e02d5be722369454","null","
        <div style=""text-align: center; position: fixed; top: 5vh; left: 40vw;"">
            <div style=""margin:0 auto; width: 20vw; top: 8vh; font-size: 1vw""> 
            <font color=""green""> Bonus : $0 </font>
            </div>
        </div>
    ","null","","","","","",""
"","","","","","html-keyboard-response","12","19618","0.0-4.0-3.1","603fcfd294815b1095e13571","6552129e68c08af5079f912e","655212f6e02d5be722369454","242","./stimuli//pack_1/cat_1/ex_1_28.png","arrowleft","response","ArrowLeft","28","1","true",""
"","","","","","html-keyboard-response","13","21134","0.0-4.0-4.1","603fcfd294815b1095e13571","6552129e68c08af5079f912e","655212f6e02d5be722369454","null","<p> <font color=""green"" size=""4vw""> Correct category! </font> </p>","null","feedback","","","","","0"
"","","","","","html-keyboard-response","14","21778","0.0-4.0-0.2","603fcfd294815b1095e13571","6552129e68c08af5079f912e","655212f6e02d5be722369454","644","
            
        <div style=""text-align: center; position: fixed; top: 5vh; left: 40vw;"">
            <div style=""margin:0 auto; width: 20vw; top: 8vh; font-size: 1vw""> 
            <font color=""green""> Bonus : $0 </font>
            </div>
        </div>
    
            <div> Please press any button to continue to the next trial.</div>
        "," ","ITI","","","","",""
"","","","","","html-keyboard-response","15","22393","0.0-4.0-1.2","603fcfd294815b1095e13571","6552129e68c08af5079f912e","655212f6e02d5be722369454","null","
        
        <div style=""text-align: center; position: fixed; top: 5vh; left: 40vw;"">
            <div style=""margin:0 auto; width: 20vw; top: 8vh; font-size: 1vw""> 
            <font color=""green""> Bonus : $0 </font>
            </div>
        </div>
    
        <img class=""stim"" src=./stimuli//pack_1/cat_1/ex_1_77.png></img>
    ","null","stimulus","","","","",""
"","","","","","html-keyboard-response","16","23401","0.0-4.0-2.2","603fcfd294815b1095e13571","6552129e68c08af5079f912e","655212f6e02d5be722369454","null","
        <div style=""text-align: center; position: fixed; top: 5vh; left: 40vw;"">
            <div style=""margin:0 auto; width: 20vw; top: 8vh; font-size: 1vw""> 
            <font color=""green""> Bonus : $0 </font>
            </div>
        </div>
    ","null","","","","","",""
"","","","","","html-keyboard-response","17","23635","0.0-4.0-3.2","603fcfd294815b1095e13571","6552129e68c08af5079f912e","655212f6e02d5be722369454","233","./stimuli//pack_1/cat_1/ex_1_77.png","arrowright","response","ArrowLeft","77","1","false",""
"","","","","","html-keyboard-response","18","25137","0.0-4.0-4.2","603fcfd294815b1095e13571","6552129e68c08af5079f912e","655212f6e02d5be722369454","null","<p> <font color=""red"" size=""4vw""> Wrong category! </font> </p>","null","feedback","","","","","0"
"","","","","","html-keyboard-response","19","25906","0.0-4.0-0.3","603fcfd294815b1095e13571","6552129e68c08af5079f912e","655212f6e02d5be722369454","769","
            
        <div style=""text-align: center; position: fixed; top: 5vh; left: 40vw;"">
            <div style=""margin:0 auto; width: 20vw; top: 8vh; font-size: 1vw""> 
            <font color=""green""> Bonus : $0 </font>
            </div>
        </div>
    
            <div> Please press any button to continue to the next trial.</div>
        "," ","ITI","","","","",""
"","","","","","html-keyboard-response","20","26514","0.0-4.0-1.3","603fcfd294815b1095e13571","6552129e68c08af5079f912e","655212f6e02d5be722369454","null","
        
        <div style=""text-align: center; position: fixed; top: 5vh; left: 40vw;"">
            <div style=""margin:0 auto; width: 20vw; top: 8vh; font-size: 1vw""> 
            <font color=""green""> Bonus : $0 </font>
            </div>
        </div>
    
        <img class=""stim"" src=./stimuli//pack_1/cat_1/ex_1_23.png></img>
    ","null","stimulus","","","","",""
"","","","","","html-keyboard-response","21","27528","0.0-4.0-2.3","603fcfd294815b1095e13571","6552129e68c08af5079f912e","655212f6e02d5be722369454","null","
        <div style=""text-align: center; position: fixed; top: 5vh; left: 40vw;"">
            <div style=""margin:0 auto; width: 20vw; top: 8vh; font-size: 1vw""> 
            <font color=""green""> Bonus : $0 </font>
            </div>
        </div>
    ","null","","","","","",""
"","","","","","html-keyboard-response","22","27610","0.0-4.0-3.3","603fcfd294815b1095e13571","6552129e68c08af5079f912e","655212f6e02d5be722369454","82","./stimuli//pack_1/cat_1/ex_1_23.png","arrowright","response","ArrowLeft","23","1","false",""
"","","","","","html-keyboard-response","23","29116","0.0-4.0-4.3","603fcfd294815b1095e13571","6552129e68c08af5079f912e","655212f6e02d5be722369454","null","<p> <font color=""red"" size=""4vw""> Wrong category! </font> </p>","null","feedback","","","","","0"
"","","","","","html-keyboard-response","24","29882","0.0-4.0-0.4","603fcfd294815b1095e13571","6552129e68c08af5079f912e","655212f6e02d5be722369454","766","
            
        <div style=""text-align: center; position: fixed; top: 5vh; left: 40vw;"">
            <div style=""margin:0 auto; width: 20vw; top: 8vh; font-size: 1vw""> 
            <font color=""green""> Bonus : $0 </font>
            </div>
        </div>
    
            <div> Please press any button to continue to the next trial.</div>
        ","arrowleft","ITI","","","","",""
"","","","","","html-keyboard-response","25","30493","0.0-4.0-1.4","603fcfd294815b1095e13571","6552129e68c08af5079f912e","655212f6e02d5be722369454","null","
        
        <div style=""text-align: center; position: fixed; top: 5vh; left: 40vw;"">
            <div style=""margin:0 auto; width: 20vw; top: 8vh; font-size: 1vw""> 
            <font color=""green""> Bonus : $0 </font>
            </div>
        </div>
    
        <img class=""stim"" src=./stimuli//pack_1/cat_1/ex_1_53.png></img>
    ","null","stimulus","","","","",""
"","","","","","html-keyboard-response","26","31497","0.0-4.0-2.4","603fcfd294815b1095e13571","6552129e68c08af5079f912e","655212f6e02d5be722369454","null","
        <div style=""text-align: center; position: fixed; top: 5vh; left: 40vw;"">
            <div style=""margin:0 auto; width: 20vw; top: 8vh; font-size: 1vw""> 
            <font color=""green""> Bonus : $0 </font>
            </div>
        </div>
    ","null","","","","","",""
"","","","","","html-keyboard-response","27","31546","0.0-4.0-3.4","603fcfd294815b1095e13571","6552129e68c08af5079f912e","655212f6e02d5be722369454","49","./stimuli//pack_1/cat_1/ex_1_53.png","arrowright","response","ArrowLeft","53","1","false",""
"","","","","","html-keyboard-response","28","33053","0.0-4.0-4.4","603fcfd294815b1095e13571","6552129e68c08af5079f912e","655212f6e02d5be722369454","null","<p> <font color=""red"" size=""4vw""> Wrong category! </font> </p>","null","feedback","","","","","0"
"","","","","","html-keyboard-response","29","36754","0.0-4.0-0.5","603fcfd294815b1095e13571","6552129e68c08af5079f912e","655212f6e02d5be722369454","3702","
            
        <div style=""text-align: center; position: fixed; top: 5vh; left: 40vw;"">
            <div style=""margin:0 auto; width: 20vw; top: 8vh; font-size: 1vw""> 
            <font color=""green""> Bonus : $0 </font>
            </div>
        </div>
    
            <div> Please press any button to continue to the next trial.</div>
        "," ","ITI","","","","",""
"","","","","","html-keyboard-response","30","37361","0.0-4.0-1.5","603fcfd294815b1095e13571","6552129e68c08af5079f912e","655212f6e02d5be722369454","null","
        
        <div style=""text-align: center; position: fixed; top: 5vh; left: 40vw;"">
            <div style=""margin:0 auto; width: 20vw; top: 8vh; font-size: 1vw""> 
            <font color=""green""> Bonus : $0 </font>
            </div>
        </div>
    
        <img class=""stim"" src=./stimuli//pack_1/cat_2/ex_2_57.png></img>
    ","null","stimulus","","","","",""
"","","","","","html-keyboard-response","31","38369","0.0-4.0-2.5","603fcfd294815b1095e13571","6552129e68c08af5079f912e","655212f6e02d5be722369454","null","
        <div style=""text-align: center; position: fixed; top: 5vh; left: 40vw;"">
            <div style=""margin:0 auto; width: 20vw; top: 8vh; font-size: 1vw""> 
            <font color=""green""> Bonus : $0 </font>
            </div>
        </div>
    ","null","","","","","",""
"","","","","","html-keyboard-response","32","38770","0.0-4.0-3.5","603fcfd294815b1095e13571","6552129e68c08af5079f912e","655212f6e02d5be722369454","401","./stimuli//pack_1/cat_2/ex_2_57.png","arrowleft","response","ArrowRight","57","2","false",""
"","","","","","html-keyboard-response","33","40277","0.0-4.0-4.5","603fcfd294815b1095e13571","6552129e68c08af5079f912e","655212f6e02d5be722369454","null","<p> <font color=""red"" size=""4vw""> Wrong category! </font> </p>","null","feedback","","","","","0"
"","","","","","html-keyboard-response","34","40667","0.0-4.0-0.6","603fcfd294815b1095e13571","6552129e68c08af5079f912e","655212f6e02d5be722369454","389","
            
        <div style=""text-align: center; position: fixed; top: 5vh; left: 40vw;"">
            <div style=""margin:0 auto; width: 20vw; top: 8vh; font-size: 1vw""> 
            <font color=""green""> Bonus : $0 </font>
            </div>
        </div>
    
            <div> Please press any button to continue to the next trial.</div>
        "," ","ITI","","","","",""
"","","","","","html-keyboard-response","35","41272","0.0-4.0-1.6","603fcfd294815b1095e13571","6552129e68c08af5079f912e","655212f6e02d5be722369454","null","
        
        <div style=""text-align: center; position: fixed; top: 5vh; left: 40vw;"">
            <div style=""margin:0 auto; width: 20vw; top: 8vh; font-size: 1vw""> 
            <font color=""green""> Bonus : $0 </font>
            </div>
        </div>
    
        <img class=""stim"" src=./stimuli//pack_1/cat_1/ex_1_13.png></img>
    ","null","stimulus","","","","",""
"","","","","","html-keyboard-response","36","42274","0.0-4.0-2.6","603fcfd294815b1095e13571","6552129e68c08af5079f912e","655212f6e02d5be722369454","null","
        <div style=""text-align: center; position: fixed; top: 5vh; left: 40vw;"">
            <div style=""margin:0 auto; width: 20vw; top: 8vh; font-size: 1vw""> 
            <font color=""green""> Bonus : $0 </font>
            </div>
        </div>
    ","null","","","","","",""
"","","","","","html-keyboard-response","37","42490","0.0-4.0-3.6","603fcfd294815b1095e13571","6552129e68c08af5079f912e","655212f6e02d5be722369454","216","./stimuli//pack_1/cat_1/ex_1_13.png","arrowright","response","ArrowLeft","13","1","false",""
"","","","","","html-keyboard-response","38","44005","0.0-4.0-4.6","603fcfd294815b1095e13571","6552129e68c08af5079f912e","655212f6e02d5be722369454","null","<p> <font color=""red"" size=""4vw""> Wrong category! </font> </p>","null","feedback","","","","","0"
"","","","","","html-keyboard-response","39","44858","0.0-4.0-0.7","603fcfd294815b1095e13571","6552129e68c08af5079f912e","655212f6e02d5be722369454","853","
            
        <div style=""text-align: center; position: fixed; top: 5vh; left: 40vw;"">
            <div style=""margin:0 auto; width: 20vw; top: 8vh; font-size: 1vw""> 
            <font color=""green""> Bonus : $0 </font>
            </div>
        </div>
    
            <div> Please press any button to continue to the next trial.</div>
        "," ","ITI","","","","",""
"","","","","","html-keyboard-response","40","45460","0.0-4.0-1.7","603fcfd294815b1095e13571","6552129e68c08af5079f912e","655212f6e02d5be722369454","null","
        
        <div style=""text-align: center; position: fixed; top: 5vh; left: 40vw;"">
            <div style=""margin:0 auto; width: 20vw; top: 8vh; font-size: 1vw""> 
            <font color=""green""> Bonus : $0 </font>
            </div>
        </div>
    
        <img class=""stim"" src=./stimuli//pack_1/cat_2/ex_2_69.png></img>
    ","null","stimulus","","","","",""
"","","","","","html-keyboard-response","41","46471","0.0-4.0-2.7","603fcfd294815b1095e13571","6552129e68c08af5079f912e","655212f6e02d5be722369454","null","
        <div style=""text-align: center; position: fixed; top: 5vh; left: 40vw;"">
            <div style=""margin:0 auto; width: 20vw; top: 8vh; font-size: 1vw""> 
            <font color=""green""> Bonus : $0 </font>
            </div>
        </div>
    ","null","","","","","",""
"","","","","","html-keyboard-response","42","46690","0.0-4.0-3.7","603fcfd294815b1095e13571","6552129e68c08af5079f912e","655212f6e02d5be722369454","219","./stimuli//pack_1/cat_2/ex_2_69.png","arrowleft","response","ArrowRight","69","2","false",""
"","","","","","html-keyboard-response","43","48197","0.0-4.0-4.7","603fcfd294815b1095e13571","6552129e68c08af5079f912e","655212f6e02d5be722369454","null","<p> <font color=""red"" size=""4vw""> Wrong category! </font> </p>","null","feedback","","","","","0"
"","","","","","html-keyboard-response","44","48514","0.0-4.0-0.8","603fcfd294815b1095e13571","6552129e68c08af5079f912e","655212f6e02d5be722369454","317","
            
        <div style=""text-align: center; position: fixed; top: 5vh; left: 40vw;"">
            <div style=""margin:0 auto; width: 20vw; top: 8vh; font-size: 1vw""> 
            <font color=""green""> Bonus : $0 </font>
            </div>
        </div>
    
            <div> Please press any button to continue to the next trial.</div>
        "," ","ITI","","","","",""
"","","","","","html-keyboard-response","45","49124","0.0-4.0-1.8","603fcfd294815b1095e13571","6552129e68c08af5079f912e","655212f6e02d5be722369454","null","
        
        <div style=""text-align: center; position: fixed; top: 5vh; left: 40vw;"">
            <div style=""margin:0 auto; width: 20vw; top: 8vh; font-size: 1vw""> 
            <font color=""green""> Bonus : $0 </font>
            </div>
        </div>
    
        <img class=""stim"" src=./stimuli//pack_1/cat_2/ex_2_61.png></img>
    ","null","stimulus","","","","",""
"","","","","","html-keyboard-response","46","50137","0.0-4.0-2.8","603fcfd294815b1095e13571","6552129e68c08af5079f912e","655212f6e02d5be722369454","null","
        <div style=""text-align: center; position: fixed; top: 5vh; left: 40vw;"">
            <div style=""margin:0 auto; width: 20vw; top: 8vh; font-size: 1vw""> 
            <font color=""green""> Bonus : $0 </font>
            </div>
        </div>
    ","null","","","","","",""
"","","","","","html-keyboard-response","47","50186","0.0-4.0-3.8","603fcfd294815b1095e13571","6552129e68c08af5079f912e","655212f6e02d5be722369454","48","./stimuli//pack_1/cat_2/ex_2_61.png","arrowright","response","ArrowRight","61","2","true",""
"","","","","","html-keyboard-response","48","51688","0.0-4.0-4.8","603fcfd294815b1095e13571","6552129e68c08af5079f912e","655212f6e02d5be722369454","null","<p> <font color=""green"" size=""4vw""> Correct category! </font> </p>","null","feedback","","","","","0"
"","","","","","html-keyboard-response","49","52154","0.0-4.0-0.9","603fcfd294815b1095e13571","6552129e68c08af5079f912e","655212f6e02d5be722369454","466","
            
        <div style=""text-align: center; position: fixed; top: 5vh; left: 40vw;"">
            <div style=""margin:0 auto; width: 20vw; top: 8vh; font-size: 1vw""> 
            <font color=""green""> Bonus : $0 </font>
            </div>
        </div>
    
            <div> Please press any button to continue to the next trial.</div>
        "," ","ITI","","","","",""
"","","","","","html-keyboard-response","50","52763","0.0-4.0-1.9","603fcfd294815b1095e13571","6552129e68c08af5079f912e","655212f6e02d5be722369454","null","
        
        <div style=""text-align: center; position: fixed; top: 5vh; left: 40vw;"">
            <div style=""margin:0 auto; width: 20vw; top: 8vh; font-size: 1vw""> 
            <font color=""green""> Bonus : $0 </font>
            </div>
        </div>
    
        <img class=""stim"" src=./stimuli//pack_1/cat_2/ex_2_25.png></img>
    ","null","stimulus","","","","",""
"","","","","","html-keyboard-response","51","53778","0.0-4.0-2.9","603fcfd294815b1095e13571","6552129e68c08af5079f912e","655212f6e02d5be722369454","null","
        <div style=""text-align: center; position: fixed; top: 5vh; left: 40vw;"">
            <div style=""margin:0 auto; width: 20vw; top: 8vh; font-size: 1vw""> 
            <font color=""green""> Bonus : $0 </font>
            </div>
        </div>
    ","null","","","","","",""
"","","","","","html-keyboard-response","52","54034","0.0-4.0-3.9","603fcfd294815b1095e13571","6552129e68c08af5079f912e","655212f6e02d5be722369454","256","./stimuli//pack_1/cat_2/ex_2_25.png","arrowright","response","ArrowRight","25","2","true",""
"","","","","","html-keyboard-response","53","55546","0.0-4.0-4.9","603fcfd294815b1095e13571","6552129e68c08af5079f912e","655212f6e02d5be722369454","null","<p> <font color=""green"" size=""4vw""> Correct category! </font> </p>","null","feedback","","","","","0"
"","","","","","html-keyboard-response","54","59786","0.0-5.0","603fcfd294815b1095e13571","6552129e68c08af5079f912e","655212f6e02d5be722369454","4240","
            <b> <p> The practice round has finished.</p>
            <b> For the rest of the experiment you will receive a $0.05 bonus for each correct answer!</b>
            <p> Press any key to begin the test. </p>
            "," ","intermission","","","","",""
"","","","","","html-keyboard-response","55","60939","0.0-6.0-0.0","603fcfd294815b1095e13571","6552129e68c08af5079f912e","655212f6e02d5be722369454","1152","
            
        <div style=""text-align: center; position: fixed; top: 5vh; left: 40vw;"">
            <div style=""margin:0 auto; width: 20vw; top: 8vh; font-size: 1vw""> 
            <font color=""green""> Bonus : $0 </font>
            </div>
        </div>
    
            <div> Please press any button to continue to the next trial.</div>
        "," ","ITI","","","","",""
"","","","","","html-keyboard-response","56","61541","0.0-6.0-1.0","603fcfd294815b1095e13571","6552129e68c08af5079f912e","655212f6e02d5be722369454","null","
        
        <div style=""text-align: center; position: fixed; top: 5vh; left: 40vw;"">
            <div style=""margin:0 auto; width: 20vw; top: 8vh; font-size: 1vw""> 
            <font color=""green""> Bonus : $0 </font>
            </div>
        </div>
    
        <img class=""stim"" src=./stimuli//pack_1/cat_2/ex_2_12.png></img>
    ","null","stimulus","","","","",""
"","","","","","html-keyboard-response","57","62556","0.0-6.0-2.0","603fcfd294815b1095e13571","6552129e68c08af5079f912e","655212f6e02d5be722369454","null","
        <div style=""text-align: center; position: fixed; top: 5vh; left: 40vw;"">
            <div style=""margin:0 auto; width: 20vw; top: 8vh; font-size: 1vw""> 
            <font color=""green""> Bonus : $0 </font>
            </div>
        </div>
    ","null","","","","","",""
"","","","","","html-keyboard-response","58","62802","0.0-6.0-3.0","603fcfd294815b1095e13571","6552129e68c08af5079f912e","655212f6e02d5be722369454","246","./stimuli//pack_1/cat_2/ex_2_12.png","arrowright","response","ArrowRight","12","2","true",""
"","","","","","html-keyboard-response","59","64304","0.0-6.0-4.0","603fcfd294815b1095e13571","6552129e68c08af5079f912e","655212f6e02d5be722369454","null","<p> <font color=""green"" size=""4vw""> Correct category! </font> <br> <br> <font color=""green"" size=""7vw""> + $0.05 </font> </p>","null","feedback","","","","","0.05"
"","","","","","html-keyboard-response","60","64746","0.0-6.0-0.1","603fcfd294815b1095e13571","6552129e68c08af5079f912e","655212f6e02d5be722369454","442","
            
        <div style=""text-align: center; position: fixed; top: 5vh; left: 40vw;"">
            <div style=""margin:0 auto; width: 20vw; top: 8vh; font-size: 1vw""> 
            <font color=""green""> Bonus : $0.05 </font>
            </div>
        </div>
    
            <div> Please press any button to continue to the next trial.</div>
        "," ","ITI","","","","",""
"","","","","","html-keyboard-response","61","65354","0.0-6.0-1.1","603fcfd294815b1095e13571","6552129e68c08af5079f912e","655212f6e02d5be722369454","null","
        
        <div style=""text-align: center; position: fixed; top: 5vh; left: 40vw;"">
            <div style=""margin:0 auto; width: 20vw; top: 8vh; font-size: 1vw""> 
            <font color=""green""> Bonus : $0.05 </font>
            </div>
        </div>
    
        <img class=""stim"" src=./stimuli//pack_1/cat_1/ex_1_16.png></img>
    ","null","stimulus","","","","",""
"","","","","","html-keyboard-response","62","66365","0.0-6.0-2.1","603fcfd294815b1095e13571","6552129e68c08af5079f912e","655212f6e02d5be722369454","null","
        <div style=""text-align: center; position: fixed; top: 5vh; left: 40vw;"">
            <div style=""margin:0 auto; width: 20vw; top: 8vh; font-size: 1vw""> 
            <font color=""green""> Bonus : $0.05 </font>
            </div>
        </div>
    ","null","","","","","",""
"","","","","","html-keyboard-response","63","66618","0.0-6.0-3.1","603fcfd294815b1095e13571","6552129e68c08af5079f912e","655212f6e02d5be722369454","253","./stimuli//pack_1/cat_1/ex_1_16.png","arrowright","response","ArrowLeft","16","1","false",""
"","","","","","html-keyboard-response","64","68124","0.0-6.0-4.1","603fcfd294815b1095e13571","6552129e68c08af5079f912e","655212f6e02d5be722369454","null","<p> <font color=""red"" size=""4vw""> Wrong category! </font> </p>","null","feedback","","","","","0.05"
"","","","","","html-keyboard-response","65","68618","0.0-6.0-0.2","603fcfd294815b1095e13571","6552129e68c08af5079f912e","655212f6e02d5be722369454","494","
            
        <div style=""text-align: center; position: fixed; top: 5vh; left: 40vw;"">
            <div style=""margin:0 auto; width: 20vw; top: 8vh; font-size: 1vw""> 
            <font color=""green""> Bonus : $0.05 </font>
            </div>
        </div>
    
            <div> Please press any button to continue to the next trial.</div>
        "," ","ITI","","","","",""
"","","","","","html-keyboard-response","66","69221","0.0-6.0-1.2","603fcfd294815b1095e13571","6552129e68c08af5079f912e","655212f6e02d5be722369454","null","
        
        <div style=""text-align: center; position: fixed; top: 5vh; left: 40vw;"">
            <div style=""margin:0 auto; width: 20vw; top: 8vh; font-size: 1vw""> 
            <font color=""green""> Bonus : $0.05 </font>
            </div>
        </div>
    
        <img class=""stim"" src=./stimuli//pack_1/cat_1/ex_1_44.png></img>
    ","null","stimulus","","","","",""
"","","","","","html-keyboard-response","67","70226","0.0-6.0-2.2","603fcfd294815b1095e13571","6552129e68c08af5079f912e","655212f6e02d5be722369454","null","
        <div style=""text-align: center; position: fixed; top: 5vh; left: 40vw;"">
            <div style=""margin:0 auto; width: 20vw; top: 8vh; font-size: 1vw""> 
            <font color=""green""> Bonus : $0.05 </font>
            </div>
        </div>
    ","null","","","","","",""
"","","","","","html-keyboard-response","68","70474","0.0-6.0-3.2","603fcfd294815b1095e13571","6552129e68c08af5079f912e","655212f6e02d5be722369454","249","./stimuli//pack_1/cat_1/ex_1_44.png","arrowleft","response","ArrowLeft","44","1","true",""
"","","","","","html-keyboard-response","69","71981","0.0-6.0-4.2","603fcfd294815b1095e13571","6552129e68c08af5079f912e","655212f6e02d5be722369454","null","<p> <font color=""green"" size=""4vw""> Correct category! </font> <br> <br> <font color=""green"" size=""7vw""> + $0.05 </font> </p>","null","feedback","","","","","0.1"
"","","","","","html-keyboard-response","70","72986","0.0-6.0-0.3","603fcfd294815b1095e13571","6552129e68c08af5079f912e","655212f6e02d5be722369454","1005","
            
        <div style=""text-align: center; position: fixed; top: 5vh; left: 40vw;"">
            <div style=""margin:0 auto; width: 20vw; top: 8vh; font-size: 1vw""> 
            <font color=""green""> Bonus : $0.1 </font>
            </div>
        </div>
    
            <div> Please press any button to continue to the next trial.</div>
        "," ","ITI","","","","",""
"","","","","","html-keyboard-response","71","73594","0.0-6.0-1.3","603fcfd294815b1095e13571","6552129e68c08af5079f912e","655212f6e02d5be722369454","null","
        
        <div style=""text-align: center; position: fixed; top: 5vh; left: 40vw;"">
            <div style=""margin:0 auto; width: 20vw; top: 8vh; font-size: 1vw""> 
            <font color=""green""> Bonus : $0.1 </font>
            </div>
        </div>
    
        <img class=""stim"" src=./stimuli//pack_1/cat_1/ex_1_100.png></img>
    ","null","stimulus","","","","",""
"","","","","","html-keyboard-response","72","74600","0.0-6.0-2.3","603fcfd294815b1095e13571","6552129e68c08af5079f912e","655212f6e02d5be722369454","null","
        <div style=""text-align: center; position: fixed; top: 5vh; left: 40vw;"">
            <div style=""margin:0 auto; width: 20vw; top: 8vh; font-size: 1vw""> 
            <font color=""green""> Bonus : $0.1 </font>
            </div>
        </div>
    ","null","","","","","",""
"","","","","","html-keyboard-response","73","74978","0.0-6.0-3.3","603fcfd294815b1095e13571","6552129e68c08af5079f912e","655212f6e02d5be722369454","378","./stimuli//pack_1/cat_1/ex_1_100.png","arrowright","response","ArrowLeft","100","1","false",""
"","","","","","html-keyboard-response","74","76490","0.0-6.0-4.3","603fcfd294815b1095e13571","6552129e68c08af5079f912e","655212f6e02d5be722369454","null","<p> <font color=""red"" size=""4vw""> Wrong category! </font> </p>","null","feedback","","","","","0.1"
"","","","","","html-keyboard-response","75","77138","0.0-6.0-0.4","603fcfd294815b1095e13571","6552129e68c08af5079f912e","655212f6e02d5be722369454","648","
            
        <div style=""text-align: center; position: fixed; top: 5vh; left: 40vw;"">
            <div style=""margin:0 auto; width: 20vw; top: 8vh; font-size: 1vw""> 
            <font color=""green""> Bonus : $0.1 </font>
            </div>
        </div>
    
            <div> Please press any button to continue to the next trial.</div>
        "," ","ITI","","","","",""
"","","","","","html-keyboard-response","76","77741","0.0-6.0-1.4","603fcfd294815b1095e13571","6552129e68c08af5079f912e","655212f6e02d5be722369454","null","
        
        <div style=""text-align: center; position: fixed; top: 5vh; left: 40vw;"">
            <div style=""margin:0 auto; width: 20vw; top: 8vh; font-size: 1vw""> 
            <font color=""green""> Bonus : $0.1 </font>
            </div>
        </div>
    
        <img class=""stim"" src=./stimuli//pack_1/cat_1/ex_1_36.png></img>
    ","null","stimulus","","","","",""
"","","","","","html-keyboard-response","77","78757","0.0-6.0-2.4","603fcfd294815b1095e13571","6552129e68c08af5079f912e","655212f6e02d5be722369454","null","
        <div style=""text-align: center; position: fixed; top: 5vh; left: 40vw;"">
            <div style=""margin:0 auto; width: 20vw; top: 8vh; font-size: 1vw""> 
            <font color=""green""> Bonus : $0.1 </font>
            </div>
        </div>
    ","null","","","","","",""
"","","","","","html-keyboard-response","78","78994","0.0-6.0-3.4","603fcfd294815b1095e13571","6552129e68c08af5079f912e","655212f6e02d5be722369454","237","./stimuli//pack_1/cat_1/ex_1_36.png","arrowleft","response","ArrowLeft","36","1","true",""
"","","","","","html-keyboard-response","79","80504","0.0-6.0-4.4","603fcfd294815b1095e13571","6552129e68c08af5079f912e","655212f6e02d5be722369454","null","<p> <font color=""green"" size=""4vw""> Correct category! </font> <br> <br> <font color=""green"" size=""7vw""> + $0.05 </font> </p>","null","feedback","","","","","0.15"
"","","","","","html-keyboard-response","80","83034","0.0-6.0-0.5","603fcfd294815b1095e13571","6552129e68c08af5079f912e","655212f6e02d5be722369454","2530","
            
        <div style=""text-align: center; position: fixed; top: 5vh; left: 40vw;"">
            <div style=""margin:0 auto; width: 20vw; top: 8vh; font-size: 1vw""> 
            <font color=""green""> Bonus : $0.15 </font>
            </div>
        </div>
    
            <div> Please press any button to continue to the next trial.</div>
        "," ","ITI","","","","",""
"","","","","","html-keyboard-response","81","83636","0.0-6.0-1.5","603fcfd294815b1095e13571","6552129e68c08af5079f912e","655212f6e02d5be722369454","null","
        
        <div style=""text-align: center; position: fixed; top: 5vh; left: 40vw;"">
            <div style=""margin:0 auto; width: 20vw; top: 8vh; font-size: 1vw""> 
            <font color=""green""> Bonus : $0.15 </font>
            </div>
        </div>
    
        <img class=""stim"" src=./stimuli//pack_1/cat_2/ex_2_47.png></img>
    ","null","stimulus","","","","",""
"","","","","","html-keyboard-response","82","84650","0.0-6.0-2.5","603fcfd294815b1095e13571","6552129e68c08af5079f912e","655212f6e02d5be722369454","null","
        <div style=""text-align: center; position: fixed; top: 5vh; left: 40vw;"">
            <div style=""margin:0 auto; width: 20vw; top: 8vh; font-size: 1vw""> 
            <font color=""green""> Bonus : $0.15 </font>
            </div>
        </div>
    ","null","","","","","",""
"","","","","","html-keyboard-response","83","84850","0.0-6.0-3.5","603fcfd294815b1095e13571","6552129e68c08af5079f912e","655212f6e02d5be722369454","200","./stimuli//pack_1/cat_2/ex_2_47.png","arrowleft","response","ArrowRight","47","2","false",""
"","","","","","html-keyboard-response","84","86356","0.0-6.0-4.5","603fcfd294815b1095e13571","6552129e68c08af5079f912e","655212f6e02d5be722369454","null","<p> <font color=""red"" size=""4vw""> Wrong category! </font> </p>","null","feedback","","","","","0.15"
"","","","","","html-keyboard-response","85","87202","0.0-6.0-0.6","603fcfd294815b1095e13571","6552129e68c08af5079f912e","655212f6e02d5be722369454","846","
            
        <div style=""text-align: center; position: fixed; top: 5vh; left: 40vw;"">
            <div style=""margin:0 auto; width: 20vw; top: 8vh; font-size: 1vw""> 
            <font color=""green""> Bonus : $0.15 </font>
            </div>
        </div>
    
            <div> Please press any button to continue to the next trial.</div>
        "," ","ITI","","","","",""
"","","","","","html-keyboard-response","86","87804","0.0-6.0-1.6","603fcfd294815b1095e13571","6552129e68c08af5079f912e","655212f6e02d5be722369454","null","
        
        <div style=""text-align: center; position: fixed; top: 5vh; left: 40vw;"">
            <div style=""margin:0 auto; width: 20vw; top: 8vh; font-size: 1vw""> 
            <font color=""green""> Bonus : $0.15 </font>
            </div>
        </div>
    
        <img class=""stim"" src=./stimuli//pack_1/cat_2/ex_2_90.png></img>
    ","null","stimulus","","","","",""
"","","","","","html-keyboard-response","87","88817","0.0-6.0-2.6","603fcfd294815b1095e13571","6552129e68c08af5079f912e","655212f6e02d5be722369454","null","
        <div style=""text-align: center; position: fixed; top: 5vh; left: 40vw;"">
            <div style=""margin:0 auto; width: 20vw; top: 8vh; font-size: 1vw""> 
            <font color=""green""> Bonus : $0.15 </font>
            </div>
        </div>
    ","null","","","","","",""
"","","","","","html-keyboard-response","88","89050","0.0-6.0-3.6","603fcfd294815b1095e13571","6552129e68c08af5079f912e","655212f6e02d5be722369454","233","./stimuli//pack_1/cat_2/ex_2_90.png","arrowleft","response","ArrowRight","90","2","false",""
"","","","","","html-keyboard-response","89","90556","0.0-6.0-4.6","603fcfd294815b1095e13571","6552129e68c08af5079f912e","655212f6e02d5be722369454","null","<p> <font color=""red"" size=""4vw""> Wrong category! </font> </p>","null","feedback","","","","","0.15"
"","","","","","html-keyboard-response","90","90954","0.0-6.0-0.7","603fcfd294815b1095e13571","6552129e68c08af5079f912e","655212f6e02d5be722369454","398","
            
        <div style=""text-align: center; position: fixed; top: 5vh; left: 40vw;"">
            <div style=""margin:0 auto; width: 20vw; top: 8vh; font-size: 1vw""> 
            <font color=""green""> Bonus : $0.15 </font>
            </div>
        </div>
    
            <div> Please press any button to continue to the next trial.</div>
        "," ","ITI","","","","",""
"","","","","","html-keyboard-response","91","91568","0.0-6.0-1.7","603fcfd294815b1095e13571","6552129e68c08af5079f912e","655212f6e02d5be722369454","null","
        
        <div style=""text-align: center; position: fixed; top: 5vh; left: 40vw;"">
            <div style=""margin:0 auto; width: 20vw; top: 8vh; font-size: 1vw""> 
            <font color=""green""> Bonus : $0.15 </font>
            </div>
        </div>
    
        <img class=""stim"" src=./stimuli//pack_1/cat_2/ex_2_27.png></img>
    ","null","stimulus","","","","",""
"","","","","","html-keyboard-response","92","92576","0.0-6.0-2.7","603fcfd294815b1095e13571","6552129e68c08af5079f912e","655212f6e02d5be722369454","null","
        <div style=""text-align: center; position: fixed; top: 5vh; left: 40vw;"">
            <div style=""margin:0 auto; width: 20vw; top: 8vh; font-size: 1vw""> 
            <font color=""green""> Bonus : $0.15 </font>
            </div>
        </div>
    ","null","","","","","",""
"","","","","","html-keyboard-response","93","92754","0.0-6.0-3.7","603fcfd294815b1095e13571","6552129e68c08af5079f912e","655212f6e02d5be722369454","178","./stimuli//pack_1/cat_2/ex_2_27.png","arrowright","response","ArrowRight","27","2","true",""
"","","","","","html-keyboard-response","94","94261","0.0-6.0-4.7","603fcfd294815b1095e13571","6552129e68c08af5079f912e","655212f6e02d5be722369454","null","<p> <font color=""green"" size=""4vw""> Correct category! </font> <br> <br> <font color=""green"" size=""7vw""> + $0.05 </font> </p>","null","feedback","","","","","0.2"
"","","","","","html-keyboard-response","95","95147","0.0-6.0-0.8","603fcfd294815b1095e13571","6552129e68c08af5079f912e","655212f6e02d5be722369454","886","
            
        <div style=""text-align: center; position: fixed; top: 5vh; left: 40vw;"">
            <div style=""margin:0 auto; width: 20vw; top: 8vh; font-size: 1vw""> 
            <font color=""green""> Bonus : $0.2 </font>
            </div>
        </div>
    
            <div> Please press any button to continue to the next trial.</div>
        "," ","ITI","","","","",""
"","","","","","html-keyboard-response","96","95756","0.0-6.0-1.8","603fcfd294815b1095e13571","6552129e68c08af5079f912e","655212f6e02d5be722369454","null","
        
        <div style=""text-align: center; position: fixed; top: 5vh; left: 40vw;"">
            <div style=""margin:0 auto; width: 20vw; top: 8vh; font-size: 1vw""> 
            <font color=""green""> Bonus : $0.2 </font>
            </div>
        </div>
    
        <img class=""stim"" src=./stimuli//pack_1/cat_1/ex_1_32.png></img>
    ","null","stimulus","","","","",""
"","","","","","html-keyboard-response","97","96767","0.0-6.0-2.8","603fcfd294815b1095e13571","6552129e68c08af5079f912e","655212f6e02d5be722369454","null","
        <div style=""text-align: center; position: fixed; top: 5vh; left: 40vw;"">
            <div style=""margin:0 auto; width: 20vw; top: 8vh; font-size: 1vw""> 
            <font color=""green""> Bonus : $0.2 </font>
            </div>
        </div>
    ","null","","","","","",""
"","","","","","html-keyboard-response","98","97002","0.0-6.0-3.8","603fcfd294815b1095e13571","6552129e68c08af5079f912e","655212f6e02d5be722369454","235","./stimuli//pack_1/cat_1/ex_1_32.png","arrowleft","response","ArrowLeft","32","1","true",""
"","","","","","html-keyboard-response","99","98519","0.0-6.0-4.8","603fcfd294815b1095e13571","6552129e68c08af5079f912e","655212f6e02d5be722369454","null","<p> <font color=""green"" size=""4vw""> Correct category! </font> <br> <br> <font color=""green"" size=""7vw""> + $0.05 </font> </p>","null","feedback","","","","","0.25"
"","","","","","html-keyboard-response","100","98866","0.0-6.0-0.9","603fcfd294815b1095e13571","6552129e68c08af5079f912e","655212f6e02d5be722369454","347","
            
        <div style=""text-align: center; position: fixed; top: 5vh; left: 40vw;"">
            <div style=""margin:0 auto; width: 20vw; top: 8vh; font-size: 1vw""> 
            <font color=""green""> Bonus : $0.25 </font>
            </div>
        </div>
    
            <div> Please press any button to continue to the next trial.</div>
        "," ","ITI","","","","",""
"","","","","","html-keyboard-response","101","99481","0.0-6.0-1.9","603fcfd294815b1095e13571","6552129e68c08af5079f912e","655212f6e02d5be722369454","null","
        
        <div style=""text-align: center; position: fixed; top: 5vh; left: 40vw;"">
            <div style=""margin:0 auto; width: 20vw; top: 8vh; font-size: 1vw""> 
            <font color=""green""> Bonus : $0.25 </font>
            </div>
        </div>
    
        <img class=""stim"" src=./stimuli//pack_1/cat_2/ex_2_65.png></img>
    ","null","stimulus","","","","",""
"","","","","","html-keyboard-response","102","100489","0.0-6.0-2.9","603fcfd294815b1095e13571","6552129e68c08af5079f912e","655212f6e02d5be722369454","null","
        <div style=""text-align: center; position: fixed; top: 5vh; left: 40vw;"">
            <div style=""margin:0 auto; width: 20vw; top: 8vh; font-size: 1vw""> 
            <font color=""green""> Bonus : $0.25 </font>
            </div>
        </div>
    ","null","","","","","",""
"","","","","","html-keyboard-response","103","100810","0.0-6.0-3.9","603fcfd294815b1095e13571","6552129e68c08af5079f912e","655212f6e02d5be722369454","321","./stimuli//pack_1/cat_2/ex_2_65.png","arrowleft","response","ArrowRight","65","2","false",""
"","","","","","html-keyboard-response","104","102319","0.0-6.0-4.9","603fcfd294815b1095e13571","6552129e68c08af5079f912e","655212f6e02d5be722369454","null","<p> <font color=""red"" size=""4vw""> Wrong category! </font> </p>","null","feedback","","","","","0.25"
"","","","","","html-keyboard-response","105","102578","0.0-6.0-0.10","603fcfd294815b1095e13571","6552129e68c08af5079f912e","655212f6e02d5be722369454","259","
            
        <div style=""text-align: center; position: fixed; top: 5vh; left: 40vw;"">
            <div style=""margin:0 auto; width: 20vw; top: 8vh; font-size: 1vw""> 
            <font color=""green""> Bonus : $0.25 </font>
            </div>
        </div>
    
            <div> Please press any button to continue to the next trial.</div>
        "," ","ITI","","","","",""
"","","","","","html-keyboard-response","106","103191","0.0-6.0-1.10","603fcfd294815b1095e13571","6552129e68c08af5079f912e","655212f6e02d5be722369454","null","
        
        <div style=""text-align: center; position: fixed; top: 5vh; left: 40vw;"">
            <div style=""margin:0 auto; width: 20vw; top: 8vh; font-size: 1vw""> 
            <font color=""green""> Bonus : $0.25 </font>
            </div>
        </div>
    
        <img class=""stim"" src=./stimuli//pack_1/cat_2/ex_2_16.png></img>
    ","null","stimulus","","","","",""
"","","","","","html-keyboard-response","107","104201","0.0-6.0-2.10","603fcfd294815b1095e13571","6552129e68c08af5079f912e","655212f6e02d5be722369454","null","
        <div style=""text-align: center; position: fixed; top: 5vh; left: 40vw;"">
            <div style=""margin:0 auto; width: 20vw; top: 8vh; font-size: 1vw""> 
            <font color=""green""> Bonus : $0.25 </font>
            </div>
        </div>
    ","null","","","","","",""
"","","","","","html-keyboard-response","108","104395","0.0-6.0-3.10","603fcfd294815b1095e13571","6552129e68c08af5079f912e","655212f6e02d5be722369454","193","./stimuli//pack_1/cat_2/ex_2_16.png","arrowright","response","ArrowRight","16","2","true",""
"","","","","","html-keyboard-response","109","105909","0.0-6.0-4.10","603fcfd294815b1095e13571","6552129e68c08af5079f912e","655212f6e02d5be722369454","null","<p> <font color=""green"" size=""4vw""> Correct category! </font> <br> <br> <font color=""green"" size=""7vw""> + $0.05 </font> </p>","null","feedback","","","","","0.3"
"","","","","","html-keyboard-response","110","106402","0.0-6.0-0.11","603fcfd294815b1095e13571","6552129e68c08af5079f912e","655212f6e02d5be722369454","493","
            
        <div style=""text-align: center; position: fixed; top: 5vh; left: 40vw;"">
            <div style=""margin:0 auto; width: 20vw; top: 8vh; font-size: 1vw""> 
            <font color=""green""> Bonus : $0.3 </font>
            </div>
        </div>
    
            <div> Please press any button to continue to the next trial.</div>
        "," ","ITI","","","","",""
"","","","","","html-keyboard-response","111","107010","0.0-6.0-1.11","603fcfd294815b1095e13571","6552129e68c08af5079f912e","655212f6e02d5be722369454","null","
        
        <div style=""text-align: center; position: fixed; top: 5vh; left: 40vw;"">
            <div style=""margin:0 auto; width: 20vw; top: 8vh; font-size: 1vw""> 
            <font color=""green""> Bonus : $0.3 </font>
            </div>
        </div>
    
        <img class=""stim"" src=./stimuli//pack_1/cat_1/ex_1_64.png></img>
    ","null","stimulus","","","","",""
"","","","","","html-keyboard-response","112","108019","0.0-6.0-2.11","603fcfd294815b1095e13571","6552129e68c08af5079f912e","655212f6e02d5be722369454","null","
        <div style=""text-align: center; position: fixed; top: 5vh; left: 40vw;"">
            <div style=""margin:0 auto; width: 20vw; top: 8vh; font-size: 1vw""> 
            <font color=""green""> Bonus : $0.3 </font>
            </div>
        </div>
    ","null","","","","","",""
"","","","","","html-keyboard-response","113","108243","0.0-6.0-3.11","603fcfd294815b1095e13571","6552129e68c08af5079f912e","655212f6e02d5be722369454","223","./stimuli//pack_1/cat_1/ex_1_64.png","arrowleft","response","ArrowLeft","64","1","true",""
"","","","","","html-keyboard-response","114","109756","0.0-6.0-4.11","603fcfd294815b1095e13571","6552129e68c08af5079f912e","655212f6e02d5be722369454","null","<p> <font color=""green"" size=""4vw""> Correct category! </font> <br> <br> <font color=""green"" size=""7vw""> + $0.05 </font> </p>","null","feedback","","","","","0.35"
"","","","","","html-keyboard-response","115","110299","0.0-6.0-0.12","603fcfd294815b1095e13571","6552129e68c08af5079f912e","655212f6e02d5be722369454","542","
            
        <div style=""text-align: center; position: fixed; top: 5vh; left: 40vw;"">
            <div style=""margin:0 auto; width: 20vw; top: 8vh; font-size: 1vw""> 
            <font color=""green""> Bonus : $0.35 </font>
            </div>
        </div>
    
            <div> Please press any button to continue to the next trial.</div>
        "," ","ITI","","","","",""
"","","","","","html-keyboard-response","116","110900","0.0-6.0-1.12","603fcfd294815b1095e13571","6552129e68c08af5079f912e","655212f6e02d5be722369454","null","
        
        <div style=""text-align: center; position: fixed; top: 5vh; left: 40vw;"">
            <div style=""margin:0 auto; width: 20vw; top: 8vh; font-size: 1vw""> 
            <font color=""green""> Bonus : $0.35 </font>
            </div>
        </div>
    
        <img class=""stim"" src=./stimuli//pack_1/cat_1/ex_1_15.png></img>
    ","null","stimulus","","","","",""
"","","","","","html-keyboard-response","117","111907","0.0-6.0-2.12","603fcfd294815b1095e13571","6552129e68c08af5079f912e","655212f6e02d5be722369454","null","
        <div style=""text-align: center; position: fixed; top: 5vh; left: 40vw;"">
            <div style=""margin:0 auto; width: 20vw; top: 8vh; font-size: 1vw""> 
            <font color=""green""> Bonus : $0.35 </font>
            </div>
        </div>
    ","null","","","","","",""
"","","","","","html-keyboard-response","118","112323","0.0-6.0-3.12","603fcfd294815b1095e13571","6552129e68c08af5079f912e","655212f6e02d5be722369454","415","./stimuli//pack_1/cat_1/ex_1_15.png","arrowleft","response","ArrowLeft","15","1","true",""
"","","","","","html-keyboard-response","119","113828","0.0-6.0-4.12","603fcfd294815b1095e13571","6552129e68c08af5079f912e","655212f6e02d5be722369454","null","<p> <font color=""green"" size=""4vw""> Correct category! </font> <br> <br> <font color=""green"" size=""7vw""> + $0.05 </font> </p>","null","feedback","","","","","0.4"
"","","","","","html-keyboard-response","120","114475","0.0-6.0-0.13","603fcfd294815b1095e13571","6552129e68c08af5079f912e","655212f6e02d5be722369454","646","
            
        <div style=""text-align: center; position: fixed; top: 5vh; left: 40vw;"">
            <div style=""margin:0 auto; width: 20vw; top: 8vh; font-size: 1vw""> 
            <font color=""green""> Bonus : $0.4 </font>
            </div>
        </div>
    
            <div> Please press any button to continue to the next trial.</div>
        "," ","ITI","","","","",""
"","","","","","html-keyboard-response","121","115086","0.0-6.0-1.13","603fcfd294815b1095e13571","6552129e68c08af5079f912e","655212f6e02d5be722369454","null","
        
        <div style=""text-align: center; position: fixed; top: 5vh; left: 40vw;"">
            <div style=""margin:0 auto; width: 20vw; top: 8vh; font-size: 1vw""> 
            <font color=""green""> Bonus : $0.4 </font>
            </div>
        </div>
    
        <img class=""stim"" src=./stimuli//pack_1/cat_1/ex_1_12.png></img>
    ","null","stimulus","","","","",""
"","","","","","html-keyboard-response","122","116095","0.0-6.0-2.13","603fcfd294815b1095e13571","6552129e68c08af5079f912e","655212f6e02d5be722369454","null","
        <div style=""text-align: center; position: fixed; top: 5vh; left: 40vw;"">
            <div style=""margin:0 auto; width: 20vw; top: 8vh; font-size: 1vw""> 
            <font color=""green""> Bonus : $0.4 </font>
            </div>
        </div>
    ","null","","","","","",""
"","","","","","html-keyboard-response","123","117803","0.0-6.0-3.13","603fcfd294815b1095e13571","6552129e68c08af5079f912e","655212f6e02d5be722369454","1708","./stimuli//pack_1/cat_1/ex_1_12.png","arrowleft","response","ArrowLeft","12","1","true",""
"","","","","","html-keyboard-response","124","119318","0.0-6.0-4.13","603fcfd294815b1095e13571","6552129e68c08af5079f912e","655212f6e02d5be722369454","null","<p> <font color=""green"" size=""4vw""> Correct category! </font> <br> <br> <font color=""green"" size=""7vw""> + $0.05 </font> </p>","null","feedback","","","","","0.45"
"","","","","","html-keyboard-response","125","119939","0.0-6.0-0.14","603fcfd294815b1095e13571","6552129e68c08af5079f912e","655212f6e02d5be722369454","620","
            
        <div style=""text-align: center; position: fixed; top: 5vh; left: 40vw;"">
            <div style=""margin:0 auto; width: 20vw; top: 8vh; font-size: 1vw""> 
            <font color=""green""> Bonus : $0.45 </font>
            </div>
        </div>
    
            <div> Please press any button to continue to the next trial.</div>
        "," ","ITI","","","","",""
"","","","","","html-keyboard-response","126","120541","0.0-6.0-1.14","603fcfd294815b1095e13571","6552129e68c08af5079f912e","655212f6e02d5be722369454","null","
        
        <div style=""text-align: center; position: fixed; top: 5vh; left: 40vw;"">
            <div style=""margin:0 auto; width: 20vw; top: 8vh; font-size: 1vw""> 
            <font color=""green""> Bonus : $0.45 </font>
            </div>
        </div>
    
        <img class=""stim"" src=./stimuli//pack_1/cat_1/ex_1_24.png></img>
    ","null","stimulus","","","","",""
"","","","","","html-keyboard-response","127","121543","0.0-6.0-2.14","603fcfd294815b1095e13571","6552129e68c08af5079f912e","655212f6e02d5be722369454","null","
        <div style=""text-align: center; position: fixed; top: 5vh; left: 40vw;"">
            <div style=""margin:0 auto; width: 20vw; top: 8vh; font-size: 1vw""> 
            <font color=""green""> Bonus : $0.45 </font>
            </div>
        </div>
    ","null","","","","","",""
"","","","","","html-keyboard-response","128","121739","0.0-6.0-3.14","603fcfd294815b1095e13571","6552129e68c08af5079f912e","655212f6e02d5be722369454","195","./stimuli//pack_1/cat_1/ex_1_24.png","arrowleft","response","ArrowLeft","24","1","true",""
"","","","","","html-keyboard-response","129","123241","0.0-6.0-4.14","603fcfd294815b1095e13571","6552129e68c08af5079f912e","655212f6e02d5be722369454","null","<p> <font color=""green"" size=""4vw""> Correct category! </font> <br> <br> <font color=""green"" size=""7vw""> + $0.05 </font> </p>","null","feedback","","","","","0.5"
"","","","","","html-keyboard-response","130","123515","0.0-6.0-0.15","603fcfd294815b1095e13571","6552129e68c08af5079f912e","655212f6e02d5be722369454","273","
            
        <div style=""text-align: center; position: fixed; top: 5vh; left: 40vw;"">
            <div style=""margin:0 auto; width: 20vw; top: 8vh; font-size: 1vw""> 
            <font color=""green""> Bonus : $0.5 </font>
            </div>
        </div>
    
            <div> Please press any button to continue to the next trial.</div>
        "," ","ITI","","","","",""
"","","","","","html-keyboard-response","131","124123","0.0-6.0-1.15","603fcfd294815b1095e13571","6552129e68c08af5079f912e","655212f6e02d5be722369454","null","
        
        <div style=""text-align: center; position: fixed; top: 5vh; left: 40vw;"">
            <div style=""margin:0 auto; width: 20vw; top: 8vh; font-size: 1vw""> 
            <font color=""green""> Bonus : $0.5 </font>
            </div>
        </div>
    
        <img class=""stim"" src=./stimuli//pack_1/cat_1/ex_1_55.png></img>
    ","null","stimulus","","","","",""
"","","","","","html-keyboard-response","132","125129","0.0-6.0-2.15","603fcfd294815b1095e13571","6552129e68c08af5079f912e","655212f6e02d5be722369454","null","
        <div style=""text-align: center; position: fixed; top: 5vh; left: 40vw;"">
            <div style=""margin:0 auto; width: 20vw; top: 8vh; font-size: 1vw""> 
            <font color=""green""> Bonus : $0.5 </font>
            </div>
        </div>
    ","null","","","","","",""
"","","","","","html-keyboard-response","133","125363","0.0-6.0-3.15","603fcfd294815b1095e13571","6552129e68c08af5079f912e","655212f6e02d5be722369454","234","./stimuli//pack_1/cat_1/ex_1_55.png","arrowright","response","ArrowLeft","55","1","false",""
"","","","","","html-keyboard-response","134","126865","0.0-6.0-4.15","603fcfd294815b1095e13571","6552129e68c08af5079f912e","655212f6e02d5be722369454","null","<p> <font color=""red"" size=""4vw""> Wrong category! </font> </p>","null","feedback","","","","","0.5"
"","","","","","html-keyboard-response","135","127139","0.0-6.0-0.16","603fcfd294815b1095e13571","6552129e68c08af5079f912e","655212f6e02d5be722369454","273","
            
        <div style=""text-align: center; position: fixed; top: 5vh; left: 40vw;"">
            <div style=""margin:0 auto; width: 20vw; top: 8vh; font-size: 1vw""> 
            <font color=""green""> Bonus : $0.5 </font>
            </div>
        </div>
    
            <div> Please press any button to continue to the next trial.</div>
        "," ","ITI","","","","",""
"","","","","","html-keyboard-response","136","127748","0.0-6.0-1.16","603fcfd294815b1095e13571","6552129e68c08af5079f912e","655212f6e02d5be722369454","null","
        
        <div style=""text-align: center; position: fixed; top: 5vh; left: 40vw;"">
            <div style=""margin:0 auto; width: 20vw; top: 8vh; font-size: 1vw""> 
            <font color=""green""> Bonus : $0.5 </font>
            </div>
        </div>
    
        <img class=""stim"" src=./stimuli//pack_1/cat_1/ex_1_56.png></img>
    ","null","stimulus","","","","",""
"","","","","","html-keyboard-response","137","128759","0.0-6.0-2.16","603fcfd294815b1095e13571","6552129e68c08af5079f912e","655212f6e02d5be722369454","null","
        <div style=""text-align: center; position: fixed; top: 5vh; left: 40vw;"">
            <div style=""margin:0 auto; width: 20vw; top: 8vh; font-size: 1vw""> 
            <font color=""green""> Bonus : $0.5 </font>
            </div>
        </div>
    ","null","","","","","",""
"","","","","","html-keyboard-response","138","128971","0.0-6.0-3.16","603fcfd294815b1095e13571","6552129e68c08af5079f912e","655212f6e02d5be722369454","211","./stimuli//pack_1/cat_1/ex_1_56.png","arrowright","response","ArrowLeft","56","1","false",""
"","","","","","html-keyboard-response","139","130480","0.0-6.0-4.16","603fcfd294815b1095e13571","6552129e68c08af5079f912e","655212f6e02d5be722369454","null","<p> <font color=""red"" size=""4vw""> Wrong category! </font> </p>","null","feedback","","","","","0.5"
"","","","","","html-keyboard-response","140","130779","0.0-6.0-0.17","603fcfd294815b1095e13571","6552129e68c08af5079f912e","655212f6e02d5be722369454","298","
            
        <div style=""text-align: center; position: fixed; top: 5vh; left: 40vw;"">
            <div style=""margin:0 auto; width: 20vw; top: 8vh; font-size: 1vw""> 
            <font color=""green""> Bonus : $0.5 </font>
            </div>
        </div>
    
            <div> Please press any button to continue to the next trial.</div>
        "," ","ITI","","","","",""
"","","","","","html-keyboard-response","141","131381","0.0-6.0-1.17","603fcfd294815b1095e13571","6552129e68c08af5079f912e","655212f6e02d5be722369454","null","
        
        <div style=""text-align: center; position: fixed; top: 5vh; left: 40vw;"">
            <div style=""margin:0 auto; width: 20vw; top: 8vh; font-size: 1vw""> 
            <font color=""green""> Bonus : $0.5 </font>
            </div>
        </div>
    
        <img class=""stim"" src=./stimuli//pack_1/cat_1/ex_1_82.png></img>
    ","null","stimulus","","","","",""
"","","","","","html-keyboard-response","142","132392","0.0-6.0-2.17","603fcfd294815b1095e13571","6552129e68c08af5079f912e","655212f6e02d5be722369454","null","
        <div style=""text-align: center; position: fixed; top: 5vh; left: 40vw;"">
            <div style=""margin:0 auto; width: 20vw; top: 8vh; font-size: 1vw""> 
            <font color=""green""> Bonus : $0.5 </font>
            </div>
        </div>
    ","null","","","","","",""
"","","","","","html-keyboard-response","143","132675","0.0-6.0-3.17","603fcfd294815b1095e13571","6552129e68c08af5079f912e","655212f6e02d5be722369454","283","./stimuli//pack_1/cat_1/ex_1_82.png","arrowleft","response","ArrowLeft","82","1","true",""
"","","","","","html-keyboard-response","144","133355","0.0-6.0-4.17","603fcfd294815b1095e13571","6552129e68c08af5079f912e","655212f6e02d5be722369454","680","<p> <font color=""green"" size=""4vw""> Correct category! </font> <br> <br> <font color=""green"" size=""7vw""> + $0.05 </font> </p>"," ","feedback","","","","","0.55"
"","","","","","html-keyboard-response","145","134187","0.0-6.0-0.18","603fcfd294815b1095e13571","6552129e68c08af5079f912e","655212f6e02d5be722369454","832","
            
        <div style=""text-align: center; position: fixed; top: 5vh; left: 40vw;"">
            <div style=""margin:0 auto; width: 20vw; top: 8vh; font-size: 1vw""> 
            <font color=""green""> Bonus : $0.55 </font>
            </div>
        </div>
    
            <div> Please press any button to continue to the next trial.</div>
        "," ","ITI","","","","",""
"","","","","","html-keyboard-response","146","134790","0.0-6.0-1.18","603fcfd294815b1095e13571","6552129e68c08af5079f912e","655212f6e02d5be722369454","null","
        
        <div style=""text-align: center; position: fixed; top: 5vh; left: 40vw;"">
            <div style=""margin:0 auto; width: 20vw; top: 8vh; font-size: 1vw""> 
            <font color=""green""> Bonus : $0.55 </font>
            </div>
        </div>
    
        <img class=""stim"" src=./stimuli//pack_1/cat_2/ex_2_86.png></img>
    ","null","stimulus","","","","",""
"","","","","","html-keyboard-response","147","135801","0.0-6.0-2.18","603fcfd294815b1095e13571","6552129e68c08af5079f912e","655212f6e02d5be722369454","null","
        <div style=""text-align: center; position: fixed; top: 5vh; left: 40vw;"">
            <div style=""margin:0 auto; width: 20vw; top: 8vh; font-size: 1vw""> 
            <font color=""green""> Bonus : $0.55 </font>
            </div>
        </div>
    ","null","","","","","",""
"","","","","","html-keyboard-response","148","136291","0.0-6.0-3.18","603fcfd294815b1095e13571","6552129e68c08af5079f912e","655212f6e02d5be722369454","489","./stimuli//pack_1/cat_2/ex_2_86.png","arrowleft","response","ArrowRight","86","2","false",""
"","","","","","html-keyboard-response","149","137804","0.0-6.0-4.18","603fcfd294815b1095e13571","6552129e68c08af5079f912e","655212f6e02d5be722369454","null","<p> <font color=""red"" size=""4vw""> Wrong category! </font> </p>","null","feedback","","","","","0.55"
"","","","","","html-keyboard-response","150","138131","0.0-6.0-0.19","603fcfd294815b1095e13571","6552129e68c08af5079f912e","655212f6e02d5be722369454","326","
            
        <div style=""text-align: center; position: fixed; top: 5vh; left: 40vw;"">
            <div style=""margin:0 auto; width: 20vw; top: 8vh; font-size: 1vw""> 
            <font color=""green""> Bonus : $0.55 </font>
            </div>
        </div>
    
            <div> Please press any button to continue to the next trial.</div>
        "," ","ITI","","","","",""
"","","","","","html-keyboard-response","151","138734","0.0-6.0-1.19","603fcfd294815b1095e13571","6552129e68c08af5079f912e","655212f6e02d5be722369454","null","
        
        <div style=""text-align: center; position: fixed; top: 5vh; left: 40vw;"">
            <div style=""margin:0 auto; width: 20vw; top: 8vh; font-size: 1vw""> 
            <font color=""green""> Bonus : $0.55 </font>
            </div>
        </div>
    
        <img class=""stim"" src=./stimuli//pack_1/cat_1/ex_1_11.png></img>
    ","null","stimulus","","","","",""
"","","","","","html-keyboard-response","152","139743","0.0-6.0-2.19","603fcfd294815b1095e13571","6552129e68c08af5079f912e","655212f6e02d5be722369454","null","
        <div style=""text-align: center; position: fixed; top: 5vh; left: 40vw;"">
            <div style=""margin:0 auto; width: 20vw; top: 8vh; font-size: 1vw""> 
            <font color=""green""> Bonus : $0.55 </font>
            </div>
        </div>
    ","null","","","","","",""
"","","","","","html-keyboard-response","153","139963","0.0-6.0-3.19","603fcfd294815b1095e13571","6552129e68c08af5079f912e","655212f6e02d5be722369454","219","./stimuli//pack_1/cat_1/ex_1_11.png","arrowleft","response","ArrowLeft","11","1","true",""
"","","","","","html-keyboard-response","154","141476","0.0-6.0-4.19","603fcfd294815b1095e13571","6552129e68c08af5079f912e","655212f6e02d5be722369454","null","<p> <font color=""green"" size=""4vw""> Correct category! </font> <br> <br> <font color=""green"" size=""7vw""> + $0.05 </font> </p>","null","feedback","","","","","0.6"
"","","","","","html-keyboard-response","155","141843","0.0-6.0-0.20","603fcfd294815b1095e13571","6552129e68c08af5079f912e","655212f6e02d5be722369454","366","
            
        <div style=""text-align: center; position: fixed; top: 5vh; left: 40vw;"">
            <div style=""margin:0 auto; width: 20vw; top: 8vh; font-size: 1vw""> 
            <font color=""green""> Bonus : $0.6 </font>
            </div>
        </div>
    
            <div> Please press any button to continue to the next trial.</div>
        "," ","ITI","","","","",""
"","","","","","html-keyboard-response","156","142453","0.0-6.0-1.20","603fcfd294815b1095e13571","6552129e68c08af5079f912e","655212f6e02d5be722369454","null","
        
        <div style=""text-align: center; position: fixed; top: 5vh; left: 40vw;"">
            <div style=""margin:0 auto; width: 20vw; top: 8vh; font-size: 1vw""> 
            <font color=""green""> Bonus : $0.6 </font>
            </div>
        </div>
    
        <img class=""stim"" src=./stimuli//pack_1/cat_2/ex_2_96.png></img>
    ","null","stimulus","","","","",""
"","","","","","html-keyboard-response","157","143462","0.0-6.0-2.20","603fcfd294815b1095e13571","6552129e68c08af5079f912e","655212f6e02d5be722369454","null","
        <div style=""text-align: center; position: fixed; top: 5vh; left: 40vw;"">
            <div style=""margin:0 auto; width: 20vw; top: 8vh; font-size: 1vw""> 
            <font color=""green""> Bonus : $0.6 </font>
            </div>
        </div>
    ","null","","","","","",""
"","","","","","html-keyboard-response","158","143683","0.0-6.0-3.20","603fcfd294815b1095e13571","6552129e68c08af5079f912e","655212f6e02d5be722369454","220","./stimuli//pack_1/cat_2/ex_2_96.png","arrowleft","response","ArrowRight","96","2","false",""
"","","","","","html-keyboard-response","159","145187","0.0-6.0-4.20","603fcfd294815b1095e13571","6552129e68c08af5079f912e","655212f6e02d5be722369454","null","<p> <font color=""red"" size=""4vw""> Wrong category! </font> </p>","null","feedback","","","","","0.6"
"","","","","","html-keyboard-response","160","145427","0.0-6.0-0.21","603fcfd294815b1095e13571","6552129e68c08af5079f912e","655212f6e02d5be722369454","240","
            
        <div style=""text-align: center; position: fixed; top: 5vh; left: 40vw;"">
            <div style=""margin:0 auto; width: 20vw; top: 8vh; font-size: 1vw""> 
            <font color=""green""> Bonus : $0.6 </font>
            </div>
        </div>
    
            <div> Please press any button to continue to the next trial.</div>
        "," ","ITI","","","","",""
"","","","","","html-keyboard-response","161","146030","0.0-6.0-1.21","603fcfd294815b1095e13571","6552129e68c08af5079f912e","655212f6e02d5be722369454","null","
        
        <div style=""text-align: center; position: fixed; top: 5vh; left: 40vw;"">
            <div style=""margin:0 auto; width: 20vw; top: 8vh; font-size: 1vw""> 
            <font color=""green""> Bonus : $0.6 </font>
            </div>
        </div>
    
        <img class=""stim"" src=./stimuli//pack_1/cat_2/ex_2_3.png></img>
    ","null","stimulus","","","","",""
"","","","","","html-keyboard-response","162","147041","0.0-6.0-2.21","603fcfd294815b1095e13571","6552129e68c08af5079f912e","655212f6e02d5be722369454","null","
        <div style=""text-align: center; position: fixed; top: 5vh; left: 40vw;"">
            <div style=""margin:0 auto; width: 20vw; top: 8vh; font-size: 1vw""> 
            <font color=""green""> Bonus : $0.6 </font>
            </div>
        </div>
    ","null","","","","","",""
"","","","","","html-keyboard-response","163","147979","0.0-6.0-3.21","603fcfd294815b1095e13571","6552129e68c08af5079f912e","655212f6e02d5be722369454","938","./stimuli//pack_1/cat_2/ex_2_3.png","arrowleft","response","ArrowRight","3","2","false",""
"","","","","","html-keyboard-response","164","149487","0.0-6.0-4.21","603fcfd294815b1095e13571","6552129e68c08af5079f912e","655212f6e02d5be722369454","null","<p> <font color=""red"" size=""4vw""> Wrong category! </font> </p>","null","feedback","","","","","0.6"
"","","","","","html-keyboard-response","165","149859","0.0-6.0-0.22","603fcfd294815b1095e13571","6552129e68c08af5079f912e","655212f6e02d5be722369454","372","
            
        <div style=""text-align: center; position: fixed; top: 5vh; left: 40vw;"">
            <div style=""margin:0 auto; width: 20vw; top: 8vh; font-size: 1vw""> 
            <font color=""green""> Bonus : $0.6 </font>
            </div>
        </div>
    
            <div> Please press any button to continue to the next trial.</div>
        "," ","ITI","","","","",""
"","","","","","html-keyboard-response","166","150472","0.0-6.0-1.22","603fcfd294815b1095e13571","6552129e68c08af5079f912e","655212f6e02d5be722369454","null","
        
        <div style=""text-align: center; position: fixed; top: 5vh; left: 40vw;"">
            <div style=""margin:0 auto; width: 20vw; top: 8vh; font-size: 1vw""> 
            <font color=""green""> Bonus : $0.6 </font>
            </div>
        </div>
    
        <img class=""stim"" src=./stimuli//pack_1/cat_2/ex_2_15.png></img>
    ","null","stimulus","","","","",""
"","","","","","html-keyboard-response","167","151481","0.0-6.0-2.22","603fcfd294815b1095e13571","6552129e68c08af5079f912e","655212f6e02d5be722369454","null","
        <div style=""text-align: center; position: fixed; top: 5vh; left: 40vw;"">
            <div style=""margin:0 auto; width: 20vw; top: 8vh; font-size: 1vw""> 
            <font color=""green""> Bonus : $0.6 </font>
            </div>
        </div>
    ","null","","","","","",""
"","","","","","html-keyboard-response","168","151707","0.0-6.0-3.22","603fcfd294815b1095e13571","6552129e68c08af5079f912e","655212f6e02d5be722369454","225","./stimuli//pack_1/cat_2/ex_2_15.png","arrowright","response","ArrowRight","15","2","true",""
"","","","","","html-keyboard-response","169","153221","0.0-6.0-4.22","603fcfd294815b1095e13571","6552129e68c08af5079f912e","655212f6e02d5be722369454","null","<p> <font color=""green"" size=""4vw""> Correct category! </font> <br> <br> <font color=""green"" size=""7vw""> + $0.05 </font> </p>","null","feedback","","","","","0.65"
"","","","","","html-keyboard-response","170","153587","0.0-6.0-0.23","603fcfd294815b1095e13571","6552129e68c08af5079f912e","655212f6e02d5be722369454","365","
            
        <div style=""text-align: center; position: fixed; top: 5vh; left: 40vw;"">
            <div style=""margin:0 auto; width: 20vw; top: 8vh; font-size: 1vw""> 
            <font color=""green""> Bonus : $0.65 </font>
            </div>
        </div>
    
            <div> Please press any button to continue to the next trial.</div>
        "," ","ITI","","","","",""
"","","","","","html-keyboard-response","171","154191","0.0-6.0-1.23","603fcfd294815b1095e13571","6552129e68c08af5079f912e","655212f6e02d5be722369454","null","
        
        <div style=""text-align: center; position: fixed; top: 5vh; left: 40vw;"">
            <div style=""margin:0 auto; width: 20vw; top: 8vh; font-size: 1vw""> 
            <font color=""green""> Bonus : $0.65 </font>
            </div>
        </div>
    
        <img class=""stim"" src=./stimuli//pack_1/cat_1/ex_1_61.png></img>
    ","null","stimulus","","","","",""
"","","","","","html-keyboard-response","172","155204","0.0-6.0-2.23","603fcfd294815b1095e13571","6552129e68c08af5079f912e","655212f6e02d5be722369454","null","
        <div style=""text-align: center; position: fixed; top: 5vh; left: 40vw;"">
            <div style=""margin:0 auto; width: 20vw; top: 8vh; font-size: 1vw""> 
            <font color=""green""> Bonus : $0.65 </font>
            </div>
        </div>
    ","null","","","","","",""
"","","","","","html-keyboard-response","173","155410","0.0-6.0-3.23","603fcfd294815b1095e13571","6552129e68c08af5079f912e","655212f6e02d5be722369454","206","./stimuli//pack_1/cat_1/ex_1_61.png","arrowright","response","ArrowLeft","61","1","false",""
"","","","","","html-keyboard-response","174","156915","0.0-6.0-4.23","603fcfd294815b1095e13571","6552129e68c08af5079f912e","655212f6e02d5be722369454","null","<p> <font color=""red"" size=""4vw""> Wrong category! </font> </p>","null","feedback","","","","","0.65"
"","","","","","html-keyboard-response","175","157187","0.0-6.0-0.24","603fcfd294815b1095e13571","6552129e68c08af5079f912e","655212f6e02d5be722369454","271","
            
        <div style=""text-align: center; position: fixed; top: 5vh; left: 40vw;"">
            <div style=""margin:0 auto; width: 20vw; top: 8vh; font-size: 1vw""> 
            <font color=""green""> Bonus : $0.65 </font>
            </div>
        </div>
    
            <div> Please press any button to continue to the next trial.</div>
        "," ","ITI","","","","",""
"","","","","","html-keyboard-response","176","157799","0.0-6.0-1.24","603fcfd294815b1095e13571","6552129e68c08af5079f912e","655212f6e02d5be722369454","null","
        
        <div style=""text-align: center; position: fixed; top: 5vh; left: 40vw;"">
            <div style=""margin:0 auto; width: 20vw; top: 8vh; font-size: 1vw""> 
            <font color=""green""> Bonus : $0.65 </font>
            </div>
        </div>
    
        <img class=""stim"" src=./stimuli//pack_1/cat_1/ex_1_47.png></img>
    ","null","stimulus","","","","",""
"","","","","","html-keyboard-response","177","158804","0.0-6.0-2.24","603fcfd294815b1095e13571","6552129e68c08af5079f912e","655212f6e02d5be722369454","null","
        <div style=""text-align: center; position: fixed; top: 5vh; left: 40vw;"">
            <div style=""margin:0 auto; width: 20vw; top: 8vh; font-size: 1vw""> 
            <font color=""green""> Bonus : $0.65 </font>
            </div>
        </div>
    ","null","","","","","",""
"","","","","","html-keyboard-response","178","159019","0.0-6.0-3.24","603fcfd294815b1095e13571","6552129e68c08af5079f912e","655212f6e02d5be722369454","214","./stimuli//pack_1/cat_1/ex_1_47.png","arrowleft","response","ArrowLeft","47","1","true",""
"","","","","","html-keyboard-response","179","160529","0.0-6.0-4.24","603fcfd294815b1095e13571","6552129e68c08af5079f912e","655212f6e02d5be722369454","null","<p> <font color=""green"" size=""4vw""> Correct category! </font> <br> <br> <font color=""green"" size=""7vw""> + $0.05 </font> </p>","null","feedback","","","","","0.7"
"","","","","","html-keyboard-response","180","160995","0.0-6.0-0.25","603fcfd294815b1095e13571","6552129e68c08af5079f912e","655212f6e02d5be722369454","466","
            
        <div style=""text-align: center; position: fixed; top: 5vh; left: 40vw;"">
            <div style=""margin:0 auto; width: 20vw; top: 8vh; font-size: 1vw""> 
            <font color=""green""> Bonus : $0.7 </font>
            </div>
        </div>
    
            <div> Please press any button to continue to the next trial.</div>
        "," ","ITI","","","","",""
"","","","","","html-keyboard-response","181","161598","0.0-6.0-1.25","603fcfd294815b1095e13571","6552129e68c08af5079f912e","655212f6e02d5be722369454","null","
        
        <div style=""text-align: center; position: fixed; top: 5vh; left: 40vw;"">
            <div style=""margin:0 auto; width: 20vw; top: 8vh; font-size: 1vw""> 
            <font color=""green""> Bonus : $0.7 </font>
            </div>
        </div>
    
        <img class=""stim"" src=./stimuli//pack_1/cat_1/ex_1_8.png></img>
    ","null","stimulus","","","","",""
"","","","","","html-keyboard-response","182","162603","0.0-6.0-2.25","603fcfd294815b1095e13571","6552129e68c08af5079f912e","655212f6e02d5be722369454","null","
        <div style=""text-align: center; position: fixed; top: 5vh; left: 40vw;"">
            <div style=""margin:0 auto; width: 20vw; top: 8vh; font-size: 1vw""> 
            <font color=""green""> Bonus : $0.7 </font>
            </div>
        </div>
    ","null","","","","","",""
"","","","","","html-keyboard-response","183","162611","0.0-6.0-3.25","603fcfd294815b1095e13571","6552129e68c08af5079f912e","655212f6e02d5be722369454","8","./stimuli//pack_1/cat_1/ex_1_8.png","arrowright","response","ArrowLeft","8","1","false",""
"","","","","","html-keyboard-response","184","164117","0.0-6.0-4.25","603fcfd294815b1095e13571","6552129e68c08af5079f912e","655212f6e02d5be722369454","null","<p> <font color=""red"" size=""4vw""> Wrong category! </font> </p>","null","feedback","","","","","0.7"
"","","","","","html-keyboard-response","185","164395","0.0-6.0-0.26","603fcfd294815b1095e13571","6552129e68c08af5079f912e","655212f6e02d5be722369454","277","
            
        <div style=""text-align: center; position: fixed; top: 5vh; left: 40vw;"">
            <div style=""margin:0 auto; width: 20vw; top: 8vh; font-size: 1vw""> 
            <font color=""green""> Bonus : $0.7 </font>
            </div>
        </div>
    
            <div> Please press any button to continue to the next trial.</div>
        "," ","ITI","","","","",""
"","","","","","html-keyboard-response","186","165004","0.0-6.0-1.26","603fcfd294815b1095e13571","6552129e68c08af5079f912e","655212f6e02d5be722369454","null","
        
        <div style=""text-align: center; position: fixed; top: 5vh; left: 40vw;"">
            <div style=""margin:0 auto; width: 20vw; top: 8vh; font-size: 1vw""> 
            <font color=""green""> Bonus : $0.7 </font>
            </div>
        </div>
    
        <img class=""stim"" src=./stimuli//pack_1/cat_1/ex_1_98.png></img>
    ","null","stimulus","","","","",""
"","","","","","html-keyboard-response","187","166014","0.0-6.0-2.26","603fcfd294815b1095e13571","6552129e68c08af5079f912e","655212f6e02d5be722369454","null","
        <div style=""text-align: center; position: fixed; top: 5vh; left: 40vw;"">
            <div style=""margin:0 auto; width: 20vw; top: 8vh; font-size: 1vw""> 
            <font color=""green""> Bonus : $0.7 </font>
            </div>
        </div>
    ","null","","","","","",""
"","","","","","html-keyboard-response","188","166227","0.0-6.0-3.26","603fcfd294815b1095e13571","6552129e68c08af5079f912e","655212f6e02d5be722369454","212","./stimuli//pack_1/cat_1/ex_1_98.png","arrowleft","response","ArrowLeft","98","1","true",""
"","","","","","html-keyboard-response","189","167729","0.0-6.0-4.26","603fcfd294815b1095e13571","6552129e68c08af5079f912e","655212f6e02d5be722369454","null","<p> <font color=""green"" size=""4vw""> Correct category! </font> <br> <br> <font color=""green"" size=""7vw""> + $0.05 </font> </p>","null","feedback","","","","","0.75"
"","","","","","html-keyboard-response","190","168011","0.0-6.0-0.27","603fcfd294815b1095e13571","6552129e68c08af5079f912e","655212f6e02d5be722369454","281","
            
        <div style=""text-align: center; position: fixed; top: 5vh; left: 40vw;"">
            <div style=""margin:0 auto; width: 20vw; top: 8vh; font-size: 1vw""> 
            <font color=""green""> Bonus : $0.75 </font>
            </div>
        </div>
    
            <div> Please press any button to continue to the next trial.</div>
        "," ","ITI","","","","",""
"","","","","","html-keyboard-response","191","168625","0.0-6.0-1.27","603fcfd294815b1095e13571","6552129e68c08af5079f912e","655212f6e02d5be722369454","null","
        
        <div style=""text-align: center; position: fixed; top: 5vh; left: 40vw;"">
            <div style=""margin:0 auto; width: 20vw; top: 8vh; font-size: 1vw""> 
            <font color=""green""> Bonus : $0.75 </font>
            </div>
        </div>
    
        <img class=""stim"" src=./stimuli//pack_1/cat_1/ex_1_71.png></img>
    ","null","stimulus","","","","",""
"","","","","","html-keyboard-response","192","169633","0.0-6.0-2.27","603fcfd294815b1095e13571","6552129e68c08af5079f912e","655212f6e02d5be722369454","null","
        <div style=""text-align: center; position: fixed; top: 5vh; left: 40vw;"">
            <div style=""margin:0 auto; width: 20vw; top: 8vh; font-size: 1vw""> 
            <font color=""green""> Bonus : $0.75 </font>
            </div>
        </div>
    ","null","","","","","",""
"","","","","","html-keyboard-response","193","169858","0.0-6.0-3.27","603fcfd294815b1095e13571","6552129e68c08af5079f912e","655212f6e02d5be722369454","225","./stimuli//pack_1/cat_1/ex_1_71.png","arrowleft","response","ArrowLeft","71","1","true",""
"","","","","","html-keyboard-response","194","171371","0.0-6.0-4.27","603fcfd294815b1095e13571","6552129e68c08af5079f912e","655212f6e02d5be722369454","null","<p> <font color=""green"" size=""4vw""> Correct category! </font> <br> <br> <font color=""green"" size=""7vw""> + $0.05 </font> </p>","null","feedback","","","","","0.8"
"","","","","","html-keyboard-response","195","171642","0.0-6.0-0.28","603fcfd294815b1095e13571","6552129e68c08af5079f912e","655212f6e02d5be722369454","271","
            
        <div style=""text-align: center; position: fixed; top: 5vh; left: 40vw;"">
            <div style=""margin:0 auto; width: 20vw; top: 8vh; font-size: 1vw""> 
            <font color=""green""> Bonus : $0.8 </font>
            </div>
        </div>
    
            <div> Please press any button to continue to the next trial.</div>
        "," ","ITI","","","","",""
"","","","","","html-keyboard-response","196","172254","0.0-6.0-1.28","603fcfd294815b1095e13571","6552129e68c08af5079f912e","655212f6e02d5be722369454","null","
        
        <div style=""text-align: center; position: fixed; top: 5vh; left: 40vw;"">
            <div style=""margin:0 auto; width: 20vw; top: 8vh; font-size: 1vw""> 
            <font color=""green""> Bonus : $0.8 </font>
            </div>
        </div>
    
        <img class=""stim"" src=./stimuli//pack_1/cat_2/ex_2_31.png></img>
    ","null","stimulus","","","","",""
"","","","","","html-keyboard-response","197","173264","0.0-6.0-2.28","603fcfd294815b1095e13571","6552129e68c08af5079f912e","655212f6e02d5be722369454","null","
        <div style=""text-align: center; position: fixed; top: 5vh; left: 40vw;"">
            <div style=""margin:0 auto; width: 20vw; top: 8vh; font-size: 1vw""> 
            <font color=""green""> Bonus : $0.8 </font>
            </div>
        </div>
    ","null","","","","","",""
"","","","","","html-keyboard-response","198","173443","0.0-6.0-3.28","603fcfd294815b1095e13571","6552129e68c08af5079f912e","655212f6e02d5be722369454","179","./stimuli//pack_1/cat_2/ex_2_31.png","arrowright","response","ArrowRight","31","2","true",""
"","","","","","html-keyboard-response","199","174956","0.0-6.0-4.28","603fcfd294815b1095e13571","6552129e68c08af5079f912e","655212f6e02d5be722369454","null","<p> <font color=""green"" size=""4vw""> Correct category! </font> <br> <br> <font color=""green"" size=""7vw""> + $0.05 </font> </p>","null","feedback","","","","","0.85"
"","","","","","html-keyboard-response","200","175402","0.0-6.0-0.29","603fcfd294815b1095e13571","6552129e68c08af5079f912e","655212f6e02d5be722369454","446","
            
        <div style=""text-align: center; position: fixed; top: 5vh; left: 40vw;"">
            <div style=""margin:0 auto; width: 20vw; top: 8vh; font-size: 1vw""> 
            <font color=""green""> Bonus : $0.85 </font>
            </div>
        </div>
    
            <div> Please press any button to continue to the next trial.</div>
        "," ","ITI","","","","",""
"","","","","","html-keyboard-response","201","176010","0.0-6.0-1.29","603fcfd294815b1095e13571","6552129e68c08af5079f912e","655212f6e02d5be722369454","null","
        
        <div style=""text-align: center; position: fixed; top: 5vh; left: 40vw;"">
            <div style=""margin:0 auto; width: 20vw; top: 8vh; font-size: 1vw""> 
            <font color=""green""> Bonus : $0.85 </font>
            </div>
        </div>
    
        <img class=""stim"" src=./stimuli//pack_1/cat_1/ex_1_87.png></img>
    ","null","stimulus","","","","",""
"","","","","","html-keyboard-response","202","177017","0.0-6.0-2.29","603fcfd294815b1095e13571","6552129e68c08af5079f912e","655212f6e02d5be722369454","null","
        <div style=""text-align: center; position: fixed; top: 5vh; left: 40vw;"">
            <div style=""margin:0 auto; width: 20vw; top: 8vh; font-size: 1vw""> 
            <font color=""green""> Bonus : $0.85 </font>
            </div>
        </div>
    ","null","","","","","",""
"","","","","","html-keyboard-response","203","177219","0.0-6.0-3.29","603fcfd294815b1095e13571","6552129e68c08af5079f912e","655212f6e02d5be722369454","201","./stimuli//pack_1/cat_1/ex_1_87.png","arrowleft","response","ArrowLeft","87","1","true",""
"","","","","","html-keyboard-response","204","178724","0.0-6.0-4.29","603fcfd294815b1095e13571","6552129e68c08af5079f912e","655212f6e02d5be722369454","null","<p> <font color=""green"" size=""4vw""> Correct category! </font> <br> <br> <font color=""green"" size=""7vw""> + $0.05 </font> </p>","null","feedback","","","","","0.9"
"","","","","","html-keyboard-response","205","178939","0.0-6.0-0.30","603fcfd294815b1095e13571","6552129e68c08af5079f912e","655212f6e02d5be722369454","214","
            
        <div style=""text-align: center; position: fixed; top: 5vh; left: 40vw;"">
            <div style=""margin:0 auto; width: 20vw; top: 8vh; font-size: 1vw""> 
            <font color=""green""> Bonus : $0.9 </font>
            </div>
        </div>
    
            <div> Please press any button to continue to the next trial.</div>
        "," ","ITI","","","","",""
"","","","","","html-keyboard-response","206","179546","0.0-6.0-1.30","603fcfd294815b1095e13571","6552129e68c08af5079f912e","655212f6e02d5be722369454","null","
        
        <div style=""text-align: center; position: fixed; top: 5vh; left: 40vw;"">
            <div style=""margin:0 auto; width: 20vw; top: 8vh; font-size: 1vw""> 
            <font color=""green""> Bonus : $0.9 </font>
            </div>
        </div>
    
        <img class=""stim"" src=./stimuli//pack_1/cat_2/ex_2_42.png></img>
    ","null","stimulus","","","","",""
"","","","","","html-keyboard-response","207","180552","0.0-6.0-2.30","603fcfd294815b1095e13571","6552129e68c08af5079f912e","655212f6e02d5be722369454","null","
        <div style=""text-align: center; position: fixed; top: 5vh; left: 40vw;"">
            <div style=""margin:0 auto; width: 20vw; top: 8vh; font-size: 1vw""> 
            <font color=""green""> Bonus : $0.9 </font>
            </div>
        </div>
    ","null","","","","","",""
"","","","","","html-keyboard-response","208","180771","0.0-6.0-3.30","603fcfd294815b1095e13571","6552129e68c08af5079f912e","655212f6e02d5be722369454","219","./stimuli//pack_1/cat_2/ex_2_42.png","arrowright","response","ArrowRight","42","2","true",""
"","","","","","html-keyboard-response","209","182276","0.0-6.0-4.30","603fcfd294815b1095e13571","6552129e68c08af5079f912e","655212f6e02d5be722369454","null","<p> <font color=""green"" size=""4vw""> Correct category! </font> <br> <br> <font color=""green"" size=""7vw""> + $0.05 </font> </p>","null","feedback","","","","","0.95"
"","","","","","html-keyboard-response","210","182707","0.0-6.0-0.31","603fcfd294815b1095e13571","6552129e68c08af5079f912e","655212f6e02d5be722369454","430","
            
        <div style=""text-align: center; position: fixed; top: 5vh; left: 40vw;"">
            <div style=""margin:0 auto; width: 20vw; top: 8vh; font-size: 1vw""> 
            <font color=""green""> Bonus : $0.95 </font>
            </div>
        </div>
    
            <div> Please press any button to continue to the next trial.</div>
        "," ","ITI","","","","",""
"","","","","","html-keyboard-response","211","183315","0.0-6.0-1.31","603fcfd294815b1095e13571","6552129e68c08af5079f912e","655212f6e02d5be722369454","null","
        
        <div style=""text-align: center; position: fixed; top: 5vh; left: 40vw;"">
            <div style=""margin:0 auto; width: 20vw; top: 8vh; font-size: 1vw""> 
            <font color=""green""> Bonus : $0.95 </font>
            </div>
        </div>
    
        <img class=""stim"" src=./stimuli//pack_1/cat_1/ex_1_96.png></img>
    ","null","stimulus","","","","",""
"","","","","","html-keyboard-response","212","184325","0.0-6.0-2.31","603fcfd294815b1095e13571","6552129e68c08af5079f912e","655212f6e02d5be722369454","null","
        <div style=""text-align: center; position: fixed; top: 5vh; left: 40vw;"">
            <div style=""margin:0 auto; width: 20vw; top: 8vh; font-size: 1vw""> 
            <font color=""green""> Bonus : $0.95 </font>
            </div>
        </div>
    ","null","","","","","",""
"","","","","","html-keyboard-response","213","184611","0.0-6.0-3.31","603fcfd294815b1095e13571","6552129e68c08af5079f912e","655212f6e02d5be722369454","285","./stimuli//pack_1/cat_1/ex_1_96.png","arrowleft","response","ArrowLeft","96","1","true",""
"","","","","","html-keyboard-response","214","186116","0.0-6.0-4.31","603fcfd294815b1095e13571","6552129e68c08af5079f912e","655212f6e02d5be722369454","null","<p> <font color=""green"" size=""4vw""> Correct category! </font> <br> <br> <font color=""green"" size=""7vw""> + $0.05 </font> </p>","null","feedback","","","","","1"
"","","","","","html-keyboard-response","215","186403","0.0-6.0-0.32","603fcfd294815b1095e13571","6552129e68c08af5079f912e","655212f6e02d5be722369454","286","
            
        <div style=""text-align: center; position: fixed; top: 5vh; left: 40vw;"">
            <div style=""margin:0 auto; width: 20vw; top: 8vh; font-size: 1vw""> 
            <font color=""green""> Bonus : $1 </font>
            </div>
        </div>
    
            <div> Please press any button to continue to the next trial.</div>
        "," ","ITI","","","","",""
"","","","","","html-keyboard-response","216","187014","0.0-6.0-1.32","603fcfd294815b1095e13571","6552129e68c08af5079f912e","655212f6e02d5be722369454","null","
        
        <div style=""text-align: center; position: fixed; top: 5vh; left: 40vw;"">
            <div style=""margin:0 auto; width: 20vw; top: 8vh; font-size: 1vw""> 
            <font color=""green""> Bonus : $1 </font>
            </div>
        </div>
    
        <img class=""stim"" src=./stimuli//pack_1/cat_1/ex_1_31.png></img>
    ","null","stimulus","","","","",""
"","","","","","html-keyboard-response","217","188023","0.0-6.0-2.32","603fcfd294815b1095e13571","6552129e68c08af5079f912e","655212f6e02d5be722369454","null","
        <div style=""text-align: center; position: fixed; top: 5vh; left: 40vw;"">
            <div style=""margin:0 auto; width: 20vw; top: 8vh; font-size: 1vw""> 
            <font color=""green""> Bonus : $1 </font>
            </div>
        </div>
    ","null","","","","","",""
"","","","","","html-keyboard-response","218","188250","0.0-6.0-3.32","603fcfd294815b1095e13571","6552129e68c08af5079f912e","655212f6e02d5be722369454","226","./stimuli//pack_1/cat_1/ex_1_31.png","arrowleft","response","ArrowLeft","31","1","true",""
"","","","","","html-keyboard-response","219","189762","0.0-6.0-4.32","603fcfd294815b1095e13571","6552129e68c08af5079f912e","655212f6e02d5be722369454","null","<p> <font color=""green"" size=""4vw""> Correct category! </font> <br> <br> <font color=""green"" size=""7vw""> + $0.05 </font> </p>","null","feedback","","","","","1.05"
"","","","","","html-keyboard-response","220","190299","0.0-6.0-0.33","603fcfd294815b1095e13571","6552129e68c08af5079f912e","655212f6e02d5be722369454","537","
            
        <div style=""text-align: center; position: fixed; top: 5vh; left: 40vw;"">
            <div style=""margin:0 auto; width: 20vw; top: 8vh; font-size: 1vw""> 
            <font color=""green""> Bonus : $1.05 </font>
            </div>
        </div>
    
            <div> Please press any button to continue to the next trial.</div>
        "," ","ITI","","","","",""
"","","","","","html-keyboard-response","221","190913","0.0-6.0-1.33","603fcfd294815b1095e13571","6552129e68c08af5079f912e","655212f6e02d5be722369454","null","
        
        <div style=""text-align: center; position: fixed; top: 5vh; left: 40vw;"">
            <div style=""margin:0 auto; width: 20vw; top: 8vh; font-size: 1vw""> 
            <font color=""green""> Bonus : $1.05 </font>
            </div>
        </div>
    
        <img class=""stim"" src=./stimuli//pack_1/cat_1/ex_1_18.png></img>
    ","null","stimulus","","","","",""
"","","","","","html-keyboard-response","222","191920","0.0-6.0-2.33","603fcfd294815b1095e13571","6552129e68c08af5079f912e","655212f6e02d5be722369454","null","
        <div style=""text-align: center; position: fixed; top: 5vh; left: 40vw;"">
            <div style=""margin:0 auto; width: 20vw; top: 8vh; font-size: 1vw""> 
            <font color=""green""> Bonus : $1.05 </font>
            </div>
        </div>
    ","null","","","","","",""
"","","","","","html-keyboard-response","223","192266","0.0-6.0-3.33","603fcfd294815b1095e13571","6552129e68c08af5079f912e","655212f6e02d5be722369454","346","./stimuli//pack_1/cat_1/ex_1_18.png","arrowleft","response","ArrowLeft","18","1","true",""
"","","","","","html-keyboard-response","224","193779","0.0-6.0-4.33","603fcfd294815b1095e13571","6552129e68c08af5079f912e","655212f6e02d5be722369454","null","<p> <font color=""green"" size=""4vw""> Correct category! </font> <br> <br> <font color=""green"" size=""7vw""> + $0.05 </font> </p>","null","feedback","","","","","1.1"
"","","","","","html-keyboard-response","225","194043","0.0-6.0-0.34","603fcfd294815b1095e13571","6552129e68c08af5079f912e","655212f6e02d5be722369454","263","
            
        <div style=""text-align: center; position: fixed; top: 5vh; left: 40vw;"">
            <div style=""margin:0 auto; width: 20vw; top: 8vh; font-size: 1vw""> 
            <font color=""green""> Bonus : $1.1 </font>
            </div>
        </div>
    
            <div> Please press any button to continue to the next trial.</div>
        "," ","ITI","","","","",""
"","","","","","html-keyboard-response","226","194649","0.0-6.0-1.34","603fcfd294815b1095e13571","6552129e68c08af5079f912e","655212f6e02d5be722369454","null","
        
        <div style=""text-align: center; position: fixed; top: 5vh; left: 40vw;"">
            <div style=""margin:0 auto; width: 20vw; top: 8vh; font-size: 1vw""> 
            <font color=""green""> Bonus : $1.1 </font>
            </div>
        </div>
    
        <img class=""stim"" src=./stimuli//pack_1/cat_2/ex_2_19.png></img>
    ","null","stimulus","","","","",""
"","","","","","html-keyboard-response","227","195657","0.0-6.0-2.34","603fcfd294815b1095e13571","6552129e68c08af5079f912e","655212f6e02d5be722369454","null","
        <div style=""text-align: center; position: fixed; top: 5vh; left: 40vw;"">
            <div style=""margin:0 auto; width: 20vw; top: 8vh; font-size: 1vw""> 
            <font color=""green""> Bonus : $1.1 </font>
            </div>
        </div>
    ","null","","","","","",""
"","","","","","html-keyboard-response","228","195899","0.0-6.0-3.34","603fcfd294815b1095e13571","6552129e68c08af5079f912e","655212f6e02d5be722369454","241","./stimuli//pack_1/cat_2/ex_2_19.png","arrowright","response","ArrowRight","19","2","true",""
"","","","","","html-keyboard-response","229","197414","0.0-6.0-4.34","603fcfd294815b1095e13571","6552129e68c08af5079f912e","655212f6e02d5be722369454","null","<p> <font color=""green"" size=""4vw""> Correct category! </font> <br> <br> <font color=""green"" size=""7vw""> + $0.05 </font> </p>","null","feedback","","","","","1.15"
"","","","","","html-keyboard-response","230","197779","0.0-6.0-0.35","603fcfd294815b1095e13571","6552129e68c08af5079f912e","655212f6e02d5be722369454","364","
            
        <div style=""text-align: center; position: fixed; top: 5vh; left: 40vw;"">
            <div style=""margin:0 auto; width: 20vw; top: 8vh; font-size: 1vw""> 
            <font color=""green""> Bonus : $1.15 </font>
            </div>
        </div>
    
            <div> Please press any button to continue to the next trial.</div>
        "," ","ITI","","","","",""
"","","","","","html-keyboard-response","231","198391","0.0-6.0-1.35","603fcfd294815b1095e13571","6552129e68c08af5079f912e","655212f6e02d5be722369454","null","
        
        <div style=""text-align: center; position: fixed; top: 5vh; left: 40vw;"">
            <div style=""margin:0 auto; width: 20vw; top: 8vh; font-size: 1vw""> 
            <font color=""green""> Bonus : $1.15 </font>
            </div>
        </div>
    
        <img class=""stim"" src=./stimuli//pack_1/cat_1/ex_1_92.png></img>
    ","null","stimulus","","","","",""
"","","","","","html-keyboard-response","232","199395","0.0-6.0-2.35","603fcfd294815b1095e13571","6552129e68c08af5079f912e","655212f6e02d5be722369454","null","
        <div style=""text-align: center; position: fixed; top: 5vh; left: 40vw;"">
            <div style=""margin:0 auto; width: 20vw; top: 8vh; font-size: 1vw""> 
            <font color=""green""> Bonus : $1.15 </font>
            </div>
        </div>
    ","null","","","","","",""
"","","","","","html-keyboard-response","233","199586","0.0-6.0-3.35","603fcfd294815b1095e13571","6552129e68c08af5079f912e","655212f6e02d5be722369454","192","./stimuli//pack_1/cat_1/ex_1_92.png","arrowleft","response","ArrowLeft","92","1","true",""
"","","","","","html-keyboard-response","234","201096","0.0-6.0-4.35","603fcfd294815b1095e13571","6552129e68c08af5079f912e","655212f6e02d5be722369454","null","<p> <font color=""green"" size=""4vw""> Correct category! </font> <br> <br> <font color=""green"" size=""7vw""> + $0.05 </font> </p>","null","feedback","","","","","1.2"
"","","","","","html-keyboard-response","235","201459","0.0-6.0-0.36","603fcfd294815b1095e13571","6552129e68c08af5079f912e","655212f6e02d5be722369454","362","
            
        <div style=""text-align: center; position: fixed; top: 5vh; left: 40vw;"">
            <div style=""margin:0 auto; width: 20vw; top: 8vh; font-size: 1vw""> 
            <font color=""green""> Bonus : $1.2 </font>
            </div>
        </div>
    
            <div> Please press any button to continue to the next trial.</div>
        "," ","ITI","","","","",""
"","","","","","html-keyboard-response","236","202060","0.0-6.0-1.36","603fcfd294815b1095e13571","6552129e68c08af5079f912e","655212f6e02d5be722369454","null","
        
        <div style=""text-align: center; position: fixed; top: 5vh; left: 40vw;"">
            <div style=""margin:0 auto; width: 20vw; top: 8vh; font-size: 1vw""> 
            <font color=""green""> Bonus : $1.2 </font>
            </div>
        </div>
    
        <img class=""stim"" src=./stimuli//pack_1/cat_1/ex_1_38.png></img>
    ","null","stimulus","","","","",""
"","","","","","html-keyboard-response","237","203066","0.0-6.0-2.36","603fcfd294815b1095e13571","6552129e68c08af5079f912e","655212f6e02d5be722369454","null","
        <div style=""text-align: center; position: fixed; top: 5vh; left: 40vw;"">
            <div style=""margin:0 auto; width: 20vw; top: 8vh; font-size: 1vw""> 
            <font color=""green""> Bonus : $1.2 </font>
            </div>
        </div>
    ","null","","","","","",""
"","","","","","html-keyboard-response","238","203298","0.0-6.0-3.36","603fcfd294815b1095e13571","6552129e68c08af5079f912e","655212f6e02d5be722369454","232","./stimuli//pack_1/cat_1/ex_1_38.png","arrowleft","response","ArrowLeft","38","1","true",""
