"success","timeout","failed_images","failed_audio","failed_video","trial_type","trial_index","time_elapsed","internal_node_id","subject_id","study_id","session_id","rt","stimulus","response","task","correct_response","exemplar_ID","category","correct","bonus"
"true","false","[]","[]","[]","preload","0","3","0.0-0.0","60db74fcb5f4526ce90594a1","6552129e68c08af5079f912e","6552135d5a8449b4991db9d2","","","","","","","","",""
"","","","","","html-keyboard-response","1","137372","0.0-1.0","60db74fcb5f4526ce90594a1","6552129e68c08af5079f912e","6552135d5a8449b4991db9d2","137370","Welcome to the Category Learning experiment! Press any key to continue."," ","welcome","","","","",""
"","","","","","html-keyboard-response","2","165632","0.0-2.0","60db74fcb5f4526ce90594a1","6552129e68c08af5079f912e","6552135d5a8449b4991db9d2","28257","
            <p>You will be shown images of patterns of black dots.  Some are category A, some are category B.
            <br>You will not know in advance which category a specific pattern belongs to.</p>
            <p>After you see an image, you will be asked to guess its category <b>(left arrow for category A, right arrow for category B)</b></p>
            <p>After you choose, the screen will show you whether you were correct or not.</p>
            <p><b>You will receive a bonus payment of $0.05 for each correct answer!</b></p>
            <p> So you can increase your bonus by guessing correctly, and by guessing as quickly as possible so you move on to the next image sooner.</p>
            <p>Press any key to continue.</p>
            "," ","introduction_1","","","","",""
"","","","","","html-keyboard-response","3","171928","0.0-3.0","60db74fcb5f4526ce90594a1","6552129e68c08af5079f912e","6552135d5a8449b4991db9d2","6295","
            <p> <b>The first 10 trials are a practice round that will not count towards your bonus payment.</b></p>
            <p> You will be notified when practice finishes and the test begins. </p>
            <p> Press any key to begin the practice round.</p>
            "," ","introduction_2","","","","",""
"","","","","","html-keyboard-response","4","174158","0.0-4.0-0.0","60db74fcb5f4526ce90594a1","6552129e68c08af5079f912e","6552135d5a8449b4991db9d2","2228","
            
        <div style=""text-align: center; position: fixed; top: 5vh; left: 40vw;"">
            <div style=""margin:0 auto; width: 20vw; top: 8vh; font-size: 1vw""> 
            <font color=""green""> Bonus : $0 </font>
            </div>
        </div>
    
            <div> Please press any button to continue to the next trial.</div>
        "," ","ITI","","","","",""
"","","","","","html-keyboard-response","5","174766","0.0-4.0-1.0","60db74fcb5f4526ce90594a1","6552129e68c08af5079f912e","6552135d5a8449b4991db9d2","null","
        
        <div style=""text-align: center; position: fixed; top: 5vh; left: 40vw;"">
            <div style=""margin:0 auto; width: 20vw; top: 8vh; font-size: 1vw""> 
            <font color=""green""> Bonus : $0 </font>
            </div>
        </div>
    
        <img class=""stim"" src=./stimuli//pack_1/cat_2/ex_2_77.png></img>
    ","null","stimulus","","","","",""
"","","","","","html-keyboard-response","6","175771","0.0-4.0-2.0","60db74fcb5f4526ce90594a1","6552129e68c08af5079f912e","6552135d5a8449b4991db9d2","null","
        <div style=""text-align: center; position: fixed; top: 5vh; left: 40vw;"">
            <div style=""margin:0 auto; width: 20vw; top: 8vh; font-size: 1vw""> 
            <font color=""green""> Bonus : $0 </font>
            </div>
        </div>
    ","null","","","","","",""
"","","","","","html-keyboard-response","7","176667","0.0-4.0-3.0","60db74fcb5f4526ce90594a1","6552129e68c08af5079f912e","6552135d5a8449b4991db9d2","893","./stimuli//pack_1/cat_2/ex_2_77.png","arrowleft","response","ArrowRight","77","2","false",""
"","","","","","html-keyboard-response","8","178172","0.0-4.0-4.0","60db74fcb5f4526ce90594a1","6552129e68c08af5079f912e","6552135d5a8449b4991db9d2","null","<p> <font color=""red"" size=""4vw""> Wrong category! </font> </p>","null","feedback","","","","","0"
"","","","","","html-keyboard-response","9","181626","0.0-4.0-0.1","60db74fcb5f4526ce90594a1","6552129e68c08af5079f912e","6552135d5a8449b4991db9d2","3453","
            
        <div style=""text-align: center; position: fixed; top: 5vh; left: 40vw;"">
            <div style=""margin:0 auto; width: 20vw; top: 8vh; font-size: 1vw""> 
            <font color=""green""> Bonus : $0 </font>
            </div>
        </div>
    
            <div> Please press any button to continue to the next trial.</div>
        "," ","ITI","","","","",""
"","","","","","html-keyboard-response","10","182233","0.0-4.0-1.1","60db74fcb5f4526ce90594a1","6552129e68c08af5079f912e","6552135d5a8449b4991db9d2","null","
        
        <div style=""text-align: center; position: fixed; top: 5vh; left: 40vw;"">
            <div style=""margin:0 auto; width: 20vw; top: 8vh; font-size: 1vw""> 
            <font color=""green""> Bonus : $0 </font>
            </div>
        </div>
    
        <img class=""stim"" src=./stimuli//pack_1/cat_1/ex_1_87.png></img>
    ","null","stimulus","","","","",""
"","","","","","html-keyboard-response","11","183235","0.0-4.0-2.1","60db74fcb5f4526ce90594a1","6552129e68c08af5079f912e","6552135d5a8449b4991db9d2","null","
        <div style=""text-align: center; position: fixed; top: 5vh; left: 40vw;"">
            <div style=""margin:0 auto; width: 20vw; top: 8vh; font-size: 1vw""> 
            <font color=""green""> Bonus : $0 </font>
            </div>
        </div>
    ","null","","","","","",""
"","","","","","html-keyboard-response","12","183461","0.0-4.0-3.1","60db74fcb5f4526ce90594a1","6552129e68c08af5079f912e","6552135d5a8449b4991db9d2","223","./stimuli//pack_1/cat_1/ex_1_87.png","arrowleft","response","ArrowLeft","87","1","true",""
"","","","","","html-keyboard-response","13","184974","0.0-4.0-4.1","60db74fcb5f4526ce90594a1","6552129e68c08af5079f912e","6552135d5a8449b4991db9d2","null","<p> <font color=""green"" size=""4vw""> Correct category! </font> </p>","null","feedback","","","","","0"
"","","","","","html-keyboard-response","14","186093","0.0-4.0-0.2","60db74fcb5f4526ce90594a1","6552129e68c08af5079f912e","6552135d5a8449b4991db9d2","1118","
            
        <div style=""text-align: center; position: fixed; top: 5vh; left: 40vw;"">
            <div style=""margin:0 auto; width: 20vw; top: 8vh; font-size: 1vw""> 
            <font color=""green""> Bonus : $0 </font>
            </div>
        </div>
    
            <div> Please press any button to continue to the next trial.</div>
        "," ","ITI","","","","",""
"","","","","","html-keyboard-response","15","186697","0.0-4.0-1.2","60db74fcb5f4526ce90594a1","6552129e68c08af5079f912e","6552135d5a8449b4991db9d2","null","
        
        <div style=""text-align: center; position: fixed; top: 5vh; left: 40vw;"">
            <div style=""margin:0 auto; width: 20vw; top: 8vh; font-size: 1vw""> 
            <font color=""green""> Bonus : $0 </font>
            </div>
        </div>
    
        <img class=""stim"" src=./stimuli//pack_1/cat_2/ex_2_89.png></img>
    ","null","stimulus","","","","",""
"","","","","","html-keyboard-response","16","187703","0.0-4.0-2.2","60db74fcb5f4526ce90594a1","6552129e68c08af5079f912e","6552135d5a8449b4991db9d2","null","
        <div style=""text-align: center; position: fixed; top: 5vh; left: 40vw;"">
            <div style=""margin:0 auto; width: 20vw; top: 8vh; font-size: 1vw""> 
            <font color=""green""> Bonus : $0 </font>
            </div>
        </div>
    ","null","","","","","",""
"","","","","","html-keyboard-response","17","187961","0.0-4.0-3.2","60db74fcb5f4526ce90594a1","6552129e68c08af5079f912e","6552135d5a8449b4991db9d2","256","./stimuli//pack_1/cat_2/ex_2_89.png","arrowleft","response","ArrowRight","89","2","false",""
"","","","","","html-keyboard-response","18","189472","0.0-4.0-4.2","60db74fcb5f4526ce90594a1","6552129e68c08af5079f912e","6552135d5a8449b4991db9d2","null","<p> <font color=""red"" size=""4vw""> Wrong category! </font> </p>","null","feedback","","","","","0"
"","","","","","html-keyboard-response","19","190457","0.0-4.0-0.3","60db74fcb5f4526ce90594a1","6552129e68c08af5079f912e","6552135d5a8449b4991db9d2","984","
            
        <div style=""text-align: center; position: fixed; top: 5vh; left: 40vw;"">
            <div style=""margin:0 auto; width: 20vw; top: 8vh; font-size: 1vw""> 
            <font color=""green""> Bonus : $0 </font>
            </div>
        </div>
    
            <div> Please press any button to continue to the next trial.</div>
        "," ","ITI","","","","",""
"","","","","","html-keyboard-response","20","191072","0.0-4.0-1.3","60db74fcb5f4526ce90594a1","6552129e68c08af5079f912e","6552135d5a8449b4991db9d2","null","
        
        <div style=""text-align: center; position: fixed; top: 5vh; left: 40vw;"">
            <div style=""margin:0 auto; width: 20vw; top: 8vh; font-size: 1vw""> 
            <font color=""green""> Bonus : $0 </font>
            </div>
        </div>
    
        <img class=""stim"" src=./stimuli//pack_1/cat_2/ex_2_10.png></img>
    ","null","stimulus","","","","",""
"","","","","","html-keyboard-response","21","192091","0.0-4.0-2.3","60db74fcb5f4526ce90594a1","6552129e68c08af5079f912e","6552135d5a8449b4991db9d2","null","
        <div style=""text-align: center; position: fixed; top: 5vh; left: 40vw;"">
            <div style=""margin:0 auto; width: 20vw; top: 8vh; font-size: 1vw""> 
            <font color=""green""> Bonus : $0 </font>
            </div>
        </div>
    ","null","","","","","",""
"","","","","","html-keyboard-response","22","192428","0.0-4.0-3.3","60db74fcb5f4526ce90594a1","6552129e68c08af5079f912e","6552135d5a8449b4991db9d2","334","./stimuli//pack_1/cat_2/ex_2_10.png","arrowright","response","ArrowRight","10","2","true",""
"","","","","","html-keyboard-response","23","193943","0.0-4.0-4.3","60db74fcb5f4526ce90594a1","6552129e68c08af5079f912e","6552135d5a8449b4991db9d2","null","<p> <font color=""green"" size=""4vw""> Correct category! </font> </p>","null","feedback","","","","","0"
"","","","","","html-keyboard-response","24","195014","0.0-4.0-0.4","60db74fcb5f4526ce90594a1","6552129e68c08af5079f912e","6552135d5a8449b4991db9d2","1070","
            
        <div style=""text-align: center; position: fixed; top: 5vh; left: 40vw;"">
            <div style=""margin:0 auto; width: 20vw; top: 8vh; font-size: 1vw""> 
            <font color=""green""> Bonus : $0 </font>
            </div>
        </div>
    
            <div> Please press any button to continue to the next trial.</div>
        "," ","ITI","","","","",""
"","","","","","html-keyboard-response","25","195629","0.0-4.0-1.4","60db74fcb5f4526ce90594a1","6552129e68c08af5079f912e","6552135d5a8449b4991db9d2","null","
        
        <div style=""text-align: center; position: fixed; top: 5vh; left: 40vw;"">
            <div style=""margin:0 auto; width: 20vw; top: 8vh; font-size: 1vw""> 
            <font color=""green""> Bonus : $0 </font>
            </div>
        </div>
    
        <img class=""stim"" src=./stimuli//pack_1/cat_2/ex_2_67.png></img>
    ","null","stimulus","","","","",""
"","","","","","html-keyboard-response","26","196639","0.0-4.0-2.4","60db74fcb5f4526ce90594a1","6552129e68c08af5079f912e","6552135d5a8449b4991db9d2","null","
        <div style=""text-align: center; position: fixed; top: 5vh; left: 40vw;"">
            <div style=""margin:0 auto; width: 20vw; top: 8vh; font-size: 1vw""> 
            <font color=""green""> Bonus : $0 </font>
            </div>
        </div>
    ","null","","","","","",""
"","","","","","html-keyboard-response","27","196769","0.0-4.0-3.4","60db74fcb5f4526ce90594a1","6552129e68c08af5079f912e","6552135d5a8449b4991db9d2","127","./stimuli//pack_1/cat_2/ex_2_67.png","arrowright","response","ArrowRight","67","2","true",""
"","","","","","html-keyboard-response","28","198285","0.0-4.0-4.4","60db74fcb5f4526ce90594a1","6552129e68c08af5079f912e","6552135d5a8449b4991db9d2","null","<p> <font color=""green"" size=""4vw""> Correct category! </font> </p>","null","feedback","","","","","0"
"","","","","","html-keyboard-response","29","199539","0.0-4.0-0.5","60db74fcb5f4526ce90594a1","6552129e68c08af5079f912e","6552135d5a8449b4991db9d2","1251","
            
        <div style=""text-align: center; position: fixed; top: 5vh; left: 40vw;"">
            <div style=""margin:0 auto; width: 20vw; top: 8vh; font-size: 1vw""> 
            <font color=""green""> Bonus : $0 </font>
            </div>
        </div>
    
            <div> Please press any button to continue to the next trial.</div>
        "," ","ITI","","","","",""
"","","","","","html-keyboard-response","30","200149","0.0-4.0-1.5","60db74fcb5f4526ce90594a1","6552129e68c08af5079f912e","6552135d5a8449b4991db9d2","null","
        
        <div style=""text-align: center; position: fixed; top: 5vh; left: 40vw;"">
            <div style=""margin:0 auto; width: 20vw; top: 8vh; font-size: 1vw""> 
            <font color=""green""> Bonus : $0 </font>
            </div>
        </div>
    
        <img class=""stim"" src=./stimuli//pack_1/cat_1/ex_1_22.png></img>
    ","null","stimulus","","","","",""
"","","","","","html-keyboard-response","31","201154","0.0-4.0-2.5","60db74fcb5f4526ce90594a1","6552129e68c08af5079f912e","6552135d5a8449b4991db9d2","null","
        <div style=""text-align: center; position: fixed; top: 5vh; left: 40vw;"">
            <div style=""margin:0 auto; width: 20vw; top: 8vh; font-size: 1vw""> 
            <font color=""green""> Bonus : $0 </font>
            </div>
        </div>
    ","null","","","","","",""
"","","","","","html-keyboard-response","32","201364","0.0-4.0-3.5","60db74fcb5f4526ce90594a1","6552129e68c08af5079f912e","6552135d5a8449b4991db9d2","208","./stimuli//pack_1/cat_1/ex_1_22.png","arrowright","response","ArrowLeft","22","1","false",""
"","","","","","html-keyboard-response","33","202878","0.0-4.0-4.5","60db74fcb5f4526ce90594a1","6552129e68c08af5079f912e","6552135d5a8449b4991db9d2","null","<p> <font color=""red"" size=""4vw""> Wrong category! </font> </p>","null","feedback","","","","","0"
"","","","","","html-keyboard-response","34","203927","0.0-4.0-0.6","60db74fcb5f4526ce90594a1","6552129e68c08af5079f912e","6552135d5a8449b4991db9d2","1048","
            
        <div style=""text-align: center; position: fixed; top: 5vh; left: 40vw;"">
            <div style=""margin:0 auto; width: 20vw; top: 8vh; font-size: 1vw""> 
            <font color=""green""> Bonus : $0 </font>
            </div>
        </div>
    
            <div> Please press any button to continue to the next trial.</div>
        "," ","ITI","","","","",""
"","","","","","html-keyboard-response","35","204543","0.0-4.0-1.6","60db74fcb5f4526ce90594a1","6552129e68c08af5079f912e","6552135d5a8449b4991db9d2","null","
        
        <div style=""text-align: center; position: fixed; top: 5vh; left: 40vw;"">
            <div style=""margin:0 auto; width: 20vw; top: 8vh; font-size: 1vw""> 
            <font color=""green""> Bonus : $0 </font>
            </div>
        </div>
    
        <img class=""stim"" src=./stimuli//pack_1/cat_1/ex_1_100.png></img>
    ","null","stimulus","","","","",""
"","","","","","html-keyboard-response","36","205559","0.0-4.0-2.6","60db74fcb5f4526ce90594a1","6552129e68c08af5079f912e","6552135d5a8449b4991db9d2","null","
        <div style=""text-align: center; position: fixed; top: 5vh; left: 40vw;"">
            <div style=""margin:0 auto; width: 20vw; top: 8vh; font-size: 1vw""> 
            <font color=""green""> Bonus : $0 </font>
            </div>
        </div>
    ","null","","","","","",""
"","","","","","html-keyboard-response","37","205777","0.0-4.0-3.6","60db74fcb5f4526ce90594a1","6552129e68c08af5079f912e","6552135d5a8449b4991db9d2","215","./stimuli//pack_1/cat_1/ex_1_100.png","arrowright","response","ArrowLeft","100","1","false",""
"","","","","","html-keyboard-response","38","207284","0.0-4.0-4.6","60db74fcb5f4526ce90594a1","6552129e68c08af5079f912e","6552135d5a8449b4991db9d2","null","<p> <font color=""red"" size=""4vw""> Wrong category! </font> </p>","null","feedback","","","","","0"
"","","","","","html-keyboard-response","39","208204","0.0-4.0-0.7","60db74fcb5f4526ce90594a1","6552129e68c08af5079f912e","6552135d5a8449b4991db9d2","918","
            
        <div style=""text-align: center; position: fixed; top: 5vh; left: 40vw;"">
            <div style=""margin:0 auto; width: 20vw; top: 8vh; font-size: 1vw""> 
            <font color=""green""> Bonus : $0 </font>
            </div>
        </div>
    
            <div> Please press any button to continue to the next trial.</div>
        "," ","ITI","","","","",""
"","","","","","html-keyboard-response","40","208809","0.0-4.0-1.7","60db74fcb5f4526ce90594a1","6552129e68c08af5079f912e","6552135d5a8449b4991db9d2","null","
        
        <div style=""text-align: center; position: fixed; top: 5vh; left: 40vw;"">
            <div style=""margin:0 auto; width: 20vw; top: 8vh; font-size: 1vw""> 
            <font color=""green""> Bonus : $0 </font>
            </div>
        </div>
    
        <img class=""stim"" src=./stimuli//pack_1/cat_1/ex_1_12.png></img>
    ","null","stimulus","","","","",""
"","","","","","html-keyboard-response","41","209823","0.0-4.0-2.7","60db74fcb5f4526ce90594a1","6552129e68c08af5079f912e","6552135d5a8449b4991db9d2","null","
        <div style=""text-align: center; position: fixed; top: 5vh; left: 40vw;"">
            <div style=""margin:0 auto; width: 20vw; top: 8vh; font-size: 1vw""> 
            <font color=""green""> Bonus : $0 </font>
            </div>
        </div>
    ","null","","","","","",""
"","","","","","html-keyboard-response","42","210306","0.0-4.0-3.7","60db74fcb5f4526ce90594a1","6552129e68c08af5079f912e","6552135d5a8449b4991db9d2","480","./stimuli//pack_1/cat_1/ex_1_12.png","arrowleft","response","ArrowLeft","12","1","true",""
"","","","","","html-keyboard-response","43","211814","0.0-4.0-4.7","60db74fcb5f4526ce90594a1","6552129e68c08af5079f912e","6552135d5a8449b4991db9d2","null","<p> <font color=""green"" size=""4vw""> Correct category! </font> </p>","null","feedback","","","","","0"
"","","","","","html-keyboard-response","44","212803","0.0-4.0-0.8","60db74fcb5f4526ce90594a1","6552129e68c08af5079f912e","6552135d5a8449b4991db9d2","987","
            
        <div style=""text-align: center; position: fixed; top: 5vh; left: 40vw;"">
            <div style=""margin:0 auto; width: 20vw; top: 8vh; font-size: 1vw""> 
            <font color=""green""> Bonus : $0 </font>
            </div>
        </div>
    
            <div> Please press any button to continue to the next trial.</div>
        "," ","ITI","","","","",""
"","","","","","html-keyboard-response","45","213414","0.0-4.0-1.8","60db74fcb5f4526ce90594a1","6552129e68c08af5079f912e","6552135d5a8449b4991db9d2","null","
        
        <div style=""text-align: center; position: fixed; top: 5vh; left: 40vw;"">
            <div style=""margin:0 auto; width: 20vw; top: 8vh; font-size: 1vw""> 
            <font color=""green""> Bonus : $0 </font>
            </div>
        </div>
    
        <img class=""stim"" src=./stimuli//pack_1/cat_1/ex_1_64.png></img>
    ","null","stimulus","","","","",""
"","","","","","html-keyboard-response","46","214417","0.0-4.0-2.8","60db74fcb5f4526ce90594a1","6552129e68c08af5079f912e","6552135d5a8449b4991db9d2","null","
        <div style=""text-align: center; position: fixed; top: 5vh; left: 40vw;"">
            <div style=""margin:0 auto; width: 20vw; top: 8vh; font-size: 1vw""> 
            <font color=""green""> Bonus : $0 </font>
            </div>
        </div>
    ","null","","","","","",""
"","","","","","html-keyboard-response","47","214694","0.0-4.0-3.8","60db74fcb5f4526ce90594a1","6552129e68c08af5079f912e","6552135d5a8449b4991db9d2","274","./stimuli//pack_1/cat_1/ex_1_64.png","arrowleft","response","ArrowLeft","64","1","true",""
"","","","","","html-keyboard-response","48","216205","0.0-4.0-4.8","60db74fcb5f4526ce90594a1","6552129e68c08af5079f912e","6552135d5a8449b4991db9d2","null","<p> <font color=""green"" size=""4vw""> Correct category! </font> </p>","null","feedback","","","","","0"
"","","","","","html-keyboard-response","49","217001","0.0-4.0-0.9","60db74fcb5f4526ce90594a1","6552129e68c08af5079f912e","6552135d5a8449b4991db9d2","794","
            
        <div style=""text-align: center; position: fixed; top: 5vh; left: 40vw;"">
            <div style=""margin:0 auto; width: 20vw; top: 8vh; font-size: 1vw""> 
            <font color=""green""> Bonus : $0 </font>
            </div>
        </div>
    
            <div> Please press any button to continue to the next trial.</div>
        "," ","ITI","","","","",""
"","","","","","html-keyboard-response","50","217614","0.0-4.0-1.9","60db74fcb5f4526ce90594a1","6552129e68c08af5079f912e","6552135d5a8449b4991db9d2","null","
        
        <div style=""text-align: center; position: fixed; top: 5vh; left: 40vw;"">
            <div style=""margin:0 auto; width: 20vw; top: 8vh; font-size: 1vw""> 
            <font color=""green""> Bonus : $0 </font>
            </div>
        </div>
    
        <img class=""stim"" src=./stimuli//pack_1/cat_2/ex_2_20.png></img>
    ","null","stimulus","","","","",""
"","","","","","html-keyboard-response","51","218619","0.0-4.0-2.9","60db74fcb5f4526ce90594a1","6552129e68c08af5079f912e","6552135d5a8449b4991db9d2","null","
        <div style=""text-align: center; position: fixed; top: 5vh; left: 40vw;"">
            <div style=""margin:0 auto; width: 20vw; top: 8vh; font-size: 1vw""> 
            <font color=""green""> Bonus : $0 </font>
            </div>
        </div>
    ","null","","","","","",""
"","","","","","html-keyboard-response","52","218868","0.0-4.0-3.9","60db74fcb5f4526ce90594a1","6552129e68c08af5079f912e","6552135d5a8449b4991db9d2","246","./stimuli//pack_1/cat_2/ex_2_20.png","arrowleft","response","ArrowRight","20","2","false",""
"","","","","","html-keyboard-response","53","220375","0.0-4.0-4.9","60db74fcb5f4526ce90594a1","6552129e68c08af5079f912e","6552135d5a8449b4991db9d2","null","<p> <font color=""red"" size=""4vw""> Wrong category! </font> </p>","null","feedback","","","","","0"
"","","","","","html-keyboard-response","54","255173","0.0-5.0","60db74fcb5f4526ce90594a1","6552129e68c08af5079f912e","6552135d5a8449b4991db9d2","34798","
            <b> <p> The practice round has finished.</p>
            <b> For the rest of the experiment you will receive a $0.05 bonus for each correct answer!</b>
            <p> Press any key to begin the test. </p>
            "," ","intermission","","","","",""
"","","","","","html-keyboard-response","55","257355","0.0-6.0-0.0","60db74fcb5f4526ce90594a1","6552129e68c08af5079f912e","6552135d5a8449b4991db9d2","2180","
            
        <div style=""text-align: center; position: fixed; top: 5vh; left: 40vw;"">
            <div style=""margin:0 auto; width: 20vw; top: 8vh; font-size: 1vw""> 
            <font color=""green""> Bonus : $0 </font>
            </div>
        </div>
    
            <div> Please press any button to continue to the next trial.</div>
        "," ","ITI","","","","",""
"","","","","","html-keyboard-response","56","257969","0.0-6.0-1.0","60db74fcb5f4526ce90594a1","6552129e68c08af5079f912e","6552135d5a8449b4991db9d2","null","
        
        <div style=""text-align: center; position: fixed; top: 5vh; left: 40vw;"">
            <div style=""margin:0 auto; width: 20vw; top: 8vh; font-size: 1vw""> 
            <font color=""green""> Bonus : $0 </font>
            </div>
        </div>
    
        <img class=""stim"" src=./stimuli//pack_1/cat_1/ex_1_51.png></img>
    ","null","stimulus","","","","",""
"","","","","","html-keyboard-response","57","258975","0.0-6.0-2.0","60db74fcb5f4526ce90594a1","6552129e68c08af5079f912e","6552135d5a8449b4991db9d2","null","
        <div style=""text-align: center; position: fixed; top: 5vh; left: 40vw;"">
            <div style=""margin:0 auto; width: 20vw; top: 8vh; font-size: 1vw""> 
            <font color=""green""> Bonus : $0 </font>
            </div>
        </div>
    ","null","","","","","",""
"","","","","","html-keyboard-response","58","259182","0.0-6.0-3.0","60db74fcb5f4526ce90594a1","6552129e68c08af5079f912e","6552135d5a8449b4991db9d2","205","./stimuli//pack_1/cat_1/ex_1_51.png","arrowleft","response","ArrowLeft","51","1","true",""
"","","","","","html-keyboard-response","59","260696","0.0-6.0-4.0","60db74fcb5f4526ce90594a1","6552129e68c08af5079f912e","6552135d5a8449b4991db9d2","null","<p> <font color=""green"" size=""4vw""> Correct category! </font> <br> <br> <font color=""green"" size=""7vw""> + $0.05 </font> </p>","null","feedback","","","","","0.05"
"","","","","","html-keyboard-response","60","261639","0.0-6.0-0.1","60db74fcb5f4526ce90594a1","6552129e68c08af5079f912e","6552135d5a8449b4991db9d2","941","
            
        <div style=""text-align: center; position: fixed; top: 5vh; left: 40vw;"">
            <div style=""margin:0 auto; width: 20vw; top: 8vh; font-size: 1vw""> 
            <font color=""green""> Bonus : $0.05 </font>
            </div>
        </div>
    
            <div> Please press any button to continue to the next trial.</div>
        "," ","ITI","","","","",""
"","","","","","html-keyboard-response","61","262249","0.0-6.0-1.1","60db74fcb5f4526ce90594a1","6552129e68c08af5079f912e","6552135d5a8449b4991db9d2","null","
        
        <div style=""text-align: center; position: fixed; top: 5vh; left: 40vw;"">
            <div style=""margin:0 auto; width: 20vw; top: 8vh; font-size: 1vw""> 
            <font color=""green""> Bonus : $0.05 </font>
            </div>
        </div>
    
        <img class=""stim"" src=./stimuli//pack_1/cat_2/ex_2_87.png></img>
    ","null","stimulus","","","","",""
"","","","","","html-keyboard-response","62","263251","0.0-6.0-2.1","60db74fcb5f4526ce90594a1","6552129e68c08af5079f912e","6552135d5a8449b4991db9d2","null","
        <div style=""text-align: center; position: fixed; top: 5vh; left: 40vw;"">
            <div style=""margin:0 auto; width: 20vw; top: 8vh; font-size: 1vw""> 
            <font color=""green""> Bonus : $0.05 </font>
            </div>
        </div>
    ","null","","","","","",""
"","","","","","html-keyboard-response","63","264378","0.0-6.0-3.1","60db74fcb5f4526ce90594a1","6552129e68c08af5079f912e","6552135d5a8449b4991db9d2","1124","./stimuli//pack_1/cat_2/ex_2_87.png","arrowleft","response","ArrowRight","87","2","false",""
"","","","","","html-keyboard-response","64","265886","0.0-6.0-4.1","60db74fcb5f4526ce90594a1","6552129e68c08af5079f912e","6552135d5a8449b4991db9d2","null","<p> <font color=""red"" size=""4vw""> Wrong category! </font> </p>","null","feedback","","","","","0.05"
"","","","","","html-keyboard-response","65","266909","0.0-6.0-0.2","60db74fcb5f4526ce90594a1","6552129e68c08af5079f912e","6552135d5a8449b4991db9d2","1021","
            
        <div style=""text-align: center; position: fixed; top: 5vh; left: 40vw;"">
            <div style=""margin:0 auto; width: 20vw; top: 8vh; font-size: 1vw""> 
            <font color=""green""> Bonus : $0.05 </font>
            </div>
        </div>
    
            <div> Please press any button to continue to the next trial.</div>
        "," ","ITI","","","","",""
"","","","","","html-keyboard-response","66","267516","0.0-6.0-1.2","60db74fcb5f4526ce90594a1","6552129e68c08af5079f912e","6552135d5a8449b4991db9d2","null","
        
        <div style=""text-align: center; position: fixed; top: 5vh; left: 40vw;"">
            <div style=""margin:0 auto; width: 20vw; top: 8vh; font-size: 1vw""> 
            <font color=""green""> Bonus : $0.05 </font>
            </div>
        </div>
    
        <img class=""stim"" src=./stimuli//pack_1/cat_2/ex_2_59.png></img>
    ","null","stimulus","","","","",""
"","","","","","html-keyboard-response","67","268519","0.0-6.0-2.2","60db74fcb5f4526ce90594a1","6552129e68c08af5079f912e","6552135d5a8449b4991db9d2","null","
        <div style=""text-align: center; position: fixed; top: 5vh; left: 40vw;"">
            <div style=""margin:0 auto; width: 20vw; top: 8vh; font-size: 1vw""> 
            <font color=""green""> Bonus : $0.05 </font>
            </div>
        </div>
    ","null","","","","","",""
"","","","","","html-keyboard-response","68","268726","0.0-6.0-3.2","60db74fcb5f4526ce90594a1","6552129e68c08af5079f912e","6552135d5a8449b4991db9d2","206","./stimuli//pack_1/cat_2/ex_2_59.png","arrowleft","response","ArrowRight","59","2","false",""
"","","","","","html-keyboard-response","69","270228","0.0-6.0-4.2","60db74fcb5f4526ce90594a1","6552129e68c08af5079f912e","6552135d5a8449b4991db9d2","null","<p> <font color=""red"" size=""4vw""> Wrong category! </font> </p>","null","feedback","","","","","0.05"
"","","","","","html-keyboard-response","70","270912","0.0-6.0-0.3","60db74fcb5f4526ce90594a1","6552129e68c08af5079f912e","6552135d5a8449b4991db9d2","683","
            
        <div style=""text-align: center; position: fixed; top: 5vh; left: 40vw;"">
            <div style=""margin:0 auto; width: 20vw; top: 8vh; font-size: 1vw""> 
            <font color=""green""> Bonus : $0.05 </font>
            </div>
        </div>
    
            <div> Please press any button to continue to the next trial.</div>
        "," ","ITI","","","","",""
"","","","","","html-keyboard-response","71","271527","0.0-6.0-1.3","60db74fcb5f4526ce90594a1","6552129e68c08af5079f912e","6552135d5a8449b4991db9d2","null","
        
        <div style=""text-align: center; position: fixed; top: 5vh; left: 40vw;"">
            <div style=""margin:0 auto; width: 20vw; top: 8vh; font-size: 1vw""> 
            <font color=""green""> Bonus : $0.05 </font>
            </div>
        </div>
    
        <img class=""stim"" src=./stimuli//pack_1/cat_1/ex_1_29.png></img>
    ","null","stimulus","","","","",""
"","","","","","html-keyboard-response","72","272529","0.0-6.0-2.3","60db74fcb5f4526ce90594a1","6552129e68c08af5079f912e","6552135d5a8449b4991db9d2","null","
        <div style=""text-align: center; position: fixed; top: 5vh; left: 40vw;"">
            <div style=""margin:0 auto; width: 20vw; top: 8vh; font-size: 1vw""> 
            <font color=""green""> Bonus : $0.05 </font>
            </div>
        </div>
    ","null","","","","","",""
"","","","","","html-keyboard-response","73","272981","0.0-6.0-3.3","60db74fcb5f4526ce90594a1","6552129e68c08af5079f912e","6552135d5a8449b4991db9d2","451","./stimuli//pack_1/cat_1/ex_1_29.png","arrowright","response","ArrowLeft","29","1","false",""
"","","","","","html-keyboard-response","74","274485","0.0-6.0-4.3","60db74fcb5f4526ce90594a1","6552129e68c08af5079f912e","6552135d5a8449b4991db9d2","null","<p> <font color=""red"" size=""4vw""> Wrong category! </font> </p>","null","feedback","","","","","0.05"
"","","","","","html-keyboard-response","75","275027","0.0-6.0-0.4","60db74fcb5f4526ce90594a1","6552129e68c08af5079f912e","6552135d5a8449b4991db9d2","541","
            
        <div style=""text-align: center; position: fixed; top: 5vh; left: 40vw;"">
            <div style=""margin:0 auto; width: 20vw; top: 8vh; font-size: 1vw""> 
            <font color=""green""> Bonus : $0.05 </font>
            </div>
        </div>
    
            <div> Please press any button to continue to the next trial.</div>
        "," ","ITI","","","","",""
"","","","","","html-keyboard-response","76","275630","0.0-6.0-1.4","60db74fcb5f4526ce90594a1","6552129e68c08af5079f912e","6552135d5a8449b4991db9d2","null","
        
        <div style=""text-align: center; position: fixed; top: 5vh; left: 40vw;"">
            <div style=""margin:0 auto; width: 20vw; top: 8vh; font-size: 1vw""> 
            <font color=""green""> Bonus : $0.05 </font>
            </div>
        </div>
    
        <img class=""stim"" src=./stimuli//pack_1/cat_1/ex_1_35.png></img>
    ","null","stimulus","","","","",""
"","","","","","html-keyboard-response","77","276634","0.0-6.0-2.4","60db74fcb5f4526ce90594a1","6552129e68c08af5079f912e","6552135d5a8449b4991db9d2","null","
        <div style=""text-align: center; position: fixed; top: 5vh; left: 40vw;"">
            <div style=""margin:0 auto; width: 20vw; top: 8vh; font-size: 1vw""> 
            <font color=""green""> Bonus : $0.05 </font>
            </div>
        </div>
    ","null","","","","","",""
"","","","","","html-keyboard-response","78","277289","0.0-6.0-3.4","60db74fcb5f4526ce90594a1","6552129e68c08af5079f912e","6552135d5a8449b4991db9d2","654","./stimuli//pack_1/cat_1/ex_1_35.png","arrowright","response","ArrowLeft","35","1","false",""
"","","","","","html-keyboard-response","79","278798","0.0-6.0-4.4","60db74fcb5f4526ce90594a1","6552129e68c08af5079f912e","6552135d5a8449b4991db9d2","null","<p> <font color=""red"" size=""4vw""> Wrong category! </font> </p>","null","feedback","","","","","0.05"
"","","","","","html-keyboard-response","80","279486","0.0-6.0-0.5","60db74fcb5f4526ce90594a1","6552129e68c08af5079f912e","6552135d5a8449b4991db9d2","688","
            
        <div style=""text-align: center; position: fixed; top: 5vh; left: 40vw;"">
            <div style=""margin:0 auto; width: 20vw; top: 8vh; font-size: 1vw""> 
            <font color=""green""> Bonus : $0.05 </font>
            </div>
        </div>
    
            <div> Please press any button to continue to the next trial.</div>
        "," ","ITI","","","","",""
"","","","","","html-keyboard-response","81","280102","0.0-6.0-1.5","60db74fcb5f4526ce90594a1","6552129e68c08af5079f912e","6552135d5a8449b4991db9d2","null","
        
        <div style=""text-align: center; position: fixed; top: 5vh; left: 40vw;"">
            <div style=""margin:0 auto; width: 20vw; top: 8vh; font-size: 1vw""> 
            <font color=""green""> Bonus : $0.05 </font>
            </div>
        </div>
    
        <img class=""stim"" src=./stimuli//pack_1/cat_1/ex_1_7.png></img>
    ","null","stimulus","","","","",""
"","","","","","html-keyboard-response","82","281119","0.0-6.0-2.5","60db74fcb5f4526ce90594a1","6552129e68c08af5079f912e","6552135d5a8449b4991db9d2","null","
        <div style=""text-align: center; position: fixed; top: 5vh; left: 40vw;"">
            <div style=""margin:0 auto; width: 20vw; top: 8vh; font-size: 1vw""> 
            <font color=""green""> Bonus : $0.05 </font>
            </div>
        </div>
    ","null","","","","","",""
"","","","","","html-keyboard-response","83","281423","0.0-6.0-3.5","60db74fcb5f4526ce90594a1","6552129e68c08af5079f912e","6552135d5a8449b4991db9d2","303","./stimuli//pack_1/cat_1/ex_1_7.png","arrowright","response","ArrowLeft","7","1","false",""
"","","","","","html-keyboard-response","84","282938","0.0-6.0-4.5","60db74fcb5f4526ce90594a1","6552129e68c08af5079f912e","6552135d5a8449b4991db9d2","null","<p> <font color=""red"" size=""4vw""> Wrong category! </font> </p>","null","feedback","","","","","0.05"
"","","","","","html-keyboard-response","85","283724","0.0-6.0-0.6","60db74fcb5f4526ce90594a1","6552129e68c08af5079f912e","6552135d5a8449b4991db9d2","784","
            
        <div style=""text-align: center; position: fixed; top: 5vh; left: 40vw;"">
            <div style=""margin:0 auto; width: 20vw; top: 8vh; font-size: 1vw""> 
            <font color=""green""> Bonus : $0.05 </font>
            </div>
        </div>
    
            <div> Please press any button to continue to the next trial.</div>
        "," ","ITI","","","","",""
"","","","","","html-keyboard-response","86","284328","0.0-6.0-1.6","60db74fcb5f4526ce90594a1","6552129e68c08af5079f912e","6552135d5a8449b4991db9d2","null","
        
        <div style=""text-align: center; position: fixed; top: 5vh; left: 40vw;"">
            <div style=""margin:0 auto; width: 20vw; top: 8vh; font-size: 1vw""> 
            <font color=""green""> Bonus : $0.05 </font>
            </div>
        </div>
    
        <img class=""stim"" src=./stimuli//pack_1/cat_2/ex_2_100.png></img>
    ","null","stimulus","","","","",""
"","","","","","html-keyboard-response","87","285337","0.0-6.0-2.6","60db74fcb5f4526ce90594a1","6552129e68c08af5079f912e","6552135d5a8449b4991db9d2","null","
        <div style=""text-align: center; position: fixed; top: 5vh; left: 40vw;"">
            <div style=""margin:0 auto; width: 20vw; top: 8vh; font-size: 1vw""> 
            <font color=""green""> Bonus : $0.05 </font>
            </div>
        </div>
    ","null","","","","","",""
"","","","","","html-keyboard-response","88","285589","0.0-6.0-3.6","60db74fcb5f4526ce90594a1","6552129e68c08af5079f912e","6552135d5a8449b4991db9d2","250","./stimuli//pack_1/cat_2/ex_2_100.png","arrowleft","response","ArrowRight","100","2","false",""
"","","","","","html-keyboard-response","89","287094","0.0-6.0-4.6","60db74fcb5f4526ce90594a1","6552129e68c08af5079f912e","6552135d5a8449b4991db9d2","null","<p> <font color=""red"" size=""4vw""> Wrong category! </font> </p>","null","feedback","","","","","0.05"
"","","","","","html-keyboard-response","90","287667","0.0-6.0-0.7","60db74fcb5f4526ce90594a1","6552129e68c08af5079f912e","6552135d5a8449b4991db9d2","571","
            
        <div style=""text-align: center; position: fixed; top: 5vh; left: 40vw;"">
            <div style=""margin:0 auto; width: 20vw; top: 8vh; font-size: 1vw""> 
            <font color=""green""> Bonus : $0.05 </font>
            </div>
        </div>
    
            <div> Please press any button to continue to the next trial.</div>
        "," ","ITI","","","","",""
"","","","","","html-keyboard-response","91","288282","0.0-6.0-1.7","60db74fcb5f4526ce90594a1","6552129e68c08af5079f912e","6552135d5a8449b4991db9d2","null","
        
        <div style=""text-align: center; position: fixed; top: 5vh; left: 40vw;"">
            <div style=""margin:0 auto; width: 20vw; top: 8vh; font-size: 1vw""> 
            <font color=""green""> Bonus : $0.05 </font>
            </div>
        </div>
    
        <img class=""stim"" src=./stimuli//pack_1/cat_2/ex_2_55.png></img>
    ","null","stimulus","","","","",""
"","","","","","html-keyboard-response","92","289286","0.0-6.0-2.7","60db74fcb5f4526ce90594a1","6552129e68c08af5079f912e","6552135d5a8449b4991db9d2","null","
        <div style=""text-align: center; position: fixed; top: 5vh; left: 40vw;"">
            <div style=""margin:0 auto; width: 20vw; top: 8vh; font-size: 1vw""> 
            <font color=""green""> Bonus : $0.05 </font>
            </div>
        </div>
    ","null","","","","","",""
"","","","","","html-keyboard-response","93","289579","0.0-6.0-3.7","60db74fcb5f4526ce90594a1","6552129e68c08af5079f912e","6552135d5a8449b4991db9d2","291","./stimuli//pack_1/cat_2/ex_2_55.png","arrowleft","response","ArrowRight","55","2","false",""
"","","","","","html-keyboard-response","94","291089","0.0-6.0-4.7","60db74fcb5f4526ce90594a1","6552129e68c08af5079f912e","6552135d5a8449b4991db9d2","null","<p> <font color=""red"" size=""4vw""> Wrong category! </font> </p>","null","feedback","","","","","0.05"
"","","","","","html-keyboard-response","95","291585","0.0-6.0-0.8","60db74fcb5f4526ce90594a1","6552129e68c08af5079f912e","6552135d5a8449b4991db9d2","495","
            
        <div style=""text-align: center; position: fixed; top: 5vh; left: 40vw;"">
            <div style=""margin:0 auto; width: 20vw; top: 8vh; font-size: 1vw""> 
            <font color=""green""> Bonus : $0.05 </font>
            </div>
        </div>
    
            <div> Please press any button to continue to the next trial.</div>
        "," ","ITI","","","","",""
"","","","","","html-keyboard-response","96","292192","0.0-6.0-1.8","60db74fcb5f4526ce90594a1","6552129e68c08af5079f912e","6552135d5a8449b4991db9d2","null","
        
        <div style=""text-align: center; position: fixed; top: 5vh; left: 40vw;"">
            <div style=""margin:0 auto; width: 20vw; top: 8vh; font-size: 1vw""> 
            <font color=""green""> Bonus : $0.05 </font>
            </div>
        </div>
    
        <img class=""stim"" src=./stimuli//pack_1/cat_2/ex_2_33.png></img>
    ","null","stimulus","","","","",""
"","","","","","html-keyboard-response","97","293207","0.0-6.0-2.8","60db74fcb5f4526ce90594a1","6552129e68c08af5079f912e","6552135d5a8449b4991db9d2","null","
        <div style=""text-align: center; position: fixed; top: 5vh; left: 40vw;"">
            <div style=""margin:0 auto; width: 20vw; top: 8vh; font-size: 1vw""> 
            <font color=""green""> Bonus : $0.05 </font>
            </div>
        </div>
    ","null","","","","","",""
"","","","","","html-keyboard-response","98","293570","0.0-6.0-3.8","60db74fcb5f4526ce90594a1","6552129e68c08af5079f912e","6552135d5a8449b4991db9d2","361","./stimuli//pack_1/cat_2/ex_2_33.png","arrowright","response","ArrowRight","33","2","true",""
"","","","","","html-keyboard-response","99","295088","0.0-6.0-4.8","60db74fcb5f4526ce90594a1","6552129e68c08af5079f912e","6552135d5a8449b4991db9d2","null","<p> <font color=""green"" size=""4vw""> Correct category! </font> <br> <br> <font color=""green"" size=""7vw""> + $0.05 </font> </p>","null","feedback","","","","","0.1"
"","","","","","html-keyboard-response","100","295798","0.0-6.0-0.9","60db74fcb5f4526ce90594a1","6552129e68c08af5079f912e","6552135d5a8449b4991db9d2","709","
            
        <div style=""text-align: center; position: fixed; top: 5vh; left: 40vw;"">
            <div style=""margin:0 auto; width: 20vw; top: 8vh; font-size: 1vw""> 
            <font color=""green""> Bonus : $0.1 </font>
            </div>
        </div>
    
            <div> Please press any button to continue to the next trial.</div>
        "," ","ITI","","","","",""
"","","","","","html-keyboard-response","101","296411","0.0-6.0-1.9","60db74fcb5f4526ce90594a1","6552129e68c08af5079f912e","6552135d5a8449b4991db9d2","null","
        
        <div style=""text-align: center; position: fixed; top: 5vh; left: 40vw;"">
            <div style=""margin:0 auto; width: 20vw; top: 8vh; font-size: 1vw""> 
            <font color=""green""> Bonus : $0.1 </font>
            </div>
        </div>
    
        <img class=""stim"" src=./stimuli//pack_1/cat_2/ex_2_19.png></img>
    ","null","stimulus","","","","",""
"","","","","","html-keyboard-response","102","297424","0.0-6.0-2.9","60db74fcb5f4526ce90594a1","6552129e68c08af5079f912e","6552135d5a8449b4991db9d2","null","
        <div style=""text-align: center; position: fixed; top: 5vh; left: 40vw;"">
            <div style=""margin:0 auto; width: 20vw; top: 8vh; font-size: 1vw""> 
            <font color=""green""> Bonus : $0.1 </font>
            </div>
        </div>
    ","null","","","","","",""
"","","","","","html-keyboard-response","103","298783","0.0-6.0-3.9","60db74fcb5f4526ce90594a1","6552129e68c08af5079f912e","6552135d5a8449b4991db9d2","1354","./stimuli//pack_1/cat_2/ex_2_19.png","arrowright","response","ArrowRight","19","2","true",""
"","","","","","html-keyboard-response","104","300292","0.0-6.0-4.9","60db74fcb5f4526ce90594a1","6552129e68c08af5079f912e","6552135d5a8449b4991db9d2","null","<p> <font color=""green"" size=""4vw""> Correct category! </font> <br> <br> <font color=""green"" size=""7vw""> + $0.05 </font> </p>","null","feedback","","","","","0.15"
"","","","","","html-keyboard-response","105","300883","0.0-6.0-0.10","60db74fcb5f4526ce90594a1","6552129e68c08af5079f912e","6552135d5a8449b4991db9d2","590","
            
        <div style=""text-align: center; position: fixed; top: 5vh; left: 40vw;"">
            <div style=""margin:0 auto; width: 20vw; top: 8vh; font-size: 1vw""> 
            <font color=""green""> Bonus : $0.15 </font>
            </div>
        </div>
    
            <div> Please press any button to continue to the next trial.</div>
        "," ","ITI","","","","",""
"","","","","","html-keyboard-response","106","301500","0.0-6.0-1.10","60db74fcb5f4526ce90594a1","6552129e68c08af5079f912e","6552135d5a8449b4991db9d2","null","
        
        <div style=""text-align: center; position: fixed; top: 5vh; left: 40vw;"">
            <div style=""margin:0 auto; width: 20vw; top: 8vh; font-size: 1vw""> 
            <font color=""green""> Bonus : $0.15 </font>
            </div>
        </div>
    
        <img class=""stim"" src=./stimuli//pack_1/cat_1/ex_1_4.png></img>
    ","null","stimulus","","","","",""
"","","","","","html-keyboard-response","107","302516","0.0-6.0-2.10","60db74fcb5f4526ce90594a1","6552129e68c08af5079f912e","6552135d5a8449b4991db9d2","null","
        <div style=""text-align: center; position: fixed; top: 5vh; left: 40vw;"">
            <div style=""margin:0 auto; width: 20vw; top: 8vh; font-size: 1vw""> 
            <font color=""green""> Bonus : $0.15 </font>
            </div>
        </div>
    ","null","","","","","",""
"","","","","","html-keyboard-response","108","302883","0.0-6.0-3.10","60db74fcb5f4526ce90594a1","6552129e68c08af5079f912e","6552135d5a8449b4991db9d2","365","./stimuli//pack_1/cat_1/ex_1_4.png","arrowright","response","ArrowLeft","4","1","false",""
"","","","","","html-keyboard-response","109","304400","0.0-6.0-4.10","60db74fcb5f4526ce90594a1","6552129e68c08af5079f912e","6552135d5a8449b4991db9d2","null","<p> <font color=""red"" size=""4vw""> Wrong category! </font> </p>","null","feedback","","","","","0.15"
"","","","","","html-keyboard-response","110","305088","0.0-6.0-0.11","60db74fcb5f4526ce90594a1","6552129e68c08af5079f912e","6552135d5a8449b4991db9d2","686","
            
        <div style=""text-align: center; position: fixed; top: 5vh; left: 40vw;"">
            <div style=""margin:0 auto; width: 20vw; top: 8vh; font-size: 1vw""> 
            <font color=""green""> Bonus : $0.15 </font>
            </div>
        </div>
    
            <div> Please press any button to continue to the next trial.</div>
        "," ","ITI","","","","",""
"","","","","","html-keyboard-response","111","305698","0.0-6.0-1.11","60db74fcb5f4526ce90594a1","6552129e68c08af5079f912e","6552135d5a8449b4991db9d2","null","
        
        <div style=""text-align: center; position: fixed; top: 5vh; left: 40vw;"">
            <div style=""margin:0 auto; width: 20vw; top: 8vh; font-size: 1vw""> 
            <font color=""green""> Bonus : $0.15 </font>
            </div>
        </div>
    
        <img class=""stim"" src=./stimuli//pack_1/cat_2/ex_2_36.png></img>
    ","null","stimulus","","","","",""
"","","","","","html-keyboard-response","112","306702","0.0-6.0-2.11","60db74fcb5f4526ce90594a1","6552129e68c08af5079f912e","6552135d5a8449b4991db9d2","null","
        <div style=""text-align: center; position: fixed; top: 5vh; left: 40vw;"">
            <div style=""margin:0 auto; width: 20vw; top: 8vh; font-size: 1vw""> 
            <font color=""green""> Bonus : $0.15 </font>
            </div>
        </div>
    ","null","","","","","",""
"","","","","","html-keyboard-response","113","306993","0.0-6.0-3.11","60db74fcb5f4526ce90594a1","6552129e68c08af5079f912e","6552135d5a8449b4991db9d2","288","./stimuli//pack_1/cat_2/ex_2_36.png","arrowleft","response","ArrowRight","36","2","false",""
"","","","","","html-keyboard-response","114","308507","0.0-6.0-4.11","60db74fcb5f4526ce90594a1","6552129e68c08af5079f912e","6552135d5a8449b4991db9d2","null","<p> <font color=""red"" size=""4vw""> Wrong category! </font> </p>","null","feedback","","","","","0.15"
"","","","","","html-keyboard-response","115","309188","0.0-6.0-0.12","60db74fcb5f4526ce90594a1","6552129e68c08af5079f912e","6552135d5a8449b4991db9d2","679","
            
        <div style=""text-align: center; position: fixed; top: 5vh; left: 40vw;"">
            <div style=""margin:0 auto; width: 20vw; top: 8vh; font-size: 1vw""> 
            <font color=""green""> Bonus : $0.15 </font>
            </div>
        </div>
    
            <div> Please press any button to continue to the next trial.</div>
        "," ","ITI","","","","",""
"","","","","","html-keyboard-response","116","309804","0.0-6.0-1.12","60db74fcb5f4526ce90594a1","6552129e68c08af5079f912e","6552135d5a8449b4991db9d2","null","
        
        <div style=""text-align: center; position: fixed; top: 5vh; left: 40vw;"">
            <div style=""margin:0 auto; width: 20vw; top: 8vh; font-size: 1vw""> 
            <font color=""green""> Bonus : $0.15 </font>
            </div>
        </div>
    
        <img class=""stim"" src=./stimuli//pack_1/cat_1/ex_1_61.png></img>
    ","null","stimulus","","","","",""
"","","","","","html-keyboard-response","117","310812","0.0-6.0-2.12","60db74fcb5f4526ce90594a1","6552129e68c08af5079f912e","6552135d5a8449b4991db9d2","null","
        <div style=""text-align: center; position: fixed; top: 5vh; left: 40vw;"">
            <div style=""margin:0 auto; width: 20vw; top: 8vh; font-size: 1vw""> 
            <font color=""green""> Bonus : $0.15 </font>
            </div>
        </div>
    ","null","","","","","",""
"","","","","","html-keyboard-response","118","311167","0.0-6.0-3.12","60db74fcb5f4526ce90594a1","6552129e68c08af5079f912e","6552135d5a8449b4991db9d2","353","./stimuli//pack_1/cat_1/ex_1_61.png","arrowright","response","ArrowLeft","61","1","false",""
"","","","","","html-keyboard-response","119","312676","0.0-6.0-4.12","60db74fcb5f4526ce90594a1","6552129e68c08af5079f912e","6552135d5a8449b4991db9d2","null","<p> <font color=""red"" size=""4vw""> Wrong category! </font> </p>","null","feedback","","","","","0.15"
"","","","","","html-keyboard-response","120","313354","0.0-6.0-0.13","60db74fcb5f4526ce90594a1","6552129e68c08af5079f912e","6552135d5a8449b4991db9d2","676","
            
        <div style=""text-align: center; position: fixed; top: 5vh; left: 40vw;"">
            <div style=""margin:0 auto; width: 20vw; top: 8vh; font-size: 1vw""> 
            <font color=""green""> Bonus : $0.15 </font>
            </div>
        </div>
    
            <div> Please press any button to continue to the next trial.</div>
        "," ","ITI","","","","",""
"","","","","","html-keyboard-response","121","313961","0.0-6.0-1.13","60db74fcb5f4526ce90594a1","6552129e68c08af5079f912e","6552135d5a8449b4991db9d2","null","
        
        <div style=""text-align: center; position: fixed; top: 5vh; left: 40vw;"">
            <div style=""margin:0 auto; width: 20vw; top: 8vh; font-size: 1vw""> 
            <font color=""green""> Bonus : $0.15 </font>
            </div>
        </div>
    
        <img class=""stim"" src=./stimuli//pack_1/cat_2/ex_2_43.png></img>
    ","null","stimulus","","","","",""
"","","","","","html-keyboard-response","122","314964","0.0-6.0-2.13","60db74fcb5f4526ce90594a1","6552129e68c08af5079f912e","6552135d5a8449b4991db9d2","null","
        <div style=""text-align: center; position: fixed; top: 5vh; left: 40vw;"">
            <div style=""margin:0 auto; width: 20vw; top: 8vh; font-size: 1vw""> 
            <font color=""green""> Bonus : $0.15 </font>
            </div>
        </div>
    ","null","","","","","",""
"","","","","","html-keyboard-response","123","315681","0.0-6.0-3.13","60db74fcb5f4526ce90594a1","6552129e68c08af5079f912e","6552135d5a8449b4991db9d2","714","./stimuli//pack_1/cat_2/ex_2_43.png","arrowleft","response","ArrowRight","43","2","false",""
"","","","","","html-keyboard-response","124","317194","0.0-6.0-4.13","60db74fcb5f4526ce90594a1","6552129e68c08af5079f912e","6552135d5a8449b4991db9d2","null","<p> <font color=""red"" size=""4vw""> Wrong category! </font> </p>","null","feedback","","","","","0.15"
"","","","","","html-keyboard-response","125","317671","0.0-6.0-0.14","60db74fcb5f4526ce90594a1","6552129e68c08af5079f912e","6552135d5a8449b4991db9d2","475","
            
        <div style=""text-align: center; position: fixed; top: 5vh; left: 40vw;"">
            <div style=""margin:0 auto; width: 20vw; top: 8vh; font-size: 1vw""> 
            <font color=""green""> Bonus : $0.15 </font>
            </div>
        </div>
    
            <div> Please press any button to continue to the next trial.</div>
        "," ","ITI","","","","",""
"","","","","","html-keyboard-response","126","318286","0.0-6.0-1.14","60db74fcb5f4526ce90594a1","6552129e68c08af5079f912e","6552135d5a8449b4991db9d2","null","
        
        <div style=""text-align: center; position: fixed; top: 5vh; left: 40vw;"">
            <div style=""margin:0 auto; width: 20vw; top: 8vh; font-size: 1vw""> 
            <font color=""green""> Bonus : $0.15 </font>
            </div>
        </div>
    
        <img class=""stim"" src=./stimuli//pack_1/cat_1/ex_1_95.png></img>
    ","null","stimulus","","","","",""
"","","","","","html-keyboard-response","127","319293","0.0-6.0-2.14","60db74fcb5f4526ce90594a1","6552129e68c08af5079f912e","6552135d5a8449b4991db9d2","null","
        <div style=""text-align: center; position: fixed; top: 5vh; left: 40vw;"">
            <div style=""margin:0 auto; width: 20vw; top: 8vh; font-size: 1vw""> 
            <font color=""green""> Bonus : $0.15 </font>
            </div>
        </div>
    ","null","","","","","",""
"","","","","","html-keyboard-response","128","319674","0.0-6.0-3.14","60db74fcb5f4526ce90594a1","6552129e68c08af5079f912e","6552135d5a8449b4991db9d2","378","./stimuli//pack_1/cat_1/ex_1_95.png","arrowleft","response","ArrowLeft","95","1","true",""
"","","","","","html-keyboard-response","129","321190","0.0-6.0-4.14","60db74fcb5f4526ce90594a1","6552129e68c08af5079f912e","6552135d5a8449b4991db9d2","null","<p> <font color=""green"" size=""4vw""> Correct category! </font> <br> <br> <font color=""green"" size=""7vw""> + $0.05 </font> </p>","null","feedback","","","","","0.2"
"","","","","","html-keyboard-response","130","322282","0.0-6.0-0.15","60db74fcb5f4526ce90594a1","6552129e68c08af5079f912e","6552135d5a8449b4991db9d2","1090","
            
        <div style=""text-align: center; position: fixed; top: 5vh; left: 40vw;"">
            <div style=""margin:0 auto; width: 20vw; top: 8vh; font-size: 1vw""> 
            <font color=""green""> Bonus : $0.2 </font>
            </div>
        </div>
    
            <div> Please press any button to continue to the next trial.</div>
        "," ","ITI","","","","",""
"","","","","","html-keyboard-response","131","322895","0.0-6.0-1.15","60db74fcb5f4526ce90594a1","6552129e68c08af5079f912e","6552135d5a8449b4991db9d2","null","
        
        <div style=""text-align: center; position: fixed; top: 5vh; left: 40vw;"">
            <div style=""margin:0 auto; width: 20vw; top: 8vh; font-size: 1vw""> 
            <font color=""green""> Bonus : $0.2 </font>
            </div>
        </div>
    
        <img class=""stim"" src=./stimuli//pack_1/cat_1/ex_1_99.png></img>
    ","null","stimulus","","","","",""
"","","","","","html-keyboard-response","132","323903","0.0-6.0-2.15","60db74fcb5f4526ce90594a1","6552129e68c08af5079f912e","6552135d5a8449b4991db9d2","null","
        <div style=""text-align: center; position: fixed; top: 5vh; left: 40vw;"">
            <div style=""margin:0 auto; width: 20vw; top: 8vh; font-size: 1vw""> 
            <font color=""green""> Bonus : $0.2 </font>
            </div>
        </div>
    ","null","","","","","",""
"","","","","","html-keyboard-response","133","324226","0.0-6.0-3.15","60db74fcb5f4526ce90594a1","6552129e68c08af5079f912e","6552135d5a8449b4991db9d2","321","./stimuli//pack_1/cat_1/ex_1_99.png","arrowright","response","ArrowLeft","99","1","false",""
"","","","","","html-keyboard-response","134","325736","0.0-6.0-4.15","60db74fcb5f4526ce90594a1","6552129e68c08af5079f912e","6552135d5a8449b4991db9d2","null","<p> <font color=""red"" size=""4vw""> Wrong category! </font> </p>","null","feedback","","","","","0.2"
"","","","","","html-keyboard-response","135","326225","0.0-6.0-0.16","60db74fcb5f4526ce90594a1","6552129e68c08af5079f912e","6552135d5a8449b4991db9d2","487","
            
        <div style=""text-align: center; position: fixed; top: 5vh; left: 40vw;"">
            <div style=""margin:0 auto; width: 20vw; top: 8vh; font-size: 1vw""> 
            <font color=""green""> Bonus : $0.2 </font>
            </div>
        </div>
    
            <div> Please press any button to continue to the next trial.</div>
        "," ","ITI","","","","",""
"","","","","","html-keyboard-response","136","326836","0.0-6.0-1.16","60db74fcb5f4526ce90594a1","6552129e68c08af5079f912e","6552135d5a8449b4991db9d2","null","
        
        <div style=""text-align: center; position: fixed; top: 5vh; left: 40vw;"">
            <div style=""margin:0 auto; width: 20vw; top: 8vh; font-size: 1vw""> 
            <font color=""green""> Bonus : $0.2 </font>
            </div>
        </div>
    
        <img class=""stim"" src=./stimuli//pack_1/cat_1/ex_1_10.png></img>
    ","null","stimulus","","","","",""
"","","","","","html-keyboard-response","137","327838","0.0-6.0-2.16","60db74fcb5f4526ce90594a1","6552129e68c08af5079f912e","6552135d5a8449b4991db9d2","null","
        <div style=""text-align: center; position: fixed; top: 5vh; left: 40vw;"">
            <div style=""margin:0 auto; width: 20vw; top: 8vh; font-size: 1vw""> 
            <font color=""green""> Bonus : $0.2 </font>
            </div>
        </div>
    ","null","","","","","",""
"","","","","","html-keyboard-response","138","328233","0.0-6.0-3.16","60db74fcb5f4526ce90594a1","6552129e68c08af5079f912e","6552135d5a8449b4991db9d2","393","./stimuli//pack_1/cat_1/ex_1_10.png","arrowright","response","ArrowLeft","10","1","false",""
"","","","","","html-keyboard-response","139","329735","0.0-6.0-4.16","60db74fcb5f4526ce90594a1","6552129e68c08af5079f912e","6552135d5a8449b4991db9d2","null","<p> <font color=""red"" size=""4vw""> Wrong category! </font> </p>","null","feedback","","","","","0.2"
"","","","","","html-keyboard-response","140","330319","0.0-6.0-0.17","60db74fcb5f4526ce90594a1","6552129e68c08af5079f912e","6552135d5a8449b4991db9d2","582","
            
        <div style=""text-align: center; position: fixed; top: 5vh; left: 40vw;"">
            <div style=""margin:0 auto; width: 20vw; top: 8vh; font-size: 1vw""> 
            <font color=""green""> Bonus : $0.2 </font>
            </div>
        </div>
    
            <div> Please press any button to continue to the next trial.</div>
        "," ","ITI","","","","",""
"","","","","","html-keyboard-response","141","330928","0.0-6.0-1.17","60db74fcb5f4526ce90594a1","6552129e68c08af5079f912e","6552135d5a8449b4991db9d2","null","
        
        <div style=""text-align: center; position: fixed; top: 5vh; left: 40vw;"">
            <div style=""margin:0 auto; width: 20vw; top: 8vh; font-size: 1vw""> 
            <font color=""green""> Bonus : $0.2 </font>
            </div>
        </div>
    
        <img class=""stim"" src=./stimuli//pack_1/cat_1/ex_1_62.png></img>
    ","null","stimulus","","","","",""
"","","","","","html-keyboard-response","142","331930","0.0-6.0-2.17","60db74fcb5f4526ce90594a1","6552129e68c08af5079f912e","6552135d5a8449b4991db9d2","null","
        <div style=""text-align: center; position: fixed; top: 5vh; left: 40vw;"">
            <div style=""margin:0 auto; width: 20vw; top: 8vh; font-size: 1vw""> 
            <font color=""green""> Bonus : $0.2 </font>
            </div>
        </div>
    ","null","","","","","",""
"","","","","","html-keyboard-response","143","332210","0.0-6.0-3.17","60db74fcb5f4526ce90594a1","6552129e68c08af5079f912e","6552135d5a8449b4991db9d2","277","./stimuli//pack_1/cat_1/ex_1_62.png","arrowleft","response","ArrowLeft","62","1","true",""
"","","","","","html-keyboard-response","144","333718","0.0-6.0-4.17","60db74fcb5f4526ce90594a1","6552129e68c08af5079f912e","6552135d5a8449b4991db9d2","null","<p> <font color=""green"" size=""4vw""> Correct category! </font> <br> <br> <font color=""green"" size=""7vw""> + $0.05 </font> </p>","null","feedback","","","","","0.25"
"","","","","","html-keyboard-response","145","334278","0.0-6.0-0.18","60db74fcb5f4526ce90594a1","6552129e68c08af5079f912e","6552135d5a8449b4991db9d2","558","
            
        <div style=""text-align: center; position: fixed; top: 5vh; left: 40vw;"">
            <div style=""margin:0 auto; width: 20vw; top: 8vh; font-size: 1vw""> 
            <font color=""green""> Bonus : $0.25 </font>
            </div>
        </div>
    
            <div> Please press any button to continue to the next trial.</div>
        "," ","ITI","","","","",""
"","","","","","html-keyboard-response","146","334891","0.0-6.0-1.18","60db74fcb5f4526ce90594a1","6552129e68c08af5079f912e","6552135d5a8449b4991db9d2","null","
        
        <div style=""text-align: center; position: fixed; top: 5vh; left: 40vw;"">
            <div style=""margin:0 auto; width: 20vw; top: 8vh; font-size: 1vw""> 
            <font color=""green""> Bonus : $0.25 </font>
            </div>
        </div>
    
        <img class=""stim"" src=./stimuli//pack_1/cat_1/ex_1_44.png></img>
    ","null","stimulus","","","","",""
"","","","","","html-keyboard-response","147","335896","0.0-6.0-2.18","60db74fcb5f4526ce90594a1","6552129e68c08af5079f912e","6552135d5a8449b4991db9d2","null","
        <div style=""text-align: center; position: fixed; top: 5vh; left: 40vw;"">
            <div style=""margin:0 auto; width: 20vw; top: 8vh; font-size: 1vw""> 
            <font color=""green""> Bonus : $0.25 </font>
            </div>
        </div>
    ","null","","","","","",""
"","","","","","html-keyboard-response","148","336209","0.0-6.0-3.18","60db74fcb5f4526ce90594a1","6552129e68c08af5079f912e","6552135d5a8449b4991db9d2","310","./stimuli//pack_1/cat_1/ex_1_44.png","arrowleft","response","ArrowLeft","44","1","true",""
"","","","","","html-keyboard-response","149","337714","0.0-6.0-4.18","60db74fcb5f4526ce90594a1","6552129e68c08af5079f912e","6552135d5a8449b4991db9d2","null","<p> <font color=""green"" size=""4vw""> Correct category! </font> <br> <br> <font color=""green"" size=""7vw""> + $0.05 </font> </p>","null","feedback","","","","","0.3"
"","","","","","html-keyboard-response","150","338563","0.0-6.0-0.19","60db74fcb5f4526ce90594a1","6552129e68c08af5079f912e","6552135d5a8449b4991db9d2","848","
            
        <div style=""text-align: center; position: fixed; top: 5vh; left: 40vw;"">
            <div style=""margin:0 auto; width: 20vw; top: 8vh; font-size: 1vw""> 
            <font color=""green""> Bonus : $0.3 </font>
            </div>
        </div>
    
            <div> Please press any button to continue to the next trial.</div>
        "," ","ITI","","","","",""
"","","","","","html-keyboard-response","151","339168","0.0-6.0-1.19","60db74fcb5f4526ce90594a1","6552129e68c08af5079f912e","6552135d5a8449b4991db9d2","null","
        
        <div style=""text-align: center; position: fixed; top: 5vh; left: 40vw;"">
            <div style=""margin:0 auto; width: 20vw; top: 8vh; font-size: 1vw""> 
            <font color=""green""> Bonus : $0.3 </font>
            </div>
        </div>
    
        <img class=""stim"" src=./stimuli//pack_1/cat_2/ex_2_66.png></img>
    ","null","stimulus","","","","",""
"","","","","","html-keyboard-response","152","340175","0.0-6.0-2.19","60db74fcb5f4526ce90594a1","6552129e68c08af5079f912e","6552135d5a8449b4991db9d2","null","
        <div style=""text-align: center; position: fixed; top: 5vh; left: 40vw;"">
            <div style=""margin:0 auto; width: 20vw; top: 8vh; font-size: 1vw""> 
            <font color=""green""> Bonus : $0.3 </font>
            </div>
        </div>
    ","null","","","","","",""
"","","","","","html-keyboard-response","153","340453","0.0-6.0-3.19","60db74fcb5f4526ce90594a1","6552129e68c08af5079f912e","6552135d5a8449b4991db9d2","275","./stimuli//pack_1/cat_2/ex_2_66.png","arrowright","response","ArrowRight","66","2","true",""
"","","","","","html-keyboard-response","154","341963","0.0-6.0-4.19","60db74fcb5f4526ce90594a1","6552129e68c08af5079f912e","6552135d5a8449b4991db9d2","null","<p> <font color=""green"" size=""4vw""> Correct category! </font> <br> <br> <font color=""green"" size=""7vw""> + $0.05 </font> </p>","null","feedback","","","","","0.35"
"","","","","","html-keyboard-response","155","342530","0.0-6.0-0.20","60db74fcb5f4526ce90594a1","6552129e68c08af5079f912e","6552135d5a8449b4991db9d2","566","
            
        <div style=""text-align: center; position: fixed; top: 5vh; left: 40vw;"">
            <div style=""margin:0 auto; width: 20vw; top: 8vh; font-size: 1vw""> 
            <font color=""green""> Bonus : $0.35 </font>
            </div>
        </div>
    
            <div> Please press any button to continue to the next trial.</div>
        "," ","ITI","","","","",""
"","","","","","html-keyboard-response","156","343148","0.0-6.0-1.20","60db74fcb5f4526ce90594a1","6552129e68c08af5079f912e","6552135d5a8449b4991db9d2","null","
        
        <div style=""text-align: center; position: fixed; top: 5vh; left: 40vw;"">
            <div style=""margin:0 auto; width: 20vw; top: 8vh; font-size: 1vw""> 
            <font color=""green""> Bonus : $0.35 </font>
            </div>
        </div>
    
        <img class=""stim"" src=./stimuli//pack_1/cat_1/ex_1_40.png></img>
    ","null","stimulus","","","","",""
"","","","","","html-keyboard-response","157","344159","0.0-6.0-2.20","60db74fcb5f4526ce90594a1","6552129e68c08af5079f912e","6552135d5a8449b4991db9d2","null","
        <div style=""text-align: center; position: fixed; top: 5vh; left: 40vw;"">
            <div style=""margin:0 auto; width: 20vw; top: 8vh; font-size: 1vw""> 
            <font color=""green""> Bonus : $0.35 </font>
            </div>
        </div>
    ","null","","","","","",""
"","","","","","html-keyboard-response","158","344406","0.0-6.0-3.20","60db74fcb5f4526ce90594a1","6552129e68c08af5079f912e","6552135d5a8449b4991db9d2","243","./stimuli//pack_1/cat_1/ex_1_40.png","arrowleft","response","ArrowLeft","40","1","true",""
"","","","","","html-keyboard-response","159","345916","0.0-6.0-4.20","60db74fcb5f4526ce90594a1","6552129e68c08af5079f912e","6552135d5a8449b4991db9d2","null","<p> <font color=""green"" size=""4vw""> Correct category! </font> <br> <br> <font color=""green"" size=""7vw""> + $0.05 </font> </p>","null","feedback","","","","","0.4"
"","","","","","html-keyboard-response","160","346538","0.0-6.0-0.21","60db74fcb5f4526ce90594a1","6552129e68c08af5079f912e","6552135d5a8449b4991db9d2","620","
            
        <div style=""text-align: center; position: fixed; top: 5vh; left: 40vw;"">
            <div style=""margin:0 auto; width: 20vw; top: 8vh; font-size: 1vw""> 
            <font color=""green""> Bonus : $0.4 </font>
            </div>
        </div>
    
            <div> Please press any button to continue to the next trial.</div>
        "," ","ITI","","","","",""
"","","","","","html-keyboard-response","161","347152","0.0-6.0-1.21","60db74fcb5f4526ce90594a1","6552129e68c08af5079f912e","6552135d5a8449b4991db9d2","null","
        
        <div style=""text-align: center; position: fixed; top: 5vh; left: 40vw;"">
            <div style=""margin:0 auto; width: 20vw; top: 8vh; font-size: 1vw""> 
            <font color=""green""> Bonus : $0.4 </font>
            </div>
        </div>
    
        <img class=""stim"" src=./stimuli//pack_1/cat_2/ex_2_91.png></img>
    ","null","stimulus","","","","",""
"","","","","","html-keyboard-response","162","348155","0.0-6.0-2.21","60db74fcb5f4526ce90594a1","6552129e68c08af5079f912e","6552135d5a8449b4991db9d2","null","
        <div style=""text-align: center; position: fixed; top: 5vh; left: 40vw;"">
            <div style=""margin:0 auto; width: 20vw; top: 8vh; font-size: 1vw""> 
            <font color=""green""> Bonus : $0.4 </font>
            </div>
        </div>
    ","null","","","","","",""
"","","","","","html-keyboard-response","163","348220","0.0-6.0-3.21","60db74fcb5f4526ce90594a1","6552129e68c08af5079f912e","6552135d5a8449b4991db9d2","62","./stimuli//pack_1/cat_2/ex_2_91.png","arrowright","response","ArrowRight","91","2","true",""
"","","","","","html-keyboard-response","164","349722","0.0-6.0-4.21","60db74fcb5f4526ce90594a1","6552129e68c08af5079f912e","6552135d5a8449b4991db9d2","null","<p> <font color=""green"" size=""4vw""> Correct category! </font> <br> <br> <font color=""green"" size=""7vw""> + $0.05 </font> </p>","null","feedback","","","","","0.45"
"","","","","","html-keyboard-response","165","350449","0.0-6.0-0.22","60db74fcb5f4526ce90594a1","6552129e68c08af5079f912e","6552135d5a8449b4991db9d2","726","
            
        <div style=""text-align: center; position: fixed; top: 5vh; left: 40vw;"">
            <div style=""margin:0 auto; width: 20vw; top: 8vh; font-size: 1vw""> 
            <font color=""green""> Bonus : $0.45 </font>
            </div>
        </div>
    
            <div> Please press any button to continue to the next trial.</div>
        "," ","ITI","","","","",""
"","","","","","html-keyboard-response","166","351064","0.0-6.0-1.22","60db74fcb5f4526ce90594a1","6552129e68c08af5079f912e","6552135d5a8449b4991db9d2","null","
        
        <div style=""text-align: center; position: fixed; top: 5vh; left: 40vw;"">
            <div style=""margin:0 auto; width: 20vw; top: 8vh; font-size: 1vw""> 
            <font color=""green""> Bonus : $0.45 </font>
            </div>
        </div>
    
        <img class=""stim"" src=./stimuli//pack_1/cat_2/ex_2_21.png></img>
    ","null","stimulus","","","","",""
"","","","","","html-keyboard-response","167","352076","0.0-6.0-2.22","60db74fcb5f4526ce90594a1","6552129e68c08af5079f912e","6552135d5a8449b4991db9d2","null","
        <div style=""text-align: center; position: fixed; top: 5vh; left: 40vw;"">
            <div style=""margin:0 auto; width: 20vw; top: 8vh; font-size: 1vw""> 
            <font color=""green""> Bonus : $0.45 </font>
            </div>
        </div>
    ","null","","","","","",""
"","","","","","html-keyboard-response","168","352696","0.0-6.0-3.22","60db74fcb5f4526ce90594a1","6552129e68c08af5079f912e","6552135d5a8449b4991db9d2","618","./stimuli//pack_1/cat_2/ex_2_21.png","arrowright","response","ArrowRight","21","2","true",""
"","","","","","html-keyboard-response","169","354208","0.0-6.0-4.22","60db74fcb5f4526ce90594a1","6552129e68c08af5079f912e","6552135d5a8449b4991db9d2","null","<p> <font color=""green"" size=""4vw""> Correct category! </font> <br> <br> <font color=""green"" size=""7vw""> + $0.05 </font> </p>","null","feedback","","","","","0.5"
"","","","","","html-keyboard-response","170","355020","0.0-6.0-0.23","60db74fcb5f4526ce90594a1","6552129e68c08af5079f912e","6552135d5a8449b4991db9d2","811","
            
        <div style=""text-align: center; position: fixed; top: 5vh; left: 40vw;"">
            <div style=""margin:0 auto; width: 20vw; top: 8vh; font-size: 1vw""> 
            <font color=""green""> Bonus : $0.5 </font>
            </div>
        </div>
    
            <div> Please press any button to continue to the next trial.</div>
        "," ","ITI","","","","",""
"","","","","","html-keyboard-response","171","355635","0.0-6.0-1.23","60db74fcb5f4526ce90594a1","6552129e68c08af5079f912e","6552135d5a8449b4991db9d2","null","
        
        <div style=""text-align: center; position: fixed; top: 5vh; left: 40vw;"">
            <div style=""margin:0 auto; width: 20vw; top: 8vh; font-size: 1vw""> 
            <font color=""green""> Bonus : $0.5 </font>
            </div>
        </div>
    
        <img class=""stim"" src=./stimuli//pack_1/cat_2/ex_2_96.png></img>
    ","null","stimulus","","","","",""
"","","","","","html-keyboard-response","172","356653","0.0-6.0-2.23","60db74fcb5f4526ce90594a1","6552129e68c08af5079f912e","6552135d5a8449b4991db9d2","null","
        <div style=""text-align: center; position: fixed; top: 5vh; left: 40vw;"">
            <div style=""margin:0 auto; width: 20vw; top: 8vh; font-size: 1vw""> 
            <font color=""green""> Bonus : $0.5 </font>
            </div>
        </div>
    ","null","","","","","",""
"","","","","","html-keyboard-response","173","356909","0.0-6.0-3.23","60db74fcb5f4526ce90594a1","6552129e68c08af5079f912e","6552135d5a8449b4991db9d2","252","./stimuli//pack_1/cat_2/ex_2_96.png","arrowright","response","ArrowRight","96","2","true",""
"","","","","","html-keyboard-response","174","358425","0.0-6.0-4.23","60db74fcb5f4526ce90594a1","6552129e68c08af5079f912e","6552135d5a8449b4991db9d2","null","<p> <font color=""green"" size=""4vw""> Correct category! </font> <br> <br> <font color=""green"" size=""7vw""> + $0.05 </font> </p>","null","feedback","","","","","0.55"
"","","","","","html-keyboard-response","175","358924","0.0-6.0-0.24","60db74fcb5f4526ce90594a1","6552129e68c08af5079f912e","6552135d5a8449b4991db9d2","498","
            
        <div style=""text-align: center; position: fixed; top: 5vh; left: 40vw;"">
            <div style=""margin:0 auto; width: 20vw; top: 8vh; font-size: 1vw""> 
            <font color=""green""> Bonus : $0.55 </font>
            </div>
        </div>
    
            <div> Please press any button to continue to the next trial.</div>
        "," ","ITI","","","","",""
"","","","","","html-keyboard-response","176","359529","0.0-6.0-1.24","60db74fcb5f4526ce90594a1","6552129e68c08af5079f912e","6552135d5a8449b4991db9d2","null","
        
        <div style=""text-align: center; position: fixed; top: 5vh; left: 40vw;"">
            <div style=""margin:0 auto; width: 20vw; top: 8vh; font-size: 1vw""> 
            <font color=""green""> Bonus : $0.55 </font>
            </div>
        </div>
    
        <img class=""stim"" src=./stimuli//pack_1/cat_1/ex_1_56.png></img>
    ","null","stimulus","","","","",""
"","","","","","html-keyboard-response","177","360526","0.0-6.0-2.24","60db74fcb5f4526ce90594a1","6552129e68c08af5079f912e","6552135d5a8449b4991db9d2","null","
        <div style=""text-align: center; position: fixed; top: 5vh; left: 40vw;"">
            <div style=""margin:0 auto; width: 20vw; top: 8vh; font-size: 1vw""> 
            <font color=""green""> Bonus : $0.55 </font>
            </div>
        </div>
    ","null","","","","","",""
"","","","","","html-keyboard-response","178","360838","0.0-6.0-3.24","60db74fcb5f4526ce90594a1","6552129e68c08af5079f912e","6552135d5a8449b4991db9d2","311","./stimuli//pack_1/cat_1/ex_1_56.png","arrowleft","response","ArrowLeft","56","1","true",""
"","","","","","html-keyboard-response","179","362343","0.0-6.0-4.24","60db74fcb5f4526ce90594a1","6552129e68c08af5079f912e","6552135d5a8449b4991db9d2","null","<p> <font color=""green"" size=""4vw""> Correct category! </font> <br> <br> <font color=""green"" size=""7vw""> + $0.05 </font> </p>","null","feedback","","","","","0.6"
"","","","","","html-keyboard-response","180","362924","0.0-6.0-0.25","60db74fcb5f4526ce90594a1","6552129e68c08af5079f912e","6552135d5a8449b4991db9d2","580","
            
        <div style=""text-align: center; position: fixed; top: 5vh; left: 40vw;"">
            <div style=""margin:0 auto; width: 20vw; top: 8vh; font-size: 1vw""> 
            <font color=""green""> Bonus : $0.6 </font>
            </div>
        </div>
    
            <div> Please press any button to continue to the next trial.</div>
        "," ","ITI","","","","",""
"","","","","","html-keyboard-response","181","363535","0.0-6.0-1.25","60db74fcb5f4526ce90594a1","6552129e68c08af5079f912e","6552135d5a8449b4991db9d2","null","
        
        <div style=""text-align: center; position: fixed; top: 5vh; left: 40vw;"">
            <div style=""margin:0 auto; width: 20vw; top: 8vh; font-size: 1vw""> 
            <font color=""green""> Bonus : $0.6 </font>
            </div>
        </div>
    
        <img class=""stim"" src=./stimuli//pack_1/cat_1/ex_1_47.png></img>
    ","null","stimulus","","","","",""
"","","","","","html-keyboard-response","182","364538","0.0-6.0-2.25","60db74fcb5f4526ce90594a1","6552129e68c08af5079f912e","6552135d5a8449b4991db9d2","null","
        <div style=""text-align: center; position: fixed; top: 5vh; left: 40vw;"">
            <div style=""margin:0 auto; width: 20vw; top: 8vh; font-size: 1vw""> 
            <font color=""green""> Bonus : $0.6 </font>
            </div>
        </div>
    ","null","","","","","",""
"","","","","","html-keyboard-response","183","364903","0.0-6.0-3.25","60db74fcb5f4526ce90594a1","6552129e68c08af5079f912e","6552135d5a8449b4991db9d2","362","./stimuli//pack_1/cat_1/ex_1_47.png","arrowleft","response","ArrowLeft","47","1","true",""
"","","","","","html-keyboard-response","184","366420","0.0-6.0-4.25","60db74fcb5f4526ce90594a1","6552129e68c08af5079f912e","6552135d5a8449b4991db9d2","null","<p> <font color=""green"" size=""4vw""> Correct category! </font> <br> <br> <font color=""green"" size=""7vw""> + $0.05 </font> </p>","null","feedback","","","","","0.65"
"","","","","","html-keyboard-response","185","366956","0.0-6.0-0.26","60db74fcb5f4526ce90594a1","6552129e68c08af5079f912e","6552135d5a8449b4991db9d2","535","
            
        <div style=""text-align: center; position: fixed; top: 5vh; left: 40vw;"">
            <div style=""margin:0 auto; width: 20vw; top: 8vh; font-size: 1vw""> 
            <font color=""green""> Bonus : $0.65 </font>
            </div>
        </div>
    
            <div> Please press any button to continue to the next trial.</div>
        "," ","ITI","","","","",""
"","","","","","html-keyboard-response","186","367562","0.0-6.0-1.26","60db74fcb5f4526ce90594a1","6552129e68c08af5079f912e","6552135d5a8449b4991db9d2","null","
        
        <div style=""text-align: center; position: fixed; top: 5vh; left: 40vw;"">
            <div style=""margin:0 auto; width: 20vw; top: 8vh; font-size: 1vw""> 
            <font color=""green""> Bonus : $0.65 </font>
            </div>
        </div>
    
        <img class=""stim"" src=./stimuli//pack_1/cat_2/ex_2_40.png></img>
    ","null","stimulus","","","","",""
"","","","","","html-keyboard-response","187","368569","0.0-6.0-2.26","60db74fcb5f4526ce90594a1","6552129e68c08af5079f912e","6552135d5a8449b4991db9d2","null","
        <div style=""text-align: center; position: fixed; top: 5vh; left: 40vw;"">
            <div style=""margin:0 auto; width: 20vw; top: 8vh; font-size: 1vw""> 
            <font color=""green""> Bonus : $0.65 </font>
            </div>
        </div>
    ","null","","","","","",""
"","","","","","html-keyboard-response","188","368814","0.0-6.0-3.26","60db74fcb5f4526ce90594a1","6552129e68c08af5079f912e","6552135d5a8449b4991db9d2","243","./stimuli//pack_1/cat_2/ex_2_40.png","arrowright","response","ArrowRight","40","2","true",""
"","","","","","html-keyboard-response","189","370325","0.0-6.0-4.26","60db74fcb5f4526ce90594a1","6552129e68c08af5079f912e","6552135d5a8449b4991db9d2","null","<p> <font color=""green"" size=""4vw""> Correct category! </font> <br> <br> <font color=""green"" size=""7vw""> + $0.05 </font> </p>","null","feedback","","","","","0.7"
"","","","","","html-keyboard-response","190","371187","0.0-6.0-0.27","60db74fcb5f4526ce90594a1","6552129e68c08af5079f912e","6552135d5a8449b4991db9d2","860","
            
        <div style=""text-align: center; position: fixed; top: 5vh; left: 40vw;"">
            <div style=""margin:0 auto; width: 20vw; top: 8vh; font-size: 1vw""> 
            <font color=""green""> Bonus : $0.7 </font>
            </div>
        </div>
    
            <div> Please press any button to continue to the next trial.</div>
        "," ","ITI","","","","",""
"","","","","","html-keyboard-response","191","371798","0.0-6.0-1.27","60db74fcb5f4526ce90594a1","6552129e68c08af5079f912e","6552135d5a8449b4991db9d2","null","
        
        <div style=""text-align: center; position: fixed; top: 5vh; left: 40vw;"">
            <div style=""margin:0 auto; width: 20vw; top: 8vh; font-size: 1vw""> 
            <font color=""green""> Bonus : $0.7 </font>
            </div>
        </div>
    
        <img class=""stim"" src=./stimuli//pack_1/cat_1/ex_1_69.png></img>
    ","null","stimulus","","","","",""
"","","","","","html-keyboard-response","192","372802","0.0-6.0-2.27","60db74fcb5f4526ce90594a1","6552129e68c08af5079f912e","6552135d5a8449b4991db9d2","null","
        <div style=""text-align: center; position: fixed; top: 5vh; left: 40vw;"">
            <div style=""margin:0 auto; width: 20vw; top: 8vh; font-size: 1vw""> 
            <font color=""green""> Bonus : $0.7 </font>
            </div>
        </div>
    ","null","","","","","",""
"","","","","","html-keyboard-response","193","373360","0.0-6.0-3.27","60db74fcb5f4526ce90594a1","6552129e68c08af5079f912e","6552135d5a8449b4991db9d2","555","./stimuli//pack_1/cat_1/ex_1_69.png","arrowright","response","ArrowLeft","69","1","false",""
"","","","","","html-keyboard-response","194","374870","0.0-6.0-4.27","60db74fcb5f4526ce90594a1","6552129e68c08af5079f912e","6552135d5a8449b4991db9d2","null","<p> <font color=""red"" size=""4vw""> Wrong category! </font> </p>","null","feedback","","","","","0.7"
"","","","","","html-keyboard-response","195","375533","0.0-6.0-0.28","60db74fcb5f4526ce90594a1","6552129e68c08af5079f912e","6552135d5a8449b4991db9d2","661","
            
        <div style=""text-align: center; position: fixed; top: 5vh; left: 40vw;"">
            <div style=""margin:0 auto; width: 20vw; top: 8vh; font-size: 1vw""> 
            <font color=""green""> Bonus : $0.7 </font>
            </div>
        </div>
    
            <div> Please press any button to continue to the next trial.</div>
        "," ","ITI","","","","",""
"","","","","","html-keyboard-response","196","376138","0.0-6.0-1.28","60db74fcb5f4526ce90594a1","6552129e68c08af5079f912e","6552135d5a8449b4991db9d2","null","
        
        <div style=""text-align: center; position: fixed; top: 5vh; left: 40vw;"">
            <div style=""margin:0 auto; width: 20vw; top: 8vh; font-size: 1vw""> 
            <font color=""green""> Bonus : $0.7 </font>
            </div>
        </div>
    
        <img class=""stim"" src=./stimuli//pack_1/cat_2/ex_2_65.png></img>
    ","null","stimulus","","","","",""
"","","","","","html-keyboard-response","197","377146","0.0-6.0-2.28","60db74fcb5f4526ce90594a1","6552129e68c08af5079f912e","6552135d5a8449b4991db9d2","null","
        <div style=""text-align: center; position: fixed; top: 5vh; left: 40vw;"">
            <div style=""margin:0 auto; width: 20vw; top: 8vh; font-size: 1vw""> 
            <font color=""green""> Bonus : $0.7 </font>
            </div>
        </div>
    ","null","","","","","",""
"","","","","","html-keyboard-response","198","377272","0.0-6.0-3.28","60db74fcb5f4526ce90594a1","6552129e68c08af5079f912e","6552135d5a8449b4991db9d2","124","./stimuli//pack_1/cat_2/ex_2_65.png","arrowright","response","ArrowRight","65","2","true",""
"","","","","","html-keyboard-response","199","378774","0.0-6.0-4.28","60db74fcb5f4526ce90594a1","6552129e68c08af5079f912e","6552135d5a8449b4991db9d2","null","<p> <font color=""green"" size=""4vw""> Correct category! </font> <br> <br> <font color=""green"" size=""7vw""> + $0.05 </font> </p>","null","feedback","","","","","0.75"
"","","","","","html-keyboard-response","200","379518","0.0-6.0-0.29","60db74fcb5f4526ce90594a1","6552129e68c08af5079f912e","6552135d5a8449b4991db9d2","742","
            
        <div style=""text-align: center; position: fixed; top: 5vh; left: 40vw;"">
            <div style=""margin:0 auto; width: 20vw; top: 8vh; font-size: 1vw""> 
            <font color=""green""> Bonus : $0.75 </font>
            </div>
        </div>
    
            <div> Please press any button to continue to the next trial.</div>
        "," ","ITI","","","","",""
"","","","","","html-keyboard-response","201","380123","0.0-6.0-1.29","60db74fcb5f4526ce90594a1","6552129e68c08af5079f912e","6552135d5a8449b4991db9d2","null","
        
        <div style=""text-align: center; position: fixed; top: 5vh; left: 40vw;"">
            <div style=""margin:0 auto; width: 20vw; top: 8vh; font-size: 1vw""> 
            <font color=""green""> Bonus : $0.75 </font>
            </div>
        </div>
    
        <img class=""stim"" src=./stimuli//pack_1/cat_1/ex_1_45.png></img>
    ","null","stimulus","","","","",""
"","","","","","html-keyboard-response","202","381128","0.0-6.0-2.29","60db74fcb5f4526ce90594a1","6552129e68c08af5079f912e","6552135d5a8449b4991db9d2","null","
        <div style=""text-align: center; position: fixed; top: 5vh; left: 40vw;"">
            <div style=""margin:0 auto; width: 20vw; top: 8vh; font-size: 1vw""> 
            <font color=""green""> Bonus : $0.75 </font>
            </div>
        </div>
    ","null","","","","","",""
"","","","","","html-keyboard-response","203","381407","0.0-6.0-3.29","60db74fcb5f4526ce90594a1","6552129e68c08af5079f912e","6552135d5a8449b4991db9d2","277","./stimuli//pack_1/cat_1/ex_1_45.png","arrowleft","response","ArrowLeft","45","1","true",""
"","","","","","html-keyboard-response","204","382913","0.0-6.0-4.29","60db74fcb5f4526ce90594a1","6552129e68c08af5079f912e","6552135d5a8449b4991db9d2","null","<p> <font color=""green"" size=""4vw""> Correct category! </font> <br> <br> <font color=""green"" size=""7vw""> + $0.05 </font> </p>","null","feedback","","","","","0.8"
"","","","","","html-keyboard-response","205","383453","0.0-6.0-0.30","60db74fcb5f4526ce90594a1","6552129e68c08af5079f912e","6552135d5a8449b4991db9d2","538","
            
        <div style=""text-align: center; position: fixed; top: 5vh; left: 40vw;"">
            <div style=""margin:0 auto; width: 20vw; top: 8vh; font-size: 1vw""> 
            <font color=""green""> Bonus : $0.8 </font>
            </div>
        </div>
    
            <div> Please press any button to continue to the next trial.</div>
        "," ","ITI","","","","",""
"","","","","","html-keyboard-response","206","384061","0.0-6.0-1.30","60db74fcb5f4526ce90594a1","6552129e68c08af5079f912e","6552135d5a8449b4991db9d2","null","
        
        <div style=""text-align: center; position: fixed; top: 5vh; left: 40vw;"">
            <div style=""margin:0 auto; width: 20vw; top: 8vh; font-size: 1vw""> 
            <font color=""green""> Bonus : $0.8 </font>
            </div>
        </div>
    
        <img class=""stim"" src=./stimuli//pack_1/cat_1/ex_1_65.png></img>
    ","null","stimulus","","","","",""
"","","","","","html-keyboard-response","207","385063","0.0-6.0-2.30","60db74fcb5f4526ce90594a1","6552129e68c08af5079f912e","6552135d5a8449b4991db9d2","null","
        <div style=""text-align: center; position: fixed; top: 5vh; left: 40vw;"">
            <div style=""margin:0 auto; width: 20vw; top: 8vh; font-size: 1vw""> 
            <font color=""green""> Bonus : $0.8 </font>
            </div>
        </div>
    ","null","","","","","",""
"","","","","","html-keyboard-response","208","385318","0.0-6.0-3.30","60db74fcb5f4526ce90594a1","6552129e68c08af5079f912e","6552135d5a8449b4991db9d2","253","./stimuli//pack_1/cat_1/ex_1_65.png","arrowleft","response","ArrowLeft","65","1","true",""
"","","","","","html-keyboard-response","209","386833","0.0-6.0-4.30","60db74fcb5f4526ce90594a1","6552129e68c08af5079f912e","6552135d5a8449b4991db9d2","null","<p> <font color=""green"" size=""4vw""> Correct category! </font> <br> <br> <font color=""green"" size=""7vw""> + $0.05 </font> </p>","null","feedback","","","","","0.85"
"","","","","","html-keyboard-response","210","387450","0.0-6.0-0.31","60db74fcb5f4526ce90594a1","6552129e68c08af5079f912e","6552135d5a8449b4991db9d2","615","
            
        <div style=""text-align: center; position: fixed; top: 5vh; left: 40vw;"">
            <div style=""margin:0 auto; width: 20vw; top: 8vh; font-size: 1vw""> 
            <font color=""green""> Bonus : $0.85 </font>
            </div>
        </div>
    
            <div> Please press any button to continue to the next trial.</div>
        "," ","ITI","","","","",""
"","","","","","html-keyboard-response","211","388052","0.0-6.0-1.31","60db74fcb5f4526ce90594a1","6552129e68c08af5079f912e","6552135d5a8449b4991db9d2","null","
        
        <div style=""text-align: center; position: fixed; top: 5vh; left: 40vw;"">
            <div style=""margin:0 auto; width: 20vw; top: 8vh; font-size: 1vw""> 
            <font color=""green""> Bonus : $0.85 </font>
            </div>
        </div>
    
        <img class=""stim"" src=./stimuli//pack_1/cat_2/ex_2_74.png></img>
    ","null","stimulus","","","","",""
"","","","","","html-keyboard-response","212","389060","0.0-6.0-2.31","60db74fcb5f4526ce90594a1","6552129e68c08af5079f912e","6552135d5a8449b4991db9d2","null","
        <div style=""text-align: center; position: fixed; top: 5vh; left: 40vw;"">
            <div style=""margin:0 auto; width: 20vw; top: 8vh; font-size: 1vw""> 
            <font color=""green""> Bonus : $0.85 </font>
            </div>
        </div>
    ","null","","","","","",""
"","","","","","html-keyboard-response","213","389324","0.0-6.0-3.31","60db74fcb5f4526ce90594a1","6552129e68c08af5079f912e","6552135d5a8449b4991db9d2","262","./stimuli//pack_1/cat_2/ex_2_74.png","arrowright","response","ArrowRight","74","2","true",""
"","","","","","html-keyboard-response","214","390831","0.0-6.0-4.31","60db74fcb5f4526ce90594a1","6552129e68c08af5079f912e","6552135d5a8449b4991db9d2","null","<p> <font color=""green"" size=""4vw""> Correct category! </font> <br> <br> <font color=""green"" size=""7vw""> + $0.05 </font> </p>","null","feedback","","","","","0.9"
"","","","","","html-keyboard-response","215","391433","0.0-6.0-0.32","60db74fcb5f4526ce90594a1","6552129e68c08af5079f912e","6552135d5a8449b4991db9d2","601","
            
        <div style=""text-align: center; position: fixed; top: 5vh; left: 40vw;"">
            <div style=""margin:0 auto; width: 20vw; top: 8vh; font-size: 1vw""> 
            <font color=""green""> Bonus : $0.9 </font>
            </div>
        </div>
    
            <div> Please press any button to continue to the next trial.</div>
        "," ","ITI","","","","",""
"","","","","","html-keyboard-response","216","392042","0.0-6.0-1.32","60db74fcb5f4526ce90594a1","6552129e68c08af5079f912e","6552135d5a8449b4991db9d2","null","
        
        <div style=""text-align: center; position: fixed; top: 5vh; left: 40vw;"">
            <div style=""margin:0 auto; width: 20vw; top: 8vh; font-size: 1vw""> 
            <font color=""green""> Bonus : $0.9 </font>
            </div>
        </div>
    
        <img class=""stim"" src=./stimuli//pack_1/cat_1/ex_1_89.png></img>
    ","null","stimulus","","","","",""
"","","","","","html-keyboard-response","217","393057","0.0-6.0-2.32","60db74fcb5f4526ce90594a1","6552129e68c08af5079f912e","6552135d5a8449b4991db9d2","null","
        <div style=""text-align: center; position: fixed; top: 5vh; left: 40vw;"">
            <div style=""margin:0 auto; width: 20vw; top: 8vh; font-size: 1vw""> 
            <font color=""green""> Bonus : $0.9 </font>
            </div>
        </div>
    ","null","","","","","",""
"","","","","","html-keyboard-response","218","393316","0.0-6.0-3.32","60db74fcb5f4526ce90594a1","6552129e68c08af5079f912e","6552135d5a8449b4991db9d2","256","./stimuli//pack_1/cat_1/ex_1_89.png","arrowleft","response","ArrowLeft","89","1","true",""
"","","","","","html-keyboard-response","219","394828","0.0-6.0-4.32","60db74fcb5f4526ce90594a1","6552129e68c08af5079f912e","6552135d5a8449b4991db9d2","null","<p> <font color=""green"" size=""4vw""> Correct category! </font> <br> <br> <font color=""green"" size=""7vw""> + $0.05 </font> </p>","null","feedback","","","","","0.95"
"","","","","","html-keyboard-response","220","395805","0.0-6.0-0.33","60db74fcb5f4526ce90594a1","6552129e68c08af5079f912e","6552135d5a8449b4991db9d2","976","
            
        <div style=""text-align: center; position: fixed; top: 5vh; left: 40vw;"">
            <div style=""margin:0 auto; width: 20vw; top: 8vh; font-size: 1vw""> 
            <font color=""green""> Bonus : $0.95 </font>
            </div>
        </div>
    
            <div> Please press any button to continue to the next trial.</div>
        "," ","ITI","","","","",""
"","","","","","html-keyboard-response","221","396422","0.0-6.0-1.33","60db74fcb5f4526ce90594a1","6552129e68c08af5079f912e","6552135d5a8449b4991db9d2","null","
        
        <div style=""text-align: center; position: fixed; top: 5vh; left: 40vw;"">
            <div style=""margin:0 auto; width: 20vw; top: 8vh; font-size: 1vw""> 
            <font color=""green""> Bonus : $0.95 </font>
            </div>
        </div>
    
        <img class=""stim"" src=./stimuli//pack_1/cat_2/ex_2_34.png></img>
    ","null","stimulus","","","","",""
"","","","","","html-keyboard-response","222","397432","0.0-6.0-2.33","60db74fcb5f4526ce90594a1","6552129e68c08af5079f912e","6552135d5a8449b4991db9d2","null","
        <div style=""text-align: center; position: fixed; top: 5vh; left: 40vw;"">
            <div style=""margin:0 auto; width: 20vw; top: 8vh; font-size: 1vw""> 
            <font color=""green""> Bonus : $0.95 </font>
            </div>
        </div>
    ","null","","","","","",""
"","","","","","html-keyboard-response","223","398147","0.0-6.0-3.33","60db74fcb5f4526ce90594a1","6552129e68c08af5079f912e","6552135d5a8449b4991db9d2","713","./stimuli//pack_1/cat_2/ex_2_34.png","arrowright","response","ArrowRight","34","2","true",""
"","","","","","html-keyboard-response","224","399658","0.0-6.0-4.33","60db74fcb5f4526ce90594a1","6552129e68c08af5079f912e","6552135d5a8449b4991db9d2","null","<p> <font color=""green"" size=""4vw""> Correct category! </font> <br> <br> <font color=""green"" size=""7vw""> + $0.05 </font> </p>","null","feedback","","","","","1"
"","","","","","html-keyboard-response","225","400144","0.0-6.0-0.34","60db74fcb5f4526ce90594a1","6552129e68c08af5079f912e","6552135d5a8449b4991db9d2","485","
            
        <div style=""text-align: center; position: fixed; top: 5vh; left: 40vw;"">
            <div style=""margin:0 auto; width: 20vw; top: 8vh; font-size: 1vw""> 
            <font color=""green""> Bonus : $1 </font>
            </div>
        </div>
    
            <div> Please press any button to continue to the next trial.</div>
        "," ","ITI","","","","",""
"","","","","","html-keyboard-response","226","400755","0.0-6.0-1.34","60db74fcb5f4526ce90594a1","6552129e68c08af5079f912e","6552135d5a8449b4991db9d2","null","
        
        <div style=""text-align: center; position: fixed; top: 5vh; left: 40vw;"">
            <div style=""margin:0 auto; width: 20vw; top: 8vh; font-size: 1vw""> 
            <font color=""green""> Bonus : $1 </font>
            </div>
        </div>
    
        <img class=""stim"" src=./stimuli//pack_1/cat_2/ex_2_46.png></img>
    ","null","stimulus","","","","",""
"","","","","","html-keyboard-response","227","401759","0.0-6.0-2.34","60db74fcb5f4526ce90594a1","6552129e68c08af5079f912e","6552135d5a8449b4991db9d2","null","
        <div style=""text-align: center; position: fixed; top: 5vh; left: 40vw;"">
            <div style=""margin:0 auto; width: 20vw; top: 8vh; font-size: 1vw""> 
            <font color=""green""> Bonus : $1 </font>
            </div>
        </div>
    ","null","","","","","",""
"","","","","","html-keyboard-response","228","402057","0.0-6.0-3.34","60db74fcb5f4526ce90594a1","6552129e68c08af5079f912e","6552135d5a8449b4991db9d2","296","./stimuli//pack_1/cat_2/ex_2_46.png","arrowright","response","ArrowRight","46","2","true",""
"","","","","","html-keyboard-response","229","403559","0.0-6.0-4.34","60db74fcb5f4526ce90594a1","6552129e68c08af5079f912e","6552135d5a8449b4991db9d2","null","<p> <font color=""green"" size=""4vw""> Correct category! </font> <br> <br> <font color=""green"" size=""7vw""> + $0.05 </font> </p>","null","feedback","","","","","1.05"
"","","","","","html-keyboard-response","230","404247","0.0-6.0-0.35","60db74fcb5f4526ce90594a1","6552129e68c08af5079f912e","6552135d5a8449b4991db9d2","687","
            
        <div style=""text-align: center; position: fixed; top: 5vh; left: 40vw;"">
            <div style=""margin:0 auto; width: 20vw; top: 8vh; font-size: 1vw""> 
            <font color=""green""> Bonus : $1.05 </font>
            </div>
        </div>
    
            <div> Please press any button to continue to the next trial.</div>
        "," ","ITI","","","","",""
"","","","","","html-keyboard-response","231","404864","0.0-6.0-1.35","60db74fcb5f4526ce90594a1","6552129e68c08af5079f912e","6552135d5a8449b4991db9d2","null","
        
        <div style=""text-align: center; position: fixed; top: 5vh; left: 40vw;"">
            <div style=""margin:0 auto; width: 20vw; top: 8vh; font-size: 1vw""> 
            <font color=""green""> Bonus : $1.05 </font>
            </div>
        </div>
    
        <img class=""stim"" src=./stimuli//pack_1/cat_1/ex_1_14.png></img>
    ","null","stimulus","","","","",""
"","","","","","html-keyboard-response","232","405881","0.0-6.0-2.35","60db74fcb5f4526ce90594a1","6552129e68c08af5079f912e","6552135d5a8449b4991db9d2","null","
        <div style=""text-align: center; position: fixed; top: 5vh; left: 40vw;"">
            <div style=""margin:0 auto; width: 20vw; top: 8vh; font-size: 1vw""> 
            <font color=""green""> Bonus : $1.05 </font>
            </div>
        </div>
    ","null","","","","","",""
"","","","","","html-keyboard-response","233","406138","0.0-6.0-3.35","60db74fcb5f4526ce90594a1","6552129e68c08af5079f912e","6552135d5a8449b4991db9d2","254","./stimuli//pack_1/cat_1/ex_1_14.png","arrowleft","response","ArrowLeft","14","1","true",""
"","","","","","html-keyboard-response","234","407651","0.0-6.0-4.35","60db74fcb5f4526ce90594a1","6552129e68c08af5079f912e","6552135d5a8449b4991db9d2","null","<p> <font color=""green"" size=""4vw""> Correct category! </font> <br> <br> <font color=""green"" size=""7vw""> + $0.05 </font> </p>","null","feedback","","","","","1.1"
"","","","","","html-keyboard-response","235","408214","0.0-6.0-0.36","60db74fcb5f4526ce90594a1","6552129e68c08af5079f912e","6552135d5a8449b4991db9d2","561","
            
        <div style=""text-align: center; position: fixed; top: 5vh; left: 40vw;"">
            <div style=""margin:0 auto; width: 20vw; top: 8vh; font-size: 1vw""> 
            <font color=""green""> Bonus : $1.1 </font>
            </div>
        </div>
    
            <div> Please press any button to continue to the next trial.</div>
        "," ","ITI","","","","",""
"","","","","","html-keyboard-response","236","408829","0.0-6.0-1.36","60db74fcb5f4526ce90594a1","6552129e68c08af5079f912e","6552135d5a8449b4991db9d2","null","
        
        <div style=""text-align: center; position: fixed; top: 5vh; left: 40vw;"">
            <div style=""margin:0 auto; width: 20vw; top: 8vh; font-size: 1vw""> 
            <font color=""green""> Bonus : $1.1 </font>
            </div>
        </div>
    
        <img class=""stim"" src=./stimuli//pack_1/cat_1/ex_1_80.png></img>
    ","null","stimulus","","","","",""
"","","","","","html-keyboard-response","237","409832","0.0-6.0-2.36","60db74fcb5f4526ce90594a1","6552129e68c08af5079f912e","6552135d5a8449b4991db9d2","null","
        <div style=""text-align: center; position: fixed; top: 5vh; left: 40vw;"">
            <div style=""margin:0 auto; width: 20vw; top: 8vh; font-size: 1vw""> 
            <font color=""green""> Bonus : $1.1 </font>
            </div>
        </div>
    ","null","","","","","",""
"","","","","","html-keyboard-response","238","410509","0.0-6.0-3.36","60db74fcb5f4526ce90594a1","6552129e68c08af5079f912e","6552135d5a8449b4991db9d2","674","./stimuli//pack_1/cat_1/ex_1_80.png","arrowright","response","ArrowLeft","80","1","false",""
