"success","timeout","failed_images","failed_audio","failed_video","trial_type","trial_index","time_elapsed","internal_node_id","subject_id","study_id","session_id","rt","stimulus","response","task","correct_response","exemplar_ID","category","correct","bonus"
"true","false","[]","[]","[]","preload","0","3","0.0-0.0","5d8a5eaf689e58001a8ad452","6552129e68c08af5079f912e","655213449e13575031c69475","","","","","","","","",""
"","","","","","html-keyboard-response","1","7345","0.0-1.0","5d8a5eaf689e58001a8ad452","6552129e68c08af5079f912e","655213449e13575031c69475","7342","Welcome to the Category Learning experiment! Press any key to continue."," ","welcome","","","","",""
"","","","","","html-keyboard-response","2","20500","0.0-2.0","5d8a5eaf689e58001a8ad452","6552129e68c08af5079f912e","655213449e13575031c69475","13155","
            <p>You will be shown images of patterns of black dots.  Some are category A, some are category B.
            <br>You will not know in advance which category a specific pattern belongs to.</p>
            <p>After you see an image, you will be asked to guess its category <b>(left arrow for category A, right arrow for category B)</b></p>
            <p>After you choose, the screen will show you whether you were correct or not.</p>
            <p><b>You will receive a bonus payment of $0.05 for each correct answer!</b></p>
            <p> So you can increase your bonus by guessing correctly, and by guessing as quickly as possible so you move on to the next image sooner.</p>
            <p>Press any key to continue.</p>
            "," ","introduction_1","","","","",""
"","","","","","html-keyboard-response","3","22907","0.0-3.0","5d8a5eaf689e58001a8ad452","6552129e68c08af5079f912e","655213449e13575031c69475","2406","
            <p> <b>The first 10 trials are a practice round that will not count towards your bonus payment.</b></p>
            <p> You will be notified when practice finishes and the test begins. </p>
            <p> Press any key to begin the practice round.</p>
            "," ","introduction_2","","","","",""
"","","","","","html-keyboard-response","4","24120","0.0-4.0-0.0","5d8a5eaf689e58001a8ad452","6552129e68c08af5079f912e","655213449e13575031c69475","1213","
            
        <div style=""text-align: center; position: fixed; top: 5vh; left: 40vw;"">
            <div style=""margin:0 auto; width: 20vw; top: 8vh; font-size: 1vw""> 
            <font color=""green""> Bonus : $0 </font>
            </div>
        </div>
    
            <div> Please press any button to continue to the next trial.</div>
        "," ","ITI","","","","",""
"","","","","","html-keyboard-response","5","24723","0.0-4.0-1.0","5d8a5eaf689e58001a8ad452","6552129e68c08af5079f912e","655213449e13575031c69475","null","
        
        <div style=""text-align: center; position: fixed; top: 5vh; left: 40vw;"">
            <div style=""margin:0 auto; width: 20vw; top: 8vh; font-size: 1vw""> 
            <font color=""green""> Bonus : $0 </font>
            </div>
        </div>
    
        <img class=""stim"" src=./stimuli//pack_1/cat_2/ex_2_69.png></img>
    ","null","stimulus","","","","",""
"","","","","","html-keyboard-response","6","25728","0.0-4.0-2.0","5d8a5eaf689e58001a8ad452","6552129e68c08af5079f912e","655213449e13575031c69475","null","
        <div style=""text-align: center; position: fixed; top: 5vh; left: 40vw;"">
            <div style=""margin:0 auto; width: 20vw; top: 8vh; font-size: 1vw""> 
            <font color=""green""> Bonus : $0 </font>
            </div>
        </div>
    ","null","","","","","",""
"","","","","","html-keyboard-response","7","26773","0.0-4.0-3.0","5d8a5eaf689e58001a8ad452","6552129e68c08af5079f912e","655213449e13575031c69475","1044","./stimuli//pack_1/cat_2/ex_2_69.png","arrowleft","response","ArrowRight","69","2","false",""
"","","","","","html-keyboard-response","8","28289","0.0-4.0-4.0","5d8a5eaf689e58001a8ad452","6552129e68c08af5079f912e","655213449e13575031c69475","null","<p> <font color=""red"" size=""4vw""> Wrong category! </font> </p>","null","feedback","","","","","0"
"","","","","","html-keyboard-response","9","29236","0.0-4.0-0.1","5d8a5eaf689e58001a8ad452","6552129e68c08af5079f912e","655213449e13575031c69475","946","
            
        <div style=""text-align: center; position: fixed; top: 5vh; left: 40vw;"">
            <div style=""margin:0 auto; width: 20vw; top: 8vh; font-size: 1vw""> 
            <font color=""green""> Bonus : $0 </font>
            </div>
        </div>
    
            <div> Please press any button to continue to the next trial.</div>
        "," ","ITI","","","","",""
"","","","","","html-keyboard-response","10","29845","0.0-4.0-1.1","5d8a5eaf689e58001a8ad452","6552129e68c08af5079f912e","655213449e13575031c69475","null","
        
        <div style=""text-align: center; position: fixed; top: 5vh; left: 40vw;"">
            <div style=""margin:0 auto; width: 20vw; top: 8vh; font-size: 1vw""> 
            <font color=""green""> Bonus : $0 </font>
            </div>
        </div>
    
        <img class=""stim"" src=./stimuli//pack_1/cat_2/ex_2_91.png></img>
    ","null","stimulus","","","","",""
"","","","","","html-keyboard-response","11","30848","0.0-4.0-2.1","5d8a5eaf689e58001a8ad452","6552129e68c08af5079f912e","655213449e13575031c69475","null","
        <div style=""text-align: center; position: fixed; top: 5vh; left: 40vw;"">
            <div style=""margin:0 auto; width: 20vw; top: 8vh; font-size: 1vw""> 
            <font color=""green""> Bonus : $0 </font>
            </div>
        </div>
    ","null","","","","","",""
"","","","","","html-keyboard-response","12","31459","0.0-4.0-3.1","5d8a5eaf689e58001a8ad452","6552129e68c08af5079f912e","655213449e13575031c69475","610","./stimuli//pack_1/cat_2/ex_2_91.png","arrowleft","response","ArrowRight","91","2","false",""
"","","","","","html-keyboard-response","13","32963","0.0-4.0-4.1","5d8a5eaf689e58001a8ad452","6552129e68c08af5079f912e","655213449e13575031c69475","null","<p> <font color=""red"" size=""4vw""> Wrong category! </font> </p>","null","feedback","","","","","0"
"","","","","","html-keyboard-response","14","33780","0.0-4.0-0.2","5d8a5eaf689e58001a8ad452","6552129e68c08af5079f912e","655213449e13575031c69475","816","
            
        <div style=""text-align: center; position: fixed; top: 5vh; left: 40vw;"">
            <div style=""margin:0 auto; width: 20vw; top: 8vh; font-size: 1vw""> 
            <font color=""green""> Bonus : $0 </font>
            </div>
        </div>
    
            <div> Please press any button to continue to the next trial.</div>
        "," ","ITI","","","","",""
"","","","","","html-keyboard-response","15","34395","0.0-4.0-1.2","5d8a5eaf689e58001a8ad452","6552129e68c08af5079f912e","655213449e13575031c69475","null","
        
        <div style=""text-align: center; position: fixed; top: 5vh; left: 40vw;"">
            <div style=""margin:0 auto; width: 20vw; top: 8vh; font-size: 1vw""> 
            <font color=""green""> Bonus : $0 </font>
            </div>
        </div>
    
        <img class=""stim"" src=./stimuli//pack_1/cat_1/ex_1_84.png></img>
    ","null","stimulus","","","","",""
"","","","","","html-keyboard-response","16","35402","0.0-4.0-2.2","5d8a5eaf689e58001a8ad452","6552129e68c08af5079f912e","655213449e13575031c69475","null","
        <div style=""text-align: center; position: fixed; top: 5vh; left: 40vw;"">
            <div style=""margin:0 auto; width: 20vw; top: 8vh; font-size: 1vw""> 
            <font color=""green""> Bonus : $0 </font>
            </div>
        </div>
    ","null","","","","","",""
"","","","","","html-keyboard-response","17","35907","0.0-4.0-3.2","5d8a5eaf689e58001a8ad452","6552129e68c08af5079f912e","655213449e13575031c69475","504","./stimuli//pack_1/cat_1/ex_1_84.png","arrowright","response","ArrowLeft","84","1","false",""
"","","","","","html-keyboard-response","18","37410","0.0-4.0-4.2","5d8a5eaf689e58001a8ad452","6552129e68c08af5079f912e","655213449e13575031c69475","null","<p> <font color=""red"" size=""4vw""> Wrong category! </font> </p>","null","feedback","","","","","0"
"","","","","","html-keyboard-response","19","37979","0.0-4.0-0.3","5d8a5eaf689e58001a8ad452","6552129e68c08af5079f912e","655213449e13575031c69475","569","
            
        <div style=""text-align: center; position: fixed; top: 5vh; left: 40vw;"">
            <div style=""margin:0 auto; width: 20vw; top: 8vh; font-size: 1vw""> 
            <font color=""green""> Bonus : $0 </font>
            </div>
        </div>
    
            <div> Please press any button to continue to the next trial.</div>
        "," ","ITI","","","","",""
"","","","","","html-keyboard-response","20","38587","0.0-4.0-1.3","5d8a5eaf689e58001a8ad452","6552129e68c08af5079f912e","655213449e13575031c69475","null","
        
        <div style=""text-align: center; position: fixed; top: 5vh; left: 40vw;"">
            <div style=""margin:0 auto; width: 20vw; top: 8vh; font-size: 1vw""> 
            <font color=""green""> Bonus : $0 </font>
            </div>
        </div>
    
        <img class=""stim"" src=./stimuli//pack_1/cat_2/ex_2_51.png></img>
    ","null","stimulus","","","","",""
"","","","","","html-keyboard-response","21","39591","0.0-4.0-2.3","5d8a5eaf689e58001a8ad452","6552129e68c08af5079f912e","655213449e13575031c69475","null","
        <div style=""text-align: center; position: fixed; top: 5vh; left: 40vw;"">
            <div style=""margin:0 auto; width: 20vw; top: 8vh; font-size: 1vw""> 
            <font color=""green""> Bonus : $0 </font>
            </div>
        </div>
    ","null","","","","","",""
"","","","","","html-keyboard-response","22","40953","0.0-4.0-3.3","5d8a5eaf689e58001a8ad452","6552129e68c08af5079f912e","655213449e13575031c69475","1360","./stimuli//pack_1/cat_2/ex_2_51.png","arrowright","response","ArrowRight","51","2","true",""
"","","","","","html-keyboard-response","23","42468","0.0-4.0-4.3","5d8a5eaf689e58001a8ad452","6552129e68c08af5079f912e","655213449e13575031c69475","null","<p> <font color=""green"" size=""4vw""> Correct category! </font> </p>","null","feedback","","","","","0"
"","","","","","html-keyboard-response","24","42775","0.0-4.0-0.4","5d8a5eaf689e58001a8ad452","6552129e68c08af5079f912e","655213449e13575031c69475","307","
            
        <div style=""text-align: center; position: fixed; top: 5vh; left: 40vw;"">
            <div style=""margin:0 auto; width: 20vw; top: 8vh; font-size: 1vw""> 
            <font color=""green""> Bonus : $0 </font>
            </div>
        </div>
    
            <div> Please press any button to continue to the next trial.</div>
        "," ","ITI","","","","",""
"","","","","","html-keyboard-response","25","43380","0.0-4.0-1.4","5d8a5eaf689e58001a8ad452","6552129e68c08af5079f912e","655213449e13575031c69475","null","
        
        <div style=""text-align: center; position: fixed; top: 5vh; left: 40vw;"">
            <div style=""margin:0 auto; width: 20vw; top: 8vh; font-size: 1vw""> 
            <font color=""green""> Bonus : $0 </font>
            </div>
        </div>
    
        <img class=""stim"" src=./stimuli//pack_1/cat_1/ex_1_58.png></img>
    ","null","stimulus","","","","",""
"","","","","","html-keyboard-response","26","44385","0.0-4.0-2.4","5d8a5eaf689e58001a8ad452","6552129e68c08af5079f912e","655213449e13575031c69475","null","
        <div style=""text-align: center; position: fixed; top: 5vh; left: 40vw;"">
            <div style=""margin:0 auto; width: 20vw; top: 8vh; font-size: 1vw""> 
            <font color=""green""> Bonus : $0 </font>
            </div>
        </div>
    ","null","","","","","",""
"","","","","","html-keyboard-response","27","44914","0.0-4.0-3.4","5d8a5eaf689e58001a8ad452","6552129e68c08af5079f912e","655213449e13575031c69475","528","./stimuli//pack_1/cat_1/ex_1_58.png","arrowleft","response","ArrowLeft","58","1","true",""
"","","","","","html-keyboard-response","28","46426","0.0-4.0-4.4","5d8a5eaf689e58001a8ad452","6552129e68c08af5079f912e","655213449e13575031c69475","null","<p> <font color=""green"" size=""4vw""> Correct category! </font> </p>","null","feedback","","","","","0"
"","","","","","html-keyboard-response","29","47247","0.0-4.0-0.5","5d8a5eaf689e58001a8ad452","6552129e68c08af5079f912e","655213449e13575031c69475","821","
            
        <div style=""text-align: center; position: fixed; top: 5vh; left: 40vw;"">
            <div style=""margin:0 auto; width: 20vw; top: 8vh; font-size: 1vw""> 
            <font color=""green""> Bonus : $0 </font>
            </div>
        </div>
    
            <div> Please press any button to continue to the next trial.</div>
        "," ","ITI","","","","",""
"","","","","","html-keyboard-response","30","47862","0.0-4.0-1.5","5d8a5eaf689e58001a8ad452","6552129e68c08af5079f912e","655213449e13575031c69475","null","
        
        <div style=""text-align: center; position: fixed; top: 5vh; left: 40vw;"">
            <div style=""margin:0 auto; width: 20vw; top: 8vh; font-size: 1vw""> 
            <font color=""green""> Bonus : $0 </font>
            </div>
        </div>
    
        <img class=""stim"" src=./stimuli//pack_1/cat_1/ex_1_61.png></img>
    ","null","stimulus","","","","",""
"","","","","","html-keyboard-response","31","48865","0.0-4.0-2.5","5d8a5eaf689e58001a8ad452","6552129e68c08af5079f912e","655213449e13575031c69475","null","
        <div style=""text-align: center; position: fixed; top: 5vh; left: 40vw;"">
            <div style=""margin:0 auto; width: 20vw; top: 8vh; font-size: 1vw""> 
            <font color=""green""> Bonus : $0 </font>
            </div>
        </div>
    ","null","","","","","",""
"","","","","","html-keyboard-response","32","49135","0.0-4.0-3.5","5d8a5eaf689e58001a8ad452","6552129e68c08af5079f912e","655213449e13575031c69475","269","./stimuli//pack_1/cat_1/ex_1_61.png","arrowright","response","ArrowLeft","61","1","false",""
"","","","","","html-keyboard-response","33","50640","0.0-4.0-4.5","5d8a5eaf689e58001a8ad452","6552129e68c08af5079f912e","655213449e13575031c69475","null","<p> <font color=""red"" size=""4vw""> Wrong category! </font> </p>","null","feedback","","","","","0"
"","","","","","html-keyboard-response","34","51101","0.0-4.0-0.6","5d8a5eaf689e58001a8ad452","6552129e68c08af5079f912e","655213449e13575031c69475","461","
            
        <div style=""text-align: center; position: fixed; top: 5vh; left: 40vw;"">
            <div style=""margin:0 auto; width: 20vw; top: 8vh; font-size: 1vw""> 
            <font color=""green""> Bonus : $0 </font>
            </div>
        </div>
    
            <div> Please press any button to continue to the next trial.</div>
        "," ","ITI","","","","",""
"","","","","","html-keyboard-response","35","51712","0.0-4.0-1.6","5d8a5eaf689e58001a8ad452","6552129e68c08af5079f912e","655213449e13575031c69475","null","
        
        <div style=""text-align: center; position: fixed; top: 5vh; left: 40vw;"">
            <div style=""margin:0 auto; width: 20vw; top: 8vh; font-size: 1vw""> 
            <font color=""green""> Bonus : $0 </font>
            </div>
        </div>
    
        <img class=""stim"" src=./stimuli//pack_1/cat_2/ex_2_74.png></img>
    ","null","stimulus","","","","",""
"","","","","","html-keyboard-response","36","52722","0.0-4.0-2.6","5d8a5eaf689e58001a8ad452","6552129e68c08af5079f912e","655213449e13575031c69475","null","
        <div style=""text-align: center; position: fixed; top: 5vh; left: 40vw;"">
            <div style=""margin:0 auto; width: 20vw; top: 8vh; font-size: 1vw""> 
            <font color=""green""> Bonus : $0 </font>
            </div>
        </div>
    ","null","","","","","",""
"","","","","","html-keyboard-response","37","53165","0.0-4.0-3.6","5d8a5eaf689e58001a8ad452","6552129e68c08af5079f912e","655213449e13575031c69475","442","./stimuli//pack_1/cat_2/ex_2_74.png","arrowright","response","ArrowRight","74","2","true",""
"","","","","","html-keyboard-response","38","54677","0.0-4.0-4.6","5d8a5eaf689e58001a8ad452","6552129e68c08af5079f912e","655213449e13575031c69475","null","<p> <font color=""green"" size=""4vw""> Correct category! </font> </p>","null","feedback","","","","","0"
"","","","","","html-keyboard-response","39","55185","0.0-4.0-0.7","5d8a5eaf689e58001a8ad452","6552129e68c08af5079f912e","655213449e13575031c69475","507","
            
        <div style=""text-align: center; position: fixed; top: 5vh; left: 40vw;"">
            <div style=""margin:0 auto; width: 20vw; top: 8vh; font-size: 1vw""> 
            <font color=""green""> Bonus : $0 </font>
            </div>
        </div>
    
            <div> Please press any button to continue to the next trial.</div>
        "," ","ITI","","","","",""
"","","","","","html-keyboard-response","40","55790","0.0-4.0-1.7","5d8a5eaf689e58001a8ad452","6552129e68c08af5079f912e","655213449e13575031c69475","null","
        
        <div style=""text-align: center; position: fixed; top: 5vh; left: 40vw;"">
            <div style=""margin:0 auto; width: 20vw; top: 8vh; font-size: 1vw""> 
            <font color=""green""> Bonus : $0 </font>
            </div>
        </div>
    
        <img class=""stim"" src=./stimuli//pack_1/cat_1/ex_1_88.png></img>
    ","null","stimulus","","","","",""
"","","","","","html-keyboard-response","41","56797","0.0-4.0-2.7","5d8a5eaf689e58001a8ad452","6552129e68c08af5079f912e","655213449e13575031c69475","null","
        <div style=""text-align: center; position: fixed; top: 5vh; left: 40vw;"">
            <div style=""margin:0 auto; width: 20vw; top: 8vh; font-size: 1vw""> 
            <font color=""green""> Bonus : $0 </font>
            </div>
        </div>
    ","null","","","","","",""
"","","","","","html-keyboard-response","42","57083","0.0-4.0-3.7","5d8a5eaf689e58001a8ad452","6552129e68c08af5079f912e","655213449e13575031c69475","285","./stimuli//pack_1/cat_1/ex_1_88.png","arrowleft","response","ArrowLeft","88","1","true",""
"","","","","","html-keyboard-response","43","58595","0.0-4.0-4.7","5d8a5eaf689e58001a8ad452","6552129e68c08af5079f912e","655213449e13575031c69475","null","<p> <font color=""green"" size=""4vw""> Correct category! </font> </p>","null","feedback","","","","","0"
"","","","","","html-keyboard-response","44","59634","0.0-4.0-0.8","5d8a5eaf689e58001a8ad452","6552129e68c08af5079f912e","655213449e13575031c69475","1038","
            
        <div style=""text-align: center; position: fixed; top: 5vh; left: 40vw;"">
            <div style=""margin:0 auto; width: 20vw; top: 8vh; font-size: 1vw""> 
            <font color=""green""> Bonus : $0 </font>
            </div>
        </div>
    
            <div> Please press any button to continue to the next trial.</div>
        "," ","ITI","","","","",""
"","","","","","html-keyboard-response","45","60241","0.0-4.0-1.8","5d8a5eaf689e58001a8ad452","6552129e68c08af5079f912e","655213449e13575031c69475","null","
        
        <div style=""text-align: center; position: fixed; top: 5vh; left: 40vw;"">
            <div style=""margin:0 auto; width: 20vw; top: 8vh; font-size: 1vw""> 
            <font color=""green""> Bonus : $0 </font>
            </div>
        </div>
    
        <img class=""stim"" src=./stimuli//pack_1/cat_2/ex_2_93.png></img>
    ","null","stimulus","","","","",""
"","","","","","html-keyboard-response","46","61247","0.0-4.0-2.8","5d8a5eaf689e58001a8ad452","6552129e68c08af5079f912e","655213449e13575031c69475","null","
        <div style=""text-align: center; position: fixed; top: 5vh; left: 40vw;"">
            <div style=""margin:0 auto; width: 20vw; top: 8vh; font-size: 1vw""> 
            <font color=""green""> Bonus : $0 </font>
            </div>
        </div>
    ","null","","","","","",""
"","","","","","html-keyboard-response","47","61617","0.0-4.0-3.8","5d8a5eaf689e58001a8ad452","6552129e68c08af5079f912e","655213449e13575031c69475","368","./stimuli//pack_1/cat_2/ex_2_93.png","arrowright","response","ArrowRight","93","2","true",""
"","","","","","html-keyboard-response","48","63124","0.0-4.0-4.8","5d8a5eaf689e58001a8ad452","6552129e68c08af5079f912e","655213449e13575031c69475","null","<p> <font color=""green"" size=""4vw""> Correct category! </font> </p>","null","feedback","","","","","0"
"","","","","","html-keyboard-response","49","63642","0.0-4.0-0.9","5d8a5eaf689e58001a8ad452","6552129e68c08af5079f912e","655213449e13575031c69475","517","
            
        <div style=""text-align: center; position: fixed; top: 5vh; left: 40vw;"">
            <div style=""margin:0 auto; width: 20vw; top: 8vh; font-size: 1vw""> 
            <font color=""green""> Bonus : $0 </font>
            </div>
        </div>
    
            <div> Please press any button to continue to the next trial.</div>
        "," ","ITI","","","","",""
"","","","","","html-keyboard-response","50","64252","0.0-4.0-1.9","5d8a5eaf689e58001a8ad452","6552129e68c08af5079f912e","655213449e13575031c69475","null","
        
        <div style=""text-align: center; position: fixed; top: 5vh; left: 40vw;"">
            <div style=""margin:0 auto; width: 20vw; top: 8vh; font-size: 1vw""> 
            <font color=""green""> Bonus : $0 </font>
            </div>
        </div>
    
        <img class=""stim"" src=./stimuli//pack_1/cat_1/ex_1_19.png></img>
    ","null","stimulus","","","","",""
"","","","","","html-keyboard-response","51","65255","0.0-4.0-2.9","5d8a5eaf689e58001a8ad452","6552129e68c08af5079f912e","655213449e13575031c69475","null","
        <div style=""text-align: center; position: fixed; top: 5vh; left: 40vw;"">
            <div style=""margin:0 auto; width: 20vw; top: 8vh; font-size: 1vw""> 
            <font color=""green""> Bonus : $0 </font>
            </div>
        </div>
    ","null","","","","","",""
"","","","","","html-keyboard-response","52","65515","0.0-4.0-3.9","5d8a5eaf689e58001a8ad452","6552129e68c08af5079f912e","655213449e13575031c69475","258","./stimuli//pack_1/cat_1/ex_1_19.png","arrowleft","response","ArrowLeft","19","1","true",""
"","","","","","html-keyboard-response","53","67017","0.0-4.0-4.9","5d8a5eaf689e58001a8ad452","6552129e68c08af5079f912e","655213449e13575031c69475","null","<p> <font color=""green"" size=""4vw""> Correct category! </font> </p>","null","feedback","","","","","0"
"","","","","","html-keyboard-response","54","68624","0.0-5.0","5d8a5eaf689e58001a8ad452","6552129e68c08af5079f912e","655213449e13575031c69475","1607","
            <b> <p> The practice round has finished.</p>
            <b> For the rest of the experiment you will receive a $0.05 bonus for each correct answer!</b>
            <p> Press any key to begin the test. </p>
            "," ","intermission","","","","",""
"","","","","","html-keyboard-response","55","69555","0.0-6.0-0.0","5d8a5eaf689e58001a8ad452","6552129e68c08af5079f912e","655213449e13575031c69475","930","
            
        <div style=""text-align: center; position: fixed; top: 5vh; left: 40vw;"">
            <div style=""margin:0 auto; width: 20vw; top: 8vh; font-size: 1vw""> 
            <font color=""green""> Bonus : $0 </font>
            </div>
        </div>
    
            <div> Please press any button to continue to the next trial.</div>
        "," ","ITI","","","","",""
"","","","","","html-keyboard-response","56","70158","0.0-6.0-1.0","5d8a5eaf689e58001a8ad452","6552129e68c08af5079f912e","655213449e13575031c69475","null","
        
        <div style=""text-align: center; position: fixed; top: 5vh; left: 40vw;"">
            <div style=""margin:0 auto; width: 20vw; top: 8vh; font-size: 1vw""> 
            <font color=""green""> Bonus : $0 </font>
            </div>
        </div>
    
        <img class=""stim"" src=./stimuli//pack_1/cat_1/ex_1_27.png></img>
    ","null","stimulus","","","","",""
"","","","","","html-keyboard-response","57","71164","0.0-6.0-2.0","5d8a5eaf689e58001a8ad452","6552129e68c08af5079f912e","655213449e13575031c69475","null","
        <div style=""text-align: center; position: fixed; top: 5vh; left: 40vw;"">
            <div style=""margin:0 auto; width: 20vw; top: 8vh; font-size: 1vw""> 
            <font color=""green""> Bonus : $0 </font>
            </div>
        </div>
    ","null","","","","","",""
"","","","","","html-keyboard-response","58","71447","0.0-6.0-3.0","5d8a5eaf689e58001a8ad452","6552129e68c08af5079f912e","655213449e13575031c69475","282","./stimuli//pack_1/cat_1/ex_1_27.png","arrowright","response","ArrowLeft","27","1","false",""
"","","","","","html-keyboard-response","59","72954","0.0-6.0-4.0","5d8a5eaf689e58001a8ad452","6552129e68c08af5079f912e","655213449e13575031c69475","null","<p> <font color=""red"" size=""4vw""> Wrong category! </font> </p>","null","feedback","","","","","0"
"","","","","","html-keyboard-response","60","73190","0.0-6.0-0.1","5d8a5eaf689e58001a8ad452","6552129e68c08af5079f912e","655213449e13575031c69475","235","
            
        <div style=""text-align: center; position: fixed; top: 5vh; left: 40vw;"">
            <div style=""margin:0 auto; width: 20vw; top: 8vh; font-size: 1vw""> 
            <font color=""green""> Bonus : $0 </font>
            </div>
        </div>
    
            <div> Please press any button to continue to the next trial.</div>
        "," ","ITI","","","","",""
"","","","","","html-keyboard-response","61","73799","0.0-6.0-1.1","5d8a5eaf689e58001a8ad452","6552129e68c08af5079f912e","655213449e13575031c69475","null","
        
        <div style=""text-align: center; position: fixed; top: 5vh; left: 40vw;"">
            <div style=""margin:0 auto; width: 20vw; top: 8vh; font-size: 1vw""> 
            <font color=""green""> Bonus : $0 </font>
            </div>
        </div>
    
        <img class=""stim"" src=./stimuli//pack_1/cat_1/ex_1_7.png></img>
    ","null","stimulus","","","","",""
"","","","","","html-keyboard-response","62","74801","0.0-6.0-2.1","5d8a5eaf689e58001a8ad452","6552129e68c08af5079f912e","655213449e13575031c69475","null","
        <div style=""text-align: center; position: fixed; top: 5vh; left: 40vw;"">
            <div style=""margin:0 auto; width: 20vw; top: 8vh; font-size: 1vw""> 
            <font color=""green""> Bonus : $0 </font>
            </div>
        </div>
    ","null","","","","","",""
"","","","","","html-keyboard-response","63","75087","0.0-6.0-3.1","5d8a5eaf689e58001a8ad452","6552129e68c08af5079f912e","655213449e13575031c69475","285","./stimuli//pack_1/cat_1/ex_1_7.png","arrowright","response","ArrowLeft","7","1","false",""
"","","","","","html-keyboard-response","64","76603","0.0-6.0-4.1","5d8a5eaf689e58001a8ad452","6552129e68c08af5079f912e","655213449e13575031c69475","null","<p> <font color=""red"" size=""4vw""> Wrong category! </font> </p>","null","feedback","","","","","0"
"","","","","","html-keyboard-response","65","77001","0.0-6.0-0.2","5d8a5eaf689e58001a8ad452","6552129e68c08af5079f912e","655213449e13575031c69475","398","
            
        <div style=""text-align: center; position: fixed; top: 5vh; left: 40vw;"">
            <div style=""margin:0 auto; width: 20vw; top: 8vh; font-size: 1vw""> 
            <font color=""green""> Bonus : $0 </font>
            </div>
        </div>
    
            <div> Please press any button to continue to the next trial.</div>
        "," ","ITI","","","","",""
"","","","","","html-keyboard-response","66","77602","0.0-6.0-1.2","5d8a5eaf689e58001a8ad452","6552129e68c08af5079f912e","655213449e13575031c69475","null","
        
        <div style=""text-align: center; position: fixed; top: 5vh; left: 40vw;"">
            <div style=""margin:0 auto; width: 20vw; top: 8vh; font-size: 1vw""> 
            <font color=""green""> Bonus : $0 </font>
            </div>
        </div>
    
        <img class=""stim"" src=./stimuli//pack_1/cat_1/ex_1_29.png></img>
    ","null","stimulus","","","","",""
"","","","","","html-keyboard-response","67","78610","0.0-6.0-2.2","5d8a5eaf689e58001a8ad452","6552129e68c08af5079f912e","655213449e13575031c69475","null","
        <div style=""text-align: center; position: fixed; top: 5vh; left: 40vw;"">
            <div style=""margin:0 auto; width: 20vw; top: 8vh; font-size: 1vw""> 
            <font color=""green""> Bonus : $0 </font>
            </div>
        </div>
    ","null","","","","","",""
"","","","","","html-keyboard-response","68","78867","0.0-6.0-3.2","5d8a5eaf689e58001a8ad452","6552129e68c08af5079f912e","655213449e13575031c69475","256","./stimuli//pack_1/cat_1/ex_1_29.png","arrowleft","response","ArrowLeft","29","1","true",""
"","","","","","html-keyboard-response","69","80369","0.0-6.0-4.2","5d8a5eaf689e58001a8ad452","6552129e68c08af5079f912e","655213449e13575031c69475","null","<p> <font color=""green"" size=""4vw""> Correct category! </font> <br> <br> <font color=""green"" size=""7vw""> + $0.05 </font> </p>","null","feedback","","","","","0.05"
"","","","","","html-keyboard-response","70","80836","0.0-6.0-0.3","5d8a5eaf689e58001a8ad452","6552129e68c08af5079f912e","655213449e13575031c69475","466","
            
        <div style=""text-align: center; position: fixed; top: 5vh; left: 40vw;"">
            <div style=""margin:0 auto; width: 20vw; top: 8vh; font-size: 1vw""> 
            <font color=""green""> Bonus : $0.05 </font>
            </div>
        </div>
    
            <div> Please press any button to continue to the next trial.</div>
        "," ","ITI","","","","",""
"","","","","","html-keyboard-response","71","81452","0.0-6.0-1.3","5d8a5eaf689e58001a8ad452","6552129e68c08af5079f912e","655213449e13575031c69475","null","
        
        <div style=""text-align: center; position: fixed; top: 5vh; left: 40vw;"">
            <div style=""margin:0 auto; width: 20vw; top: 8vh; font-size: 1vw""> 
            <font color=""green""> Bonus : $0.05 </font>
            </div>
        </div>
    
        <img class=""stim"" src=./stimuli//pack_1/cat_1/ex_1_22.png></img>
    ","null","stimulus","","","","",""
"","","","","","html-keyboard-response","72","82466","0.0-6.0-2.3","5d8a5eaf689e58001a8ad452","6552129e68c08af5079f912e","655213449e13575031c69475","null","
        <div style=""text-align: center; position: fixed; top: 5vh; left: 40vw;"">
            <div style=""margin:0 auto; width: 20vw; top: 8vh; font-size: 1vw""> 
            <font color=""green""> Bonus : $0.05 </font>
            </div>
        </div>
    ","null","","","","","",""
"","","","","","html-keyboard-response","73","82723","0.0-6.0-3.3","5d8a5eaf689e58001a8ad452","6552129e68c08af5079f912e","655213449e13575031c69475","256","./stimuli//pack_1/cat_1/ex_1_22.png","arrowleft","response","ArrowLeft","22","1","true",""
"","","","","","html-keyboard-response","74","84228","0.0-6.0-4.3","5d8a5eaf689e58001a8ad452","6552129e68c08af5079f912e","655213449e13575031c69475","null","<p> <font color=""green"" size=""4vw""> Correct category! </font> <br> <br> <font color=""green"" size=""7vw""> + $0.05 </font> </p>","null","feedback","","","","","0.1"
"","","","","","html-keyboard-response","75","84474","0.0-6.0-0.4","5d8a5eaf689e58001a8ad452","6552129e68c08af5079f912e","655213449e13575031c69475","244","
            
        <div style=""text-align: center; position: fixed; top: 5vh; left: 40vw;"">
            <div style=""margin:0 auto; width: 20vw; top: 8vh; font-size: 1vw""> 
            <font color=""green""> Bonus : $0.1 </font>
            </div>
        </div>
    
            <div> Please press any button to continue to the next trial.</div>
        "," ","ITI","","","","",""
"","","","","","html-keyboard-response","76","85080","0.0-6.0-1.4","5d8a5eaf689e58001a8ad452","6552129e68c08af5079f912e","655213449e13575031c69475","null","
        
        <div style=""text-align: center; position: fixed; top: 5vh; left: 40vw;"">
            <div style=""margin:0 auto; width: 20vw; top: 8vh; font-size: 1vw""> 
            <font color=""green""> Bonus : $0.1 </font>
            </div>
        </div>
    
        <img class=""stim"" src=./stimuli//pack_1/cat_2/ex_2_52.png></img>
    ","null","stimulus","","","","",""
"","","","","","html-keyboard-response","77","86089","0.0-6.0-2.4","5d8a5eaf689e58001a8ad452","6552129e68c08af5079f912e","655213449e13575031c69475","null","
        <div style=""text-align: center; position: fixed; top: 5vh; left: 40vw;"">
            <div style=""margin:0 auto; width: 20vw; top: 8vh; font-size: 1vw""> 
            <font color=""green""> Bonus : $0.1 </font>
            </div>
        </div>
    ","null","","","","","",""
"","","","","","html-keyboard-response","78","86358","0.0-6.0-3.4","5d8a5eaf689e58001a8ad452","6552129e68c08af5079f912e","655213449e13575031c69475","269","./stimuli//pack_1/cat_2/ex_2_52.png","arrowright","response","ArrowRight","52","2","true",""
"","","","","","html-keyboard-response","79","87869","0.0-6.0-4.4","5d8a5eaf689e58001a8ad452","6552129e68c08af5079f912e","655213449e13575031c69475","null","<p> <font color=""green"" size=""4vw""> Correct category! </font> <br> <br> <font color=""green"" size=""7vw""> + $0.05 </font> </p>","null","feedback","","","","","0.15"
"","","","","","html-keyboard-response","80","88001","0.0-6.0-0.5","5d8a5eaf689e58001a8ad452","6552129e68c08af5079f912e","655213449e13575031c69475","131","
            
        <div style=""text-align: center; position: fixed; top: 5vh; left: 40vw;"">
            <div style=""margin:0 auto; width: 20vw; top: 8vh; font-size: 1vw""> 
            <font color=""green""> Bonus : $0.15 </font>
            </div>
        </div>
    
            <div> Please press any button to continue to the next trial.</div>
        "," ","ITI","","","","",""
"","","","","","html-keyboard-response","81","88610","0.0-6.0-1.5","5d8a5eaf689e58001a8ad452","6552129e68c08af5079f912e","655213449e13575031c69475","null","
        
        <div style=""text-align: center; position: fixed; top: 5vh; left: 40vw;"">
            <div style=""margin:0 auto; width: 20vw; top: 8vh; font-size: 1vw""> 
            <font color=""green""> Bonus : $0.15 </font>
            </div>
        </div>
    
        <img class=""stim"" src=./stimuli//pack_1/cat_2/ex_2_66.png></img>
    ","null","stimulus","","","","",""
"","","","","","html-keyboard-response","82","89618","0.0-6.0-2.5","5d8a5eaf689e58001a8ad452","6552129e68c08af5079f912e","655213449e13575031c69475","null","
        <div style=""text-align: center; position: fixed; top: 5vh; left: 40vw;"">
            <div style=""margin:0 auto; width: 20vw; top: 8vh; font-size: 1vw""> 
            <font color=""green""> Bonus : $0.15 </font>
            </div>
        </div>
    ","null","","","","","",""
"","","","","","html-keyboard-response","83","89863","0.0-6.0-3.5","5d8a5eaf689e58001a8ad452","6552129e68c08af5079f912e","655213449e13575031c69475","243","./stimuli//pack_1/cat_2/ex_2_66.png","arrowleft","response","ArrowRight","66","2","false",""
"","","","","","html-keyboard-response","84","91378","0.0-6.0-4.5","5d8a5eaf689e58001a8ad452","6552129e68c08af5079f912e","655213449e13575031c69475","null","<p> <font color=""red"" size=""4vw""> Wrong category! </font> </p>","null","feedback","","","","","0.15"
"","","","","","html-keyboard-response","85","91604","0.0-6.0-0.6","5d8a5eaf689e58001a8ad452","6552129e68c08af5079f912e","655213449e13575031c69475","225","
            
        <div style=""text-align: center; position: fixed; top: 5vh; left: 40vw;"">
            <div style=""margin:0 auto; width: 20vw; top: 8vh; font-size: 1vw""> 
            <font color=""green""> Bonus : $0.15 </font>
            </div>
        </div>
    
            <div> Please press any button to continue to the next trial.</div>
        "," ","ITI","","","","",""
"","","","","","html-keyboard-response","86","92212","0.0-6.0-1.6","5d8a5eaf689e58001a8ad452","6552129e68c08af5079f912e","655213449e13575031c69475","null","
        
        <div style=""text-align: center; position: fixed; top: 5vh; left: 40vw;"">
            <div style=""margin:0 auto; width: 20vw; top: 8vh; font-size: 1vw""> 
            <font color=""green""> Bonus : $0.15 </font>
            </div>
        </div>
    
        <img class=""stim"" src=./stimuli//pack_1/cat_1/ex_1_23.png></img>
    ","null","stimulus","","","","",""
"","","","","","html-keyboard-response","87","93215","0.0-6.0-2.6","5d8a5eaf689e58001a8ad452","6552129e68c08af5079f912e","655213449e13575031c69475","null","
        <div style=""text-align: center; position: fixed; top: 5vh; left: 40vw;"">
            <div style=""margin:0 auto; width: 20vw; top: 8vh; font-size: 1vw""> 
            <font color=""green""> Bonus : $0.15 </font>
            </div>
        </div>
    ","null","","","","","",""
"","","","","","html-keyboard-response","88","93672","0.0-6.0-3.6","5d8a5eaf689e58001a8ad452","6552129e68c08af5079f912e","655213449e13575031c69475","456","./stimuli//pack_1/cat_1/ex_1_23.png","arrowleft","response","ArrowLeft","23","1","true",""
"","","","","","html-keyboard-response","89","95179","0.0-6.0-4.6","5d8a5eaf689e58001a8ad452","6552129e68c08af5079f912e","655213449e13575031c69475","null","<p> <font color=""green"" size=""4vw""> Correct category! </font> <br> <br> <font color=""green"" size=""7vw""> + $0.05 </font> </p>","null","feedback","","","","","0.2"
"","","","","","html-keyboard-response","90","95677","0.0-6.0-0.7","5d8a5eaf689e58001a8ad452","6552129e68c08af5079f912e","655213449e13575031c69475","497","
            
        <div style=""text-align: center; position: fixed; top: 5vh; left: 40vw;"">
            <div style=""margin:0 auto; width: 20vw; top: 8vh; font-size: 1vw""> 
            <font color=""green""> Bonus : $0.2 </font>
            </div>
        </div>
    
            <div> Please press any button to continue to the next trial.</div>
        "," ","ITI","","","","",""
"","","","","","html-keyboard-response","91","96280","0.0-6.0-1.7","5d8a5eaf689e58001a8ad452","6552129e68c08af5079f912e","655213449e13575031c69475","null","
        
        <div style=""text-align: center; position: fixed; top: 5vh; left: 40vw;"">
            <div style=""margin:0 auto; width: 20vw; top: 8vh; font-size: 1vw""> 
            <font color=""green""> Bonus : $0.2 </font>
            </div>
        </div>
    
        <img class=""stim"" src=./stimuli//pack_1/cat_2/ex_2_71.png></img>
    ","null","stimulus","","","","",""
"","","","","","html-keyboard-response","92","97283","0.0-6.0-2.7","5d8a5eaf689e58001a8ad452","6552129e68c08af5079f912e","655213449e13575031c69475","null","
        <div style=""text-align: center; position: fixed; top: 5vh; left: 40vw;"">
            <div style=""margin:0 auto; width: 20vw; top: 8vh; font-size: 1vw""> 
            <font color=""green""> Bonus : $0.2 </font>
            </div>
        </div>
    ","null","","","","","",""
"","","","","","html-keyboard-response","93","97528","0.0-6.0-3.7","5d8a5eaf689e58001a8ad452","6552129e68c08af5079f912e","655213449e13575031c69475","244","./stimuli//pack_1/cat_2/ex_2_71.png","arrowright","response","ArrowRight","71","2","true",""
"","","","","","html-keyboard-response","94","99035","0.0-6.0-4.7","5d8a5eaf689e58001a8ad452","6552129e68c08af5079f912e","655213449e13575031c69475","null","<p> <font color=""green"" size=""4vw""> Correct category! </font> <br> <br> <font color=""green"" size=""7vw""> + $0.05 </font> </p>","null","feedback","","","","","0.25"
"","","","","","html-keyboard-response","95","99288","0.0-6.0-0.8","5d8a5eaf689e58001a8ad452","6552129e68c08af5079f912e","655213449e13575031c69475","253","
            
        <div style=""text-align: center; position: fixed; top: 5vh; left: 40vw;"">
            <div style=""margin:0 auto; width: 20vw; top: 8vh; font-size: 1vw""> 
            <font color=""green""> Bonus : $0.25 </font>
            </div>
        </div>
    
            <div> Please press any button to continue to the next trial.</div>
        "," ","ITI","","","","",""
"","","","","","html-keyboard-response","96","99899","0.0-6.0-1.8","5d8a5eaf689e58001a8ad452","6552129e68c08af5079f912e","655213449e13575031c69475","null","
        
        <div style=""text-align: center; position: fixed; top: 5vh; left: 40vw;"">
            <div style=""margin:0 auto; width: 20vw; top: 8vh; font-size: 1vw""> 
            <font color=""green""> Bonus : $0.25 </font>
            </div>
        </div>
    
        <img class=""stim"" src=./stimuli//pack_1/cat_1/ex_1_92.png></img>
    ","null","stimulus","","","","",""
"","","","","","html-keyboard-response","97","100910","0.0-6.0-2.8","5d8a5eaf689e58001a8ad452","6552129e68c08af5079f912e","655213449e13575031c69475","null","
        <div style=""text-align: center; position: fixed; top: 5vh; left: 40vw;"">
            <div style=""margin:0 auto; width: 20vw; top: 8vh; font-size: 1vw""> 
            <font color=""green""> Bonus : $0.25 </font>
            </div>
        </div>
    ","null","","","","","",""
"","","","","","html-keyboard-response","98","101141","0.0-6.0-3.8","5d8a5eaf689e58001a8ad452","6552129e68c08af5079f912e","655213449e13575031c69475","231","./stimuli//pack_1/cat_1/ex_1_92.png","arrowleft","response","ArrowLeft","92","1","true",""
"","","","","","html-keyboard-response","99","102643","0.0-6.0-4.8","5d8a5eaf689e58001a8ad452","6552129e68c08af5079f912e","655213449e13575031c69475","null","<p> <font color=""green"" size=""4vw""> Correct category! </font> <br> <br> <font color=""green"" size=""7vw""> + $0.05 </font> </p>","null","feedback","","","","","0.3"
"","","","","","html-keyboard-response","100","102931","0.0-6.0-0.9","5d8a5eaf689e58001a8ad452","6552129e68c08af5079f912e","655213449e13575031c69475","287","
            
        <div style=""text-align: center; position: fixed; top: 5vh; left: 40vw;"">
            <div style=""margin:0 auto; width: 20vw; top: 8vh; font-size: 1vw""> 
            <font color=""green""> Bonus : $0.3 </font>
            </div>
        </div>
    
            <div> Please press any button to continue to the next trial.</div>
        "," ","ITI","","","","",""
"","","","","","html-keyboard-response","101","103539","0.0-6.0-1.9","5d8a5eaf689e58001a8ad452","6552129e68c08af5079f912e","655213449e13575031c69475","null","
        
        <div style=""text-align: center; position: fixed; top: 5vh; left: 40vw;"">
            <div style=""margin:0 auto; width: 20vw; top: 8vh; font-size: 1vw""> 
            <font color=""green""> Bonus : $0.3 </font>
            </div>
        </div>
    
        <img class=""stim"" src=./stimuli//pack_1/cat_2/ex_2_15.png></img>
    ","null","stimulus","","","","",""
"","","","","","html-keyboard-response","102","104544","0.0-6.0-2.9","5d8a5eaf689e58001a8ad452","6552129e68c08af5079f912e","655213449e13575031c69475","null","
        <div style=""text-align: center; position: fixed; top: 5vh; left: 40vw;"">
            <div style=""margin:0 auto; width: 20vw; top: 8vh; font-size: 1vw""> 
            <font color=""green""> Bonus : $0.3 </font>
            </div>
        </div>
    ","null","","","","","",""
"","","","","","html-keyboard-response","103","104762","0.0-6.0-3.9","5d8a5eaf689e58001a8ad452","6552129e68c08af5079f912e","655213449e13575031c69475","217","./stimuli//pack_1/cat_2/ex_2_15.png","arrowright","response","ArrowRight","15","2","true",""
"","","","","","html-keyboard-response","104","106272","0.0-6.0-4.9","5d8a5eaf689e58001a8ad452","6552129e68c08af5079f912e","655213449e13575031c69475","null","<p> <font color=""green"" size=""4vw""> Correct category! </font> <br> <br> <font color=""green"" size=""7vw""> + $0.05 </font> </p>","null","feedback","","","","","0.35"
"","","","","","html-keyboard-response","105","106649","0.0-6.0-0.10","5d8a5eaf689e58001a8ad452","6552129e68c08af5079f912e","655213449e13575031c69475","377","
            
        <div style=""text-align: center; position: fixed; top: 5vh; left: 40vw;"">
            <div style=""margin:0 auto; width: 20vw; top: 8vh; font-size: 1vw""> 
            <font color=""green""> Bonus : $0.35 </font>
            </div>
        </div>
    
            <div> Please press any button to continue to the next trial.</div>
        "," ","ITI","","","","",""
"","","","","","html-keyboard-response","106","107261","0.0-6.0-1.10","5d8a5eaf689e58001a8ad452","6552129e68c08af5079f912e","655213449e13575031c69475","null","
        
        <div style=""text-align: center; position: fixed; top: 5vh; left: 40vw;"">
            <div style=""margin:0 auto; width: 20vw; top: 8vh; font-size: 1vw""> 
            <font color=""green""> Bonus : $0.35 </font>
            </div>
        </div>
    
        <img class=""stim"" src=./stimuli//pack_1/cat_2/ex_2_10.png></img>
    ","null","stimulus","","","","",""
"","","","","","html-keyboard-response","107","108264","0.0-6.0-2.10","5d8a5eaf689e58001a8ad452","6552129e68c08af5079f912e","655213449e13575031c69475","null","
        <div style=""text-align: center; position: fixed; top: 5vh; left: 40vw;"">
            <div style=""margin:0 auto; width: 20vw; top: 8vh; font-size: 1vw""> 
            <font color=""green""> Bonus : $0.35 </font>
            </div>
        </div>
    ","null","","","","","",""
"","","","","","html-keyboard-response","108","108538","0.0-6.0-3.10","5d8a5eaf689e58001a8ad452","6552129e68c08af5079f912e","655213449e13575031c69475","273","./stimuli//pack_1/cat_2/ex_2_10.png","arrowright","response","ArrowRight","10","2","true",""
"","","","","","html-keyboard-response","109","110049","0.0-6.0-4.10","5d8a5eaf689e58001a8ad452","6552129e68c08af5079f912e","655213449e13575031c69475","null","<p> <font color=""green"" size=""4vw""> Correct category! </font> <br> <br> <font color=""green"" size=""7vw""> + $0.05 </font> </p>","null","feedback","","","","","0.4"
"","","","","","html-keyboard-response","110","110469","0.0-6.0-0.11","5d8a5eaf689e58001a8ad452","6552129e68c08af5079f912e","655213449e13575031c69475","419","
            
        <div style=""text-align: center; position: fixed; top: 5vh; left: 40vw;"">
            <div style=""margin:0 auto; width: 20vw; top: 8vh; font-size: 1vw""> 
            <font color=""green""> Bonus : $0.4 </font>
            </div>
        </div>
    
            <div> Please press any button to continue to the next trial.</div>
        "," ","ITI","","","","",""
"","","","","","html-keyboard-response","111","111072","0.0-6.0-1.11","5d8a5eaf689e58001a8ad452","6552129e68c08af5079f912e","655213449e13575031c69475","null","
        
        <div style=""text-align: center; position: fixed; top: 5vh; left: 40vw;"">
            <div style=""margin:0 auto; width: 20vw; top: 8vh; font-size: 1vw""> 
            <font color=""green""> Bonus : $0.4 </font>
            </div>
        </div>
    
        <img class=""stim"" src=./stimuli//pack_1/cat_1/ex_1_51.png></img>
    ","null","stimulus","","","","",""
"","","","","","html-keyboard-response","112","112080","0.0-6.0-2.11","5d8a5eaf689e58001a8ad452","6552129e68c08af5079f912e","655213449e13575031c69475","null","
        <div style=""text-align: center; position: fixed; top: 5vh; left: 40vw;"">
            <div style=""margin:0 auto; width: 20vw; top: 8vh; font-size: 1vw""> 
            <font color=""green""> Bonus : $0.4 </font>
            </div>
        </div>
    ","null","","","","","",""
"","","","","","html-keyboard-response","113","112330","0.0-6.0-3.11","5d8a5eaf689e58001a8ad452","6552129e68c08af5079f912e","655213449e13575031c69475","249","./stimuli//pack_1/cat_1/ex_1_51.png","arrowleft","response","ArrowLeft","51","1","true",""
"","","","","","html-keyboard-response","114","113845","0.0-6.0-4.11","5d8a5eaf689e58001a8ad452","6552129e68c08af5079f912e","655213449e13575031c69475","null","<p> <font color=""green"" size=""4vw""> Correct category! </font> <br> <br> <font color=""green"" size=""7vw""> + $0.05 </font> </p>","null","feedback","","","","","0.45"
"","","","","","html-keyboard-response","115","114123","0.0-6.0-0.12","5d8a5eaf689e58001a8ad452","6552129e68c08af5079f912e","655213449e13575031c69475","277","
            
        <div style=""text-align: center; position: fixed; top: 5vh; left: 40vw;"">
            <div style=""margin:0 auto; width: 20vw; top: 8vh; font-size: 1vw""> 
            <font color=""green""> Bonus : $0.45 </font>
            </div>
        </div>
    
            <div> Please press any button to continue to the next trial.</div>
        "," ","ITI","","","","",""
"","","","","","html-keyboard-response","116","114725","0.0-6.0-1.12","5d8a5eaf689e58001a8ad452","6552129e68c08af5079f912e","655213449e13575031c69475","null","
        
        <div style=""text-align: center; position: fixed; top: 5vh; left: 40vw;"">
            <div style=""margin:0 auto; width: 20vw; top: 8vh; font-size: 1vw""> 
            <font color=""green""> Bonus : $0.45 </font>
            </div>
        </div>
    
        <img class=""stim"" src=./stimuli//pack_1/cat_2/ex_2_35.png></img>
    ","null","stimulus","","","","",""
"","","","","","html-keyboard-response","117","115734","0.0-6.0-2.12","5d8a5eaf689e58001a8ad452","6552129e68c08af5079f912e","655213449e13575031c69475","null","
        <div style=""text-align: center; position: fixed; top: 5vh; left: 40vw;"">
            <div style=""margin:0 auto; width: 20vw; top: 8vh; font-size: 1vw""> 
            <font color=""green""> Bonus : $0.45 </font>
            </div>
        </div>
    ","null","","","","","",""
"","","","","","html-keyboard-response","118","115964","0.0-6.0-3.12","5d8a5eaf689e58001a8ad452","6552129e68c08af5079f912e","655213449e13575031c69475","229","./stimuli//pack_1/cat_2/ex_2_35.png","arrowright","response","ArrowRight","35","2","true",""
"","","","","","html-keyboard-response","119","117465","0.0-6.0-4.12","5d8a5eaf689e58001a8ad452","6552129e68c08af5079f912e","655213449e13575031c69475","null","<p> <font color=""green"" size=""4vw""> Correct category! </font> <br> <br> <font color=""green"" size=""7vw""> + $0.05 </font> </p>","null","feedback","","","","","0.5"
"","","","","","html-keyboard-response","120","117744","0.0-6.0-0.13","5d8a5eaf689e58001a8ad452","6552129e68c08af5079f912e","655213449e13575031c69475","277","
            
        <div style=""text-align: center; position: fixed; top: 5vh; left: 40vw;"">
            <div style=""margin:0 auto; width: 20vw; top: 8vh; font-size: 1vw""> 
            <font color=""green""> Bonus : $0.5 </font>
            </div>
        </div>
    
            <div> Please press any button to continue to the next trial.</div>
        "," ","ITI","","","","",""
"","","","","","html-keyboard-response","121","118348","0.0-6.0-1.13","5d8a5eaf689e58001a8ad452","6552129e68c08af5079f912e","655213449e13575031c69475","null","
        
        <div style=""text-align: center; position: fixed; top: 5vh; left: 40vw;"">
            <div style=""margin:0 auto; width: 20vw; top: 8vh; font-size: 1vw""> 
            <font color=""green""> Bonus : $0.5 </font>
            </div>
        </div>
    
        <img class=""stim"" src=./stimuli//pack_1/cat_1/ex_1_31.png></img>
    ","null","stimulus","","","","",""
"","","","","","html-keyboard-response","122","119349","0.0-6.0-2.13","5d8a5eaf689e58001a8ad452","6552129e68c08af5079f912e","655213449e13575031c69475","null","
        <div style=""text-align: center; position: fixed; top: 5vh; left: 40vw;"">
            <div style=""margin:0 auto; width: 20vw; top: 8vh; font-size: 1vw""> 
            <font color=""green""> Bonus : $0.5 </font>
            </div>
        </div>
    ","null","","","","","",""
"","","","","","html-keyboard-response","123","119493","0.0-6.0-3.13","5d8a5eaf689e58001a8ad452","6552129e68c08af5079f912e","655213449e13575031c69475","143","./stimuli//pack_1/cat_1/ex_1_31.png","arrowright","response","ArrowLeft","31","1","false",""
"","","","","","html-keyboard-response","124","121007","0.0-6.0-4.13","5d8a5eaf689e58001a8ad452","6552129e68c08af5079f912e","655213449e13575031c69475","null","<p> <font color=""red"" size=""4vw""> Wrong category! </font> </p>","null","feedback","","","","","0.5"
"","","","","","html-keyboard-response","125","121346","0.0-6.0-0.14","5d8a5eaf689e58001a8ad452","6552129e68c08af5079f912e","655213449e13575031c69475","339","
            
        <div style=""text-align: center; position: fixed; top: 5vh; left: 40vw;"">
            <div style=""margin:0 auto; width: 20vw; top: 8vh; font-size: 1vw""> 
            <font color=""green""> Bonus : $0.5 </font>
            </div>
        </div>
    
            <div> Please press any button to continue to the next trial.</div>
        "," ","ITI","","","","",""
"","","","","","html-keyboard-response","126","121948","0.0-6.0-1.14","5d8a5eaf689e58001a8ad452","6552129e68c08af5079f912e","655213449e13575031c69475","null","
        
        <div style=""text-align: center; position: fixed; top: 5vh; left: 40vw;"">
            <div style=""margin:0 auto; width: 20vw; top: 8vh; font-size: 1vw""> 
            <font color=""green""> Bonus : $0.5 </font>
            </div>
        </div>
    
        <img class=""stim"" src=./stimuli//pack_1/cat_1/ex_1_80.png></img>
    ","null","stimulus","","","","",""
"","","","","","html-keyboard-response","127","122951","0.0-6.0-2.14","5d8a5eaf689e58001a8ad452","6552129e68c08af5079f912e","655213449e13575031c69475","null","
        <div style=""text-align: center; position: fixed; top: 5vh; left: 40vw;"">
            <div style=""margin:0 auto; width: 20vw; top: 8vh; font-size: 1vw""> 
            <font color=""green""> Bonus : $0.5 </font>
            </div>
        </div>
    ","null","","","","","",""
"","","","","","html-keyboard-response","128","123484","0.0-6.0-3.14","5d8a5eaf689e58001a8ad452","6552129e68c08af5079f912e","655213449e13575031c69475","532","./stimuli//pack_1/cat_1/ex_1_80.png","arrowleft","response","ArrowLeft","80","1","true",""
"","","","","","html-keyboard-response","129","124991","0.0-6.0-4.14","5d8a5eaf689e58001a8ad452","6552129e68c08af5079f912e","655213449e13575031c69475","null","<p> <font color=""green"" size=""4vw""> Correct category! </font> <br> <br> <font color=""green"" size=""7vw""> + $0.05 </font> </p>","null","feedback","","","","","0.55"
"","","","","","html-keyboard-response","130","125480","0.0-6.0-0.15","5d8a5eaf689e58001a8ad452","6552129e68c08af5079f912e","655213449e13575031c69475","488","
            
        <div style=""text-align: center; position: fixed; top: 5vh; left: 40vw;"">
            <div style=""margin:0 auto; width: 20vw; top: 8vh; font-size: 1vw""> 
            <font color=""green""> Bonus : $0.55 </font>
            </div>
        </div>
    
            <div> Please press any button to continue to the next trial.</div>
        "," ","ITI","","","","",""
"","","","","","html-keyboard-response","131","126090","0.0-6.0-1.15","5d8a5eaf689e58001a8ad452","6552129e68c08af5079f912e","655213449e13575031c69475","null","
        
        <div style=""text-align: center; position: fixed; top: 5vh; left: 40vw;"">
            <div style=""margin:0 auto; width: 20vw; top: 8vh; font-size: 1vw""> 
            <font color=""green""> Bonus : $0.55 </font>
            </div>
        </div>
    
        <img class=""stim"" src=./stimuli//pack_1/cat_2/ex_2_96.png></img>
    ","null","stimulus","","","","",""
"","","","","","html-keyboard-response","132","127093","0.0-6.0-2.15","5d8a5eaf689e58001a8ad452","6552129e68c08af5079f912e","655213449e13575031c69475","null","
        <div style=""text-align: center; position: fixed; top: 5vh; left: 40vw;"">
            <div style=""margin:0 auto; width: 20vw; top: 8vh; font-size: 1vw""> 
            <font color=""green""> Bonus : $0.55 </font>
            </div>
        </div>
    ","null","","","","","",""
"","","","","","html-keyboard-response","133","127327","0.0-6.0-3.15","5d8a5eaf689e58001a8ad452","6552129e68c08af5079f912e","655213449e13575031c69475","233","./stimuli//pack_1/cat_2/ex_2_96.png","arrowright","response","ArrowRight","96","2","true",""
"","","","","","html-keyboard-response","134","128837","0.0-6.0-4.15","5d8a5eaf689e58001a8ad452","6552129e68c08af5079f912e","655213449e13575031c69475","null","<p> <font color=""green"" size=""4vw""> Correct category! </font> <br> <br> <font color=""green"" size=""7vw""> + $0.05 </font> </p>","null","feedback","","","","","0.6"
"","","","","","html-keyboard-response","135","134115","0.0-6.0-0.16","5d8a5eaf689e58001a8ad452","6552129e68c08af5079f912e","655213449e13575031c69475","5277","
            
        <div style=""text-align: center; position: fixed; top: 5vh; left: 40vw;"">
            <div style=""margin:0 auto; width: 20vw; top: 8vh; font-size: 1vw""> 
            <font color=""green""> Bonus : $0.6 </font>
            </div>
        </div>
    
            <div> Please press any button to continue to the next trial.</div>
        "," ","ITI","","","","",""
"","","","","","html-keyboard-response","136","134724","0.0-6.0-1.16","5d8a5eaf689e58001a8ad452","6552129e68c08af5079f912e","655213449e13575031c69475","null","
        
        <div style=""text-align: center; position: fixed; top: 5vh; left: 40vw;"">
            <div style=""margin:0 auto; width: 20vw; top: 8vh; font-size: 1vw""> 
            <font color=""green""> Bonus : $0.6 </font>
            </div>
        </div>
    
        <img class=""stim"" src=./stimuli//pack_1/cat_1/ex_1_98.png></img>
    ","null","stimulus","","","","",""
"","","","","","html-keyboard-response","137","135726","0.0-6.0-2.16","5d8a5eaf689e58001a8ad452","6552129e68c08af5079f912e","655213449e13575031c69475","null","
        <div style=""text-align: center; position: fixed; top: 5vh; left: 40vw;"">
            <div style=""margin:0 auto; width: 20vw; top: 8vh; font-size: 1vw""> 
            <font color=""green""> Bonus : $0.6 </font>
            </div>
        </div>
    ","null","","","","","",""
"","","","","","html-keyboard-response","138","136182","0.0-6.0-3.16","5d8a5eaf689e58001a8ad452","6552129e68c08af5079f912e","655213449e13575031c69475","455","./stimuli//pack_1/cat_1/ex_1_98.png","arrowright","response","ArrowLeft","98","1","false",""
"","","","","","html-keyboard-response","139","138645","0.0-6.0-4.16","5d8a5eaf689e58001a8ad452","6552129e68c08af5079f912e","655213449e13575031c69475","null","<p> <font color=""red"" size=""4vw""> Wrong category! </font> </p>","null","feedback","","","","","0.6"
"","","","","","html-keyboard-response","140","140001","0.0-6.0-0.17","5d8a5eaf689e58001a8ad452","6552129e68c08af5079f912e","655213449e13575031c69475","1355","
            
        <div style=""text-align: center; position: fixed; top: 5vh; left: 40vw;"">
            <div style=""margin:0 auto; width: 20vw; top: 8vh; font-size: 1vw""> 
            <font color=""green""> Bonus : $0.6 </font>
            </div>
        </div>
    
            <div> Please press any button to continue to the next trial.</div>
        "," ","ITI","","","","",""
"","","","","","html-keyboard-response","141","140609","0.0-6.0-1.17","5d8a5eaf689e58001a8ad452","6552129e68c08af5079f912e","655213449e13575031c69475","null","
        
        <div style=""text-align: center; position: fixed; top: 5vh; left: 40vw;"">
            <div style=""margin:0 auto; width: 20vw; top: 8vh; font-size: 1vw""> 
            <font color=""green""> Bonus : $0.6 </font>
            </div>
        </div>
    
        <img class=""stim"" src=./stimuli//pack_1/cat_1/ex_1_97.png></img>
    ","null","stimulus","","","","",""
"","","","","","html-keyboard-response","142","141612","0.0-6.0-2.17","5d8a5eaf689e58001a8ad452","6552129e68c08af5079f912e","655213449e13575031c69475","null","
        <div style=""text-align: center; position: fixed; top: 5vh; left: 40vw;"">
            <div style=""margin:0 auto; width: 20vw; top: 8vh; font-size: 1vw""> 
            <font color=""green""> Bonus : $0.6 </font>
            </div>
        </div>
    ","null","","","","","",""
"","","","","","html-keyboard-response","143","142064","0.0-6.0-3.17","5d8a5eaf689e58001a8ad452","6552129e68c08af5079f912e","655213449e13575031c69475","452","./stimuli//pack_1/cat_1/ex_1_97.png","arrowleft","response","ArrowLeft","97","1","true",""
"","","","","","html-keyboard-response","144","143572","0.0-6.0-4.17","5d8a5eaf689e58001a8ad452","6552129e68c08af5079f912e","655213449e13575031c69475","null","<p> <font color=""green"" size=""4vw""> Correct category! </font> <br> <br> <font color=""green"" size=""7vw""> + $0.05 </font> </p>","null","feedback","","","","","0.65"
"","","","","","html-keyboard-response","145","143954","0.0-6.0-0.18","5d8a5eaf689e58001a8ad452","6552129e68c08af5079f912e","655213449e13575031c69475","381","
            
        <div style=""text-align: center; position: fixed; top: 5vh; left: 40vw;"">
            <div style=""margin:0 auto; width: 20vw; top: 8vh; font-size: 1vw""> 
            <font color=""green""> Bonus : $0.65 </font>
            </div>
        </div>
    
            <div> Please press any button to continue to the next trial.</div>
        "," ","ITI","","","","",""
"","","","","","html-keyboard-response","146","144558","0.0-6.0-1.18","5d8a5eaf689e58001a8ad452","6552129e68c08af5079f912e","655213449e13575031c69475","null","
        
        <div style=""text-align: center; position: fixed; top: 5vh; left: 40vw;"">
            <div style=""margin:0 auto; width: 20vw; top: 8vh; font-size: 1vw""> 
            <font color=""green""> Bonus : $0.65 </font>
            </div>
        </div>
    
        <img class=""stim"" src=./stimuli//pack_1/cat_1/ex_1_65.png></img>
    ","null","stimulus","","","","",""
"","","","","","html-keyboard-response","147","145574","0.0-6.0-2.18","5d8a5eaf689e58001a8ad452","6552129e68c08af5079f912e","655213449e13575031c69475","null","
        <div style=""text-align: center; position: fixed; top: 5vh; left: 40vw;"">
            <div style=""margin:0 auto; width: 20vw; top: 8vh; font-size: 1vw""> 
            <font color=""green""> Bonus : $0.65 </font>
            </div>
        </div>
    ","null","","","","","",""
"","","","","","html-keyboard-response","148","145821","0.0-6.0-3.18","5d8a5eaf689e58001a8ad452","6552129e68c08af5079f912e","655213449e13575031c69475","246","./stimuli//pack_1/cat_1/ex_1_65.png","arrowleft","response","ArrowLeft","65","1","true",""
"","","","","","html-keyboard-response","149","147336","0.0-6.0-4.18","5d8a5eaf689e58001a8ad452","6552129e68c08af5079f912e","655213449e13575031c69475","null","<p> <font color=""green"" size=""4vw""> Correct category! </font> <br> <br> <font color=""green"" size=""7vw""> + $0.05 </font> </p>","null","feedback","","","","","0.7"
"","","","","","html-keyboard-response","150","147881","0.0-6.0-0.19","5d8a5eaf689e58001a8ad452","6552129e68c08af5079f912e","655213449e13575031c69475","545","
            
        <div style=""text-align: center; position: fixed; top: 5vh; left: 40vw;"">
            <div style=""margin:0 auto; width: 20vw; top: 8vh; font-size: 1vw""> 
            <font color=""green""> Bonus : $0.7 </font>
            </div>
        </div>
    
            <div> Please press any button to continue to the next trial.</div>
        "," ","ITI","","","","",""
"","","","","","html-keyboard-response","151","148493","0.0-6.0-1.19","5d8a5eaf689e58001a8ad452","6552129e68c08af5079f912e","655213449e13575031c69475","null","
        
        <div style=""text-align: center; position: fixed; top: 5vh; left: 40vw;"">
            <div style=""margin:0 auto; width: 20vw; top: 8vh; font-size: 1vw""> 
            <font color=""green""> Bonus : $0.7 </font>
            </div>
        </div>
    
        <img class=""stim"" src=./stimuli//pack_1/cat_2/ex_2_58.png></img>
    ","null","stimulus","","","","",""
"","","","","","html-keyboard-response","152","149502","0.0-6.0-2.19","5d8a5eaf689e58001a8ad452","6552129e68c08af5079f912e","655213449e13575031c69475","null","
        <div style=""text-align: center; position: fixed; top: 5vh; left: 40vw;"">
            <div style=""margin:0 auto; width: 20vw; top: 8vh; font-size: 1vw""> 
            <font color=""green""> Bonus : $0.7 </font>
            </div>
        </div>
    ","null","","","","","",""
"","","","","","html-keyboard-response","153","149766","0.0-6.0-3.19","5d8a5eaf689e58001a8ad452","6552129e68c08af5079f912e","655213449e13575031c69475","263","./stimuli//pack_1/cat_2/ex_2_58.png","arrowleft","response","ArrowRight","58","2","false",""
"","","","","","html-keyboard-response","154","151277","0.0-6.0-4.19","5d8a5eaf689e58001a8ad452","6552129e68c08af5079f912e","655213449e13575031c69475","null","<p> <font color=""red"" size=""4vw""> Wrong category! </font> </p>","null","feedback","","","","","0.7"
"","","","","","html-keyboard-response","155","151592","0.0-6.0-0.20","5d8a5eaf689e58001a8ad452","6552129e68c08af5079f912e","655213449e13575031c69475","314","
            
        <div style=""text-align: center; position: fixed; top: 5vh; left: 40vw;"">
            <div style=""margin:0 auto; width: 20vw; top: 8vh; font-size: 1vw""> 
            <font color=""green""> Bonus : $0.7 </font>
            </div>
        </div>
    
            <div> Please press any button to continue to the next trial.</div>
        "," ","ITI","","","","",""
"","","","","","html-keyboard-response","156","152202","0.0-6.0-1.20","5d8a5eaf689e58001a8ad452","6552129e68c08af5079f912e","655213449e13575031c69475","null","
        
        <div style=""text-align: center; position: fixed; top: 5vh; left: 40vw;"">
            <div style=""margin:0 auto; width: 20vw; top: 8vh; font-size: 1vw""> 
            <font color=""green""> Bonus : $0.7 </font>
            </div>
        </div>
    
        <img class=""stim"" src=./stimuli//pack_1/cat_2/ex_2_61.png></img>
    ","null","stimulus","","","","",""
"","","","","","html-keyboard-response","157","153210","0.0-6.0-2.20","5d8a5eaf689e58001a8ad452","6552129e68c08af5079f912e","655213449e13575031c69475","null","
        <div style=""text-align: center; position: fixed; top: 5vh; left: 40vw;"">
            <div style=""margin:0 auto; width: 20vw; top: 8vh; font-size: 1vw""> 
            <font color=""green""> Bonus : $0.7 </font>
            </div>
        </div>
    ","null","","","","","",""
"","","","","","html-keyboard-response","158","153748","0.0-6.0-3.20","5d8a5eaf689e58001a8ad452","6552129e68c08af5079f912e","655213449e13575031c69475","538","./stimuli//pack_1/cat_2/ex_2_61.png","arrowleft","response","ArrowRight","61","2","false",""
"","","","","","html-keyboard-response","159","155251","0.0-6.0-4.20","5d8a5eaf689e58001a8ad452","6552129e68c08af5079f912e","655213449e13575031c69475","null","<p> <font color=""red"" size=""4vw""> Wrong category! </font> </p>","null","feedback","","","","","0.7"
"","","","","","html-keyboard-response","160","155474","0.0-6.0-0.21","5d8a5eaf689e58001a8ad452","6552129e68c08af5079f912e","655213449e13575031c69475","223","
            
        <div style=""text-align: center; position: fixed; top: 5vh; left: 40vw;"">
            <div style=""margin:0 auto; width: 20vw; top: 8vh; font-size: 1vw""> 
            <font color=""green""> Bonus : $0.7 </font>
            </div>
        </div>
    
            <div> Please press any button to continue to the next trial.</div>
        "," ","ITI","","","","",""
"","","","","","html-keyboard-response","161","156085","0.0-6.0-1.21","5d8a5eaf689e58001a8ad452","6552129e68c08af5079f912e","655213449e13575031c69475","null","
        
        <div style=""text-align: center; position: fixed; top: 5vh; left: 40vw;"">
            <div style=""margin:0 auto; width: 20vw; top: 8vh; font-size: 1vw""> 
            <font color=""green""> Bonus : $0.7 </font>
            </div>
        </div>
    
        <img class=""stim"" src=./stimuli//pack_1/cat_1/ex_1_15.png></img>
    ","null","stimulus","","","","",""
"","","","","","html-keyboard-response","162","157094","0.0-6.0-2.21","5d8a5eaf689e58001a8ad452","6552129e68c08af5079f912e","655213449e13575031c69475","null","
        <div style=""text-align: center; position: fixed; top: 5vh; left: 40vw;"">
            <div style=""margin:0 auto; width: 20vw; top: 8vh; font-size: 1vw""> 
            <font color=""green""> Bonus : $0.7 </font>
            </div>
        </div>
    ","null","","","","","",""
"","","","","","html-keyboard-response","163","157328","0.0-6.0-3.21","5d8a5eaf689e58001a8ad452","6552129e68c08af5079f912e","655213449e13575031c69475","234","./stimuli//pack_1/cat_1/ex_1_15.png","arrowright","response","ArrowLeft","15","1","false",""
"","","","","","html-keyboard-response","164","158843","0.0-6.0-4.21","5d8a5eaf689e58001a8ad452","6552129e68c08af5079f912e","655213449e13575031c69475","null","<p> <font color=""red"" size=""4vw""> Wrong category! </font> </p>","null","feedback","","","","","0.7"
"","","","","","html-keyboard-response","165","159108","0.0-6.0-0.22","5d8a5eaf689e58001a8ad452","6552129e68c08af5079f912e","655213449e13575031c69475","265","
            
        <div style=""text-align: center; position: fixed; top: 5vh; left: 40vw;"">
            <div style=""margin:0 auto; width: 20vw; top: 8vh; font-size: 1vw""> 
            <font color=""green""> Bonus : $0.7 </font>
            </div>
        </div>
    
            <div> Please press any button to continue to the next trial.</div>
        "," ","ITI","","","","",""
"","","","","","html-keyboard-response","166","159722","0.0-6.0-1.22","5d8a5eaf689e58001a8ad452","6552129e68c08af5079f912e","655213449e13575031c69475","null","
        
        <div style=""text-align: center; position: fixed; top: 5vh; left: 40vw;"">
            <div style=""margin:0 auto; width: 20vw; top: 8vh; font-size: 1vw""> 
            <font color=""green""> Bonus : $0.7 </font>
            </div>
        </div>
    
        <img class=""stim"" src=./stimuli//pack_1/cat_1/ex_1_89.png></img>
    ","null","stimulus","","","","",""
"","","","","","html-keyboard-response","167","160724","0.0-6.0-2.22","5d8a5eaf689e58001a8ad452","6552129e68c08af5079f912e","655213449e13575031c69475","null","
        <div style=""text-align: center; position: fixed; top: 5vh; left: 40vw;"">
            <div style=""margin:0 auto; width: 20vw; top: 8vh; font-size: 1vw""> 
            <font color=""green""> Bonus : $0.7 </font>
            </div>
        </div>
    ","null","","","","","",""
"","","","","","html-keyboard-response","168","160934","0.0-6.0-3.22","5d8a5eaf689e58001a8ad452","6552129e68c08af5079f912e","655213449e13575031c69475","209","./stimuli//pack_1/cat_1/ex_1_89.png","arrowleft","response","ArrowLeft","89","1","true",""
"","","","","","html-keyboard-response","169","162440","0.0-6.0-4.22","5d8a5eaf689e58001a8ad452","6552129e68c08af5079f912e","655213449e13575031c69475","null","<p> <font color=""green"" size=""4vw""> Correct category! </font> <br> <br> <font color=""green"" size=""7vw""> + $0.05 </font> </p>","null","feedback","","","","","0.75"
"","","","","","html-keyboard-response","170","162693","0.0-6.0-0.23","5d8a5eaf689e58001a8ad452","6552129e68c08af5079f912e","655213449e13575031c69475","252","
            
        <div style=""text-align: center; position: fixed; top: 5vh; left: 40vw;"">
            <div style=""margin:0 auto; width: 20vw; top: 8vh; font-size: 1vw""> 
            <font color=""green""> Bonus : $0.75 </font>
            </div>
        </div>
    
            <div> Please press any button to continue to the next trial.</div>
        "," ","ITI","","","","",""
"","","","","","html-keyboard-response","171","163307","0.0-6.0-1.23","5d8a5eaf689e58001a8ad452","6552129e68c08af5079f912e","655213449e13575031c69475","null","
        
        <div style=""text-align: center; position: fixed; top: 5vh; left: 40vw;"">
            <div style=""margin:0 auto; width: 20vw; top: 8vh; font-size: 1vw""> 
            <font color=""green""> Bonus : $0.75 </font>
            </div>
        </div>
    
        <img class=""stim"" src=./stimuli//pack_1/cat_2/ex_2_44.png></img>
    ","null","stimulus","","","","",""
"","","","","","html-keyboard-response","172","164311","0.0-6.0-2.23","5d8a5eaf689e58001a8ad452","6552129e68c08af5079f912e","655213449e13575031c69475","null","
        <div style=""text-align: center; position: fixed; top: 5vh; left: 40vw;"">
            <div style=""margin:0 auto; width: 20vw; top: 8vh; font-size: 1vw""> 
            <font color=""green""> Bonus : $0.75 </font>
            </div>
        </div>
    ","null","","","","","",""
"","","","","","html-keyboard-response","173","164538","0.0-6.0-3.23","5d8a5eaf689e58001a8ad452","6552129e68c08af5079f912e","655213449e13575031c69475","226","./stimuli//pack_1/cat_2/ex_2_44.png","arrowright","response","ArrowRight","44","2","true",""
"","","","","","html-keyboard-response","174","166047","0.0-6.0-4.23","5d8a5eaf689e58001a8ad452","6552129e68c08af5079f912e","655213449e13575031c69475","null","<p> <font color=""green"" size=""4vw""> Correct category! </font> <br> <br> <font color=""green"" size=""7vw""> + $0.05 </font> </p>","null","feedback","","","","","0.8"
"","","","","","html-keyboard-response","175","174510","0.0-6.0-0.24","5d8a5eaf689e58001a8ad452","6552129e68c08af5079f912e","655213449e13575031c69475","8463","
            
        <div style=""text-align: center; position: fixed; top: 5vh; left: 40vw;"">
            <div style=""margin:0 auto; width: 20vw; top: 8vh; font-size: 1vw""> 
            <font color=""green""> Bonus : $0.8 </font>
            </div>
        </div>
    
            <div> Please press any button to continue to the next trial.</div>
        ","arrowleft","ITI","","","","",""
"","","","","","html-keyboard-response","176","175118","0.0-6.0-1.24","5d8a5eaf689e58001a8ad452","6552129e68c08af5079f912e","655213449e13575031c69475","null","
        
        <div style=""text-align: center; position: fixed; top: 5vh; left: 40vw;"">
            <div style=""margin:0 auto; width: 20vw; top: 8vh; font-size: 1vw""> 
            <font color=""green""> Bonus : $0.8 </font>
            </div>
        </div>
    
        <img class=""stim"" src=./stimuli//pack_1/cat_1/ex_1_86.png></img>
    ","null","stimulus","","","","",""
"","","","","","html-keyboard-response","177","176126","0.0-6.0-2.24","5d8a5eaf689e58001a8ad452","6552129e68c08af5079f912e","655213449e13575031c69475","null","
        <div style=""text-align: center; position: fixed; top: 5vh; left: 40vw;"">
            <div style=""margin:0 auto; width: 20vw; top: 8vh; font-size: 1vw""> 
            <font color=""green""> Bonus : $0.8 </font>
            </div>
        </div>
    ","null","","","","","",""
"","","","","","html-keyboard-response","178","176421","0.0-6.0-3.24","5d8a5eaf689e58001a8ad452","6552129e68c08af5079f912e","655213449e13575031c69475","294","./stimuli//pack_1/cat_1/ex_1_86.png","arrowright","response","ArrowLeft","86","1","false",""
"","","","","","html-keyboard-response","179","177927","0.0-6.0-4.24","5d8a5eaf689e58001a8ad452","6552129e68c08af5079f912e","655213449e13575031c69475","null","<p> <font color=""red"" size=""4vw""> Wrong category! </font> </p>","null","feedback","","","","","0.8"
"","","","","","html-keyboard-response","180","178161","0.0-6.0-0.25","5d8a5eaf689e58001a8ad452","6552129e68c08af5079f912e","655213449e13575031c69475","233","
            
        <div style=""text-align: center; position: fixed; top: 5vh; left: 40vw;"">
            <div style=""margin:0 auto; width: 20vw; top: 8vh; font-size: 1vw""> 
            <font color=""green""> Bonus : $0.8 </font>
            </div>
        </div>
    
            <div> Please press any button to continue to the next trial.</div>
        "," ","ITI","","","","",""
"","","","","","html-keyboard-response","181","178767","0.0-6.0-1.25","5d8a5eaf689e58001a8ad452","6552129e68c08af5079f912e","655213449e13575031c69475","null","
        
        <div style=""text-align: center; position: fixed; top: 5vh; left: 40vw;"">
            <div style=""margin:0 auto; width: 20vw; top: 8vh; font-size: 1vw""> 
            <font color=""green""> Bonus : $0.8 </font>
            </div>
        </div>
    
        <img class=""stim"" src=./stimuli//pack_1/cat_1/ex_1_90.png></img>
    ","null","stimulus","","","","",""
"","","","","","html-keyboard-response","182","179774","0.0-6.0-2.25","5d8a5eaf689e58001a8ad452","6552129e68c08af5079f912e","655213449e13575031c69475","null","
        <div style=""text-align: center; position: fixed; top: 5vh; left: 40vw;"">
            <div style=""margin:0 auto; width: 20vw; top: 8vh; font-size: 1vw""> 
            <font color=""green""> Bonus : $0.8 </font>
            </div>
        </div>
    ","null","","","","","",""
"","","","","","html-keyboard-response","183","180152","0.0-6.0-3.25","5d8a5eaf689e58001a8ad452","6552129e68c08af5079f912e","655213449e13575031c69475","377","./stimuli//pack_1/cat_1/ex_1_90.png","arrowright","response","ArrowLeft","90","1","false",""
"","","","","","html-keyboard-response","184","181654","0.0-6.0-4.25","5d8a5eaf689e58001a8ad452","6552129e68c08af5079f912e","655213449e13575031c69475","null","<p> <font color=""red"" size=""4vw""> Wrong category! </font> </p>","null","feedback","","","","","0.8"
"","","","","","html-keyboard-response","185","181912","0.0-6.0-0.26","5d8a5eaf689e58001a8ad452","6552129e68c08af5079f912e","655213449e13575031c69475","257","
            
        <div style=""text-align: center; position: fixed; top: 5vh; left: 40vw;"">
            <div style=""margin:0 auto; width: 20vw; top: 8vh; font-size: 1vw""> 
            <font color=""green""> Bonus : $0.8 </font>
            </div>
        </div>
    
            <div> Please press any button to continue to the next trial.</div>
        "," ","ITI","","","","",""
"","","","","","html-keyboard-response","186","182524","0.0-6.0-1.26","5d8a5eaf689e58001a8ad452","6552129e68c08af5079f912e","655213449e13575031c69475","null","
        
        <div style=""text-align: center; position: fixed; top: 5vh; left: 40vw;"">
            <div style=""margin:0 auto; width: 20vw; top: 8vh; font-size: 1vw""> 
            <font color=""green""> Bonus : $0.8 </font>
            </div>
        </div>
    
        <img class=""stim"" src=./stimuli//pack_1/cat_2/ex_2_65.png></img>
    ","null","stimulus","","","","",""
"","","","","","html-keyboard-response","187","183528","0.0-6.0-2.26","5d8a5eaf689e58001a8ad452","6552129e68c08af5079f912e","655213449e13575031c69475","null","
        <div style=""text-align: center; position: fixed; top: 5vh; left: 40vw;"">
            <div style=""margin:0 auto; width: 20vw; top: 8vh; font-size: 1vw""> 
            <font color=""green""> Bonus : $0.8 </font>
            </div>
        </div>
    ","null","","","","","",""
"","","","","","html-keyboard-response","188","183758","0.0-6.0-3.26","5d8a5eaf689e58001a8ad452","6552129e68c08af5079f912e","655213449e13575031c69475","229","./stimuli//pack_1/cat_2/ex_2_65.png","arrowright","response","ArrowRight","65","2","true",""
"","","","","","html-keyboard-response","189","185271","0.0-6.0-4.26","5d8a5eaf689e58001a8ad452","6552129e68c08af5079f912e","655213449e13575031c69475","null","<p> <font color=""green"" size=""4vw""> Correct category! </font> <br> <br> <font color=""green"" size=""7vw""> + $0.05 </font> </p>","null","feedback","","","","","0.85"
"","","","","","html-keyboard-response","190","185509","0.0-6.0-0.27","5d8a5eaf689e58001a8ad452","6552129e68c08af5079f912e","655213449e13575031c69475","237","
            
        <div style=""text-align: center; position: fixed; top: 5vh; left: 40vw;"">
            <div style=""margin:0 auto; width: 20vw; top: 8vh; font-size: 1vw""> 
            <font color=""green""> Bonus : $0.85 </font>
            </div>
        </div>
    
            <div> Please press any button to continue to the next trial.</div>
        "," ","ITI","","","","",""
"","","","","","html-keyboard-response","191","186112","0.0-6.0-1.27","5d8a5eaf689e58001a8ad452","6552129e68c08af5079f912e","655213449e13575031c69475","null","
        
        <div style=""text-align: center; position: fixed; top: 5vh; left: 40vw;"">
            <div style=""margin:0 auto; width: 20vw; top: 8vh; font-size: 1vw""> 
            <font color=""green""> Bonus : $0.85 </font>
            </div>
        </div>
    
        <img class=""stim"" src=./stimuli//pack_1/cat_2/ex_2_43.png></img>
    ","null","stimulus","","","","",""
"","","","","","html-keyboard-response","192","187123","0.0-6.0-2.27","5d8a5eaf689e58001a8ad452","6552129e68c08af5079f912e","655213449e13575031c69475","null","
        <div style=""text-align: center; position: fixed; top: 5vh; left: 40vw;"">
            <div style=""margin:0 auto; width: 20vw; top: 8vh; font-size: 1vw""> 
            <font color=""green""> Bonus : $0.85 </font>
            </div>
        </div>
    ","null","","","","","",""
"","","","","","html-keyboard-response","193","187357","0.0-6.0-3.27","5d8a5eaf689e58001a8ad452","6552129e68c08af5079f912e","655213449e13575031c69475","232","./stimuli//pack_1/cat_2/ex_2_43.png","arrowright","response","ArrowRight","43","2","true",""
"","","","","","html-keyboard-response","194","188870","0.0-6.0-4.27","5d8a5eaf689e58001a8ad452","6552129e68c08af5079f912e","655213449e13575031c69475","null","<p> <font color=""green"" size=""4vw""> Correct category! </font> <br> <br> <font color=""green"" size=""7vw""> + $0.05 </font> </p>","null","feedback","","","","","0.9"
"","","","","","html-keyboard-response","195","189086","0.0-6.0-0.28","5d8a5eaf689e58001a8ad452","6552129e68c08af5079f912e","655213449e13575031c69475","215","
            
        <div style=""text-align: center; position: fixed; top: 5vh; left: 40vw;"">
            <div style=""margin:0 auto; width: 20vw; top: 8vh; font-size: 1vw""> 
            <font color=""green""> Bonus : $0.9 </font>
            </div>
        </div>
    
            <div> Please press any button to continue to the next trial.</div>
        "," ","ITI","","","","",""
"","","","","","html-keyboard-response","196","189698","0.0-6.0-1.28","5d8a5eaf689e58001a8ad452","6552129e68c08af5079f912e","655213449e13575031c69475","null","
        
        <div style=""text-align: center; position: fixed; top: 5vh; left: 40vw;"">
            <div style=""margin:0 auto; width: 20vw; top: 8vh; font-size: 1vw""> 
            <font color=""green""> Bonus : $0.9 </font>
            </div>
        </div>
    
        <img class=""stim"" src=./stimuli//pack_1/cat_2/ex_2_32.png></img>
    ","null","stimulus","","","","",""
"","","","","","html-keyboard-response","197","190702","0.0-6.0-2.28","5d8a5eaf689e58001a8ad452","6552129e68c08af5079f912e","655213449e13575031c69475","null","
        <div style=""text-align: center; position: fixed; top: 5vh; left: 40vw;"">
            <div style=""margin:0 auto; width: 20vw; top: 8vh; font-size: 1vw""> 
            <font color=""green""> Bonus : $0.9 </font>
            </div>
        </div>
    ","null","","","","","",""
"","","","","","html-keyboard-response","198","190892","0.0-6.0-3.28","5d8a5eaf689e58001a8ad452","6552129e68c08af5079f912e","655213449e13575031c69475","189","./stimuli//pack_1/cat_2/ex_2_32.png","arrowright","response","ArrowRight","32","2","true",""
"","","","","","html-keyboard-response","199","192398","0.0-6.0-4.28","5d8a5eaf689e58001a8ad452","6552129e68c08af5079f912e","655213449e13575031c69475","null","<p> <font color=""green"" size=""4vw""> Correct category! </font> <br> <br> <font color=""green"" size=""7vw""> + $0.05 </font> </p>","null","feedback","","","","","0.95"
"","","","","","html-keyboard-response","200","192627","0.0-6.0-0.29","5d8a5eaf689e58001a8ad452","6552129e68c08af5079f912e","655213449e13575031c69475","228","
            
        <div style=""text-align: center; position: fixed; top: 5vh; left: 40vw;"">
            <div style=""margin:0 auto; width: 20vw; top: 8vh; font-size: 1vw""> 
            <font color=""green""> Bonus : $0.95 </font>
            </div>
        </div>
    
            <div> Please press any button to continue to the next trial.</div>
        "," ","ITI","","","","",""
"","","","","","html-keyboard-response","201","193234","0.0-6.0-1.29","5d8a5eaf689e58001a8ad452","6552129e68c08af5079f912e","655213449e13575031c69475","null","
        
        <div style=""text-align: center; position: fixed; top: 5vh; left: 40vw;"">
            <div style=""margin:0 auto; width: 20vw; top: 8vh; font-size: 1vw""> 
            <font color=""green""> Bonus : $0.95 </font>
            </div>
        </div>
    
        <img class=""stim"" src=./stimuli//pack_1/cat_1/ex_1_71.png></img>
    ","null","stimulus","","","","",""
"","","","","","html-keyboard-response","202","194245","0.0-6.0-2.29","5d8a5eaf689e58001a8ad452","6552129e68c08af5079f912e","655213449e13575031c69475","null","
        <div style=""text-align: center; position: fixed; top: 5vh; left: 40vw;"">
            <div style=""margin:0 auto; width: 20vw; top: 8vh; font-size: 1vw""> 
            <font color=""green""> Bonus : $0.95 </font>
            </div>
        </div>
    ","null","","","","","",""
"","","","","","html-keyboard-response","203","194621","0.0-6.0-3.29","5d8a5eaf689e58001a8ad452","6552129e68c08af5079f912e","655213449e13575031c69475","376","./stimuli//pack_1/cat_1/ex_1_71.png","arrowleft","response","ArrowLeft","71","1","true",""
"","","","","","html-keyboard-response","204","196129","0.0-6.0-4.29","5d8a5eaf689e58001a8ad452","6552129e68c08af5079f912e","655213449e13575031c69475","null","<p> <font color=""green"" size=""4vw""> Correct category! </font> <br> <br> <font color=""green"" size=""7vw""> + $0.05 </font> </p>","null","feedback","","","","","1"
"","","","","","html-keyboard-response","205","196529","0.0-6.0-0.30","5d8a5eaf689e58001a8ad452","6552129e68c08af5079f912e","655213449e13575031c69475","399","
            
        <div style=""text-align: center; position: fixed; top: 5vh; left: 40vw;"">
            <div style=""margin:0 auto; width: 20vw; top: 8vh; font-size: 1vw""> 
            <font color=""green""> Bonus : $1 </font>
            </div>
        </div>
    
            <div> Please press any button to continue to the next trial.</div>
        "," ","ITI","","","","",""
"","","","","","html-keyboard-response","206","197137","0.0-6.0-1.30","5d8a5eaf689e58001a8ad452","6552129e68c08af5079f912e","655213449e13575031c69475","null","
        
        <div style=""text-align: center; position: fixed; top: 5vh; left: 40vw;"">
            <div style=""margin:0 auto; width: 20vw; top: 8vh; font-size: 1vw""> 
            <font color=""green""> Bonus : $1 </font>
            </div>
        </div>
    
        <img class=""stim"" src=./stimuli//pack_1/cat_2/ex_2_85.png></img>
    ","null","stimulus","","","","",""
"","","","","","html-keyboard-response","207","198142","0.0-6.0-2.30","5d8a5eaf689e58001a8ad452","6552129e68c08af5079f912e","655213449e13575031c69475","null","
        <div style=""text-align: center; position: fixed; top: 5vh; left: 40vw;"">
            <div style=""margin:0 auto; width: 20vw; top: 8vh; font-size: 1vw""> 
            <font color=""green""> Bonus : $1 </font>
            </div>
        </div>
    ","null","","","","","",""
"","","","","","html-keyboard-response","208","198375","0.0-6.0-3.30","5d8a5eaf689e58001a8ad452","6552129e68c08af5079f912e","655213449e13575031c69475","232","./stimuli//pack_1/cat_2/ex_2_85.png","arrowleft","response","ArrowRight","85","2","false",""
"","","","","","html-keyboard-response","209","199877","0.0-6.0-4.30","5d8a5eaf689e58001a8ad452","6552129e68c08af5079f912e","655213449e13575031c69475","null","<p> <font color=""red"" size=""4vw""> Wrong category! </font> </p>","null","feedback","","","","","1"
"","","","","","html-keyboard-response","210","200110","0.0-6.0-0.31","5d8a5eaf689e58001a8ad452","6552129e68c08af5079f912e","655213449e13575031c69475","232","
            
        <div style=""text-align: center; position: fixed; top: 5vh; left: 40vw;"">
            <div style=""margin:0 auto; width: 20vw; top: 8vh; font-size: 1vw""> 
            <font color=""green""> Bonus : $1 </font>
            </div>
        </div>
    
            <div> Please press any button to continue to the next trial.</div>
        "," ","ITI","","","","",""
"","","","","","html-keyboard-response","211","200715","0.0-6.0-1.31","5d8a5eaf689e58001a8ad452","6552129e68c08af5079f912e","655213449e13575031c69475","null","
        
        <div style=""text-align: center; position: fixed; top: 5vh; left: 40vw;"">
            <div style=""margin:0 auto; width: 20vw; top: 8vh; font-size: 1vw""> 
            <font color=""green""> Bonus : $1 </font>
            </div>
        </div>
    
        <img class=""stim"" src=./stimuli//pack_1/cat_2/ex_2_81.png></img>
    ","null","stimulus","","","","",""
"","","","","","html-keyboard-response","212","201726","0.0-6.0-2.31","5d8a5eaf689e58001a8ad452","6552129e68c08af5079f912e","655213449e13575031c69475","null","
        <div style=""text-align: center; position: fixed; top: 5vh; left: 40vw;"">
            <div style=""margin:0 auto; width: 20vw; top: 8vh; font-size: 1vw""> 
            <font color=""green""> Bonus : $1 </font>
            </div>
        </div>
    ","null","","","","","",""
"","","","","","html-keyboard-response","213","201945","0.0-6.0-3.31","5d8a5eaf689e58001a8ad452","6552129e68c08af5079f912e","655213449e13575031c69475","218","./stimuli//pack_1/cat_2/ex_2_81.png","arrowleft","response","ArrowRight","81","2","false",""
"","","","","","html-keyboard-response","214","203450","0.0-6.0-4.31","5d8a5eaf689e58001a8ad452","6552129e68c08af5079f912e","655213449e13575031c69475","null","<p> <font color=""red"" size=""4vw""> Wrong category! </font> </p>","null","feedback","","","","","1"
"","","","","","html-keyboard-response","215","203703","0.0-6.0-0.32","5d8a5eaf689e58001a8ad452","6552129e68c08af5079f912e","655213449e13575031c69475","253","
            
        <div style=""text-align: center; position: fixed; top: 5vh; left: 40vw;"">
            <div style=""margin:0 auto; width: 20vw; top: 8vh; font-size: 1vw""> 
            <font color=""green""> Bonus : $1 </font>
            </div>
        </div>
    
            <div> Please press any button to continue to the next trial.</div>
        "," ","ITI","","","","",""
"","","","","","html-keyboard-response","216","204304","0.0-6.0-1.32","5d8a5eaf689e58001a8ad452","6552129e68c08af5079f912e","655213449e13575031c69475","null","
        
        <div style=""text-align: center; position: fixed; top: 5vh; left: 40vw;"">
            <div style=""margin:0 auto; width: 20vw; top: 8vh; font-size: 1vw""> 
            <font color=""green""> Bonus : $1 </font>
            </div>
        </div>
    
        <img class=""stim"" src=./stimuli//pack_1/cat_1/ex_1_76.png></img>
    ","null","stimulus","","","","",""
"","","","","","html-keyboard-response","217","205315","0.0-6.0-2.32","5d8a5eaf689e58001a8ad452","6552129e68c08af5079f912e","655213449e13575031c69475","null","
        <div style=""text-align: center; position: fixed; top: 5vh; left: 40vw;"">
            <div style=""margin:0 auto; width: 20vw; top: 8vh; font-size: 1vw""> 
            <font color=""green""> Bonus : $1 </font>
            </div>
        </div>
    ","null","","","","","",""
"","","","","","html-keyboard-response","218","205484","0.0-6.0-3.32","5d8a5eaf689e58001a8ad452","6552129e68c08af5079f912e","655213449e13575031c69475","168","./stimuli//pack_1/cat_1/ex_1_76.png","arrowleft","response","ArrowLeft","76","1","true",""
"","","","","","html-keyboard-response","219","206994","0.0-6.0-4.32","5d8a5eaf689e58001a8ad452","6552129e68c08af5079f912e","655213449e13575031c69475","null","<p> <font color=""green"" size=""4vw""> Correct category! </font> <br> <br> <font color=""green"" size=""7vw""> + $0.05 </font> </p>","null","feedback","","","","","1.05"
"","","","","","html-keyboard-response","220","207265","0.0-6.0-0.33","5d8a5eaf689e58001a8ad452","6552129e68c08af5079f912e","655213449e13575031c69475","271","
            
        <div style=""text-align: center; position: fixed; top: 5vh; left: 40vw;"">
            <div style=""margin:0 auto; width: 20vw; top: 8vh; font-size: 1vw""> 
            <font color=""green""> Bonus : $1.05 </font>
            </div>
        </div>
    
            <div> Please press any button to continue to the next trial.</div>
        "," ","ITI","","","","",""
"","","","","","html-keyboard-response","221","207878","0.0-6.0-1.33","5d8a5eaf689e58001a8ad452","6552129e68c08af5079f912e","655213449e13575031c69475","null","
        
        <div style=""text-align: center; position: fixed; top: 5vh; left: 40vw;"">
            <div style=""margin:0 auto; width: 20vw; top: 8vh; font-size: 1vw""> 
            <font color=""green""> Bonus : $1.05 </font>
            </div>
        </div>
    
        <img class=""stim"" src=./stimuli//pack_1/cat_1/ex_1_78.png></img>
    ","null","stimulus","","","","",""
"","","","","","html-keyboard-response","222","208884","0.0-6.0-2.33","5d8a5eaf689e58001a8ad452","6552129e68c08af5079f912e","655213449e13575031c69475","null","
        <div style=""text-align: center; position: fixed; top: 5vh; left: 40vw;"">
            <div style=""margin:0 auto; width: 20vw; top: 8vh; font-size: 1vw""> 
            <font color=""green""> Bonus : $1.05 </font>
            </div>
        </div>
    ","null","","","","","",""
"","","","","","html-keyboard-response","223","209063","0.0-6.0-3.33","5d8a5eaf689e58001a8ad452","6552129e68c08af5079f912e","655213449e13575031c69475","178","./stimuli//pack_1/cat_1/ex_1_78.png","arrowright","response","ArrowLeft","78","1","false",""
"","","","","","html-keyboard-response","224","210575","0.0-6.0-4.33","5d8a5eaf689e58001a8ad452","6552129e68c08af5079f912e","655213449e13575031c69475","null","<p> <font color=""red"" size=""4vw""> Wrong category! </font> </p>","null","feedback","","","","","1.05"
"","","","","","html-keyboard-response","225","210915","0.0-6.0-0.34","5d8a5eaf689e58001a8ad452","6552129e68c08af5079f912e","655213449e13575031c69475","339","
            
        <div style=""text-align: center; position: fixed; top: 5vh; left: 40vw;"">
            <div style=""margin:0 auto; width: 20vw; top: 8vh; font-size: 1vw""> 
            <font color=""green""> Bonus : $1.05 </font>
            </div>
        </div>
    
            <div> Please press any button to continue to the next trial.</div>
        "," ","ITI","","","","",""
"","","","","","html-keyboard-response","226","211531","0.0-6.0-1.34","5d8a5eaf689e58001a8ad452","6552129e68c08af5079f912e","655213449e13575031c69475","null","
        
        <div style=""text-align: center; position: fixed; top: 5vh; left: 40vw;"">
            <div style=""margin:0 auto; width: 20vw; top: 8vh; font-size: 1vw""> 
            <font color=""green""> Bonus : $1.05 </font>
            </div>
        </div>
    
        <img class=""stim"" src=./stimuli//pack_1/cat_1/ex_1_85.png></img>
    ","null","stimulus","","","","",""
"","","","","","html-keyboard-response","227","212542","0.0-6.0-2.34","5d8a5eaf689e58001a8ad452","6552129e68c08af5079f912e","655213449e13575031c69475","null","
        <div style=""text-align: center; position: fixed; top: 5vh; left: 40vw;"">
            <div style=""margin:0 auto; width: 20vw; top: 8vh; font-size: 1vw""> 
            <font color=""green""> Bonus : $1.05 </font>
            </div>
        </div>
    ","null","","","","","",""
"","","","","","html-keyboard-response","228","212776","0.0-6.0-3.34","5d8a5eaf689e58001a8ad452","6552129e68c08af5079f912e","655213449e13575031c69475","233","./stimuli//pack_1/cat_1/ex_1_85.png","arrowleft","response","ArrowLeft","85","1","true",""
"","","","","","html-keyboard-response","229","214278","0.0-6.0-4.34","5d8a5eaf689e58001a8ad452","6552129e68c08af5079f912e","655213449e13575031c69475","null","<p> <font color=""green"" size=""4vw""> Correct category! </font> <br> <br> <font color=""green"" size=""7vw""> + $0.05 </font> </p>","null","feedback","","","","","1.1"
"","","","","","html-keyboard-response","230","216752","0.0-6.0-0.35","5d8a5eaf689e58001a8ad452","6552129e68c08af5079f912e","655213449e13575031c69475","2473","
            
        <div style=""text-align: center; position: fixed; top: 5vh; left: 40vw;"">
            <div style=""margin:0 auto; width: 20vw; top: 8vh; font-size: 1vw""> 
            <font color=""green""> Bonus : $1.1 </font>
            </div>
        </div>
    
            <div> Please press any button to continue to the next trial.</div>
        "," ","ITI","","","","",""
"","","","","","html-keyboard-response","231","217354","0.0-6.0-1.35","5d8a5eaf689e58001a8ad452","6552129e68c08af5079f912e","655213449e13575031c69475","null","
        
        <div style=""text-align: center; position: fixed; top: 5vh; left: 40vw;"">
            <div style=""margin:0 auto; width: 20vw; top: 8vh; font-size: 1vw""> 
            <font color=""green""> Bonus : $1.1 </font>
            </div>
        </div>
    
        <img class=""stim"" src=./stimuli//pack_1/cat_1/ex_1_48.png></img>
    ","null","stimulus","","","","",""
"","","","","","html-keyboard-response","232","218363","0.0-6.0-2.35","5d8a5eaf689e58001a8ad452","6552129e68c08af5079f912e","655213449e13575031c69475","null","
        <div style=""text-align: center; position: fixed; top: 5vh; left: 40vw;"">
            <div style=""margin:0 auto; width: 20vw; top: 8vh; font-size: 1vw""> 
            <font color=""green""> Bonus : $1.1 </font>
            </div>
        </div>
    ","null","","","","","",""
"","","","","","html-keyboard-response","233","218627","0.0-6.0-3.35","5d8a5eaf689e58001a8ad452","6552129e68c08af5079f912e","655213449e13575031c69475","263","./stimuli//pack_1/cat_1/ex_1_48.png","arrowleft","response","ArrowLeft","48","1","true",""
"","","","","","html-keyboard-response","234","220140","0.0-6.0-4.35","5d8a5eaf689e58001a8ad452","6552129e68c08af5079f912e","655213449e13575031c69475","null","<p> <font color=""green"" size=""4vw""> Correct category! </font> <br> <br> <font color=""green"" size=""7vw""> + $0.05 </font> </p>","null","feedback","","","","","1.15"
"","","","","","html-keyboard-response","235","220660","0.0-6.0-0.36","5d8a5eaf689e58001a8ad452","6552129e68c08af5079f912e","655213449e13575031c69475","520","
            
        <div style=""text-align: center; position: fixed; top: 5vh; left: 40vw;"">
            <div style=""margin:0 auto; width: 20vw; top: 8vh; font-size: 1vw""> 
            <font color=""green""> Bonus : $1.15 </font>
            </div>
        </div>
    
            <div> Please press any button to continue to the next trial.</div>
        "," ","ITI","","","","",""
"","","","","","html-keyboard-response","236","221268","0.0-6.0-1.36","5d8a5eaf689e58001a8ad452","6552129e68c08af5079f912e","655213449e13575031c69475","null","
        
        <div style=""text-align: center; position: fixed; top: 5vh; left: 40vw;"">
            <div style=""margin:0 auto; width: 20vw; top: 8vh; font-size: 1vw""> 
            <font color=""green""> Bonus : $1.15 </font>
            </div>
        </div>
    
        <img class=""stim"" src=./stimuli//pack_1/cat_2/ex_2_20.png></img>
    ","null","stimulus","","","","",""
"","","","","","html-keyboard-response","237","222276","0.0-6.0-2.36","5d8a5eaf689e58001a8ad452","6552129e68c08af5079f912e","655213449e13575031c69475","null","
        <div style=""text-align: center; position: fixed; top: 5vh; left: 40vw;"">
            <div style=""margin:0 auto; width: 20vw; top: 8vh; font-size: 1vw""> 
            <font color=""green""> Bonus : $1.15 </font>
            </div>
        </div>
    ","null","","","","","",""
"","","","","","html-keyboard-response","238","222719","0.0-6.0-3.36","5d8a5eaf689e58001a8ad452","6552129e68c08af5079f912e","655213449e13575031c69475","443","./stimuli//pack_1/cat_2/ex_2_20.png","arrowright","response","ArrowRight","20","2","true",""
