"success","timeout","failed_images","failed_audio","failed_video","trial_type","trial_index","time_elapsed","internal_node_id","subject_id","study_id","session_id","rt","stimulus","response","task","correct_response","exemplar_ID","category","correct","bonus"
"true","false","[]","[]","[]","preload","0","2","0.0-0.0","60f6fbe4fb1a6306a901ba41","6552129e68c08af5079f912e","65521389fdbb4b1972bc3749","","","","","","","","",""
"","","","","","html-keyboard-response","1","6123","0.0-1.0","60f6fbe4fb1a6306a901ba41","6552129e68c08af5079f912e","65521389fdbb4b1972bc3749","6120","Welcome to the Category Learning experiment! Press any key to continue."," ","welcome","","","","",""
"","","","","","html-keyboard-response","2","18988","0.0-2.0","60f6fbe4fb1a6306a901ba41","6552129e68c08af5079f912e","65521389fdbb4b1972bc3749","12864","
            <p>You will be shown images of patterns of black dots.  Some are category A, some are category B.
            <br>You will not know in advance which category a specific pattern belongs to.</p>
            <p>After you see an image, you will be asked to guess its category <b>(left arrow for category A, right arrow for category B)</b></p>
            <p>After you choose, the screen will show you whether you were correct or not.</p>
            <p><b>You will receive a bonus payment of $0.05 for each correct answer!</b></p>
            <p> So you can increase your bonus by guessing correctly, and by guessing as quickly as possible so you move on to the next image sooner.</p>
            <p>Press any key to continue.</p>
            "," ","introduction_1","","","","",""
"","","","","","html-keyboard-response","3","24628","0.0-3.0","60f6fbe4fb1a6306a901ba41","6552129e68c08af5079f912e","65521389fdbb4b1972bc3749","5639","
            <p> <b>The first 10 trials are a practice round that will not count towards your bonus payment.</b></p>
            <p> You will be notified when practice finishes and the test begins. </p>
            <p> Press any key to begin the practice round.</p>
            ","enter","introduction_2","","","","",""
"","","","","","html-keyboard-response","4","27200","0.0-4.0-0.0","60f6fbe4fb1a6306a901ba41","6552129e68c08af5079f912e","65521389fdbb4b1972bc3749","2571","
            
        <div style=""text-align: center; position: fixed; top: 5vh; left: 40vw;"">
            <div style=""margin:0 auto; width: 20vw; top: 8vh; font-size: 1vw""> 
            <font color=""green""> Bonus : $0 </font>
            </div>
        </div>
    
            <div> Please press any button to continue to the next trial.</div>
        ","enter","ITI","","","","",""
"","","","","","html-keyboard-response","5","27811","0.0-4.0-1.0","60f6fbe4fb1a6306a901ba41","6552129e68c08af5079f912e","65521389fdbb4b1972bc3749","null","
        
        <div style=""text-align: center; position: fixed; top: 5vh; left: 40vw;"">
            <div style=""margin:0 auto; width: 20vw; top: 8vh; font-size: 1vw""> 
            <font color=""green""> Bonus : $0 </font>
            </div>
        </div>
    
        <img class=""stim"" src=./stimuli//pack_1/cat_2/ex_2_63.png></img>
    ","null","stimulus","","","","",""
"","","","","","html-keyboard-response","6","28829","0.0-4.0-2.0","60f6fbe4fb1a6306a901ba41","6552129e68c08af5079f912e","65521389fdbb4b1972bc3749","null","
        <div style=""text-align: center; position: fixed; top: 5vh; left: 40vw;"">
            <div style=""margin:0 auto; width: 20vw; top: 8vh; font-size: 1vw""> 
            <font color=""green""> Bonus : $0 </font>
            </div>
        </div>
    ","null","","","","","",""
"","","","","","html-keyboard-response","7","32843","0.0-4.0-3.0","60f6fbe4fb1a6306a901ba41","6552129e68c08af5079f912e","65521389fdbb4b1972bc3749","null","./stimuli//pack_1/cat_2/ex_2_63.png","null","response","ArrowRight","63","2","false",""
"","","","","","html-keyboard-response","8","34357","0.0-4.0-4.0","60f6fbe4fb1a6306a901ba41","6552129e68c08af5079f912e","65521389fdbb4b1972bc3749","null","<p> <font color=""red"" size=""5vw""> Time out! </font> <br> Please try to respond as quickly as possible. </p>","null","feedback","","","","","0"
"","","","","","html-keyboard-response","9","35973","0.0-4.0-0.1","60f6fbe4fb1a6306a901ba41","6552129e68c08af5079f912e","65521389fdbb4b1972bc3749","1614","
            
        <div style=""text-align: center; position: fixed; top: 5vh; left: 40vw;"">
            <div style=""margin:0 auto; width: 20vw; top: 8vh; font-size: 1vw""> 
            <font color=""green""> Bonus : $0 </font>
            </div>
        </div>
    
            <div> Please press any button to continue to the next trial.</div>
        ","enter","ITI","","","","",""
"","","","","","html-keyboard-response","10","36576","0.0-4.0-1.1","60f6fbe4fb1a6306a901ba41","6552129e68c08af5079f912e","65521389fdbb4b1972bc3749","null","
        
        <div style=""text-align: center; position: fixed; top: 5vh; left: 40vw;"">
            <div style=""margin:0 auto; width: 20vw; top: 8vh; font-size: 1vw""> 
            <font color=""green""> Bonus : $0 </font>
            </div>
        </div>
    
        <img class=""stim"" src=./stimuli//pack_1/cat_2/ex_2_12.png></img>
    ","null","stimulus","","","","",""
"","","","","","html-keyboard-response","11","37580","0.0-4.0-2.1","60f6fbe4fb1a6306a901ba41","6552129e68c08af5079f912e","65521389fdbb4b1972bc3749","null","
        <div style=""text-align: center; position: fixed; top: 5vh; left: 40vw;"">
            <div style=""margin:0 auto; width: 20vw; top: 8vh; font-size: 1vw""> 
            <font color=""green""> Bonus : $0 </font>
            </div>
        </div>
    ","null","","","","","",""
"","","","","","html-keyboard-response","12","41589","0.0-4.0-3.1","60f6fbe4fb1a6306a901ba41","6552129e68c08af5079f912e","65521389fdbb4b1972bc3749","null","./stimuli//pack_1/cat_2/ex_2_12.png","null","response","ArrowRight","12","2","false",""
"","","","","","html-keyboard-response","13","43102","0.0-4.0-4.1","60f6fbe4fb1a6306a901ba41","6552129e68c08af5079f912e","65521389fdbb4b1972bc3749","null","<p> <font color=""red"" size=""5vw""> Time out! </font> <br> Please try to respond as quickly as possible. </p>","null","feedback","","","","","0"
"","","","","","html-keyboard-response","14","44714","0.0-4.0-0.2","60f6fbe4fb1a6306a901ba41","6552129e68c08af5079f912e","65521389fdbb4b1972bc3749","1610","
            
        <div style=""text-align: center; position: fixed; top: 5vh; left: 40vw;"">
            <div style=""margin:0 auto; width: 20vw; top: 8vh; font-size: 1vw""> 
            <font color=""green""> Bonus : $0 </font>
            </div>
        </div>
    
            <div> Please press any button to continue to the next trial.</div>
        ",".","ITI","","","","",""
"","","","","","html-keyboard-response","15","45324","0.0-4.0-1.2","60f6fbe4fb1a6306a901ba41","6552129e68c08af5079f912e","65521389fdbb4b1972bc3749","null","
        
        <div style=""text-align: center; position: fixed; top: 5vh; left: 40vw;"">
            <div style=""margin:0 auto; width: 20vw; top: 8vh; font-size: 1vw""> 
            <font color=""green""> Bonus : $0 </font>
            </div>
        </div>
    
        <img class=""stim"" src=./stimuli//pack_1/cat_1/ex_1_57.png></img>
    ","null","stimulus","","","","",""
"","","","","","html-keyboard-response","16","46332","0.0-4.0-2.2","60f6fbe4fb1a6306a901ba41","6552129e68c08af5079f912e","65521389fdbb4b1972bc3749","null","
        <div style=""text-align: center; position: fixed; top: 5vh; left: 40vw;"">
            <div style=""margin:0 auto; width: 20vw; top: 8vh; font-size: 1vw""> 
            <font color=""green""> Bonus : $0 </font>
            </div>
        </div>
    ","null","","","","","",""
"","","","","","html-keyboard-response","17","49058","0.0-4.0-3.2","60f6fbe4fb1a6306a901ba41","6552129e68c08af5079f912e","65521389fdbb4b1972bc3749","2726","./stimuli//pack_1/cat_1/ex_1_57.png","arrowright","response","ArrowLeft","57","1","false",""
"","","","","","html-keyboard-response","18","50572","0.0-4.0-4.2","60f6fbe4fb1a6306a901ba41","6552129e68c08af5079f912e","65521389fdbb4b1972bc3749","null","<p> <font color=""red"" size=""4vw""> Wrong category! </font> </p>","null","feedback","","","","","0"
"","","","","","html-keyboard-response","19","52022","0.0-4.0-0.3","60f6fbe4fb1a6306a901ba41","6552129e68c08af5079f912e","65521389fdbb4b1972bc3749","1449","
            
        <div style=""text-align: center; position: fixed; top: 5vh; left: 40vw;"">
            <div style=""margin:0 auto; width: 20vw; top: 8vh; font-size: 1vw""> 
            <font color=""green""> Bonus : $0 </font>
            </div>
        </div>
    
            <div> Please press any button to continue to the next trial.</div>
        ","enter","ITI","","","","",""
"","","","","","html-keyboard-response","20","52628","0.0-4.0-1.3","60f6fbe4fb1a6306a901ba41","6552129e68c08af5079f912e","65521389fdbb4b1972bc3749","null","
        
        <div style=""text-align: center; position: fixed; top: 5vh; left: 40vw;"">
            <div style=""margin:0 auto; width: 20vw; top: 8vh; font-size: 1vw""> 
            <font color=""green""> Bonus : $0 </font>
            </div>
        </div>
    
        <img class=""stim"" src=./stimuli//pack_1/cat_1/ex_1_65.png></img>
    ","null","stimulus","","","","",""
"","","","","","html-keyboard-response","21","53636","0.0-4.0-2.3","60f6fbe4fb1a6306a901ba41","6552129e68c08af5079f912e","65521389fdbb4b1972bc3749","null","
        <div style=""text-align: center; position: fixed; top: 5vh; left: 40vw;"">
            <div style=""margin:0 auto; width: 20vw; top: 8vh; font-size: 1vw""> 
            <font color=""green""> Bonus : $0 </font>
            </div>
        </div>
    ","null","","","","","",""
"","","","","","html-keyboard-response","22","54173","0.0-4.0-3.3","60f6fbe4fb1a6306a901ba41","6552129e68c08af5079f912e","65521389fdbb4b1972bc3749","535","./stimuli//pack_1/cat_1/ex_1_65.png","arrowleft","response","ArrowLeft","65","1","true",""
"","","","","","html-keyboard-response","23","55680","0.0-4.0-4.3","60f6fbe4fb1a6306a901ba41","6552129e68c08af5079f912e","65521389fdbb4b1972bc3749","null","<p> <font color=""green"" size=""4vw""> Correct category! </font> </p>","null","feedback","","","","","0"
"","","","","","html-keyboard-response","24","57074","0.0-4.0-0.4","60f6fbe4fb1a6306a901ba41","6552129e68c08af5079f912e","65521389fdbb4b1972bc3749","1393","
            
        <div style=""text-align: center; position: fixed; top: 5vh; left: 40vw;"">
            <div style=""margin:0 auto; width: 20vw; top: 8vh; font-size: 1vw""> 
            <font color=""green""> Bonus : $0 </font>
            </div>
        </div>
    
            <div> Please press any button to continue to the next trial.</div>
        ","enter","ITI","","","","",""
"","","","","","html-keyboard-response","25","57685","0.0-4.0-1.4","60f6fbe4fb1a6306a901ba41","6552129e68c08af5079f912e","65521389fdbb4b1972bc3749","null","
        
        <div style=""text-align: center; position: fixed; top: 5vh; left: 40vw;"">
            <div style=""margin:0 auto; width: 20vw; top: 8vh; font-size: 1vw""> 
            <font color=""green""> Bonus : $0 </font>
            </div>
        </div>
    
        <img class=""stim"" src=./stimuli//pack_1/cat_1/ex_1_17.png></img>
    ","null","stimulus","","","","",""
"","","","","","html-keyboard-response","26","58699","0.0-4.0-2.4","60f6fbe4fb1a6306a901ba41","6552129e68c08af5079f912e","65521389fdbb4b1972bc3749","null","
        <div style=""text-align: center; position: fixed; top: 5vh; left: 40vw;"">
            <div style=""margin:0 auto; width: 20vw; top: 8vh; font-size: 1vw""> 
            <font color=""green""> Bonus : $0 </font>
            </div>
        </div>
    ","null","","","","","",""
"","","","","","html-keyboard-response","27","59282","0.0-4.0-3.4","60f6fbe4fb1a6306a901ba41","6552129e68c08af5079f912e","65521389fdbb4b1972bc3749","582","./stimuli//pack_1/cat_1/ex_1_17.png","arrowleft","response","ArrowLeft","17","1","true",""
"","","","","","html-keyboard-response","28","60791","0.0-4.0-4.4","60f6fbe4fb1a6306a901ba41","6552129e68c08af5079f912e","65521389fdbb4b1972bc3749","null","<p> <font color=""green"" size=""4vw""> Correct category! </font> </p>","null","feedback","","","","","0"
"","","","","","html-keyboard-response","29","61862","0.0-4.0-0.5","60f6fbe4fb1a6306a901ba41","6552129e68c08af5079f912e","65521389fdbb4b1972bc3749","1071","
            
        <div style=""text-align: center; position: fixed; top: 5vh; left: 40vw;"">
            <div style=""margin:0 auto; width: 20vw; top: 8vh; font-size: 1vw""> 
            <font color=""green""> Bonus : $0 </font>
            </div>
        </div>
    
            <div> Please press any button to continue to the next trial.</div>
        ","shift","ITI","","","","",""
"","","","","","html-keyboard-response","30","62471","0.0-4.0-1.5","60f6fbe4fb1a6306a901ba41","6552129e68c08af5079f912e","65521389fdbb4b1972bc3749","null","
        
        <div style=""text-align: center; position: fixed; top: 5vh; left: 40vw;"">
            <div style=""margin:0 auto; width: 20vw; top: 8vh; font-size: 1vw""> 
            <font color=""green""> Bonus : $0 </font>
            </div>
        </div>
    
        <img class=""stim"" src=./stimuli//pack_1/cat_2/ex_2_15.png></img>
    ","null","stimulus","","","","",""
"","","","","","html-keyboard-response","31","63473","0.0-4.0-2.5","60f6fbe4fb1a6306a901ba41","6552129e68c08af5079f912e","65521389fdbb4b1972bc3749","null","
        <div style=""text-align: center; position: fixed; top: 5vh; left: 40vw;"">
            <div style=""margin:0 auto; width: 20vw; top: 8vh; font-size: 1vw""> 
            <font color=""green""> Bonus : $0 </font>
            </div>
        </div>
    ","null","","","","","",""
"","","","","","html-keyboard-response","32","63931","0.0-4.0-3.5","60f6fbe4fb1a6306a901ba41","6552129e68c08af5079f912e","65521389fdbb4b1972bc3749","457","./stimuli//pack_1/cat_2/ex_2_15.png","arrowleft","response","ArrowRight","15","2","false",""
"","","","","","html-keyboard-response","33","65441","0.0-4.0-4.5","60f6fbe4fb1a6306a901ba41","6552129e68c08af5079f912e","65521389fdbb4b1972bc3749","null","<p> <font color=""red"" size=""4vw""> Wrong category! </font> </p>","null","feedback","","","","","0"
"","","","","","html-keyboard-response","34","66776","0.0-4.0-0.6","60f6fbe4fb1a6306a901ba41","6552129e68c08af5079f912e","65521389fdbb4b1972bc3749","1333","
            
        <div style=""text-align: center; position: fixed; top: 5vh; left: 40vw;"">
            <div style=""margin:0 auto; width: 20vw; top: 8vh; font-size: 1vw""> 
            <font color=""green""> Bonus : $0 </font>
            </div>
        </div>
    
            <div> Please press any button to continue to the next trial.</div>
        ","enter","ITI","","","","",""
"","","","","","html-keyboard-response","35","67380","0.0-4.0-1.6","60f6fbe4fb1a6306a901ba41","6552129e68c08af5079f912e","65521389fdbb4b1972bc3749","null","
        
        <div style=""text-align: center; position: fixed; top: 5vh; left: 40vw;"">
            <div style=""margin:0 auto; width: 20vw; top: 8vh; font-size: 1vw""> 
            <font color=""green""> Bonus : $0 </font>
            </div>
        </div>
    
        <img class=""stim"" src=./stimuli//pack_1/cat_2/ex_2_33.png></img>
    ","null","stimulus","","","","",""
"","","","","","html-keyboard-response","36","68395","0.0-4.0-2.6","60f6fbe4fb1a6306a901ba41","6552129e68c08af5079f912e","65521389fdbb4b1972bc3749","null","
        <div style=""text-align: center; position: fixed; top: 5vh; left: 40vw;"">
            <div style=""margin:0 auto; width: 20vw; top: 8vh; font-size: 1vw""> 
            <font color=""green""> Bonus : $0 </font>
            </div>
        </div>
    ","null","","","","","",""
"","","","","","html-keyboard-response","37","68802","0.0-4.0-3.6","60f6fbe4fb1a6306a901ba41","6552129e68c08af5079f912e","65521389fdbb4b1972bc3749","406","./stimuli//pack_1/cat_2/ex_2_33.png","arrowright","response","ArrowRight","33","2","true",""
"","","","","","html-keyboard-response","38","70304","0.0-4.0-4.6","60f6fbe4fb1a6306a901ba41","6552129e68c08af5079f912e","65521389fdbb4b1972bc3749","null","<p> <font color=""green"" size=""4vw""> Correct category! </font> </p>","null","feedback","","","","","0"
"","","","","","html-keyboard-response","39","70956","0.0-4.0-0.7","60f6fbe4fb1a6306a901ba41","6552129e68c08af5079f912e","65521389fdbb4b1972bc3749","651","
            
        <div style=""text-align: center; position: fixed; top: 5vh; left: 40vw;"">
            <div style=""margin:0 auto; width: 20vw; top: 8vh; font-size: 1vw""> 
            <font color=""green""> Bonus : $0 </font>
            </div>
        </div>
    
            <div> Please press any button to continue to the next trial.</div>
        ","shift","ITI","","","","",""
"","","","","","html-keyboard-response","40","71558","0.0-4.0-1.7","60f6fbe4fb1a6306a901ba41","6552129e68c08af5079f912e","65521389fdbb4b1972bc3749","null","
        
        <div style=""text-align: center; position: fixed; top: 5vh; left: 40vw;"">
            <div style=""margin:0 auto; width: 20vw; top: 8vh; font-size: 1vw""> 
            <font color=""green""> Bonus : $0 </font>
            </div>
        </div>
    
        <img class=""stim"" src=./stimuli//pack_1/cat_1/ex_1_11.png></img>
    ","null","stimulus","","","","",""
"","","","","","html-keyboard-response","41","72566","0.0-4.0-2.7","60f6fbe4fb1a6306a901ba41","6552129e68c08af5079f912e","65521389fdbb4b1972bc3749","null","
        <div style=""text-align: center; position: fixed; top: 5vh; left: 40vw;"">
            <div style=""margin:0 auto; width: 20vw; top: 8vh; font-size: 1vw""> 
            <font color=""green""> Bonus : $0 </font>
            </div>
        </div>
    ","null","","","","","",""
"","","","","","html-keyboard-response","42","73408","0.0-4.0-3.7","60f6fbe4fb1a6306a901ba41","6552129e68c08af5079f912e","65521389fdbb4b1972bc3749","841","./stimuli//pack_1/cat_1/ex_1_11.png","arrowleft","response","ArrowLeft","11","1","true",""
"","","","","","html-keyboard-response","43","74915","0.0-4.0-4.7","60f6fbe4fb1a6306a901ba41","6552129e68c08af5079f912e","65521389fdbb4b1972bc3749","null","<p> <font color=""green"" size=""4vw""> Correct category! </font> </p>","null","feedback","","","","","0"
"","","","","","html-keyboard-response","44","75618","0.0-4.0-0.8","60f6fbe4fb1a6306a901ba41","6552129e68c08af5079f912e","65521389fdbb4b1972bc3749","703","
            
        <div style=""text-align: center; position: fixed; top: 5vh; left: 40vw;"">
            <div style=""margin:0 auto; width: 20vw; top: 8vh; font-size: 1vw""> 
            <font color=""green""> Bonus : $0 </font>
            </div>
        </div>
    
            <div> Please press any button to continue to the next trial.</div>
        ","shift","ITI","","","","",""
"","","","","","html-keyboard-response","45","76223","0.0-4.0-1.8","60f6fbe4fb1a6306a901ba41","6552129e68c08af5079f912e","65521389fdbb4b1972bc3749","null","
        
        <div style=""text-align: center; position: fixed; top: 5vh; left: 40vw;"">
            <div style=""margin:0 auto; width: 20vw; top: 8vh; font-size: 1vw""> 
            <font color=""green""> Bonus : $0 </font>
            </div>
        </div>
    
        <img class=""stim"" src=./stimuli//pack_1/cat_2/ex_2_60.png></img>
    ","null","stimulus","","","","",""
"","","","","","html-keyboard-response","46","77240","0.0-4.0-2.8","60f6fbe4fb1a6306a901ba41","6552129e68c08af5079f912e","65521389fdbb4b1972bc3749","null","
        <div style=""text-align: center; position: fixed; top: 5vh; left: 40vw;"">
            <div style=""margin:0 auto; width: 20vw; top: 8vh; font-size: 1vw""> 
            <font color=""green""> Bonus : $0 </font>
            </div>
        </div>
    ","null","","","","","",""
"","","","","","html-keyboard-response","47","79451","0.0-4.0-3.8","60f6fbe4fb1a6306a901ba41","6552129e68c08af5079f912e","65521389fdbb4b1972bc3749","2209","./stimuli//pack_1/cat_2/ex_2_60.png","arrowleft","response","ArrowRight","60","2","false",""
"","","","","","html-keyboard-response","48","80961","0.0-4.0-4.8","60f6fbe4fb1a6306a901ba41","6552129e68c08af5079f912e","65521389fdbb4b1972bc3749","null","<p> <font color=""red"" size=""4vw""> Wrong category! </font> </p>","null","feedback","","","","","0"
"","","","","","html-keyboard-response","49","81646","0.0-4.0-0.9","60f6fbe4fb1a6306a901ba41","6552129e68c08af5079f912e","65521389fdbb4b1972bc3749","684","
            
        <div style=""text-align: center; position: fixed; top: 5vh; left: 40vw;"">
            <div style=""margin:0 auto; width: 20vw; top: 8vh; font-size: 1vw""> 
            <font color=""green""> Bonus : $0 </font>
            </div>
        </div>
    
            <div> Please press any button to continue to the next trial.</div>
        ","shift","ITI","","","","",""
"","","","","","html-keyboard-response","50","82250","0.0-4.0-1.9","60f6fbe4fb1a6306a901ba41","6552129e68c08af5079f912e","65521389fdbb4b1972bc3749","null","
        
        <div style=""text-align: center; position: fixed; top: 5vh; left: 40vw;"">
            <div style=""margin:0 auto; width: 20vw; top: 8vh; font-size: 1vw""> 
            <font color=""green""> Bonus : $0 </font>
            </div>
        </div>
    
        <img class=""stim"" src=./stimuli//pack_1/cat_1/ex_1_7.png></img>
    ","null","stimulus","","","","",""
"","","","","","html-keyboard-response","51","83266","0.0-4.0-2.9","60f6fbe4fb1a6306a901ba41","6552129e68c08af5079f912e","65521389fdbb4b1972bc3749","null","
        <div style=""text-align: center; position: fixed; top: 5vh; left: 40vw;"">
            <div style=""margin:0 auto; width: 20vw; top: 8vh; font-size: 1vw""> 
            <font color=""green""> Bonus : $0 </font>
            </div>
        </div>
    ","null","","","","","",""
"","","","","","html-keyboard-response","52","83809","0.0-4.0-3.9","60f6fbe4fb1a6306a901ba41","6552129e68c08af5079f912e","65521389fdbb4b1972bc3749","542","./stimuli//pack_1/cat_1/ex_1_7.png","arrowleft","response","ArrowLeft","7","1","true",""
"","","","","","html-keyboard-response","53","85319","0.0-4.0-4.9","60f6fbe4fb1a6306a901ba41","6552129e68c08af5079f912e","65521389fdbb4b1972bc3749","null","<p> <font color=""green"" size=""4vw""> Correct category! </font> </p>","null","feedback","","","","","0"
"","","","","","html-keyboard-response","54","87392","0.0-5.0","60f6fbe4fb1a6306a901ba41","6552129e68c08af5079f912e","65521389fdbb4b1972bc3749","2073","
            <b> <p> The practice round has finished.</p>
            <b> For the rest of the experiment you will receive a $0.05 bonus for each correct answer!</b>
            <p> Press any key to begin the test. </p>
            ","arrowleft","intermission","","","","",""
"","","","","","html-keyboard-response","55","88597","0.0-6.0-0.0","60f6fbe4fb1a6306a901ba41","6552129e68c08af5079f912e","65521389fdbb4b1972bc3749","1203","
            
        <div style=""text-align: center; position: fixed; top: 5vh; left: 40vw;"">
            <div style=""margin:0 auto; width: 20vw; top: 8vh; font-size: 1vw""> 
            <font color=""green""> Bonus : $0 </font>
            </div>
        </div>
    
            <div> Please press any button to continue to the next trial.</div>
        ","arrowleft","ITI","","","","",""
"","","","","","html-keyboard-response","56","89207","0.0-6.0-1.0","60f6fbe4fb1a6306a901ba41","6552129e68c08af5079f912e","65521389fdbb4b1972bc3749","null","
        
        <div style=""text-align: center; position: fixed; top: 5vh; left: 40vw;"">
            <div style=""margin:0 auto; width: 20vw; top: 8vh; font-size: 1vw""> 
            <font color=""green""> Bonus : $0 </font>
            </div>
        </div>
    
        <img class=""stim"" src=./stimuli//pack_1/cat_2/ex_2_73.png></img>
    ","null","stimulus","","","","",""
"","","","","","html-keyboard-response","57","90218","0.0-6.0-2.0","60f6fbe4fb1a6306a901ba41","6552129e68c08af5079f912e","65521389fdbb4b1972bc3749","null","
        <div style=""text-align: center; position: fixed; top: 5vh; left: 40vw;"">
            <div style=""margin:0 auto; width: 20vw; top: 8vh; font-size: 1vw""> 
            <font color=""green""> Bonus : $0 </font>
            </div>
        </div>
    ","null","","","","","",""
"","","","","","html-keyboard-response","58","90868","0.0-6.0-3.0","60f6fbe4fb1a6306a901ba41","6552129e68c08af5079f912e","65521389fdbb4b1972bc3749","649","./stimuli//pack_1/cat_2/ex_2_73.png","arrowleft","response","ArrowRight","73","2","false",""
"","","","","","html-keyboard-response","59","92380","0.0-6.0-4.0","60f6fbe4fb1a6306a901ba41","6552129e68c08af5079f912e","65521389fdbb4b1972bc3749","null","<p> <font color=""red"" size=""4vw""> Wrong category! </font> </p>","null","feedback","","","","","0"
"","","","","","html-keyboard-response","60","94491","0.0-6.0-0.1","60f6fbe4fb1a6306a901ba41","6552129e68c08af5079f912e","65521389fdbb4b1972bc3749","2111","
            
        <div style=""text-align: center; position: fixed; top: 5vh; left: 40vw;"">
            <div style=""margin:0 auto; width: 20vw; top: 8vh; font-size: 1vw""> 
            <font color=""green""> Bonus : $0 </font>
            </div>
        </div>
    
            <div> Please press any button to continue to the next trial.</div>
        ","arrowup","ITI","","","","",""
"","","","","","html-keyboard-response","61","95106","0.0-6.0-1.1","60f6fbe4fb1a6306a901ba41","6552129e68c08af5079f912e","65521389fdbb4b1972bc3749","null","
        
        <div style=""text-align: center; position: fixed; top: 5vh; left: 40vw;"">
            <div style=""margin:0 auto; width: 20vw; top: 8vh; font-size: 1vw""> 
            <font color=""green""> Bonus : $0 </font>
            </div>
        </div>
    
        <img class=""stim"" src=./stimuli//pack_1/cat_2/ex_2_96.png></img>
    ","null","stimulus","","","","",""
"","","","","","html-keyboard-response","62","96119","0.0-6.0-2.1","60f6fbe4fb1a6306a901ba41","6552129e68c08af5079f912e","65521389fdbb4b1972bc3749","null","
        <div style=""text-align: center; position: fixed; top: 5vh; left: 40vw;"">
            <div style=""margin:0 auto; width: 20vw; top: 8vh; font-size: 1vw""> 
            <font color=""green""> Bonus : $0 </font>
            </div>
        </div>
    ","null","","","","","",""
"","","","","","html-keyboard-response","63","97561","0.0-6.0-3.1","60f6fbe4fb1a6306a901ba41","6552129e68c08af5079f912e","65521389fdbb4b1972bc3749","1440","./stimuli//pack_1/cat_2/ex_2_96.png","arrowleft","response","ArrowRight","96","2","false",""
"","","","","","html-keyboard-response","64","99074","0.0-6.0-4.1","60f6fbe4fb1a6306a901ba41","6552129e68c08af5079f912e","65521389fdbb4b1972bc3749","null","<p> <font color=""red"" size=""4vw""> Wrong category! </font> </p>","null","feedback","","","","","0"
"","","","","","html-keyboard-response","65","101596","0.0-6.0-0.2","60f6fbe4fb1a6306a901ba41","6552129e68c08af5079f912e","65521389fdbb4b1972bc3749","2521","
            
        <div style=""text-align: center; position: fixed; top: 5vh; left: 40vw;"">
            <div style=""margin:0 auto; width: 20vw; top: 8vh; font-size: 1vw""> 
            <font color=""green""> Bonus : $0 </font>
            </div>
        </div>
    
            <div> Please press any button to continue to the next trial.</div>
        ","arrowleft","ITI","","","","",""
"","","","","","html-keyboard-response","66","102207","0.0-6.0-1.2","60f6fbe4fb1a6306a901ba41","6552129e68c08af5079f912e","65521389fdbb4b1972bc3749","null","
        
        <div style=""text-align: center; position: fixed; top: 5vh; left: 40vw;"">
            <div style=""margin:0 auto; width: 20vw; top: 8vh; font-size: 1vw""> 
            <font color=""green""> Bonus : $0 </font>
            </div>
        </div>
    
        <img class=""stim"" src=./stimuli//pack_1/cat_2/ex_2_31.png></img>
    ","null","stimulus","","","","",""
"","","","","","html-keyboard-response","67","103211","0.0-6.0-2.2","60f6fbe4fb1a6306a901ba41","6552129e68c08af5079f912e","65521389fdbb4b1972bc3749","null","
        <div style=""text-align: center; position: fixed; top: 5vh; left: 40vw;"">
            <div style=""margin:0 auto; width: 20vw; top: 8vh; font-size: 1vw""> 
            <font color=""green""> Bonus : $0 </font>
            </div>
        </div>
    ","null","","","","","",""
"","","","","","html-keyboard-response","68","103759","0.0-6.0-3.2","60f6fbe4fb1a6306a901ba41","6552129e68c08af5079f912e","65521389fdbb4b1972bc3749","547","./stimuli//pack_1/cat_2/ex_2_31.png","arrowright","response","ArrowRight","31","2","true",""
"","","","","","html-keyboard-response","69","105274","0.0-6.0-4.2","60f6fbe4fb1a6306a901ba41","6552129e68c08af5079f912e","65521389fdbb4b1972bc3749","null","<p> <font color=""green"" size=""4vw""> Correct category! </font> <br> <br> <font color=""green"" size=""7vw""> + $0.05 </font> </p>","null","feedback","","","","","0.05"
"","","","","","html-keyboard-response","70","107260","0.0-6.0-0.3","60f6fbe4fb1a6306a901ba41","6552129e68c08af5079f912e","65521389fdbb4b1972bc3749","1985","
            
        <div style=""text-align: center; position: fixed; top: 5vh; left: 40vw;"">
            <div style=""margin:0 auto; width: 20vw; top: 8vh; font-size: 1vw""> 
            <font color=""green""> Bonus : $0.05 </font>
            </div>
        </div>
    
            <div> Please press any button to continue to the next trial.</div>
        ","arrowright","ITI","","","","",""
"","","","","","html-keyboard-response","71","107876","0.0-6.0-1.3","60f6fbe4fb1a6306a901ba41","6552129e68c08af5079f912e","65521389fdbb4b1972bc3749","null","
        
        <div style=""text-align: center; position: fixed; top: 5vh; left: 40vw;"">
            <div style=""margin:0 auto; width: 20vw; top: 8vh; font-size: 1vw""> 
            <font color=""green""> Bonus : $0.05 </font>
            </div>
        </div>
    
        <img class=""stim"" src=./stimuli//pack_1/cat_1/ex_1_14.png></img>
    ","null","stimulus","","","","",""
"","","","","","html-keyboard-response","72","108880","0.0-6.0-2.3","60f6fbe4fb1a6306a901ba41","6552129e68c08af5079f912e","65521389fdbb4b1972bc3749","null","
        <div style=""text-align: center; position: fixed; top: 5vh; left: 40vw;"">
            <div style=""margin:0 auto; width: 20vw; top: 8vh; font-size: 1vw""> 
            <font color=""green""> Bonus : $0.05 </font>
            </div>
        </div>
    ","null","","","","","",""
"","","","","","html-keyboard-response","73","110045","0.0-6.0-3.3","60f6fbe4fb1a6306a901ba41","6552129e68c08af5079f912e","65521389fdbb4b1972bc3749","1163","./stimuli//pack_1/cat_1/ex_1_14.png","arrowright","response","ArrowLeft","14","1","false",""
"","","","","","html-keyboard-response","74","111560","0.0-6.0-4.3","60f6fbe4fb1a6306a901ba41","6552129e68c08af5079f912e","65521389fdbb4b1972bc3749","null","<p> <font color=""red"" size=""4vw""> Wrong category! </font> </p>","null","feedback","","","","","0.05"
"","","","","","html-keyboard-response","75","113044","0.0-6.0-0.4","60f6fbe4fb1a6306a901ba41","6552129e68c08af5079f912e","65521389fdbb4b1972bc3749","1483","
            
        <div style=""text-align: center; position: fixed; top: 5vh; left: 40vw;"">
            <div style=""margin:0 auto; width: 20vw; top: 8vh; font-size: 1vw""> 
            <font color=""green""> Bonus : $0.05 </font>
            </div>
        </div>
    
            <div> Please press any button to continue to the next trial.</div>
        ","shift","ITI","","","","",""
"","","","","","html-keyboard-response","76","113651","0.0-6.0-1.4","60f6fbe4fb1a6306a901ba41","6552129e68c08af5079f912e","65521389fdbb4b1972bc3749","null","
        
        <div style=""text-align: center; position: fixed; top: 5vh; left: 40vw;"">
            <div style=""margin:0 auto; width: 20vw; top: 8vh; font-size: 1vw""> 
            <font color=""green""> Bonus : $0.05 </font>
            </div>
        </div>
    
        <img class=""stim"" src=./stimuli//pack_1/cat_2/ex_2_46.png></img>
    ","null","stimulus","","","","",""
"","","","","","html-keyboard-response","77","114654","0.0-6.0-2.4","60f6fbe4fb1a6306a901ba41","6552129e68c08af5079f912e","65521389fdbb4b1972bc3749","null","
        <div style=""text-align: center; position: fixed; top: 5vh; left: 40vw;"">
            <div style=""margin:0 auto; width: 20vw; top: 8vh; font-size: 1vw""> 
            <font color=""green""> Bonus : $0.05 </font>
            </div>
        </div>
    ","null","","","","","",""
"","","","","","html-keyboard-response","78","115257","0.0-6.0-3.4","60f6fbe4fb1a6306a901ba41","6552129e68c08af5079f912e","65521389fdbb4b1972bc3749","601","./stimuli//pack_1/cat_2/ex_2_46.png","arrowleft","response","ArrowRight","46","2","false",""
"","","","","","html-keyboard-response","79","116771","0.0-6.0-4.4","60f6fbe4fb1a6306a901ba41","6552129e68c08af5079f912e","65521389fdbb4b1972bc3749","null","<p> <font color=""red"" size=""4vw""> Wrong category! </font> </p>","null","feedback","","","","","0.05"
"","","","","","html-keyboard-response","80","117468","0.0-6.0-0.5","60f6fbe4fb1a6306a901ba41","6552129e68c08af5079f912e","65521389fdbb4b1972bc3749","697","
            
        <div style=""text-align: center; position: fixed; top: 5vh; left: 40vw;"">
            <div style=""margin:0 auto; width: 20vw; top: 8vh; font-size: 1vw""> 
            <font color=""green""> Bonus : $0.05 </font>
            </div>
        </div>
    
            <div> Please press any button to continue to the next trial.</div>
        ","arrowleft","ITI","","","","",""
"","","","","","html-keyboard-response","81","118078","0.0-6.0-1.5","60f6fbe4fb1a6306a901ba41","6552129e68c08af5079f912e","65521389fdbb4b1972bc3749","null","
        
        <div style=""text-align: center; position: fixed; top: 5vh; left: 40vw;"">
            <div style=""margin:0 auto; width: 20vw; top: 8vh; font-size: 1vw""> 
            <font color=""green""> Bonus : $0.05 </font>
            </div>
        </div>
    
        <img class=""stim"" src=./stimuli//pack_1/cat_2/ex_2_4.png></img>
    ","null","stimulus","","","","",""
"","","","","","html-keyboard-response","82","119094","0.0-6.0-2.5","60f6fbe4fb1a6306a901ba41","6552129e68c08af5079f912e","65521389fdbb4b1972bc3749","null","
        <div style=""text-align: center; position: fixed; top: 5vh; left: 40vw;"">
            <div style=""margin:0 auto; width: 20vw; top: 8vh; font-size: 1vw""> 
            <font color=""green""> Bonus : $0.05 </font>
            </div>
        </div>
    ","null","","","","","",""
"","","","","","html-keyboard-response","83","119987","0.0-6.0-3.5","60f6fbe4fb1a6306a901ba41","6552129e68c08af5079f912e","65521389fdbb4b1972bc3749","891","./stimuli//pack_1/cat_2/ex_2_4.png","arrowright","response","ArrowRight","4","2","true",""
"","","","","","html-keyboard-response","84","121492","0.0-6.0-4.5","60f6fbe4fb1a6306a901ba41","6552129e68c08af5079f912e","65521389fdbb4b1972bc3749","null","<p> <font color=""green"" size=""4vw""> Correct category! </font> <br> <br> <font color=""green"" size=""7vw""> + $0.05 </font> </p>","null","feedback","","","","","0.1"
"","","","","","html-keyboard-response","85","122567","0.0-6.0-0.6","60f6fbe4fb1a6306a901ba41","6552129e68c08af5079f912e","65521389fdbb4b1972bc3749","1074","
            
        <div style=""text-align: center; position: fixed; top: 5vh; left: 40vw;"">
            <div style=""margin:0 auto; width: 20vw; top: 8vh; font-size: 1vw""> 
            <font color=""green""> Bonus : $0.1 </font>
            </div>
        </div>
    
            <div> Please press any button to continue to the next trial.</div>
        ","arrowup","ITI","","","","",""
"","","","","","html-keyboard-response","86","123176","0.0-6.0-1.6","60f6fbe4fb1a6306a901ba41","6552129e68c08af5079f912e","65521389fdbb4b1972bc3749","null","
        
        <div style=""text-align: center; position: fixed; top: 5vh; left: 40vw;"">
            <div style=""margin:0 auto; width: 20vw; top: 8vh; font-size: 1vw""> 
            <font color=""green""> Bonus : $0.1 </font>
            </div>
        </div>
    
        <img class=""stim"" src=./stimuli//pack_1/cat_2/ex_2_75.png></img>
    ","null","stimulus","","","","",""
"","","","","","html-keyboard-response","87","124189","0.0-6.0-2.6","60f6fbe4fb1a6306a901ba41","6552129e68c08af5079f912e","65521389fdbb4b1972bc3749","null","
        <div style=""text-align: center; position: fixed; top: 5vh; left: 40vw;"">
            <div style=""margin:0 auto; width: 20vw; top: 8vh; font-size: 1vw""> 
            <font color=""green""> Bonus : $0.1 </font>
            </div>
        </div>
    ","null","","","","","",""
"","","","","","html-keyboard-response","88","125360","0.0-6.0-3.6","60f6fbe4fb1a6306a901ba41","6552129e68c08af5079f912e","65521389fdbb4b1972bc3749","1169","./stimuli//pack_1/cat_2/ex_2_75.png","arrowleft","response","ArrowRight","75","2","false",""
"","","","","","html-keyboard-response","89","126871","0.0-6.0-4.6","60f6fbe4fb1a6306a901ba41","6552129e68c08af5079f912e","65521389fdbb4b1972bc3749","null","<p> <font color=""red"" size=""4vw""> Wrong category! </font> </p>","null","feedback","","","","","0.1"
"","","","","","html-keyboard-response","90","127769","0.0-6.0-0.7","60f6fbe4fb1a6306a901ba41","6552129e68c08af5079f912e","65521389fdbb4b1972bc3749","897","
            
        <div style=""text-align: center; position: fixed; top: 5vh; left: 40vw;"">
            <div style=""margin:0 auto; width: 20vw; top: 8vh; font-size: 1vw""> 
            <font color=""green""> Bonus : $0.1 </font>
            </div>
        </div>
    
            <div> Please press any button to continue to the next trial.</div>
        ","arrowup","ITI","","","","",""
"","","","","","html-keyboard-response","91","128384","0.0-6.0-1.7","60f6fbe4fb1a6306a901ba41","6552129e68c08af5079f912e","65521389fdbb4b1972bc3749","null","
        
        <div style=""text-align: center; position: fixed; top: 5vh; left: 40vw;"">
            <div style=""margin:0 auto; width: 20vw; top: 8vh; font-size: 1vw""> 
            <font color=""green""> Bonus : $0.1 </font>
            </div>
        </div>
    
        <img class=""stim"" src=./stimuli//pack_1/cat_2/ex_2_19.png></img>
    ","null","stimulus","","","","",""
"","","","","","html-keyboard-response","92","129386","0.0-6.0-2.7","60f6fbe4fb1a6306a901ba41","6552129e68c08af5079f912e","65521389fdbb4b1972bc3749","null","
        <div style=""text-align: center; position: fixed; top: 5vh; left: 40vw;"">
            <div style=""margin:0 auto; width: 20vw; top: 8vh; font-size: 1vw""> 
            <font color=""green""> Bonus : $0.1 </font>
            </div>
        </div>
    ","null","","","","","",""
"","","","","","html-keyboard-response","93","129869","0.0-6.0-3.7","60f6fbe4fb1a6306a901ba41","6552129e68c08af5079f912e","65521389fdbb4b1972bc3749","482","./stimuli//pack_1/cat_2/ex_2_19.png","arrowright","response","ArrowRight","19","2","true",""
"","","","","","html-keyboard-response","94","131385","0.0-6.0-4.7","60f6fbe4fb1a6306a901ba41","6552129e68c08af5079f912e","65521389fdbb4b1972bc3749","null","<p> <font color=""green"" size=""4vw""> Correct category! </font> <br> <br> <font color=""green"" size=""7vw""> + $0.05 </font> </p>","null","feedback","","","","","0.15"
"","","","","","html-keyboard-response","95","133178","0.0-6.0-0.8","60f6fbe4fb1a6306a901ba41","6552129e68c08af5079f912e","65521389fdbb4b1972bc3749","1793","
            
        <div style=""text-align: center; position: fixed; top: 5vh; left: 40vw;"">
            <div style=""margin:0 auto; width: 20vw; top: 8vh; font-size: 1vw""> 
            <font color=""green""> Bonus : $0.15 </font>
            </div>
        </div>
    
            <div> Please press any button to continue to the next trial.</div>
        ","shift","ITI","","","","",""
"","","","","","html-keyboard-response","96","133785","0.0-6.0-1.8","60f6fbe4fb1a6306a901ba41","6552129e68c08af5079f912e","65521389fdbb4b1972bc3749","null","
        
        <div style=""text-align: center; position: fixed; top: 5vh; left: 40vw;"">
            <div style=""margin:0 auto; width: 20vw; top: 8vh; font-size: 1vw""> 
            <font color=""green""> Bonus : $0.15 </font>
            </div>
        </div>
    
        <img class=""stim"" src=./stimuli//pack_1/cat_2/ex_2_20.png></img>
    ","null","stimulus","","","","",""
"","","","","","html-keyboard-response","97","134799","0.0-6.0-2.8","60f6fbe4fb1a6306a901ba41","6552129e68c08af5079f912e","65521389fdbb4b1972bc3749","null","
        <div style=""text-align: center; position: fixed; top: 5vh; left: 40vw;"">
            <div style=""margin:0 auto; width: 20vw; top: 8vh; font-size: 1vw""> 
            <font color=""green""> Bonus : $0.15 </font>
            </div>
        </div>
    ","null","","","","","",""
"","","","","","html-keyboard-response","98","135310","0.0-6.0-3.8","60f6fbe4fb1a6306a901ba41","6552129e68c08af5079f912e","65521389fdbb4b1972bc3749","511","./stimuli//pack_1/cat_2/ex_2_20.png","arrowright","response","ArrowRight","20","2","true",""
"","","","","","html-keyboard-response","99","136826","0.0-6.0-4.8","60f6fbe4fb1a6306a901ba41","6552129e68c08af5079f912e","65521389fdbb4b1972bc3749","null","<p> <font color=""green"" size=""4vw""> Correct category! </font> <br> <br> <font color=""green"" size=""7vw""> + $0.05 </font> </p>","null","feedback","","","","","0.2"
"","","","","","html-keyboard-response","100","138205","0.0-6.0-0.9","60f6fbe4fb1a6306a901ba41","6552129e68c08af5079f912e","65521389fdbb4b1972bc3749","1379","
            
        <div style=""text-align: center; position: fixed; top: 5vh; left: 40vw;"">
            <div style=""margin:0 auto; width: 20vw; top: 8vh; font-size: 1vw""> 
            <font color=""green""> Bonus : $0.2 </font>
            </div>
        </div>
    
            <div> Please press any button to continue to the next trial.</div>
        ","arrowup","ITI","","","","",""
"","","","","","html-keyboard-response","101","138822","0.0-6.0-1.9","60f6fbe4fb1a6306a901ba41","6552129e68c08af5079f912e","65521389fdbb4b1972bc3749","null","
        
        <div style=""text-align: center; position: fixed; top: 5vh; left: 40vw;"">
            <div style=""margin:0 auto; width: 20vw; top: 8vh; font-size: 1vw""> 
            <font color=""green""> Bonus : $0.2 </font>
            </div>
        </div>
    
        <img class=""stim"" src=./stimuli//pack_1/cat_2/ex_2_51.png></img>
    ","null","stimulus","","","","",""
"","","","","","html-keyboard-response","102","139832","0.0-6.0-2.9","60f6fbe4fb1a6306a901ba41","6552129e68c08af5079f912e","65521389fdbb4b1972bc3749","null","
        <div style=""text-align: center; position: fixed; top: 5vh; left: 40vw;"">
            <div style=""margin:0 auto; width: 20vw; top: 8vh; font-size: 1vw""> 
            <font color=""green""> Bonus : $0.2 </font>
            </div>
        </div>
    ","null","","","","","",""
"","","","","","html-keyboard-response","103","140208","0.0-6.0-3.9","60f6fbe4fb1a6306a901ba41","6552129e68c08af5079f912e","65521389fdbb4b1972bc3749","374","./stimuli//pack_1/cat_2/ex_2_51.png","arrowright","response","ArrowRight","51","2","true",""
"","","","","","html-keyboard-response","104","141721","0.0-6.0-4.9","60f6fbe4fb1a6306a901ba41","6552129e68c08af5079f912e","65521389fdbb4b1972bc3749","null","<p> <font color=""green"" size=""4vw""> Correct category! </font> <br> <br> <font color=""green"" size=""7vw""> + $0.05 </font> </p>","null","feedback","","","","","0.25"
"","","","","","html-keyboard-response","105","142623","0.0-6.0-0.10","60f6fbe4fb1a6306a901ba41","6552129e68c08af5079f912e","65521389fdbb4b1972bc3749","902","
            
        <div style=""text-align: center; position: fixed; top: 5vh; left: 40vw;"">
            <div style=""margin:0 auto; width: 20vw; top: 8vh; font-size: 1vw""> 
            <font color=""green""> Bonus : $0.25 </font>
            </div>
        </div>
    
            <div> Please press any button to continue to the next trial.</div>
        ","arrowup","ITI","","","","",""
"","","","","","html-keyboard-response","106","143231","0.0-6.0-1.10","60f6fbe4fb1a6306a901ba41","6552129e68c08af5079f912e","65521389fdbb4b1972bc3749","null","
        
        <div style=""text-align: center; position: fixed; top: 5vh; left: 40vw;"">
            <div style=""margin:0 auto; width: 20vw; top: 8vh; font-size: 1vw""> 
            <font color=""green""> Bonus : $0.25 </font>
            </div>
        </div>
    
        <img class=""stim"" src=./stimuli//pack_1/cat_2/ex_2_53.png></img>
    ","null","stimulus","","","","",""
"","","","","","html-keyboard-response","107","144239","0.0-6.0-2.10","60f6fbe4fb1a6306a901ba41","6552129e68c08af5079f912e","65521389fdbb4b1972bc3749","null","
        <div style=""text-align: center; position: fixed; top: 5vh; left: 40vw;"">
            <div style=""margin:0 auto; width: 20vw; top: 8vh; font-size: 1vw""> 
            <font color=""green""> Bonus : $0.25 </font>
            </div>
        </div>
    ","null","","","","","",""
"","","","","","html-keyboard-response","108","145758","0.0-6.0-3.10","60f6fbe4fb1a6306a901ba41","6552129e68c08af5079f912e","65521389fdbb4b1972bc3749","1517","./stimuli//pack_1/cat_2/ex_2_53.png","arrowleft","response","ArrowRight","53","2","false",""
"","","","","","html-keyboard-response","109","147272","0.0-6.0-4.10","60f6fbe4fb1a6306a901ba41","6552129e68c08af5079f912e","65521389fdbb4b1972bc3749","null","<p> <font color=""red"" size=""4vw""> Wrong category! </font> </p>","null","feedback","","","","","0.25"
"","","","","","html-keyboard-response","110","148404","0.0-6.0-0.11","60f6fbe4fb1a6306a901ba41","6552129e68c08af5079f912e","65521389fdbb4b1972bc3749","1132","
            
        <div style=""text-align: center; position: fixed; top: 5vh; left: 40vw;"">
            <div style=""margin:0 auto; width: 20vw; top: 8vh; font-size: 1vw""> 
            <font color=""green""> Bonus : $0.25 </font>
            </div>
        </div>
    
            <div> Please press any button to continue to the next trial.</div>
        ","arrowleft","ITI","","","","",""
"","","","","","html-keyboard-response","111","149018","0.0-6.0-1.11","60f6fbe4fb1a6306a901ba41","6552129e68c08af5079f912e","65521389fdbb4b1972bc3749","null","
        
        <div style=""text-align: center; position: fixed; top: 5vh; left: 40vw;"">
            <div style=""margin:0 auto; width: 20vw; top: 8vh; font-size: 1vw""> 
            <font color=""green""> Bonus : $0.25 </font>
            </div>
        </div>
    
        <img class=""stim"" src=./stimuli//pack_1/cat_1/ex_1_77.png></img>
    ","null","stimulus","","","","",""
"","","","","","html-keyboard-response","112","150021","0.0-6.0-2.11","60f6fbe4fb1a6306a901ba41","6552129e68c08af5079f912e","65521389fdbb4b1972bc3749","null","
        <div style=""text-align: center; position: fixed; top: 5vh; left: 40vw;"">
            <div style=""margin:0 auto; width: 20vw; top: 8vh; font-size: 1vw""> 
            <font color=""green""> Bonus : $0.25 </font>
            </div>
        </div>
    ","null","","","","","",""
"","","","","","html-keyboard-response","113","150500","0.0-6.0-3.11","60f6fbe4fb1a6306a901ba41","6552129e68c08af5079f912e","65521389fdbb4b1972bc3749","478","./stimuli//pack_1/cat_1/ex_1_77.png","arrowright","response","ArrowLeft","77","1","false",""
"","","","","","html-keyboard-response","114","152004","0.0-6.0-4.11","60f6fbe4fb1a6306a901ba41","6552129e68c08af5079f912e","65521389fdbb4b1972bc3749","null","<p> <font color=""red"" size=""4vw""> Wrong category! </font> </p>","null","feedback","","","","","0.25"
"","","","","","html-keyboard-response","115","152838","0.0-6.0-0.12","60f6fbe4fb1a6306a901ba41","6552129e68c08af5079f912e","65521389fdbb4b1972bc3749","833","
            
        <div style=""text-align: center; position: fixed; top: 5vh; left: 40vw;"">
            <div style=""margin:0 auto; width: 20vw; top: 8vh; font-size: 1vw""> 
            <font color=""green""> Bonus : $0.25 </font>
            </div>
        </div>
    
            <div> Please press any button to continue to the next trial.</div>
        ","arrowdown","ITI","","","","",""
"","","","","","html-keyboard-response","116","153450","0.0-6.0-1.12","60f6fbe4fb1a6306a901ba41","6552129e68c08af5079f912e","65521389fdbb4b1972bc3749","null","
        
        <div style=""text-align: center; position: fixed; top: 5vh; left: 40vw;"">
            <div style=""margin:0 auto; width: 20vw; top: 8vh; font-size: 1vw""> 
            <font color=""green""> Bonus : $0.25 </font>
            </div>
        </div>
    
        <img class=""stim"" src=./stimuli//pack_1/cat_1/ex_1_53.png></img>
    ","null","stimulus","","","","",""
"","","","","","html-keyboard-response","117","154456","0.0-6.0-2.12","60f6fbe4fb1a6306a901ba41","6552129e68c08af5079f912e","65521389fdbb4b1972bc3749","null","
        <div style=""text-align: center; position: fixed; top: 5vh; left: 40vw;"">
            <div style=""margin:0 auto; width: 20vw; top: 8vh; font-size: 1vw""> 
            <font color=""green""> Bonus : $0.25 </font>
            </div>
        </div>
    ","null","","","","","",""
"","","","","","html-keyboard-response","118","154836","0.0-6.0-3.12","60f6fbe4fb1a6306a901ba41","6552129e68c08af5079f912e","65521389fdbb4b1972bc3749","379","./stimuli//pack_1/cat_1/ex_1_53.png","arrowright","response","ArrowLeft","53","1","false",""
"","","","","","html-keyboard-response","119","156345","0.0-6.0-4.12","60f6fbe4fb1a6306a901ba41","6552129e68c08af5079f912e","65521389fdbb4b1972bc3749","null","<p> <font color=""red"" size=""4vw""> Wrong category! </font> </p>","null","feedback","","","","","0.25"
"","","","","","html-keyboard-response","120","157028","0.0-6.0-0.13","60f6fbe4fb1a6306a901ba41","6552129e68c08af5079f912e","65521389fdbb4b1972bc3749","682","
            
        <div style=""text-align: center; position: fixed; top: 5vh; left: 40vw;"">
            <div style=""margin:0 auto; width: 20vw; top: 8vh; font-size: 1vw""> 
            <font color=""green""> Bonus : $0.25 </font>
            </div>
        </div>
    
            <div> Please press any button to continue to the next trial.</div>
        ","arrowdown","ITI","","","","",""
"","","","","","html-keyboard-response","121","157642","0.0-6.0-1.13","60f6fbe4fb1a6306a901ba41","6552129e68c08af5079f912e","65521389fdbb4b1972bc3749","null","
        
        <div style=""text-align: center; position: fixed; top: 5vh; left: 40vw;"">
            <div style=""margin:0 auto; width: 20vw; top: 8vh; font-size: 1vw""> 
            <font color=""green""> Bonus : $0.25 </font>
            </div>
        </div>
    
        <img class=""stim"" src=./stimuli//pack_1/cat_2/ex_2_9.png></img>
    ","null","stimulus","","","","",""
"","","","","","html-keyboard-response","122","158646","0.0-6.0-2.13","60f6fbe4fb1a6306a901ba41","6552129e68c08af5079f912e","65521389fdbb4b1972bc3749","null","
        <div style=""text-align: center; position: fixed; top: 5vh; left: 40vw;"">
            <div style=""margin:0 auto; width: 20vw; top: 8vh; font-size: 1vw""> 
            <font color=""green""> Bonus : $0.25 </font>
            </div>
        </div>
    ","null","","","","","",""
"","","","","","html-keyboard-response","123","159090","0.0-6.0-3.13","60f6fbe4fb1a6306a901ba41","6552129e68c08af5079f912e","65521389fdbb4b1972bc3749","443","./stimuli//pack_1/cat_2/ex_2_9.png","arrowleft","response","ArrowRight","9","2","false",""
"","","","","","html-keyboard-response","124","160602","0.0-6.0-4.13","60f6fbe4fb1a6306a901ba41","6552129e68c08af5079f912e","65521389fdbb4b1972bc3749","null","<p> <font color=""red"" size=""4vw""> Wrong category! </font> </p>","null","feedback","","","","","0.25"
"","","","","","html-keyboard-response","125","161730","0.0-6.0-0.14","60f6fbe4fb1a6306a901ba41","6552129e68c08af5079f912e","65521389fdbb4b1972bc3749","1126","
            
        <div style=""text-align: center; position: fixed; top: 5vh; left: 40vw;"">
            <div style=""margin:0 auto; width: 20vw; top: 8vh; font-size: 1vw""> 
            <font color=""green""> Bonus : $0.25 </font>
            </div>
        </div>
    
            <div> Please press any button to continue to the next trial.</div>
        ","arrowdown","ITI","","","","",""
"","","","","","html-keyboard-response","126","162344","0.0-6.0-1.14","60f6fbe4fb1a6306a901ba41","6552129e68c08af5079f912e","65521389fdbb4b1972bc3749","null","
        
        <div style=""text-align: center; position: fixed; top: 5vh; left: 40vw;"">
            <div style=""margin:0 auto; width: 20vw; top: 8vh; font-size: 1vw""> 
            <font color=""green""> Bonus : $0.25 </font>
            </div>
        </div>
    
        <img class=""stim"" src=./stimuli//pack_1/cat_2/ex_2_40.png></img>
    ","null","stimulus","","","","",""
"","","","","","html-keyboard-response","127","163358","0.0-6.0-2.14","60f6fbe4fb1a6306a901ba41","6552129e68c08af5079f912e","65521389fdbb4b1972bc3749","null","
        <div style=""text-align: center; position: fixed; top: 5vh; left: 40vw;"">
            <div style=""margin:0 auto; width: 20vw; top: 8vh; font-size: 1vw""> 
            <font color=""green""> Bonus : $0.25 </font>
            </div>
        </div>
    ","null","","","","","",""
"","","","","","html-keyboard-response","128","163740","0.0-6.0-3.14","60f6fbe4fb1a6306a901ba41","6552129e68c08af5079f912e","65521389fdbb4b1972bc3749","381","./stimuli//pack_1/cat_2/ex_2_40.png","arrowleft","response","ArrowRight","40","2","false",""
"","","","","","html-keyboard-response","129","165254","0.0-6.0-4.14","60f6fbe4fb1a6306a901ba41","6552129e68c08af5079f912e","65521389fdbb4b1972bc3749","null","<p> <font color=""red"" size=""4vw""> Wrong category! </font> </p>","null","feedback","","","","","0.25"
"","","","","","html-keyboard-response","130","165763","0.0-6.0-0.15","60f6fbe4fb1a6306a901ba41","6552129e68c08af5079f912e","65521389fdbb4b1972bc3749","508","
            
        <div style=""text-align: center; position: fixed; top: 5vh; left: 40vw;"">
            <div style=""margin:0 auto; width: 20vw; top: 8vh; font-size: 1vw""> 
            <font color=""green""> Bonus : $0.25 </font>
            </div>
        </div>
    
            <div> Please press any button to continue to the next trial.</div>
        ","arrowleft","ITI","","","","",""
"","","","","","html-keyboard-response","131","166371","0.0-6.0-1.15","60f6fbe4fb1a6306a901ba41","6552129e68c08af5079f912e","65521389fdbb4b1972bc3749","null","
        
        <div style=""text-align: center; position: fixed; top: 5vh; left: 40vw;"">
            <div style=""margin:0 auto; width: 20vw; top: 8vh; font-size: 1vw""> 
            <font color=""green""> Bonus : $0.25 </font>
            </div>
        </div>
    
        <img class=""stim"" src=./stimuli//pack_1/cat_1/ex_1_42.png></img>
    ","null","stimulus","","","","",""
"","","","","","html-keyboard-response","132","167378","0.0-6.0-2.15","60f6fbe4fb1a6306a901ba41","6552129e68c08af5079f912e","65521389fdbb4b1972bc3749","null","
        <div style=""text-align: center; position: fixed; top: 5vh; left: 40vw;"">
            <div style=""margin:0 auto; width: 20vw; top: 8vh; font-size: 1vw""> 
            <font color=""green""> Bonus : $0.25 </font>
            </div>
        </div>
    ","null","","","","","",""
"","","","","","html-keyboard-response","133","167809","0.0-6.0-3.15","60f6fbe4fb1a6306a901ba41","6552129e68c08af5079f912e","65521389fdbb4b1972bc3749","429","./stimuli//pack_1/cat_1/ex_1_42.png","arrowright","response","ArrowLeft","42","1","false",""
"","","","","","html-keyboard-response","134","169311","0.0-6.0-4.15","60f6fbe4fb1a6306a901ba41","6552129e68c08af5079f912e","65521389fdbb4b1972bc3749","null","<p> <font color=""red"" size=""4vw""> Wrong category! </font> </p>","null","feedback","","","","","0.25"
"","","","","","html-keyboard-response","135","169920","0.0-6.0-0.16","60f6fbe4fb1a6306a901ba41","6552129e68c08af5079f912e","65521389fdbb4b1972bc3749","609","
            
        <div style=""text-align: center; position: fixed; top: 5vh; left: 40vw;"">
            <div style=""margin:0 auto; width: 20vw; top: 8vh; font-size: 1vw""> 
            <font color=""green""> Bonus : $0.25 </font>
            </div>
        </div>
    
            <div> Please press any button to continue to the next trial.</div>
        ","arrowdown","ITI","","","","",""
"","","","","","html-keyboard-response","136","170527","0.0-6.0-1.16","60f6fbe4fb1a6306a901ba41","6552129e68c08af5079f912e","65521389fdbb4b1972bc3749","null","
        
        <div style=""text-align: center; position: fixed; top: 5vh; left: 40vw;"">
            <div style=""margin:0 auto; width: 20vw; top: 8vh; font-size: 1vw""> 
            <font color=""green""> Bonus : $0.25 </font>
            </div>
        </div>
    
        <img class=""stim"" src=./stimuli//pack_1/cat_1/ex_1_36.png></img>
    ","null","stimulus","","","","",""
"","","","","","html-keyboard-response","137","171543","0.0-6.0-2.16","60f6fbe4fb1a6306a901ba41","6552129e68c08af5079f912e","65521389fdbb4b1972bc3749","null","
        <div style=""text-align: center; position: fixed; top: 5vh; left: 40vw;"">
            <div style=""margin:0 auto; width: 20vw; top: 8vh; font-size: 1vw""> 
            <font color=""green""> Bonus : $0.25 </font>
            </div>
        </div>
    ","null","","","","","",""
"","","","","","html-keyboard-response","138","171603","0.0-6.0-3.16","60f6fbe4fb1a6306a901ba41","6552129e68c08af5079f912e","65521389fdbb4b1972bc3749","59","./stimuli//pack_1/cat_1/ex_1_36.png","arrowleft","response","ArrowLeft","36","1","true",""
"","","","","","html-keyboard-response","139","173104","0.0-6.0-4.16","60f6fbe4fb1a6306a901ba41","6552129e68c08af5079f912e","65521389fdbb4b1972bc3749","null","<p> <font color=""green"" size=""4vw""> Correct category! </font> <br> <br> <font color=""green"" size=""7vw""> + $0.05 </font> </p>","null","feedback","","","","","0.3"
"","","","","","html-keyboard-response","140","173618","0.0-6.0-0.17","60f6fbe4fb1a6306a901ba41","6552129e68c08af5079f912e","65521389fdbb4b1972bc3749","512","
            
        <div style=""text-align: center; position: fixed; top: 5vh; left: 40vw;"">
            <div style=""margin:0 auto; width: 20vw; top: 8vh; font-size: 1vw""> 
            <font color=""green""> Bonus : $0.3 </font>
            </div>
        </div>
    
            <div> Please press any button to continue to the next trial.</div>
        ","arrowleft","ITI","","","","",""
"","","","","","html-keyboard-response","141","174225","0.0-6.0-1.17","60f6fbe4fb1a6306a901ba41","6552129e68c08af5079f912e","65521389fdbb4b1972bc3749","null","
        
        <div style=""text-align: center; position: fixed; top: 5vh; left: 40vw;"">
            <div style=""margin:0 auto; width: 20vw; top: 8vh; font-size: 1vw""> 
            <font color=""green""> Bonus : $0.3 </font>
            </div>
        </div>
    
        <img class=""stim"" src=./stimuli//pack_1/cat_1/ex_1_52.png></img>
    ","null","stimulus","","","","",""
"","","","","","html-keyboard-response","142","175236","0.0-6.0-2.17","60f6fbe4fb1a6306a901ba41","6552129e68c08af5079f912e","65521389fdbb4b1972bc3749","null","
        <div style=""text-align: center; position: fixed; top: 5vh; left: 40vw;"">
            <div style=""margin:0 auto; width: 20vw; top: 8vh; font-size: 1vw""> 
            <font color=""green""> Bonus : $0.3 </font>
            </div>
        </div>
    ","null","","","","","",""
"","","","","","html-keyboard-response","143","175367","0.0-6.0-3.17","60f6fbe4fb1a6306a901ba41","6552129e68c08af5079f912e","65521389fdbb4b1972bc3749","129","./stimuli//pack_1/cat_1/ex_1_52.png","arrowleft","response","ArrowLeft","52","1","true",""
"","","","","","html-keyboard-response","144","176880","0.0-6.0-4.17","60f6fbe4fb1a6306a901ba41","6552129e68c08af5079f912e","65521389fdbb4b1972bc3749","null","<p> <font color=""green"" size=""4vw""> Correct category! </font> <br> <br> <font color=""green"" size=""7vw""> + $0.05 </font> </p>","null","feedback","","","","","0.35"
"","","","","","html-keyboard-response","145","177951","0.0-6.0-0.18","60f6fbe4fb1a6306a901ba41","6552129e68c08af5079f912e","65521389fdbb4b1972bc3749","1070","
            
        <div style=""text-align: center; position: fixed; top: 5vh; left: 40vw;"">
            <div style=""margin:0 auto; width: 20vw; top: 8vh; font-size: 1vw""> 
            <font color=""green""> Bonus : $0.35 </font>
            </div>
        </div>
    
            <div> Please press any button to continue to the next trial.</div>
        ","arrowdown","ITI","","","","",""
"","","","","","html-keyboard-response","146","178560","0.0-6.0-1.18","60f6fbe4fb1a6306a901ba41","6552129e68c08af5079f912e","65521389fdbb4b1972bc3749","null","
        
        <div style=""text-align: center; position: fixed; top: 5vh; left: 40vw;"">
            <div style=""margin:0 auto; width: 20vw; top: 8vh; font-size: 1vw""> 
            <font color=""green""> Bonus : $0.35 </font>
            </div>
        </div>
    
        <img class=""stim"" src=./stimuli//pack_1/cat_2/ex_2_1.png></img>
    ","null","stimulus","","","","",""
"","","","","","html-keyboard-response","147","179571","0.0-6.0-2.18","60f6fbe4fb1a6306a901ba41","6552129e68c08af5079f912e","65521389fdbb4b1972bc3749","null","
        <div style=""text-align: center; position: fixed; top: 5vh; left: 40vw;"">
            <div style=""margin:0 auto; width: 20vw; top: 8vh; font-size: 1vw""> 
            <font color=""green""> Bonus : $0.35 </font>
            </div>
        </div>
    ","null","","","","","",""
"","","","","","html-keyboard-response","148","180036","0.0-6.0-3.18","60f6fbe4fb1a6306a901ba41","6552129e68c08af5079f912e","65521389fdbb4b1972bc3749","464","./stimuli//pack_1/cat_2/ex_2_1.png","arrowleft","response","ArrowRight","1","2","false",""
"","","","","","html-keyboard-response","149","181475","0.0-6.0-4.18","60f6fbe4fb1a6306a901ba41","6552129e68c08af5079f912e","65521389fdbb4b1972bc3749","1438","<p> <font color=""red"" size=""4vw""> Wrong category! </font> </p>","arrowleft","feedback","","","","","0.35"
"","","","","","html-keyboard-response","150","182221","0.0-6.0-0.19","60f6fbe4fb1a6306a901ba41","6552129e68c08af5079f912e","65521389fdbb4b1972bc3749","745","
            
        <div style=""text-align: center; position: fixed; top: 5vh; left: 40vw;"">
            <div style=""margin:0 auto; width: 20vw; top: 8vh; font-size: 1vw""> 
            <font color=""green""> Bonus : $0.35 </font>
            </div>
        </div>
    
            <div> Please press any button to continue to the next trial.</div>
        ","arrowleft","ITI","","","","",""
"","","","","","html-keyboard-response","151","182833","0.0-6.0-1.19","60f6fbe4fb1a6306a901ba41","6552129e68c08af5079f912e","65521389fdbb4b1972bc3749","null","
        
        <div style=""text-align: center; position: fixed; top: 5vh; left: 40vw;"">
            <div style=""margin:0 auto; width: 20vw; top: 8vh; font-size: 1vw""> 
            <font color=""green""> Bonus : $0.35 </font>
            </div>
        </div>
    
        <img class=""stim"" src=./stimuli//pack_1/cat_1/ex_1_79.png></img>
    ","null","stimulus","","","","",""
"","","","","","html-keyboard-response","152","183848","0.0-6.0-2.19","60f6fbe4fb1a6306a901ba41","6552129e68c08af5079f912e","65521389fdbb4b1972bc3749","null","
        <div style=""text-align: center; position: fixed; top: 5vh; left: 40vw;"">
            <div style=""margin:0 auto; width: 20vw; top: 8vh; font-size: 1vw""> 
            <font color=""green""> Bonus : $0.35 </font>
            </div>
        </div>
    ","null","","","","","",""
"","","","","","html-keyboard-response","153","184470","0.0-6.0-3.19","60f6fbe4fb1a6306a901ba41","6552129e68c08af5079f912e","65521389fdbb4b1972bc3749","620","./stimuli//pack_1/cat_1/ex_1_79.png","arrowright","response","ArrowLeft","79","1","false",""
"","","","","","html-keyboard-response","154","185975","0.0-6.0-4.19","60f6fbe4fb1a6306a901ba41","6552129e68c08af5079f912e","65521389fdbb4b1972bc3749","null","<p> <font color=""red"" size=""4vw""> Wrong category! </font> </p>","null","feedback","","","","","0.35"
"","","","","","html-keyboard-response","155","186687","0.0-6.0-0.20","60f6fbe4fb1a6306a901ba41","6552129e68c08af5079f912e","65521389fdbb4b1972bc3749","711","
            
        <div style=""text-align: center; position: fixed; top: 5vh; left: 40vw;"">
            <div style=""margin:0 auto; width: 20vw; top: 8vh; font-size: 1vw""> 
            <font color=""green""> Bonus : $0.35 </font>
            </div>
        </div>
    
            <div> Please press any button to continue to the next trial.</div>
        ","arrowright","ITI","","","","",""
"","","","","","html-keyboard-response","156","187294","0.0-6.0-1.20","60f6fbe4fb1a6306a901ba41","6552129e68c08af5079f912e","65521389fdbb4b1972bc3749","null","
        
        <div style=""text-align: center; position: fixed; top: 5vh; left: 40vw;"">
            <div style=""margin:0 auto; width: 20vw; top: 8vh; font-size: 1vw""> 
            <font color=""green""> Bonus : $0.35 </font>
            </div>
        </div>
    
        <img class=""stim"" src=./stimuli//pack_1/cat_1/ex_1_23.png></img>
    ","null","stimulus","","","","",""
"","","","","","html-keyboard-response","157","188308","0.0-6.0-2.20","60f6fbe4fb1a6306a901ba41","6552129e68c08af5079f912e","65521389fdbb4b1972bc3749","null","
        <div style=""text-align: center; position: fixed; top: 5vh; left: 40vw;"">
            <div style=""margin:0 auto; width: 20vw; top: 8vh; font-size: 1vw""> 
            <font color=""green""> Bonus : $0.35 </font>
            </div>
        </div>
    ","null","","","","","",""
"","","","","","html-keyboard-response","158","189438","0.0-6.0-3.20","60f6fbe4fb1a6306a901ba41","6552129e68c08af5079f912e","65521389fdbb4b1972bc3749","1129","./stimuli//pack_1/cat_1/ex_1_23.png","arrowright","response","ArrowLeft","23","1","false",""
"","","","","","html-keyboard-response","159","190946","0.0-6.0-4.20","60f6fbe4fb1a6306a901ba41","6552129e68c08af5079f912e","65521389fdbb4b1972bc3749","null","<p> <font color=""red"" size=""4vw""> Wrong category! </font> </p>","null","feedback","","","","","0.35"
"","","","","","html-keyboard-response","160","191562","0.0-6.0-0.21","60f6fbe4fb1a6306a901ba41","6552129e68c08af5079f912e","65521389fdbb4b1972bc3749","613","
            
        <div style=""text-align: center; position: fixed; top: 5vh; left: 40vw;"">
            <div style=""margin:0 auto; width: 20vw; top: 8vh; font-size: 1vw""> 
            <font color=""green""> Bonus : $0.35 </font>
            </div>
        </div>
    
            <div> Please press any button to continue to the next trial.</div>
        ","arrowdown","ITI","","","","",""
"","","","","","html-keyboard-response","161","192179","0.0-6.0-1.21","60f6fbe4fb1a6306a901ba41","6552129e68c08af5079f912e","65521389fdbb4b1972bc3749","null","
        
        <div style=""text-align: center; position: fixed; top: 5vh; left: 40vw;"">
            <div style=""margin:0 auto; width: 20vw; top: 8vh; font-size: 1vw""> 
            <font color=""green""> Bonus : $0.35 </font>
            </div>
        </div>
    
        <img class=""stim"" src=./stimuli//pack_1/cat_2/ex_2_69.png></img>
    ","null","stimulus","","","","",""
"","","","","","html-keyboard-response","162","193189","0.0-6.0-2.21","60f6fbe4fb1a6306a901ba41","6552129e68c08af5079f912e","65521389fdbb4b1972bc3749","null","
        <div style=""text-align: center; position: fixed; top: 5vh; left: 40vw;"">
            <div style=""margin:0 auto; width: 20vw; top: 8vh; font-size: 1vw""> 
            <font color=""green""> Bonus : $0.35 </font>
            </div>
        </div>
    ","null","","","","","",""
"","","","","","html-keyboard-response","163","193321","0.0-6.0-3.21","60f6fbe4fb1a6306a901ba41","6552129e68c08af5079f912e","65521389fdbb4b1972bc3749","130","./stimuli//pack_1/cat_2/ex_2_69.png","arrowright","response","ArrowRight","69","2","true",""
"","","","","","html-keyboard-response","164","194828","0.0-6.0-4.21","60f6fbe4fb1a6306a901ba41","6552129e68c08af5079f912e","65521389fdbb4b1972bc3749","null","<p> <font color=""green"" size=""4vw""> Correct category! </font> <br> <br> <font color=""green"" size=""7vw""> + $0.05 </font> </p>","null","feedback","","","","","0.4"
"","","","","","html-keyboard-response","165","195334","0.0-6.0-0.22","60f6fbe4fb1a6306a901ba41","6552129e68c08af5079f912e","65521389fdbb4b1972bc3749","504","
            
        <div style=""text-align: center; position: fixed; top: 5vh; left: 40vw;"">
            <div style=""margin:0 auto; width: 20vw; top: 8vh; font-size: 1vw""> 
            <font color=""green""> Bonus : $0.4 </font>
            </div>
        </div>
    
            <div> Please press any button to continue to the next trial.</div>
        ","arrowright","ITI","","","","",""
"","","","","","html-keyboard-response","166","195943","0.0-6.0-1.22","60f6fbe4fb1a6306a901ba41","6552129e68c08af5079f912e","65521389fdbb4b1972bc3749","null","
        
        <div style=""text-align: center; position: fixed; top: 5vh; left: 40vw;"">
            <div style=""margin:0 auto; width: 20vw; top: 8vh; font-size: 1vw""> 
            <font color=""green""> Bonus : $0.4 </font>
            </div>
        </div>
    
        <img class=""stim"" src=./stimuli//pack_1/cat_2/ex_2_58.png></img>
    ","null","stimulus","","","","",""
"","","","","","html-keyboard-response","167","196946","0.0-6.0-2.22","60f6fbe4fb1a6306a901ba41","6552129e68c08af5079f912e","65521389fdbb4b1972bc3749","null","
        <div style=""text-align: center; position: fixed; top: 5vh; left: 40vw;"">
            <div style=""margin:0 auto; width: 20vw; top: 8vh; font-size: 1vw""> 
            <font color=""green""> Bonus : $0.4 </font>
            </div>
        </div>
    ","null","","","","","",""
"","","","","","html-keyboard-response","168","197407","0.0-6.0-3.22","60f6fbe4fb1a6306a901ba41","6552129e68c08af5079f912e","65521389fdbb4b1972bc3749","459","./stimuli//pack_1/cat_2/ex_2_58.png","arrowleft","response","ArrowRight","58","2","false",""
"","","","","","html-keyboard-response","169","198909","0.0-6.0-4.22","60f6fbe4fb1a6306a901ba41","6552129e68c08af5079f912e","65521389fdbb4b1972bc3749","null","<p> <font color=""red"" size=""4vw""> Wrong category! </font> </p>","null","feedback","","","","","0.4"
"","","","","","html-keyboard-response","170","200161","0.0-6.0-0.23","60f6fbe4fb1a6306a901ba41","6552129e68c08af5079f912e","65521389fdbb4b1972bc3749","1252","
            
        <div style=""text-align: center; position: fixed; top: 5vh; left: 40vw;"">
            <div style=""margin:0 auto; width: 20vw; top: 8vh; font-size: 1vw""> 
            <font color=""green""> Bonus : $0.4 </font>
            </div>
        </div>
    
            <div> Please press any button to continue to the next trial.</div>
        ","arrowup","ITI","","","","",""
"","","","","","html-keyboard-response","171","200765","0.0-6.0-1.23","60f6fbe4fb1a6306a901ba41","6552129e68c08af5079f912e","65521389fdbb4b1972bc3749","null","
        
        <div style=""text-align: center; position: fixed; top: 5vh; left: 40vw;"">
            <div style=""margin:0 auto; width: 20vw; top: 8vh; font-size: 1vw""> 
            <font color=""green""> Bonus : $0.4 </font>
            </div>
        </div>
    
        <img class=""stim"" src=./stimuli//pack_1/cat_1/ex_1_66.png></img>
    ","null","stimulus","","","","",""
"","","","","","html-keyboard-response","172","201776","0.0-6.0-2.23","60f6fbe4fb1a6306a901ba41","6552129e68c08af5079f912e","65521389fdbb4b1972bc3749","null","
        <div style=""text-align: center; position: fixed; top: 5vh; left: 40vw;"">
            <div style=""margin:0 auto; width: 20vw; top: 8vh; font-size: 1vw""> 
            <font color=""green""> Bonus : $0.4 </font>
            </div>
        </div>
    ","null","","","","","",""
"","","","","","html-keyboard-response","173","202201","0.0-6.0-3.23","60f6fbe4fb1a6306a901ba41","6552129e68c08af5079f912e","65521389fdbb4b1972bc3749","424","./stimuli//pack_1/cat_1/ex_1_66.png","arrowright","response","ArrowLeft","66","1","false",""
"","","","","","html-keyboard-response","174","203703","0.0-6.0-4.23","60f6fbe4fb1a6306a901ba41","6552129e68c08af5079f912e","65521389fdbb4b1972bc3749","null","<p> <font color=""red"" size=""4vw""> Wrong category! </font> </p>","null","feedback","","","","","0.4"
"","","","","","html-keyboard-response","175","204181","0.0-6.0-0.24","60f6fbe4fb1a6306a901ba41","6552129e68c08af5079f912e","65521389fdbb4b1972bc3749","478","
            
        <div style=""text-align: center; position: fixed; top: 5vh; left: 40vw;"">
            <div style=""margin:0 auto; width: 20vw; top: 8vh; font-size: 1vw""> 
            <font color=""green""> Bonus : $0.4 </font>
            </div>
        </div>
    
            <div> Please press any button to continue to the next trial.</div>
        ","arrowdown","ITI","","","","",""
"","","","","","html-keyboard-response","176","204783","0.0-6.0-1.24","60f6fbe4fb1a6306a901ba41","6552129e68c08af5079f912e","65521389fdbb4b1972bc3749","null","
        
        <div style=""text-align: center; position: fixed; top: 5vh; left: 40vw;"">
            <div style=""margin:0 auto; width: 20vw; top: 8vh; font-size: 1vw""> 
            <font color=""green""> Bonus : $0.4 </font>
            </div>
        </div>
    
        <img class=""stim"" src=./stimuli//pack_1/cat_2/ex_2_84.png></img>
    ","null","stimulus","","","","",""
"","","","","","html-keyboard-response","177","205793","0.0-6.0-2.24","60f6fbe4fb1a6306a901ba41","6552129e68c08af5079f912e","65521389fdbb4b1972bc3749","null","
        <div style=""text-align: center; position: fixed; top: 5vh; left: 40vw;"">
            <div style=""margin:0 auto; width: 20vw; top: 8vh; font-size: 1vw""> 
            <font color=""green""> Bonus : $0.4 </font>
            </div>
        </div>
    ","null","","","","","",""
"","","","","","html-keyboard-response","178","206134","0.0-6.0-3.24","60f6fbe4fb1a6306a901ba41","6552129e68c08af5079f912e","65521389fdbb4b1972bc3749","339","./stimuli//pack_1/cat_2/ex_2_84.png","arrowleft","response","ArrowRight","84","2","false",""
"","","","","","html-keyboard-response","179","207281","0.0-6.0-4.24","60f6fbe4fb1a6306a901ba41","6552129e68c08af5079f912e","65521389fdbb4b1972bc3749","1147","<p> <font color=""red"" size=""4vw""> Wrong category! </font> </p>","arrowdown","feedback","","","","","0.4"
"","","","","","html-keyboard-response","180","208343","0.0-6.0-0.25","60f6fbe4fb1a6306a901ba41","6552129e68c08af5079f912e","65521389fdbb4b1972bc3749","1061","
            
        <div style=""text-align: center; position: fixed; top: 5vh; left: 40vw;"">
            <div style=""margin:0 auto; width: 20vw; top: 8vh; font-size: 1vw""> 
            <font color=""green""> Bonus : $0.4 </font>
            </div>
        </div>
    
            <div> Please press any button to continue to the next trial.</div>
        ","arrowdown","ITI","","","","",""
"","","","","","html-keyboard-response","181","208950","0.0-6.0-1.25","60f6fbe4fb1a6306a901ba41","6552129e68c08af5079f912e","65521389fdbb4b1972bc3749","null","
        
        <div style=""text-align: center; position: fixed; top: 5vh; left: 40vw;"">
            <div style=""margin:0 auto; width: 20vw; top: 8vh; font-size: 1vw""> 
            <font color=""green""> Bonus : $0.4 </font>
            </div>
        </div>
    
        <img class=""stim"" src=./stimuli//pack_1/cat_2/ex_2_7.png></img>
    ","null","stimulus","","","","",""
"","","","","","html-keyboard-response","182","209959","0.0-6.0-2.25","60f6fbe4fb1a6306a901ba41","6552129e68c08af5079f912e","65521389fdbb4b1972bc3749","null","
        <div style=""text-align: center; position: fixed; top: 5vh; left: 40vw;"">
            <div style=""margin:0 auto; width: 20vw; top: 8vh; font-size: 1vw""> 
            <font color=""green""> Bonus : $0.4 </font>
            </div>
        </div>
    ","null","","","","","",""
"","","","","","html-keyboard-response","183","210314","0.0-6.0-3.25","60f6fbe4fb1a6306a901ba41","6552129e68c08af5079f912e","65521389fdbb4b1972bc3749","353","./stimuli//pack_1/cat_2/ex_2_7.png","arrowleft","response","ArrowRight","7","2","false",""
"","","","","","html-keyboard-response","184","210944","0.0-6.0-4.25","60f6fbe4fb1a6306a901ba41","6552129e68c08af5079f912e","65521389fdbb4b1972bc3749","630","<p> <font color=""red"" size=""4vw""> Wrong category! </font> </p>","arrowleft","feedback","","","","","0.4"
"","","","","","html-keyboard-response","185","211449","0.0-6.0-0.26","60f6fbe4fb1a6306a901ba41","6552129e68c08af5079f912e","65521389fdbb4b1972bc3749","504","
            
        <div style=""text-align: center; position: fixed; top: 5vh; left: 40vw;"">
            <div style=""margin:0 auto; width: 20vw; top: 8vh; font-size: 1vw""> 
            <font color=""green""> Bonus : $0.4 </font>
            </div>
        </div>
    
            <div> Please press any button to continue to the next trial.</div>
        ","arrowleft","ITI","","","","",""
"","","","","","html-keyboard-response","186","212056","0.0-6.0-1.26","60f6fbe4fb1a6306a901ba41","6552129e68c08af5079f912e","65521389fdbb4b1972bc3749","null","
        
        <div style=""text-align: center; position: fixed; top: 5vh; left: 40vw;"">
            <div style=""margin:0 auto; width: 20vw; top: 8vh; font-size: 1vw""> 
            <font color=""green""> Bonus : $0.4 </font>
            </div>
        </div>
    
        <img class=""stim"" src=./stimuli//pack_1/cat_1/ex_1_28.png></img>
    ","null","stimulus","","","","",""
"","","","","","html-keyboard-response","187","213061","0.0-6.0-2.26","60f6fbe4fb1a6306a901ba41","6552129e68c08af5079f912e","65521389fdbb4b1972bc3749","null","
        <div style=""text-align: center; position: fixed; top: 5vh; left: 40vw;"">
            <div style=""margin:0 auto; width: 20vw; top: 8vh; font-size: 1vw""> 
            <font color=""green""> Bonus : $0.4 </font>
            </div>
        </div>
    ","null","","","","","",""
"","","","","","html-keyboard-response","188","213647","0.0-6.0-3.26","60f6fbe4fb1a6306a901ba41","6552129e68c08af5079f912e","65521389fdbb4b1972bc3749","585","./stimuli//pack_1/cat_1/ex_1_28.png","arrowleft","response","ArrowLeft","28","1","true",""
"","","","","","html-keyboard-response","189","213754","0.0-6.0-4.26","60f6fbe4fb1a6306a901ba41","6552129e68c08af5079f912e","65521389fdbb4b1972bc3749","107","<p> <font color=""green"" size=""4vw""> Correct category! </font> <br> <br> <font color=""green"" size=""7vw""> + $0.05 </font> </p>","arrowleft","feedback","","","","","0.45"
"","","","","","html-keyboard-response","190","214744","0.0-6.0-0.27","60f6fbe4fb1a6306a901ba41","6552129e68c08af5079f912e","65521389fdbb4b1972bc3749","989","
            
        <div style=""text-align: center; position: fixed; top: 5vh; left: 40vw;"">
            <div style=""margin:0 auto; width: 20vw; top: 8vh; font-size: 1vw""> 
            <font color=""green""> Bonus : $0.45 </font>
            </div>
        </div>
    
            <div> Please press any button to continue to the next trial.</div>
        ","arrowleft","ITI","","","","",""
"","","","","","html-keyboard-response","191","215351","0.0-6.0-1.27","60f6fbe4fb1a6306a901ba41","6552129e68c08af5079f912e","65521389fdbb4b1972bc3749","null","
        
        <div style=""text-align: center; position: fixed; top: 5vh; left: 40vw;"">
            <div style=""margin:0 auto; width: 20vw; top: 8vh; font-size: 1vw""> 
            <font color=""green""> Bonus : $0.45 </font>
            </div>
        </div>
    
        <img class=""stim"" src=./stimuli//pack_1/cat_1/ex_1_37.png></img>
    ","null","stimulus","","","","",""
"","","","","","html-keyboard-response","192","216365","0.0-6.0-2.27","60f6fbe4fb1a6306a901ba41","6552129e68c08af5079f912e","65521389fdbb4b1972bc3749","null","
        <div style=""text-align: center; position: fixed; top: 5vh; left: 40vw;"">
            <div style=""margin:0 auto; width: 20vw; top: 8vh; font-size: 1vw""> 
            <font color=""green""> Bonus : $0.45 </font>
            </div>
        </div>
    ","null","","","","","",""
"","","","","","html-keyboard-response","193","216776","0.0-6.0-3.27","60f6fbe4fb1a6306a901ba41","6552129e68c08af5079f912e","65521389fdbb4b1972bc3749","409","./stimuli//pack_1/cat_1/ex_1_37.png","arrowleft","response","ArrowLeft","37","1","true",""
"","","","","","html-keyboard-response","194","218281","0.0-6.0-4.27","60f6fbe4fb1a6306a901ba41","6552129e68c08af5079f912e","65521389fdbb4b1972bc3749","null","<p> <font color=""green"" size=""4vw""> Correct category! </font> <br> <br> <font color=""green"" size=""7vw""> + $0.05 </font> </p>","null","feedback","","","","","0.5"
"","","","","","html-keyboard-response","195","218930","0.0-6.0-0.28","60f6fbe4fb1a6306a901ba41","6552129e68c08af5079f912e","65521389fdbb4b1972bc3749","649","
            
        <div style=""text-align: center; position: fixed; top: 5vh; left: 40vw;"">
            <div style=""margin:0 auto; width: 20vw; top: 8vh; font-size: 1vw""> 
            <font color=""green""> Bonus : $0.5 </font>
            </div>
        </div>
    
            <div> Please press any button to continue to the next trial.</div>
        ","arrowleft","ITI","","","","",""
"","","","","","html-keyboard-response","196","219546","0.0-6.0-1.28","60f6fbe4fb1a6306a901ba41","6552129e68c08af5079f912e","65521389fdbb4b1972bc3749","null","
        
        <div style=""text-align: center; position: fixed; top: 5vh; left: 40vw;"">
            <div style=""margin:0 auto; width: 20vw; top: 8vh; font-size: 1vw""> 
            <font color=""green""> Bonus : $0.5 </font>
            </div>
        </div>
    
        <img class=""stim"" src=./stimuli//pack_1/cat_2/ex_2_17.png></img>
    ","null","stimulus","","","","",""
"","","","","","html-keyboard-response","197","220551","0.0-6.0-2.28","60f6fbe4fb1a6306a901ba41","6552129e68c08af5079f912e","65521389fdbb4b1972bc3749","null","
        <div style=""text-align: center; position: fixed; top: 5vh; left: 40vw;"">
            <div style=""margin:0 auto; width: 20vw; top: 8vh; font-size: 1vw""> 
            <font color=""green""> Bonus : $0.5 </font>
            </div>
        </div>
    ","null","","","","","",""
"","","","","","html-keyboard-response","198","220767","0.0-6.0-3.28","60f6fbe4fb1a6306a901ba41","6552129e68c08af5079f912e","65521389fdbb4b1972bc3749","216","./stimuli//pack_1/cat_2/ex_2_17.png","arrowleft","response","ArrowRight","17","2","false",""
"","","","","","html-keyboard-response","199","222152","0.0-6.0-4.28","60f6fbe4fb1a6306a901ba41","6552129e68c08af5079f912e","65521389fdbb4b1972bc3749","1384","<p> <font color=""red"" size=""4vw""> Wrong category! </font> </p>","arrowleft","feedback","","","","","0.5"
"","","","","","html-keyboard-response","200","222786","0.0-6.0-0.29","60f6fbe4fb1a6306a901ba41","6552129e68c08af5079f912e","65521389fdbb4b1972bc3749","634","
            
        <div style=""text-align: center; position: fixed; top: 5vh; left: 40vw;"">
            <div style=""margin:0 auto; width: 20vw; top: 8vh; font-size: 1vw""> 
            <font color=""green""> Bonus : $0.5 </font>
            </div>
        </div>
    
            <div> Please press any button to continue to the next trial.</div>
        ","arrowleft","ITI","","","","",""
"","","","","","html-keyboard-response","201","223395","0.0-6.0-1.29","60f6fbe4fb1a6306a901ba41","6552129e68c08af5079f912e","65521389fdbb4b1972bc3749","null","
        
        <div style=""text-align: center; position: fixed; top: 5vh; left: 40vw;"">
            <div style=""margin:0 auto; width: 20vw; top: 8vh; font-size: 1vw""> 
            <font color=""green""> Bonus : $0.5 </font>
            </div>
        </div>
    
        <img class=""stim"" src=./stimuli//pack_1/cat_1/ex_1_100.png></img>
    ","null","stimulus","","","","",""
"","","","","","html-keyboard-response","202","224401","0.0-6.0-2.29","60f6fbe4fb1a6306a901ba41","6552129e68c08af5079f912e","65521389fdbb4b1972bc3749","null","
        <div style=""text-align: center; position: fixed; top: 5vh; left: 40vw;"">
            <div style=""margin:0 auto; width: 20vw; top: 8vh; font-size: 1vw""> 
            <font color=""green""> Bonus : $0.5 </font>
            </div>
        </div>
    ","null","","","","","",""
"","","","","","html-keyboard-response","203","224738","0.0-6.0-3.29","60f6fbe4fb1a6306a901ba41","6552129e68c08af5079f912e","65521389fdbb4b1972bc3749","335","./stimuli//pack_1/cat_1/ex_1_100.png","arrowright","response","ArrowLeft","100","1","false",""
"","","","","","html-keyboard-response","204","226252","0.0-6.0-4.29","60f6fbe4fb1a6306a901ba41","6552129e68c08af5079f912e","65521389fdbb4b1972bc3749","null","<p> <font color=""red"" size=""4vw""> Wrong category! </font> </p>","null","feedback","","","","","0.5"
"","","","","","html-keyboard-response","205","226423","0.0-6.0-0.30","60f6fbe4fb1a6306a901ba41","6552129e68c08af5079f912e","65521389fdbb4b1972bc3749","171","
            
        <div style=""text-align: center; position: fixed; top: 5vh; left: 40vw;"">
            <div style=""margin:0 auto; width: 20vw; top: 8vh; font-size: 1vw""> 
            <font color=""green""> Bonus : $0.5 </font>
            </div>
        </div>
    
            <div> Please press any button to continue to the next trial.</div>
        ","arrowright","ITI","","","","",""
"","","","","","html-keyboard-response","206","227028","0.0-6.0-1.30","60f6fbe4fb1a6306a901ba41","6552129e68c08af5079f912e","65521389fdbb4b1972bc3749","null","
        
        <div style=""text-align: center; position: fixed; top: 5vh; left: 40vw;"">
            <div style=""margin:0 auto; width: 20vw; top: 8vh; font-size: 1vw""> 
            <font color=""green""> Bonus : $0.5 </font>
            </div>
        </div>
    
        <img class=""stim"" src=./stimuli//pack_1/cat_2/ex_2_95.png></img>
    ","null","stimulus","","","","",""
"","","","","","html-keyboard-response","207","228034","0.0-6.0-2.30","60f6fbe4fb1a6306a901ba41","6552129e68c08af5079f912e","65521389fdbb4b1972bc3749","null","
        <div style=""text-align: center; position: fixed; top: 5vh; left: 40vw;"">
            <div style=""margin:0 auto; width: 20vw; top: 8vh; font-size: 1vw""> 
            <font color=""green""> Bonus : $0.5 </font>
            </div>
        </div>
    ","null","","","","","",""
"","","","","","html-keyboard-response","208","228200","0.0-6.0-3.30","60f6fbe4fb1a6306a901ba41","6552129e68c08af5079f912e","65521389fdbb4b1972bc3749","166","./stimuli//pack_1/cat_2/ex_2_95.png","arrowleft","response","ArrowRight","95","2","false",""
"","","","","","html-keyboard-response","209","229612","0.0-6.0-4.30","60f6fbe4fb1a6306a901ba41","6552129e68c08af5079f912e","65521389fdbb4b1972bc3749","1412","<p> <font color=""red"" size=""4vw""> Wrong category! </font> </p>","arrowleft","feedback","","","","","0.5"
"","","","","","html-keyboard-response","210","230161","0.0-6.0-0.31","60f6fbe4fb1a6306a901ba41","6552129e68c08af5079f912e","65521389fdbb4b1972bc3749","548","
            
        <div style=""text-align: center; position: fixed; top: 5vh; left: 40vw;"">
            <div style=""margin:0 auto; width: 20vw; top: 8vh; font-size: 1vw""> 
            <font color=""green""> Bonus : $0.5 </font>
            </div>
        </div>
    
            <div> Please press any button to continue to the next trial.</div>
        ","arrowleft","ITI","","","","",""
"","","","","","html-keyboard-response","211","230768","0.0-6.0-1.31","60f6fbe4fb1a6306a901ba41","6552129e68c08af5079f912e","65521389fdbb4b1972bc3749","null","
        
        <div style=""text-align: center; position: fixed; top: 5vh; left: 40vw;"">
            <div style=""margin:0 auto; width: 20vw; top: 8vh; font-size: 1vw""> 
            <font color=""green""> Bonus : $0.5 </font>
            </div>
        </div>
    
        <img class=""stim"" src=./stimuli//pack_1/cat_2/ex_2_47.png></img>
    ","null","stimulus","","","","",""
"","","","","","html-keyboard-response","212","231774","0.0-6.0-2.31","60f6fbe4fb1a6306a901ba41","6552129e68c08af5079f912e","65521389fdbb4b1972bc3749","null","
        <div style=""text-align: center; position: fixed; top: 5vh; left: 40vw;"">
            <div style=""margin:0 auto; width: 20vw; top: 8vh; font-size: 1vw""> 
            <font color=""green""> Bonus : $0.5 </font>
            </div>
        </div>
    ","null","","","","","",""
"","","","","","html-keyboard-response","213","232104","0.0-6.0-3.31","60f6fbe4fb1a6306a901ba41","6552129e68c08af5079f912e","65521389fdbb4b1972bc3749","329","./stimuli//pack_1/cat_2/ex_2_47.png","arrowleft","response","ArrowRight","47","2","false",""
"","","","","","html-keyboard-response","214","233620","0.0-6.0-4.31","60f6fbe4fb1a6306a901ba41","6552129e68c08af5079f912e","65521389fdbb4b1972bc3749","null","<p> <font color=""red"" size=""4vw""> Wrong category! </font> </p>","null","feedback","","","","","0.5"
"","","","","","html-keyboard-response","215","233933","0.0-6.0-0.32","60f6fbe4fb1a6306a901ba41","6552129e68c08af5079f912e","65521389fdbb4b1972bc3749","312","
            
        <div style=""text-align: center; position: fixed; top: 5vh; left: 40vw;"">
            <div style=""margin:0 auto; width: 20vw; top: 8vh; font-size: 1vw""> 
            <font color=""green""> Bonus : $0.5 </font>
            </div>
        </div>
    
            <div> Please press any button to continue to the next trial.</div>
        ","arrowleft","ITI","","","","",""
"","","","","","html-keyboard-response","216","234548","0.0-6.0-1.32","60f6fbe4fb1a6306a901ba41","6552129e68c08af5079f912e","65521389fdbb4b1972bc3749","null","
        
        <div style=""text-align: center; position: fixed; top: 5vh; left: 40vw;"">
            <div style=""margin:0 auto; width: 20vw; top: 8vh; font-size: 1vw""> 
            <font color=""green""> Bonus : $0.5 </font>
            </div>
        </div>
    
        <img class=""stim"" src=./stimuli//pack_1/cat_1/ex_1_95.png></img>
    ","null","stimulus","","","","",""
"","","","","","html-keyboard-response","217","235552","0.0-6.0-2.32","60f6fbe4fb1a6306a901ba41","6552129e68c08af5079f912e","65521389fdbb4b1972bc3749","null","
        <div style=""text-align: center; position: fixed; top: 5vh; left: 40vw;"">
            <div style=""margin:0 auto; width: 20vw; top: 8vh; font-size: 1vw""> 
            <font color=""green""> Bonus : $0.5 </font>
            </div>
        </div>
    ","null","","","","","",""
"","","","","","html-keyboard-response","218","235946","0.0-6.0-3.32","60f6fbe4fb1a6306a901ba41","6552129e68c08af5079f912e","65521389fdbb4b1972bc3749","393","./stimuli//pack_1/cat_1/ex_1_95.png","arrowleft","response","ArrowLeft","95","1","true",""
"","","","","","html-keyboard-response","219","237460","0.0-6.0-4.32","60f6fbe4fb1a6306a901ba41","6552129e68c08af5079f912e","65521389fdbb4b1972bc3749","null","<p> <font color=""green"" size=""4vw""> Correct category! </font> <br> <br> <font color=""green"" size=""7vw""> + $0.05 </font> </p>","null","feedback","","","","","0.55"
"","","","","","html-keyboard-response","220","238007","0.0-6.0-0.33","60f6fbe4fb1a6306a901ba41","6552129e68c08af5079f912e","65521389fdbb4b1972bc3749","546","
            
        <div style=""text-align: center; position: fixed; top: 5vh; left: 40vw;"">
            <div style=""margin:0 auto; width: 20vw; top: 8vh; font-size: 1vw""> 
            <font color=""green""> Bonus : $0.55 </font>
            </div>
        </div>
    
            <div> Please press any button to continue to the next trial.</div>
        ","arrowleft","ITI","","","","",""
"","","","","","html-keyboard-response","221","238610","0.0-6.0-1.33","60f6fbe4fb1a6306a901ba41","6552129e68c08af5079f912e","65521389fdbb4b1972bc3749","null","
        
        <div style=""text-align: center; position: fixed; top: 5vh; left: 40vw;"">
            <div style=""margin:0 auto; width: 20vw; top: 8vh; font-size: 1vw""> 
            <font color=""green""> Bonus : $0.55 </font>
            </div>
        </div>
    
        <img class=""stim"" src=./stimuli//pack_1/cat_2/ex_2_78.png></img>
    ","null","stimulus","","","","",""
"","","","","","html-keyboard-response","222","239621","0.0-6.0-2.33","60f6fbe4fb1a6306a901ba41","6552129e68c08af5079f912e","65521389fdbb4b1972bc3749","null","
        <div style=""text-align: center; position: fixed; top: 5vh; left: 40vw;"">
            <div style=""margin:0 auto; width: 20vw; top: 8vh; font-size: 1vw""> 
            <font color=""green""> Bonus : $0.55 </font>
            </div>
        </div>
    ","null","","","","","",""
"","","","","","html-keyboard-response","223","239737","0.0-6.0-3.33","60f6fbe4fb1a6306a901ba41","6552129e68c08af5079f912e","65521389fdbb4b1972bc3749","114","./stimuli//pack_1/cat_2/ex_2_78.png","arrowleft","response","ArrowRight","78","2","false",""
"","","","","","html-keyboard-response","224","241253","0.0-6.0-4.33","60f6fbe4fb1a6306a901ba41","6552129e68c08af5079f912e","65521389fdbb4b1972bc3749","null","<p> <font color=""red"" size=""4vw""> Wrong category! </font> </p>","null","feedback","","","","","0.55"
"","","","","","html-keyboard-response","225","241747","0.0-6.0-0.34","60f6fbe4fb1a6306a901ba41","6552129e68c08af5079f912e","65521389fdbb4b1972bc3749","493","
            
        <div style=""text-align: center; position: fixed; top: 5vh; left: 40vw;"">
            <div style=""margin:0 auto; width: 20vw; top: 8vh; font-size: 1vw""> 
            <font color=""green""> Bonus : $0.55 </font>
            </div>
        </div>
    
            <div> Please press any button to continue to the next trial.</div>
        ","arrowleft","ITI","","","","",""
"","","","","","html-keyboard-response","226","242355","0.0-6.0-1.34","60f6fbe4fb1a6306a901ba41","6552129e68c08af5079f912e","65521389fdbb4b1972bc3749","null","
        
        <div style=""text-align: center; position: fixed; top: 5vh; left: 40vw;"">
            <div style=""margin:0 auto; width: 20vw; top: 8vh; font-size: 1vw""> 
            <font color=""green""> Bonus : $0.55 </font>
            </div>
        </div>
    
        <img class=""stim"" src=./stimuli//pack_1/cat_1/ex_1_38.png></img>
    ","null","stimulus","","","","",""
"","","","","","html-keyboard-response","227","243358","0.0-6.0-2.34","60f6fbe4fb1a6306a901ba41","6552129e68c08af5079f912e","65521389fdbb4b1972bc3749","null","
        <div style=""text-align: center; position: fixed; top: 5vh; left: 40vw;"">
            <div style=""margin:0 auto; width: 20vw; top: 8vh; font-size: 1vw""> 
            <font color=""green""> Bonus : $0.55 </font>
            </div>
        </div>
    ","null","","","","","",""
"","","","","","html-keyboard-response","228","243879","0.0-6.0-3.34","60f6fbe4fb1a6306a901ba41","6552129e68c08af5079f912e","65521389fdbb4b1972bc3749","520","./stimuli//pack_1/cat_1/ex_1_38.png","arrowright","response","ArrowLeft","38","1","false",""
"","","","","","html-keyboard-response","229","245394","0.0-6.0-4.34","60f6fbe4fb1a6306a901ba41","6552129e68c08af5079f912e","65521389fdbb4b1972bc3749","null","<p> <font color=""red"" size=""4vw""> Wrong category! </font> </p>","null","feedback","","","","","0.55"
"","","","","","html-keyboard-response","230","245975","0.0-6.0-0.35","60f6fbe4fb1a6306a901ba41","6552129e68c08af5079f912e","65521389fdbb4b1972bc3749","579","
            
        <div style=""text-align: center; position: fixed; top: 5vh; left: 40vw;"">
            <div style=""margin:0 auto; width: 20vw; top: 8vh; font-size: 1vw""> 
            <font color=""green""> Bonus : $0.55 </font>
            </div>
        </div>
    
            <div> Please press any button to continue to the next trial.</div>
        ","arrowdown","ITI","","","","",""
"","","","","","html-keyboard-response","231","246578","0.0-6.0-1.35","60f6fbe4fb1a6306a901ba41","6552129e68c08af5079f912e","65521389fdbb4b1972bc3749","null","
        
        <div style=""text-align: center; position: fixed; top: 5vh; left: 40vw;"">
            <div style=""margin:0 auto; width: 20vw; top: 8vh; font-size: 1vw""> 
            <font color=""green""> Bonus : $0.55 </font>
            </div>
        </div>
    
        <img class=""stim"" src=./stimuli//pack_1/cat_2/ex_2_61.png></img>
    ","null","stimulus","","","","",""
"","","","","","html-keyboard-response","232","247587","0.0-6.0-2.35","60f6fbe4fb1a6306a901ba41","6552129e68c08af5079f912e","65521389fdbb4b1972bc3749","null","
        <div style=""text-align: center; position: fixed; top: 5vh; left: 40vw;"">
            <div style=""margin:0 auto; width: 20vw; top: 8vh; font-size: 1vw""> 
            <font color=""green""> Bonus : $0.55 </font>
            </div>
        </div>
    ","null","","","","","",""
"","","","","","html-keyboard-response","233","247939","0.0-6.0-3.35","60f6fbe4fb1a6306a901ba41","6552129e68c08af5079f912e","65521389fdbb4b1972bc3749","350","./stimuli//pack_1/cat_2/ex_2_61.png","arrowleft","response","ArrowRight","61","2","false",""
"","","","","","html-keyboard-response","234","248500","0.0-6.0-4.35","60f6fbe4fb1a6306a901ba41","6552129e68c08af5079f912e","65521389fdbb4b1972bc3749","560","<p> <font color=""red"" size=""4vw""> Wrong category! </font> </p>","arrowleft","feedback","","","","","0.55"
"","","","","","html-keyboard-response","235","248931","0.0-6.0-0.36","60f6fbe4fb1a6306a901ba41","6552129e68c08af5079f912e","65521389fdbb4b1972bc3749","430","
            
        <div style=""text-align: center; position: fixed; top: 5vh; left: 40vw;"">
            <div style=""margin:0 auto; width: 20vw; top: 8vh; font-size: 1vw""> 
            <font color=""green""> Bonus : $0.55 </font>
            </div>
        </div>
    
            <div> Please press any button to continue to the next trial.</div>
        ","arrowleft","ITI","","","","",""
"","","","","","html-keyboard-response","236","249534","0.0-6.0-1.36","60f6fbe4fb1a6306a901ba41","6552129e68c08af5079f912e","65521389fdbb4b1972bc3749","null","
        
        <div style=""text-align: center; position: fixed; top: 5vh; left: 40vw;"">
            <div style=""margin:0 auto; width: 20vw; top: 8vh; font-size: 1vw""> 
            <font color=""green""> Bonus : $0.55 </font>
            </div>
        </div>
    
        <img class=""stim"" src=./stimuli//pack_1/cat_1/ex_1_10.png></img>
    ","null","stimulus","","","","",""
"","","","","","html-keyboard-response","237","250544","0.0-6.0-2.36","60f6fbe4fb1a6306a901ba41","6552129e68c08af5079f912e","65521389fdbb4b1972bc3749","null","
        <div style=""text-align: center; position: fixed; top: 5vh; left: 40vw;"">
            <div style=""margin:0 auto; width: 20vw; top: 8vh; font-size: 1vw""> 
            <font color=""green""> Bonus : $0.55 </font>
            </div>
        </div>
    ","null","","","","","",""
"","","","","","html-keyboard-response","238","250916","0.0-6.0-3.36","60f6fbe4fb1a6306a901ba41","6552129e68c08af5079f912e","65521389fdbb4b1972bc3749","371","./stimuli//pack_1/cat_1/ex_1_10.png","arrowright","response","ArrowLeft","10","1","false",""
"","","","","","html-keyboard-response","239","251585","0.0-6.0-4.36","60f6fbe4fb1a6306a901ba41","6552129e68c08af5079f912e","65521389fdbb4b1972bc3749","668","<p> <font color=""red"" size=""4vw""> Wrong category! </font> </p>","arrowright","feedback","","","","","0.55"
"","","","","","html-keyboard-response","240","252094","0.0-6.0-0.37","60f6fbe4fb1a6306a901ba41","6552129e68c08af5079f912e","65521389fdbb4b1972bc3749","508","
            
        <div style=""text-align: center; position: fixed; top: 5vh; left: 40vw;"">
