"success","timeout","failed_images","failed_audio","failed_video","trial_type","trial_index","time_elapsed","internal_node_id","subject_id","study_id","session_id","rt","stimulus","response","task","correct_response","exemplar_ID","category","correct","bonus"
"true","false","[]","[]","[]","preload","0","4","0.0-0.0","6095eb8d3f11c1f6b463e2f0","6552129e68c08af5079f912e","65521378af1b4a67776b510e","","","","","","","","",""
"","","","","","html-keyboard-response","1","1623","0.0-1.0","6095eb8d3f11c1f6b463e2f0","6552129e68c08af5079f912e","65521378af1b4a67776b510e","1617","Welcome to the Category Learning experiment! Press any key to continue."," ","welcome","","","","",""
"","","","","","html-keyboard-response","2","15584","0.0-2.0","6095eb8d3f11c1f6b463e2f0","6552129e68c08af5079f912e","65521378af1b4a67776b510e","13961","
            <p>You will be shown images of patterns of black dots.  Some are category A, some are category B.
            <br>You will not know in advance which category a specific pattern belongs to.</p>
            <p>After you see an image, you will be asked to guess its category <b>(left arrow for category A, right arrow for category B)</b></p>
            <p>After you choose, the screen will show you whether you were correct or not.</p>
            <p><b>You will receive a bonus payment of $0.05 for each correct answer!</b></p>
            <p> So you can increase your bonus by guessing correctly, and by guessing as quickly as possible so you move on to the next image sooner.</p>
            <p>Press any key to continue.</p>
            "," ","introduction_1","","","","",""
"","","","","","html-keyboard-response","3","18434","0.0-3.0","6095eb8d3f11c1f6b463e2f0","6552129e68c08af5079f912e","65521378af1b4a67776b510e","2846","
            <p> <b>The first 10 trials are a practice round that will not count towards your bonus payment.</b></p>
            <p> You will be notified when practice finishes and the test begins. </p>
            <p> Press any key to begin the practice round.</p>
            "," ","introduction_2","","","","",""
"","","","","","html-keyboard-response","4","19567","0.0-4.0-0.0","6095eb8d3f11c1f6b463e2f0","6552129e68c08af5079f912e","65521378af1b4a67776b510e","1131","
            
        <div style=""text-align: center; position: fixed; top: 5vh; left: 40vw;"">
            <div style=""margin:0 auto; width: 20vw; top: 8vh; font-size: 1vw""> 
            <font color=""green""> Bonus : $0 </font>
            </div>
        </div>
    
            <div> Please press any button to continue to the next trial.</div>
        "," ","ITI","","","","",""
"","","","","","html-keyboard-response","5","20171","0.0-4.0-1.0","6095eb8d3f11c1f6b463e2f0","6552129e68c08af5079f912e","65521378af1b4a67776b510e","null","
        
        <div style=""text-align: center; position: fixed; top: 5vh; left: 40vw;"">
            <div style=""margin:0 auto; width: 20vw; top: 8vh; font-size: 1vw""> 
            <font color=""green""> Bonus : $0 </font>
            </div>
        </div>
    
        <img class=""stim"" src=./stimuli//pack_1/cat_2/ex_2_34.png></img>
    ","null","stimulus","","","","",""
"","","","","","html-keyboard-response","6","21174","0.0-4.0-2.0","6095eb8d3f11c1f6b463e2f0","6552129e68c08af5079f912e","65521378af1b4a67776b510e","null","
        <div style=""text-align: center; position: fixed; top: 5vh; left: 40vw;"">
            <div style=""margin:0 auto; width: 20vw; top: 8vh; font-size: 1vw""> 
            <font color=""green""> Bonus : $0 </font>
            </div>
        </div>
    ","null","","","","","",""
"","","","","","html-keyboard-response","7","22497","0.0-4.0-3.0","6095eb8d3f11c1f6b463e2f0","6552129e68c08af5079f912e","65521378af1b4a67776b510e","1320","./stimuli//pack_1/cat_2/ex_2_34.png","arrowleft","response","ArrowRight","34","2","false",""
"","","","","","html-keyboard-response","8","24000","0.0-4.0-4.0","6095eb8d3f11c1f6b463e2f0","6552129e68c08af5079f912e","65521378af1b4a67776b510e","null","<p> <font color=""red"" size=""4vw""> Wrong category! </font> </p>","null","feedback","","","","","0"
"","","","","","html-keyboard-response","9","26091","0.0-4.0-0.1","6095eb8d3f11c1f6b463e2f0","6552129e68c08af5079f912e","65521378af1b4a67776b510e","2089","
            
        <div style=""text-align: center; position: fixed; top: 5vh; left: 40vw;"">
            <div style=""margin:0 auto; width: 20vw; top: 8vh; font-size: 1vw""> 
            <font color=""green""> Bonus : $0 </font>
            </div>
        </div>
    
            <div> Please press any button to continue to the next trial.</div>
        "," ","ITI","","","","",""
"","","","","","html-keyboard-response","10","26695","0.0-4.0-1.1","6095eb8d3f11c1f6b463e2f0","6552129e68c08af5079f912e","65521378af1b4a67776b510e","null","
        
        <div style=""text-align: center; position: fixed; top: 5vh; left: 40vw;"">
            <div style=""margin:0 auto; width: 20vw; top: 8vh; font-size: 1vw""> 
            <font color=""green""> Bonus : $0 </font>
            </div>
        </div>
    
        <img class=""stim"" src=./stimuli//pack_1/cat_2/ex_2_43.png></img>
    ","null","stimulus","","","","",""
"","","","","","html-keyboard-response","11","27697","0.0-4.0-2.1","6095eb8d3f11c1f6b463e2f0","6552129e68c08af5079f912e","65521378af1b4a67776b510e","null","
        <div style=""text-align: center; position: fixed; top: 5vh; left: 40vw;"">
            <div style=""margin:0 auto; width: 20vw; top: 8vh; font-size: 1vw""> 
            <font color=""green""> Bonus : $0 </font>
            </div>
        </div>
    ","null","","","","","",""
"","","","","","html-keyboard-response","12","28358","0.0-4.0-3.1","6095eb8d3f11c1f6b463e2f0","6552129e68c08af5079f912e","65521378af1b4a67776b510e","659","./stimuli//pack_1/cat_2/ex_2_43.png","arrowright","response","ArrowRight","43","2","true",""
"","","","","","html-keyboard-response","13","29861","0.0-4.0-4.1","6095eb8d3f11c1f6b463e2f0","6552129e68c08af5079f912e","65521378af1b4a67776b510e","null","<p> <font color=""green"" size=""4vw""> Correct category! </font> </p>","null","feedback","","","","","0"
"","","","","","html-keyboard-response","14","30614","0.0-4.0-0.2","6095eb8d3f11c1f6b463e2f0","6552129e68c08af5079f912e","65521378af1b4a67776b510e","751","
            
        <div style=""text-align: center; position: fixed; top: 5vh; left: 40vw;"">
            <div style=""margin:0 auto; width: 20vw; top: 8vh; font-size: 1vw""> 
            <font color=""green""> Bonus : $0 </font>
            </div>
        </div>
    
            <div> Please press any button to continue to the next trial.</div>
        "," ","ITI","","","","",""
"","","","","","html-keyboard-response","15","31217","0.0-4.0-1.2","6095eb8d3f11c1f6b463e2f0","6552129e68c08af5079f912e","65521378af1b4a67776b510e","null","
        
        <div style=""text-align: center; position: fixed; top: 5vh; left: 40vw;"">
            <div style=""margin:0 auto; width: 20vw; top: 8vh; font-size: 1vw""> 
            <font color=""green""> Bonus : $0 </font>
            </div>
        </div>
    
        <img class=""stim"" src=./stimuli//pack_1/cat_1/ex_1_67.png></img>
    ","null","stimulus","","","","",""
"","","","","","html-keyboard-response","16","32221","0.0-4.0-2.2","6095eb8d3f11c1f6b463e2f0","6552129e68c08af5079f912e","65521378af1b4a67776b510e","null","
        <div style=""text-align: center; position: fixed; top: 5vh; left: 40vw;"">
            <div style=""margin:0 auto; width: 20vw; top: 8vh; font-size: 1vw""> 
            <font color=""green""> Bonus : $0 </font>
            </div>
        </div>
    ","null","","","","","",""
"","","","","","html-keyboard-response","17","32591","0.0-4.0-3.2","6095eb8d3f11c1f6b463e2f0","6552129e68c08af5079f912e","65521378af1b4a67776b510e","368","./stimuli//pack_1/cat_1/ex_1_67.png","arrowleft","response","ArrowLeft","67","1","true",""
"","","","","","html-keyboard-response","18","34094","0.0-4.0-4.2","6095eb8d3f11c1f6b463e2f0","6552129e68c08af5079f912e","65521378af1b4a67776b510e","null","<p> <font color=""green"" size=""4vw""> Correct category! </font> </p>","null","feedback","","","","","0"
"","","","","","html-keyboard-response","19","34944","0.0-4.0-0.3","6095eb8d3f11c1f6b463e2f0","6552129e68c08af5079f912e","65521378af1b4a67776b510e","848","
            
        <div style=""text-align: center; position: fixed; top: 5vh; left: 40vw;"">
            <div style=""margin:0 auto; width: 20vw; top: 8vh; font-size: 1vw""> 
            <font color=""green""> Bonus : $0 </font>
            </div>
        </div>
    
            <div> Please press any button to continue to the next trial.</div>
        "," ","ITI","","","","",""
"","","","","","html-keyboard-response","20","35547","0.0-4.0-1.3","6095eb8d3f11c1f6b463e2f0","6552129e68c08af5079f912e","65521378af1b4a67776b510e","null","
        
        <div style=""text-align: center; position: fixed; top: 5vh; left: 40vw;"">
            <div style=""margin:0 auto; width: 20vw; top: 8vh; font-size: 1vw""> 
            <font color=""green""> Bonus : $0 </font>
            </div>
        </div>
    
        <img class=""stim"" src=./stimuli//pack_1/cat_1/ex_1_68.png></img>
    ","null","stimulus","","","","",""
"","","","","","html-keyboard-response","21","36550","0.0-4.0-2.3","6095eb8d3f11c1f6b463e2f0","6552129e68c08af5079f912e","65521378af1b4a67776b510e","null","
        <div style=""text-align: center; position: fixed; top: 5vh; left: 40vw;"">
            <div style=""margin:0 auto; width: 20vw; top: 8vh; font-size: 1vw""> 
            <font color=""green""> Bonus : $0 </font>
            </div>
        </div>
    ","null","","","","","",""
"","","","","","html-keyboard-response","22","36885","0.0-4.0-3.3","6095eb8d3f11c1f6b463e2f0","6552129e68c08af5079f912e","65521378af1b4a67776b510e","332","./stimuli//pack_1/cat_1/ex_1_68.png","arrowright","response","ArrowLeft","68","1","false",""
"","","","","","html-keyboard-response","23","38387","0.0-4.0-4.3","6095eb8d3f11c1f6b463e2f0","6552129e68c08af5079f912e","65521378af1b4a67776b510e","null","<p> <font color=""red"" size=""4vw""> Wrong category! </font> </p>","null","feedback","","","","","0"
"","","","","","html-keyboard-response","24","39335","0.0-4.0-0.4","6095eb8d3f11c1f6b463e2f0","6552129e68c08af5079f912e","65521378af1b4a67776b510e","946","
            
        <div style=""text-align: center; position: fixed; top: 5vh; left: 40vw;"">
            <div style=""margin:0 auto; width: 20vw; top: 8vh; font-size: 1vw""> 
            <font color=""green""> Bonus : $0 </font>
            </div>
        </div>
    
            <div> Please press any button to continue to the next trial.</div>
        "," ","ITI","","","","",""
"","","","","","html-keyboard-response","25","39938","0.0-4.0-1.4","6095eb8d3f11c1f6b463e2f0","6552129e68c08af5079f912e","65521378af1b4a67776b510e","null","
        
        <div style=""text-align: center; position: fixed; top: 5vh; left: 40vw;"">
            <div style=""margin:0 auto; width: 20vw; top: 8vh; font-size: 1vw""> 
            <font color=""green""> Bonus : $0 </font>
            </div>
        </div>
    
        <img class=""stim"" src=./stimuli//pack_1/cat_1/ex_1_81.png></img>
    ","null","stimulus","","","","",""
"","","","","","html-keyboard-response","26","40941","0.0-4.0-2.4","6095eb8d3f11c1f6b463e2f0","6552129e68c08af5079f912e","65521378af1b4a67776b510e","null","
        <div style=""text-align: center; position: fixed; top: 5vh; left: 40vw;"">
            <div style=""margin:0 auto; width: 20vw; top: 8vh; font-size: 1vw""> 
            <font color=""green""> Bonus : $0 </font>
            </div>
        </div>
    ","null","","","","","",""
"","","","","","html-keyboard-response","27","41273","0.0-4.0-3.4","6095eb8d3f11c1f6b463e2f0","6552129e68c08af5079f912e","65521378af1b4a67776b510e","330","./stimuli//pack_1/cat_1/ex_1_81.png","arrowright","response","ArrowLeft","81","1","false",""
"","","","","","html-keyboard-response","28","42776","0.0-4.0-4.4","6095eb8d3f11c1f6b463e2f0","6552129e68c08af5079f912e","65521378af1b4a67776b510e","null","<p> <font color=""red"" size=""4vw""> Wrong category! </font> </p>","null","feedback","","","","","0"
"","","","","","html-keyboard-response","29","43260","0.0-4.0-0.5","6095eb8d3f11c1f6b463e2f0","6552129e68c08af5079f912e","65521378af1b4a67776b510e","482","
            
        <div style=""text-align: center; position: fixed; top: 5vh; left: 40vw;"">
            <div style=""margin:0 auto; width: 20vw; top: 8vh; font-size: 1vw""> 
            <font color=""green""> Bonus : $0 </font>
            </div>
        </div>
    
            <div> Please press any button to continue to the next trial.</div>
        "," ","ITI","","","","",""
"","","","","","html-keyboard-response","30","43863","0.0-4.0-1.5","6095eb8d3f11c1f6b463e2f0","6552129e68c08af5079f912e","65521378af1b4a67776b510e","null","
        
        <div style=""text-align: center; position: fixed; top: 5vh; left: 40vw;"">
            <div style=""margin:0 auto; width: 20vw; top: 8vh; font-size: 1vw""> 
            <font color=""green""> Bonus : $0 </font>
            </div>
        </div>
    
        <img class=""stim"" src=./stimuli//pack_1/cat_2/ex_2_70.png></img>
    ","null","stimulus","","","","",""
"","","","","","html-keyboard-response","31","44866","0.0-4.0-2.5","6095eb8d3f11c1f6b463e2f0","6552129e68c08af5079f912e","65521378af1b4a67776b510e","null","
        <div style=""text-align: center; position: fixed; top: 5vh; left: 40vw;"">
            <div style=""margin:0 auto; width: 20vw; top: 8vh; font-size: 1vw""> 
            <font color=""green""> Bonus : $0 </font>
            </div>
        </div>
    ","null","","","","","",""
"","","","","","html-keyboard-response","32","45194","0.0-4.0-3.5","6095eb8d3f11c1f6b463e2f0","6552129e68c08af5079f912e","65521378af1b4a67776b510e","325","./stimuli//pack_1/cat_2/ex_2_70.png","arrowright","response","ArrowRight","70","2","true",""
"","","","","","html-keyboard-response","33","46696","0.0-4.0-4.5","6095eb8d3f11c1f6b463e2f0","6552129e68c08af5079f912e","65521378af1b4a67776b510e","null","<p> <font color=""green"" size=""4vw""> Correct category! </font> </p>","null","feedback","","","","","0"
"","","","","","html-keyboard-response","34","47613","0.0-4.0-0.6","6095eb8d3f11c1f6b463e2f0","6552129e68c08af5079f912e","65521378af1b4a67776b510e","915","
            
        <div style=""text-align: center; position: fixed; top: 5vh; left: 40vw;"">
            <div style=""margin:0 auto; width: 20vw; top: 8vh; font-size: 1vw""> 
            <font color=""green""> Bonus : $0 </font>
            </div>
        </div>
    
            <div> Please press any button to continue to the next trial.</div>
        "," ","ITI","","","","",""
"","","","","","html-keyboard-response","35","48216","0.0-4.0-1.6","6095eb8d3f11c1f6b463e2f0","6552129e68c08af5079f912e","65521378af1b4a67776b510e","null","
        
        <div style=""text-align: center; position: fixed; top: 5vh; left: 40vw;"">
            <div style=""margin:0 auto; width: 20vw; top: 8vh; font-size: 1vw""> 
            <font color=""green""> Bonus : $0 </font>
            </div>
        </div>
    
        <img class=""stim"" src=./stimuli//pack_1/cat_2/ex_2_65.png></img>
    ","null","stimulus","","","","",""
"","","","","","html-keyboard-response","36","49219","0.0-4.0-2.6","6095eb8d3f11c1f6b463e2f0","6552129e68c08af5079f912e","65521378af1b4a67776b510e","null","
        <div style=""text-align: center; position: fixed; top: 5vh; left: 40vw;"">
            <div style=""margin:0 auto; width: 20vw; top: 8vh; font-size: 1vw""> 
            <font color=""green""> Bonus : $0 </font>
            </div>
        </div>
    ","null","","","","","",""
"","","","","","html-keyboard-response","37","49531","0.0-4.0-3.6","6095eb8d3f11c1f6b463e2f0","6552129e68c08af5079f912e","65521378af1b4a67776b510e","309","./stimuli//pack_1/cat_2/ex_2_65.png","arrowright","response","ArrowRight","65","2","true",""
"","","","","","html-keyboard-response","38","51033","0.0-4.0-4.6","6095eb8d3f11c1f6b463e2f0","6552129e68c08af5079f912e","65521378af1b4a67776b510e","null","<p> <font color=""green"" size=""4vw""> Correct category! </font> </p>","null","feedback","","","","","0"
"","","","","","html-keyboard-response","39","51653","0.0-4.0-0.7","6095eb8d3f11c1f6b463e2f0","6552129e68c08af5079f912e","65521378af1b4a67776b510e","619","
            
        <div style=""text-align: center; position: fixed; top: 5vh; left: 40vw;"">
            <div style=""margin:0 auto; width: 20vw; top: 8vh; font-size: 1vw""> 
            <font color=""green""> Bonus : $0 </font>
            </div>
        </div>
    
            <div> Please press any button to continue to the next trial.</div>
        "," ","ITI","","","","",""
"","","","","","html-keyboard-response","40","52257","0.0-4.0-1.7","6095eb8d3f11c1f6b463e2f0","6552129e68c08af5079f912e","65521378af1b4a67776b510e","null","
        
        <div style=""text-align: center; position: fixed; top: 5vh; left: 40vw;"">
            <div style=""margin:0 auto; width: 20vw; top: 8vh; font-size: 1vw""> 
            <font color=""green""> Bonus : $0 </font>
            </div>
        </div>
    
        <img class=""stim"" src=./stimuli//pack_1/cat_1/ex_1_58.png></img>
    ","null","stimulus","","","","",""
"","","","","","html-keyboard-response","41","53259","0.0-4.0-2.7","6095eb8d3f11c1f6b463e2f0","6552129e68c08af5079f912e","65521378af1b4a67776b510e","null","
        <div style=""text-align: center; position: fixed; top: 5vh; left: 40vw;"">
            <div style=""margin:0 auto; width: 20vw; top: 8vh; font-size: 1vw""> 
            <font color=""green""> Bonus : $0 </font>
            </div>
        </div>
    ","null","","","","","",""
"","","","","","html-keyboard-response","42","53604","0.0-4.0-3.7","6095eb8d3f11c1f6b463e2f0","6552129e68c08af5079f912e","65521378af1b4a67776b510e","342","./stimuli//pack_1/cat_1/ex_1_58.png","arrowleft","response","ArrowLeft","58","1","true",""
"","","","","","html-keyboard-response","43","55107","0.0-4.0-4.7","6095eb8d3f11c1f6b463e2f0","6552129e68c08af5079f912e","65521378af1b4a67776b510e","null","<p> <font color=""green"" size=""4vw""> Correct category! </font> </p>","null","feedback","","","","","0"
"","","","","","html-keyboard-response","44","55593","0.0-4.0-0.8","6095eb8d3f11c1f6b463e2f0","6552129e68c08af5079f912e","65521378af1b4a67776b510e","485","
            
        <div style=""text-align: center; position: fixed; top: 5vh; left: 40vw;"">
            <div style=""margin:0 auto; width: 20vw; top: 8vh; font-size: 1vw""> 
            <font color=""green""> Bonus : $0 </font>
            </div>
        </div>
    
            <div> Please press any button to continue to the next trial.</div>
        "," ","ITI","","","","",""
"","","","","","html-keyboard-response","45","56197","0.0-4.0-1.8","6095eb8d3f11c1f6b463e2f0","6552129e68c08af5079f912e","65521378af1b4a67776b510e","null","
        
        <div style=""text-align: center; position: fixed; top: 5vh; left: 40vw;"">
            <div style=""margin:0 auto; width: 20vw; top: 8vh; font-size: 1vw""> 
            <font color=""green""> Bonus : $0 </font>
            </div>
        </div>
    
        <img class=""stim"" src=./stimuli//pack_1/cat_1/ex_1_90.png></img>
    ","null","stimulus","","","","",""
"","","","","","html-keyboard-response","46","57199","0.0-4.0-2.8","6095eb8d3f11c1f6b463e2f0","6552129e68c08af5079f912e","65521378af1b4a67776b510e","null","
        <div style=""text-align: center; position: fixed; top: 5vh; left: 40vw;"">
            <div style=""margin:0 auto; width: 20vw; top: 8vh; font-size: 1vw""> 
            <font color=""green""> Bonus : $0 </font>
            </div>
        </div>
    ","null","","","","","",""
"","","","","","html-keyboard-response","47","57485","0.0-4.0-3.8","6095eb8d3f11c1f6b463e2f0","6552129e68c08af5079f912e","65521378af1b4a67776b510e","283","./stimuli//pack_1/cat_1/ex_1_90.png","arrowleft","response","ArrowLeft","90","1","true",""
"","","","","","html-keyboard-response","48","58987","0.0-4.0-4.8","6095eb8d3f11c1f6b463e2f0","6552129e68c08af5079f912e","65521378af1b4a67776b510e","null","<p> <font color=""green"" size=""4vw""> Correct category! </font> </p>","null","feedback","","","","","0"
"","","","","","html-keyboard-response","49","59515","0.0-4.0-0.9","6095eb8d3f11c1f6b463e2f0","6552129e68c08af5079f912e","65521378af1b4a67776b510e","526","
            
        <div style=""text-align: center; position: fixed; top: 5vh; left: 40vw;"">
            <div style=""margin:0 auto; width: 20vw; top: 8vh; font-size: 1vw""> 
            <font color=""green""> Bonus : $0 </font>
            </div>
        </div>
    
            <div> Please press any button to continue to the next trial.</div>
        "," ","ITI","","","","",""
"","","","","","html-keyboard-response","50","60118","0.0-4.0-1.9","6095eb8d3f11c1f6b463e2f0","6552129e68c08af5079f912e","65521378af1b4a67776b510e","null","
        
        <div style=""text-align: center; position: fixed; top: 5vh; left: 40vw;"">
            <div style=""margin:0 auto; width: 20vw; top: 8vh; font-size: 1vw""> 
            <font color=""green""> Bonus : $0 </font>
            </div>
        </div>
    
        <img class=""stim"" src=./stimuli//pack_1/cat_2/ex_2_82.png></img>
    ","null","stimulus","","","","",""
"","","","","","html-keyboard-response","51","61121","0.0-4.0-2.9","6095eb8d3f11c1f6b463e2f0","6552129e68c08af5079f912e","65521378af1b4a67776b510e","null","
        <div style=""text-align: center; position: fixed; top: 5vh; left: 40vw;"">
            <div style=""margin:0 auto; width: 20vw; top: 8vh; font-size: 1vw""> 
            <font color=""green""> Bonus : $0 </font>
            </div>
        </div>
    ","null","","","","","",""
"","","","","","html-keyboard-response","52","61423","0.0-4.0-3.9","6095eb8d3f11c1f6b463e2f0","6552129e68c08af5079f912e","65521378af1b4a67776b510e","300","./stimuli//pack_1/cat_2/ex_2_82.png","arrowright","response","ArrowRight","82","2","true",""
"","","","","","html-keyboard-response","53","62925","0.0-4.0-4.9","6095eb8d3f11c1f6b463e2f0","6552129e68c08af5079f912e","65521378af1b4a67776b510e","null","<p> <font color=""green"" size=""4vw""> Correct category! </font> </p>","null","feedback","","","","","0"
"","","","","","html-keyboard-response","54","65097","0.0-5.0","6095eb8d3f11c1f6b463e2f0","6552129e68c08af5079f912e","65521378af1b4a67776b510e","2170","
            <b> <p> The practice round has finished.</p>
            <b> For the rest of the experiment you will receive a $0.05 bonus for each correct answer!</b>
            <p> Press any key to begin the test. </p>
            "," ","intermission","","","","",""
"","","","","","html-keyboard-response","55","66330","0.0-6.0-0.0","6095eb8d3f11c1f6b463e2f0","6552129e68c08af5079f912e","65521378af1b4a67776b510e","1231","
            
        <div style=""text-align: center; position: fixed; top: 5vh; left: 40vw;"">
            <div style=""margin:0 auto; width: 20vw; top: 8vh; font-size: 1vw""> 
            <font color=""green""> Bonus : $0 </font>
            </div>
        </div>
    
            <div> Please press any button to continue to the next trial.</div>
        "," ","ITI","","","","",""
"","","","","","html-keyboard-response","56","66933","0.0-6.0-1.0","6095eb8d3f11c1f6b463e2f0","6552129e68c08af5079f912e","65521378af1b4a67776b510e","null","
        
        <div style=""text-align: center; position: fixed; top: 5vh; left: 40vw;"">
            <div style=""margin:0 auto; width: 20vw; top: 8vh; font-size: 1vw""> 
            <font color=""green""> Bonus : $0 </font>
            </div>
        </div>
    
        <img class=""stim"" src=./stimuli//pack_1/cat_1/ex_1_53.png></img>
    ","null","stimulus","","","","",""
"","","","","","html-keyboard-response","57","67936","0.0-6.0-2.0","6095eb8d3f11c1f6b463e2f0","6552129e68c08af5079f912e","65521378af1b4a67776b510e","null","
        <div style=""text-align: center; position: fixed; top: 5vh; left: 40vw;"">
            <div style=""margin:0 auto; width: 20vw; top: 8vh; font-size: 1vw""> 
            <font color=""green""> Bonus : $0 </font>
            </div>
        </div>
    ","null","","","","","",""
"","","","","","html-keyboard-response","58","68244","0.0-6.0-3.0","6095eb8d3f11c1f6b463e2f0","6552129e68c08af5079f912e","65521378af1b4a67776b510e","306","./stimuli//pack_1/cat_1/ex_1_53.png","arrowleft","response","ArrowLeft","53","1","true",""
"","","","","","html-keyboard-response","59","69747","0.0-6.0-4.0","6095eb8d3f11c1f6b463e2f0","6552129e68c08af5079f912e","65521378af1b4a67776b510e","null","<p> <font color=""green"" size=""4vw""> Correct category! </font> <br> <br> <font color=""green"" size=""7vw""> + $0.05 </font> </p>","null","feedback","","","","","0.05"
"","","","","","html-keyboard-response","60","70481","0.0-6.0-0.1","6095eb8d3f11c1f6b463e2f0","6552129e68c08af5079f912e","65521378af1b4a67776b510e","732","
            
        <div style=""text-align: center; position: fixed; top: 5vh; left: 40vw;"">
            <div style=""margin:0 auto; width: 20vw; top: 8vh; font-size: 1vw""> 
            <font color=""green""> Bonus : $0.05 </font>
            </div>
        </div>
    
            <div> Please press any button to continue to the next trial.</div>
        "," ","ITI","","","","",""
"","","","","","html-keyboard-response","61","71084","0.0-6.0-1.1","6095eb8d3f11c1f6b463e2f0","6552129e68c08af5079f912e","65521378af1b4a67776b510e","null","
        
        <div style=""text-align: center; position: fixed; top: 5vh; left: 40vw;"">
            <div style=""margin:0 auto; width: 20vw; top: 8vh; font-size: 1vw""> 
            <font color=""green""> Bonus : $0.05 </font>
            </div>
        </div>
    
        <img class=""stim"" src=./stimuli//pack_1/cat_1/ex_1_94.png></img>
    ","null","stimulus","","","","",""
"","","","","","html-keyboard-response","62","72087","0.0-6.0-2.1","6095eb8d3f11c1f6b463e2f0","6552129e68c08af5079f912e","65521378af1b4a67776b510e","null","
        <div style=""text-align: center; position: fixed; top: 5vh; left: 40vw;"">
            <div style=""margin:0 auto; width: 20vw; top: 8vh; font-size: 1vw""> 
            <font color=""green""> Bonus : $0.05 </font>
            </div>
        </div>
    ","null","","","","","",""
"","","","","","html-keyboard-response","63","72353","0.0-6.0-3.1","6095eb8d3f11c1f6b463e2f0","6552129e68c08af5079f912e","65521378af1b4a67776b510e","265","./stimuli//pack_1/cat_1/ex_1_94.png","arrowleft","response","ArrowLeft","94","1","true",""
"","","","","","html-keyboard-response","64","73855","0.0-6.0-4.1","6095eb8d3f11c1f6b463e2f0","6552129e68c08af5079f912e","65521378af1b4a67776b510e","null","<p> <font color=""green"" size=""4vw""> Correct category! </font> <br> <br> <font color=""green"" size=""7vw""> + $0.05 </font> </p>","null","feedback","","","","","0.1"
"","","","","","html-keyboard-response","65","74532","0.0-6.0-0.2","6095eb8d3f11c1f6b463e2f0","6552129e68c08af5079f912e","65521378af1b4a67776b510e","676","
            
        <div style=""text-align: center; position: fixed; top: 5vh; left: 40vw;"">
            <div style=""margin:0 auto; width: 20vw; top: 8vh; font-size: 1vw""> 
            <font color=""green""> Bonus : $0.1 </font>
            </div>
        </div>
    
            <div> Please press any button to continue to the next trial.</div>
        "," ","ITI","","","","",""
"","","","","","html-keyboard-response","66","75135","0.0-6.0-1.2","6095eb8d3f11c1f6b463e2f0","6552129e68c08af5079f912e","65521378af1b4a67776b510e","null","
        
        <div style=""text-align: center; position: fixed; top: 5vh; left: 40vw;"">
            <div style=""margin:0 auto; width: 20vw; top: 8vh; font-size: 1vw""> 
            <font color=""green""> Bonus : $0.1 </font>
            </div>
        </div>
    
        <img class=""stim"" src=./stimuli//pack_1/cat_2/ex_2_14.png></img>
    ","null","stimulus","","","","",""
"","","","","","html-keyboard-response","67","76138","0.0-6.0-2.2","6095eb8d3f11c1f6b463e2f0","6552129e68c08af5079f912e","65521378af1b4a67776b510e","null","
        <div style=""text-align: center; position: fixed; top: 5vh; left: 40vw;"">
            <div style=""margin:0 auto; width: 20vw; top: 8vh; font-size: 1vw""> 
            <font color=""green""> Bonus : $0.1 </font>
            </div>
        </div>
    ","null","","","","","",""
"","","","","","html-keyboard-response","68","76410","0.0-6.0-3.2","6095eb8d3f11c1f6b463e2f0","6552129e68c08af5079f912e","65521378af1b4a67776b510e","270","./stimuli//pack_1/cat_2/ex_2_14.png","arrowright","response","ArrowRight","14","2","true",""
"","","","","","html-keyboard-response","69","77912","0.0-6.0-4.2","6095eb8d3f11c1f6b463e2f0","6552129e68c08af5079f912e","65521378af1b4a67776b510e","null","<p> <font color=""green"" size=""4vw""> Correct category! </font> <br> <br> <font color=""green"" size=""7vw""> + $0.05 </font> </p>","null","feedback","","","","","0.15"
"","","","","","html-keyboard-response","70","78667","0.0-6.0-0.3","6095eb8d3f11c1f6b463e2f0","6552129e68c08af5079f912e","65521378af1b4a67776b510e","752","
            
        <div style=""text-align: center; position: fixed; top: 5vh; left: 40vw;"">
            <div style=""margin:0 auto; width: 20vw; top: 8vh; font-size: 1vw""> 
            <font color=""green""> Bonus : $0.15 </font>
            </div>
        </div>
    
            <div> Please press any button to continue to the next trial.</div>
        "," ","ITI","","","","",""
"","","","","","html-keyboard-response","71","79270","0.0-6.0-1.3","6095eb8d3f11c1f6b463e2f0","6552129e68c08af5079f912e","65521378af1b4a67776b510e","null","
        
        <div style=""text-align: center; position: fixed; top: 5vh; left: 40vw;"">
            <div style=""margin:0 auto; width: 20vw; top: 8vh; font-size: 1vw""> 
            <font color=""green""> Bonus : $0.15 </font>
            </div>
        </div>
    
        <img class=""stim"" src=./stimuli//pack_1/cat_2/ex_2_56.png></img>
    ","null","stimulus","","","","",""
"","","","","","html-keyboard-response","72","80272","0.0-6.0-2.3","6095eb8d3f11c1f6b463e2f0","6552129e68c08af5079f912e","65521378af1b4a67776b510e","null","
        <div style=""text-align: center; position: fixed; top: 5vh; left: 40vw;"">
            <div style=""margin:0 auto; width: 20vw; top: 8vh; font-size: 1vw""> 
            <font color=""green""> Bonus : $0.15 </font>
            </div>
        </div>
    ","null","","","","","",""
"","","","","","html-keyboard-response","73","80535","0.0-6.0-3.3","6095eb8d3f11c1f6b463e2f0","6552129e68c08af5079f912e","65521378af1b4a67776b510e","261","./stimuli//pack_1/cat_2/ex_2_56.png","arrowright","response","ArrowRight","56","2","true",""
"","","","","","html-keyboard-response","74","82037","0.0-6.0-4.3","6095eb8d3f11c1f6b463e2f0","6552129e68c08af5079f912e","65521378af1b4a67776b510e","null","<p> <font color=""green"" size=""4vw""> Correct category! </font> <br> <br> <font color=""green"" size=""7vw""> + $0.05 </font> </p>","null","feedback","","","","","0.2"
"","","","","","html-keyboard-response","75","82888","0.0-6.0-0.4","6095eb8d3f11c1f6b463e2f0","6552129e68c08af5079f912e","65521378af1b4a67776b510e","849","
            
        <div style=""text-align: center; position: fixed; top: 5vh; left: 40vw;"">
            <div style=""margin:0 auto; width: 20vw; top: 8vh; font-size: 1vw""> 
            <font color=""green""> Bonus : $0.2 </font>
            </div>
        </div>
    
            <div> Please press any button to continue to the next trial.</div>
        "," ","ITI","","","","",""
"","","","","","html-keyboard-response","76","83492","0.0-6.0-1.4","6095eb8d3f11c1f6b463e2f0","6552129e68c08af5079f912e","65521378af1b4a67776b510e","null","
        
        <div style=""text-align: center; position: fixed; top: 5vh; left: 40vw;"">
            <div style=""margin:0 auto; width: 20vw; top: 8vh; font-size: 1vw""> 
            <font color=""green""> Bonus : $0.2 </font>
            </div>
        </div>
    
        <img class=""stim"" src=./stimuli//pack_1/cat_1/ex_1_100.png></img>
    ","null","stimulus","","","","",""
"","","","","","html-keyboard-response","77","84494","0.0-6.0-2.4","6095eb8d3f11c1f6b463e2f0","6552129e68c08af5079f912e","65521378af1b4a67776b510e","null","
        <div style=""text-align: center; position: fixed; top: 5vh; left: 40vw;"">
            <div style=""margin:0 auto; width: 20vw; top: 8vh; font-size: 1vw""> 
            <font color=""green""> Bonus : $0.2 </font>
            </div>
        </div>
    ","null","","","","","",""
"","","","","","html-keyboard-response","78","84896","0.0-6.0-3.4","6095eb8d3f11c1f6b463e2f0","6552129e68c08af5079f912e","65521378af1b4a67776b510e","400","./stimuli//pack_1/cat_1/ex_1_100.png","arrowleft","response","ArrowLeft","100","1","true",""
"","","","","","html-keyboard-response","79","86398","0.0-6.0-4.4","6095eb8d3f11c1f6b463e2f0","6552129e68c08af5079f912e","65521378af1b4a67776b510e","null","<p> <font color=""green"" size=""4vw""> Correct category! </font> <br> <br> <font color=""green"" size=""7vw""> + $0.05 </font> </p>","null","feedback","","","","","0.25"
"","","","","","html-keyboard-response","80","87030","0.0-6.0-0.5","6095eb8d3f11c1f6b463e2f0","6552129e68c08af5079f912e","65521378af1b4a67776b510e","630","
            
        <div style=""text-align: center; position: fixed; top: 5vh; left: 40vw;"">
            <div style=""margin:0 auto; width: 20vw; top: 8vh; font-size: 1vw""> 
            <font color=""green""> Bonus : $0.25 </font>
            </div>
        </div>
    
            <div> Please press any button to continue to the next trial.</div>
        "," ","ITI","","","","",""
"","","","","","html-keyboard-response","81","87633","0.0-6.0-1.5","6095eb8d3f11c1f6b463e2f0","6552129e68c08af5079f912e","65521378af1b4a67776b510e","null","
        
        <div style=""text-align: center; position: fixed; top: 5vh; left: 40vw;"">
            <div style=""margin:0 auto; width: 20vw; top: 8vh; font-size: 1vw""> 
            <font color=""green""> Bonus : $0.25 </font>
            </div>
        </div>
    
        <img class=""stim"" src=./stimuli//pack_1/cat_2/ex_2_24.png></img>
    ","null","stimulus","","","","",""
"","","","","","html-keyboard-response","82","88636","0.0-6.0-2.5","6095eb8d3f11c1f6b463e2f0","6552129e68c08af5079f912e","65521378af1b4a67776b510e","null","
        <div style=""text-align: center; position: fixed; top: 5vh; left: 40vw;"">
            <div style=""margin:0 auto; width: 20vw; top: 8vh; font-size: 1vw""> 
            <font color=""green""> Bonus : $0.25 </font>
            </div>
        </div>
    ","null","","","","","",""
"","","","","","html-keyboard-response","83","88941","0.0-6.0-3.5","6095eb8d3f11c1f6b463e2f0","6552129e68c08af5079f912e","65521378af1b4a67776b510e","303","./stimuli//pack_1/cat_2/ex_2_24.png","arrowleft","response","ArrowRight","24","2","false",""
"","","","","","html-keyboard-response","84","90443","0.0-6.0-4.5","6095eb8d3f11c1f6b463e2f0","6552129e68c08af5079f912e","65521378af1b4a67776b510e","null","<p> <font color=""red"" size=""4vw""> Wrong category! </font> </p>","null","feedback","","","","","0.25"
"","","","","","html-keyboard-response","85","91037","0.0-6.0-0.6","6095eb8d3f11c1f6b463e2f0","6552129e68c08af5079f912e","65521378af1b4a67776b510e","592","
            
        <div style=""text-align: center; position: fixed; top: 5vh; left: 40vw;"">
            <div style=""margin:0 auto; width: 20vw; top: 8vh; font-size: 1vw""> 
            <font color=""green""> Bonus : $0.25 </font>
            </div>
        </div>
    
            <div> Please press any button to continue to the next trial.</div>
        "," ","ITI","","","","",""
"","","","","","html-keyboard-response","86","91640","0.0-6.0-1.6","6095eb8d3f11c1f6b463e2f0","6552129e68c08af5079f912e","65521378af1b4a67776b510e","null","
        
        <div style=""text-align: center; position: fixed; top: 5vh; left: 40vw;"">
            <div style=""margin:0 auto; width: 20vw; top: 8vh; font-size: 1vw""> 
            <font color=""green""> Bonus : $0.25 </font>
            </div>
        </div>
    
        <img class=""stim"" src=./stimuli//pack_1/cat_2/ex_2_93.png></img>
    ","null","stimulus","","","","",""
"","","","","","html-keyboard-response","87","92643","0.0-6.0-2.6","6095eb8d3f11c1f6b463e2f0","6552129e68c08af5079f912e","65521378af1b4a67776b510e","null","
        <div style=""text-align: center; position: fixed; top: 5vh; left: 40vw;"">
            <div style=""margin:0 auto; width: 20vw; top: 8vh; font-size: 1vw""> 
            <font color=""green""> Bonus : $0.25 </font>
            </div>
        </div>
    ","null","","","","","",""
"","","","","","html-keyboard-response","88","92922","0.0-6.0-3.6","6095eb8d3f11c1f6b463e2f0","6552129e68c08af5079f912e","65521378af1b4a67776b510e","277","./stimuli//pack_1/cat_2/ex_2_93.png","arrowright","response","ArrowRight","93","2","true",""
"","","","","","html-keyboard-response","89","94424","0.0-6.0-4.6","6095eb8d3f11c1f6b463e2f0","6552129e68c08af5079f912e","65521378af1b4a67776b510e","null","<p> <font color=""green"" size=""4vw""> Correct category! </font> <br> <br> <font color=""green"" size=""7vw""> + $0.05 </font> </p>","null","feedback","","","","","0.3"
"","","","","","html-keyboard-response","90","94932","0.0-6.0-0.7","6095eb8d3f11c1f6b463e2f0","6552129e68c08af5079f912e","65521378af1b4a67776b510e","507","
            
        <div style=""text-align: center; position: fixed; top: 5vh; left: 40vw;"">
            <div style=""margin:0 auto; width: 20vw; top: 8vh; font-size: 1vw""> 
            <font color=""green""> Bonus : $0.3 </font>
            </div>
        </div>
    
            <div> Please press any button to continue to the next trial.</div>
        "," ","ITI","","","","",""
"","","","","","html-keyboard-response","91","95535","0.0-6.0-1.7","6095eb8d3f11c1f6b463e2f0","6552129e68c08af5079f912e","65521378af1b4a67776b510e","null","
        
        <div style=""text-align: center; position: fixed; top: 5vh; left: 40vw;"">
            <div style=""margin:0 auto; width: 20vw; top: 8vh; font-size: 1vw""> 
            <font color=""green""> Bonus : $0.3 </font>
            </div>
        </div>
    
        <img class=""stim"" src=./stimuli//pack_1/cat_1/ex_1_83.png></img>
    ","null","stimulus","","","","",""
"","","","","","html-keyboard-response","92","96538","0.0-6.0-2.7","6095eb8d3f11c1f6b463e2f0","6552129e68c08af5079f912e","65521378af1b4a67776b510e","null","
        <div style=""text-align: center; position: fixed; top: 5vh; left: 40vw;"">
            <div style=""margin:0 auto; width: 20vw; top: 8vh; font-size: 1vw""> 
            <font color=""green""> Bonus : $0.3 </font>
            </div>
        </div>
    ","null","","","","","",""
"","","","","","html-keyboard-response","93","96977","0.0-6.0-3.7","6095eb8d3f11c1f6b463e2f0","6552129e68c08af5079f912e","65521378af1b4a67776b510e","438","./stimuli//pack_1/cat_1/ex_1_83.png","arrowleft","response","ArrowLeft","83","1","true",""
"","","","","","html-keyboard-response","94","98480","0.0-6.0-4.7","6095eb8d3f11c1f6b463e2f0","6552129e68c08af5079f912e","65521378af1b4a67776b510e","null","<p> <font color=""green"" size=""4vw""> Correct category! </font> <br> <br> <font color=""green"" size=""7vw""> + $0.05 </font> </p>","null","feedback","","","","","0.35"
"","","","","","html-keyboard-response","95","99359","0.0-6.0-0.8","6095eb8d3f11c1f6b463e2f0","6552129e68c08af5079f912e","65521378af1b4a67776b510e","878","
            
        <div style=""text-align: center; position: fixed; top: 5vh; left: 40vw;"">
            <div style=""margin:0 auto; width: 20vw; top: 8vh; font-size: 1vw""> 
            <font color=""green""> Bonus : $0.35 </font>
            </div>
        </div>
    
            <div> Please press any button to continue to the next trial.</div>
        "," ","ITI","","","","",""
"","","","","","html-keyboard-response","96","99962","0.0-6.0-1.8","6095eb8d3f11c1f6b463e2f0","6552129e68c08af5079f912e","65521378af1b4a67776b510e","null","
        
        <div style=""text-align: center; position: fixed; top: 5vh; left: 40vw;"">
            <div style=""margin:0 auto; width: 20vw; top: 8vh; font-size: 1vw""> 
            <font color=""green""> Bonus : $0.35 </font>
            </div>
        </div>
    
        <img class=""stim"" src=./stimuli//pack_1/cat_1/ex_1_26.png></img>
    ","null","stimulus","","","","",""
"","","","","","html-keyboard-response","97","100965","0.0-6.0-2.8","6095eb8d3f11c1f6b463e2f0","6552129e68c08af5079f912e","65521378af1b4a67776b510e","null","
        <div style=""text-align: center; position: fixed; top: 5vh; left: 40vw;"">
            <div style=""margin:0 auto; width: 20vw; top: 8vh; font-size: 1vw""> 
            <font color=""green""> Bonus : $0.35 </font>
            </div>
        </div>
    ","null","","","","","",""
"","","","","","html-keyboard-response","98","101267","0.0-6.0-3.8","6095eb8d3f11c1f6b463e2f0","6552129e68c08af5079f912e","65521378af1b4a67776b510e","299","./stimuli//pack_1/cat_1/ex_1_26.png","arrowleft","response","ArrowLeft","26","1","true",""
"","","","","","html-keyboard-response","99","102769","0.0-6.0-4.8","6095eb8d3f11c1f6b463e2f0","6552129e68c08af5079f912e","65521378af1b4a67776b510e","null","<p> <font color=""green"" size=""4vw""> Correct category! </font> <br> <br> <font color=""green"" size=""7vw""> + $0.05 </font> </p>","null","feedback","","","","","0.4"
"","","","","","html-keyboard-response","100","103260","0.0-6.0-0.9","6095eb8d3f11c1f6b463e2f0","6552129e68c08af5079f912e","65521378af1b4a67776b510e","490","
            
        <div style=""text-align: center; position: fixed; top: 5vh; left: 40vw;"">
            <div style=""margin:0 auto; width: 20vw; top: 8vh; font-size: 1vw""> 
            <font color=""green""> Bonus : $0.4 </font>
            </div>
        </div>
    
            <div> Please press any button to continue to the next trial.</div>
        "," ","ITI","","","","",""
"","","","","","html-keyboard-response","101","103864","0.0-6.0-1.9","6095eb8d3f11c1f6b463e2f0","6552129e68c08af5079f912e","65521378af1b4a67776b510e","null","
        
        <div style=""text-align: center; position: fixed; top: 5vh; left: 40vw;"">
            <div style=""margin:0 auto; width: 20vw; top: 8vh; font-size: 1vw""> 
            <font color=""green""> Bonus : $0.4 </font>
            </div>
        </div>
    
        <img class=""stim"" src=./stimuli//pack_1/cat_1/ex_1_61.png></img>
    ","null","stimulus","","","","",""
"","","","","","html-keyboard-response","102","104866","0.0-6.0-2.9","6095eb8d3f11c1f6b463e2f0","6552129e68c08af5079f912e","65521378af1b4a67776b510e","null","
        <div style=""text-align: center; position: fixed; top: 5vh; left: 40vw;"">
            <div style=""margin:0 auto; width: 20vw; top: 8vh; font-size: 1vw""> 
            <font color=""green""> Bonus : $0.4 </font>
            </div>
        </div>
    ","null","","","","","",""
"","","","","","html-keyboard-response","103","105180","0.0-6.0-3.9","6095eb8d3f11c1f6b463e2f0","6552129e68c08af5079f912e","65521378af1b4a67776b510e","312","./stimuli//pack_1/cat_1/ex_1_61.png","arrowleft","response","ArrowLeft","61","1","true",""
"","","","","","html-keyboard-response","104","106683","0.0-6.0-4.9","6095eb8d3f11c1f6b463e2f0","6552129e68c08af5079f912e","65521378af1b4a67776b510e","null","<p> <font color=""green"" size=""4vw""> Correct category! </font> <br> <br> <font color=""green"" size=""7vw""> + $0.05 </font> </p>","null","feedback","","","","","0.45"
"","","","","","html-keyboard-response","105","107194","0.0-6.0-0.10","6095eb8d3f11c1f6b463e2f0","6552129e68c08af5079f912e","65521378af1b4a67776b510e","510","
            
        <div style=""text-align: center; position: fixed; top: 5vh; left: 40vw;"">
            <div style=""margin:0 auto; width: 20vw; top: 8vh; font-size: 1vw""> 
            <font color=""green""> Bonus : $0.45 </font>
            </div>
        </div>
    
            <div> Please press any button to continue to the next trial.</div>
        "," ","ITI","","","","",""
"","","","","","html-keyboard-response","106","107797","0.0-6.0-1.10","6095eb8d3f11c1f6b463e2f0","6552129e68c08af5079f912e","65521378af1b4a67776b510e","null","
        
        <div style=""text-align: center; position: fixed; top: 5vh; left: 40vw;"">
            <div style=""margin:0 auto; width: 20vw; top: 8vh; font-size: 1vw""> 
            <font color=""green""> Bonus : $0.45 </font>
            </div>
        </div>
    
        <img class=""stim"" src=./stimuli//pack_1/cat_2/ex_2_25.png></img>
    ","null","stimulus","","","","",""
"","","","","","html-keyboard-response","107","108799","0.0-6.0-2.10","6095eb8d3f11c1f6b463e2f0","6552129e68c08af5079f912e","65521378af1b4a67776b510e","null","
        <div style=""text-align: center; position: fixed; top: 5vh; left: 40vw;"">
            <div style=""margin:0 auto; width: 20vw; top: 8vh; font-size: 1vw""> 
            <font color=""green""> Bonus : $0.45 </font>
            </div>
        </div>
    ","null","","","","","",""
"","","","","","html-keyboard-response","108","109181","0.0-6.0-3.10","6095eb8d3f11c1f6b463e2f0","6552129e68c08af5079f912e","65521378af1b4a67776b510e","380","./stimuli//pack_1/cat_2/ex_2_25.png","arrowright","response","ArrowRight","25","2","true",""
"","","","","","html-keyboard-response","109","110683","0.0-6.0-4.10","6095eb8d3f11c1f6b463e2f0","6552129e68c08af5079f912e","65521378af1b4a67776b510e","null","<p> <font color=""green"" size=""4vw""> Correct category! </font> <br> <br> <font color=""green"" size=""7vw""> + $0.05 </font> </p>","null","feedback","","","","","0.5"
"","","","","","html-keyboard-response","110","111203","0.0-6.0-0.11","6095eb8d3f11c1f6b463e2f0","6552129e68c08af5079f912e","65521378af1b4a67776b510e","518","
            
        <div style=""text-align: center; position: fixed; top: 5vh; left: 40vw;"">
            <div style=""margin:0 auto; width: 20vw; top: 8vh; font-size: 1vw""> 
            <font color=""green""> Bonus : $0.5 </font>
            </div>
        </div>
    
            <div> Please press any button to continue to the next trial.</div>
        "," ","ITI","","","","",""
"","","","","","html-keyboard-response","111","111806","0.0-6.0-1.11","6095eb8d3f11c1f6b463e2f0","6552129e68c08af5079f912e","65521378af1b4a67776b510e","null","
        
        <div style=""text-align: center; position: fixed; top: 5vh; left: 40vw;"">
            <div style=""margin:0 auto; width: 20vw; top: 8vh; font-size: 1vw""> 
            <font color=""green""> Bonus : $0.5 </font>
            </div>
        </div>
    
        <img class=""stim"" src=./stimuli//pack_1/cat_1/ex_1_97.png></img>
    ","null","stimulus","","","","",""
"","","","","","html-keyboard-response","112","112809","0.0-6.0-2.11","6095eb8d3f11c1f6b463e2f0","6552129e68c08af5079f912e","65521378af1b4a67776b510e","null","
        <div style=""text-align: center; position: fixed; top: 5vh; left: 40vw;"">
            <div style=""margin:0 auto; width: 20vw; top: 8vh; font-size: 1vw""> 
            <font color=""green""> Bonus : $0.5 </font>
            </div>
        </div>
    ","null","","","","","",""
"","","","","","html-keyboard-response","113","113090","0.0-6.0-3.11","6095eb8d3f11c1f6b463e2f0","6552129e68c08af5079f912e","65521378af1b4a67776b510e","279","./stimuli//pack_1/cat_1/ex_1_97.png","arrowleft","response","ArrowLeft","97","1","true",""
"","","","","","html-keyboard-response","114","114592","0.0-6.0-4.11","6095eb8d3f11c1f6b463e2f0","6552129e68c08af5079f912e","65521378af1b4a67776b510e","null","<p> <font color=""green"" size=""4vw""> Correct category! </font> <br> <br> <font color=""green"" size=""7vw""> + $0.05 </font> </p>","null","feedback","","","","","0.55"
"","","","","","html-keyboard-response","115","115165","0.0-6.0-0.12","6095eb8d3f11c1f6b463e2f0","6552129e68c08af5079f912e","65521378af1b4a67776b510e","571","
            
        <div style=""text-align: center; position: fixed; top: 5vh; left: 40vw;"">
            <div style=""margin:0 auto; width: 20vw; top: 8vh; font-size: 1vw""> 
            <font color=""green""> Bonus : $0.55 </font>
            </div>
        </div>
    
            <div> Please press any button to continue to the next trial.</div>
        "," ","ITI","","","","",""
"","","","","","html-keyboard-response","116","115768","0.0-6.0-1.12","6095eb8d3f11c1f6b463e2f0","6552129e68c08af5079f912e","65521378af1b4a67776b510e","null","
        
        <div style=""text-align: center; position: fixed; top: 5vh; left: 40vw;"">
            <div style=""margin:0 auto; width: 20vw; top: 8vh; font-size: 1vw""> 
            <font color=""green""> Bonus : $0.55 </font>
            </div>
        </div>
    
        <img class=""stim"" src=./stimuli//pack_1/cat_1/ex_1_98.png></img>
    ","null","stimulus","","","","",""
"","","","","","html-keyboard-response","117","116770","0.0-6.0-2.12","6095eb8d3f11c1f6b463e2f0","6552129e68c08af5079f912e","65521378af1b4a67776b510e","null","
        <div style=""text-align: center; position: fixed; top: 5vh; left: 40vw;"">
            <div style=""margin:0 auto; width: 20vw; top: 8vh; font-size: 1vw""> 
            <font color=""green""> Bonus : $0.55 </font>
            </div>
        </div>
    ","null","","","","","",""
"","","","","","html-keyboard-response","118","117041","0.0-6.0-3.12","6095eb8d3f11c1f6b463e2f0","6552129e68c08af5079f912e","65521378af1b4a67776b510e","268","./stimuli//pack_1/cat_1/ex_1_98.png","arrowleft","response","ArrowLeft","98","1","true",""
"","","","","","html-keyboard-response","119","118543","0.0-6.0-4.12","6095eb8d3f11c1f6b463e2f0","6552129e68c08af5079f912e","65521378af1b4a67776b510e","null","<p> <font color=""green"" size=""4vw""> Correct category! </font> <br> <br> <font color=""green"" size=""7vw""> + $0.05 </font> </p>","null","feedback","","","","","0.6"
"","","","","","html-keyboard-response","120","119094","0.0-6.0-0.13","6095eb8d3f11c1f6b463e2f0","6552129e68c08af5079f912e","65521378af1b4a67776b510e","550","
            
        <div style=""text-align: center; position: fixed; top: 5vh; left: 40vw;"">
            <div style=""margin:0 auto; width: 20vw; top: 8vh; font-size: 1vw""> 
            <font color=""green""> Bonus : $0.6 </font>
            </div>
        </div>
    
            <div> Please press any button to continue to the next trial.</div>
        "," ","ITI","","","","",""
"","","","","","html-keyboard-response","121","119697","0.0-6.0-1.13","6095eb8d3f11c1f6b463e2f0","6552129e68c08af5079f912e","65521378af1b4a67776b510e","null","
        
        <div style=""text-align: center; position: fixed; top: 5vh; left: 40vw;"">
            <div style=""margin:0 auto; width: 20vw; top: 8vh; font-size: 1vw""> 
            <font color=""green""> Bonus : $0.6 </font>
            </div>
        </div>
    
        <img class=""stim"" src=./stimuli//pack_1/cat_2/ex_2_21.png></img>
    ","null","stimulus","","","","",""
"","","","","","html-keyboard-response","122","120700","0.0-6.0-2.13","6095eb8d3f11c1f6b463e2f0","6552129e68c08af5079f912e","65521378af1b4a67776b510e","null","
        <div style=""text-align: center; position: fixed; top: 5vh; left: 40vw;"">
            <div style=""margin:0 auto; width: 20vw; top: 8vh; font-size: 1vw""> 
            <font color=""green""> Bonus : $0.6 </font>
            </div>
        </div>
    ","null","","","","","",""
"","","","","","html-keyboard-response","123","120958","0.0-6.0-3.13","6095eb8d3f11c1f6b463e2f0","6552129e68c08af5079f912e","65521378af1b4a67776b510e","257","./stimuli//pack_1/cat_2/ex_2_21.png","arrowright","response","ArrowRight","21","2","true",""
"","","","","","html-keyboard-response","124","122461","0.0-6.0-4.13","6095eb8d3f11c1f6b463e2f0","6552129e68c08af5079f912e","65521378af1b4a67776b510e","null","<p> <font color=""green"" size=""4vw""> Correct category! </font> <br> <br> <font color=""green"" size=""7vw""> + $0.05 </font> </p>","null","feedback","","","","","0.65"
"","","","","","html-keyboard-response","125","122957","0.0-6.0-0.14","6095eb8d3f11c1f6b463e2f0","6552129e68c08af5079f912e","65521378af1b4a67776b510e","494","
            
        <div style=""text-align: center; position: fixed; top: 5vh; left: 40vw;"">
            <div style=""margin:0 auto; width: 20vw; top: 8vh; font-size: 1vw""> 
            <font color=""green""> Bonus : $0.65 </font>
            </div>
        </div>
    
            <div> Please press any button to continue to the next trial.</div>
        "," ","ITI","","","","",""
"","","","","","html-keyboard-response","126","123560","0.0-6.0-1.14","6095eb8d3f11c1f6b463e2f0","6552129e68c08af5079f912e","65521378af1b4a67776b510e","null","
        
        <div style=""text-align: center; position: fixed; top: 5vh; left: 40vw;"">
            <div style=""margin:0 auto; width: 20vw; top: 8vh; font-size: 1vw""> 
            <font color=""green""> Bonus : $0.65 </font>
            </div>
        </div>
    
        <img class=""stim"" src=./stimuli//pack_1/cat_2/ex_2_7.png></img>
    ","null","stimulus","","","","",""
"","","","","","html-keyboard-response","127","124562","0.0-6.0-2.14","6095eb8d3f11c1f6b463e2f0","6552129e68c08af5079f912e","65521378af1b4a67776b510e","null","
        <div style=""text-align: center; position: fixed; top: 5vh; left: 40vw;"">
            <div style=""margin:0 auto; width: 20vw; top: 8vh; font-size: 1vw""> 
            <font color=""green""> Bonus : $0.65 </font>
            </div>
        </div>
    ","null","","","","","",""
"","","","","","html-keyboard-response","128","124916","0.0-6.0-3.14","6095eb8d3f11c1f6b463e2f0","6552129e68c08af5079f912e","65521378af1b4a67776b510e","352","./stimuli//pack_1/cat_2/ex_2_7.png","arrowright","response","ArrowRight","7","2","true",""
"","","","","","html-keyboard-response","129","126419","0.0-6.0-4.14","6095eb8d3f11c1f6b463e2f0","6552129e68c08af5079f912e","65521378af1b4a67776b510e","null","<p> <font color=""green"" size=""4vw""> Correct category! </font> <br> <br> <font color=""green"" size=""7vw""> + $0.05 </font> </p>","null","feedback","","","","","0.7"
"","","","","","html-keyboard-response","130","126613","0.0-6.0-0.15","6095eb8d3f11c1f6b463e2f0","6552129e68c08af5079f912e","65521378af1b4a67776b510e","193","
            
        <div style=""text-align: center; position: fixed; top: 5vh; left: 40vw;"">
            <div style=""margin:0 auto; width: 20vw; top: 8vh; font-size: 1vw""> 
            <font color=""green""> Bonus : $0.7 </font>
            </div>
        </div>
    
            <div> Please press any button to continue to the next trial.</div>
        "," ","ITI","","","","",""
"","","","","","html-keyboard-response","131","127217","0.0-6.0-1.15","6095eb8d3f11c1f6b463e2f0","6552129e68c08af5079f912e","65521378af1b4a67776b510e","null","
        
        <div style=""text-align: center; position: fixed; top: 5vh; left: 40vw;"">
            <div style=""margin:0 auto; width: 20vw; top: 8vh; font-size: 1vw""> 
            <font color=""green""> Bonus : $0.7 </font>
            </div>
        </div>
    
        <img class=""stim"" src=./stimuli//pack_1/cat_1/ex_1_99.png></img>
    ","null","stimulus","","","","",""
"","","","","","html-keyboard-response","132","128219","0.0-6.0-2.15","6095eb8d3f11c1f6b463e2f0","6552129e68c08af5079f912e","65521378af1b4a67776b510e","null","
        <div style=""text-align: center; position: fixed; top: 5vh; left: 40vw;"">
            <div style=""margin:0 auto; width: 20vw; top: 8vh; font-size: 1vw""> 
            <font color=""green""> Bonus : $0.7 </font>
            </div>
        </div>
    ","null","","","","","",""
"","","","","","html-keyboard-response","133","128589","0.0-6.0-3.15","6095eb8d3f11c1f6b463e2f0","6552129e68c08af5079f912e","65521378af1b4a67776b510e","367","./stimuli//pack_1/cat_1/ex_1_99.png","arrowleft","response","ArrowLeft","99","1","true",""
"","","","","","html-keyboard-response","134","130091","0.0-6.0-4.15","6095eb8d3f11c1f6b463e2f0","6552129e68c08af5079f912e","65521378af1b4a67776b510e","null","<p> <font color=""green"" size=""4vw""> Correct category! </font> <br> <br> <font color=""green"" size=""7vw""> + $0.05 </font> </p>","null","feedback","","","","","0.75"
"","","","","","html-keyboard-response","135","130605","0.0-6.0-0.16","6095eb8d3f11c1f6b463e2f0","6552129e68c08af5079f912e","65521378af1b4a67776b510e","513","
            
        <div style=""text-align: center; position: fixed; top: 5vh; left: 40vw;"">
            <div style=""margin:0 auto; width: 20vw; top: 8vh; font-size: 1vw""> 
            <font color=""green""> Bonus : $0.75 </font>
            </div>
        </div>
    
            <div> Please press any button to continue to the next trial.</div>
        "," ","ITI","","","","",""
"","","","","","html-keyboard-response","136","131208","0.0-6.0-1.16","6095eb8d3f11c1f6b463e2f0","6552129e68c08af5079f912e","65521378af1b4a67776b510e","null","
        
        <div style=""text-align: center; position: fixed; top: 5vh; left: 40vw;"">
            <div style=""margin:0 auto; width: 20vw; top: 8vh; font-size: 1vw""> 
            <font color=""green""> Bonus : $0.75 </font>
            </div>
        </div>
    
        <img class=""stim"" src=./stimuli//pack_1/cat_2/ex_2_46.png></img>
    ","null","stimulus","","","","",""
"","","","","","html-keyboard-response","137","132211","0.0-6.0-2.16","6095eb8d3f11c1f6b463e2f0","6552129e68c08af5079f912e","65521378af1b4a67776b510e","null","
        <div style=""text-align: center; position: fixed; top: 5vh; left: 40vw;"">
            <div style=""margin:0 auto; width: 20vw; top: 8vh; font-size: 1vw""> 
            <font color=""green""> Bonus : $0.75 </font>
            </div>
        </div>
    ","null","","","","","",""
"","","","","","html-keyboard-response","138","132548","0.0-6.0-3.16","6095eb8d3f11c1f6b463e2f0","6552129e68c08af5079f912e","65521378af1b4a67776b510e","336","./stimuli//pack_1/cat_2/ex_2_46.png","arrowright","response","ArrowRight","46","2","true",""
"","","","","","html-keyboard-response","139","134051","0.0-6.0-4.16","6095eb8d3f11c1f6b463e2f0","6552129e68c08af5079f912e","65521378af1b4a67776b510e","null","<p> <font color=""green"" size=""4vw""> Correct category! </font> <br> <br> <font color=""green"" size=""7vw""> + $0.05 </font> </p>","null","feedback","","","","","0.8"
"","","","","","html-keyboard-response","140","134756","0.0-6.0-0.17","6095eb8d3f11c1f6b463e2f0","6552129e68c08af5079f912e","65521378af1b4a67776b510e","703","
            
        <div style=""text-align: center; position: fixed; top: 5vh; left: 40vw;"">
            <div style=""margin:0 auto; width: 20vw; top: 8vh; font-size: 1vw""> 
            <font color=""green""> Bonus : $0.8 </font>
            </div>
        </div>
    
            <div> Please press any button to continue to the next trial.</div>
        "," ","ITI","","","","",""
"","","","","","html-keyboard-response","141","135359","0.0-6.0-1.17","6095eb8d3f11c1f6b463e2f0","6552129e68c08af5079f912e","65521378af1b4a67776b510e","null","
        
        <div style=""text-align: center; position: fixed; top: 5vh; left: 40vw;"">
            <div style=""margin:0 auto; width: 20vw; top: 8vh; font-size: 1vw""> 
            <font color=""green""> Bonus : $0.8 </font>
            </div>
        </div>
    
        <img class=""stim"" src=./stimuli//pack_1/cat_1/ex_1_6.png></img>
    ","null","stimulus","","","","",""
"","","","","","html-keyboard-response","142","136361","0.0-6.0-2.17","6095eb8d3f11c1f6b463e2f0","6552129e68c08af5079f912e","65521378af1b4a67776b510e","null","
        <div style=""text-align: center; position: fixed; top: 5vh; left: 40vw;"">
            <div style=""margin:0 auto; width: 20vw; top: 8vh; font-size: 1vw""> 
            <font color=""green""> Bonus : $0.8 </font>
            </div>
        </div>
    ","null","","","","","",""
"","","","","","html-keyboard-response","143","136586","0.0-6.0-3.17","6095eb8d3f11c1f6b463e2f0","6552129e68c08af5079f912e","65521378af1b4a67776b510e","223","./stimuli//pack_1/cat_1/ex_1_6.png","arrowleft","response","ArrowLeft","6","1","true",""
"","","","","","html-keyboard-response","144","138089","0.0-6.0-4.17","6095eb8d3f11c1f6b463e2f0","6552129e68c08af5079f912e","65521378af1b4a67776b510e","null","<p> <font color=""green"" size=""4vw""> Correct category! </font> <br> <br> <font color=""green"" size=""7vw""> + $0.05 </font> </p>","null","feedback","","","","","0.85"
"","","","","","html-keyboard-response","145","138139","0.0-6.0-0.18","6095eb8d3f11c1f6b463e2f0","6552129e68c08af5079f912e","65521378af1b4a67776b510e","49","
            
        <div style=""text-align: center; position: fixed; top: 5vh; left: 40vw;"">
            <div style=""margin:0 auto; width: 20vw; top: 8vh; font-size: 1vw""> 
            <font color=""green""> Bonus : $0.85 </font>
            </div>
        </div>
    
            <div> Please press any button to continue to the next trial.</div>
        "," ","ITI","","","","",""
"","","","","","html-keyboard-response","146","138742","0.0-6.0-1.18","6095eb8d3f11c1f6b463e2f0","6552129e68c08af5079f912e","65521378af1b4a67776b510e","null","
        
        <div style=""text-align: center; position: fixed; top: 5vh; left: 40vw;"">
            <div style=""margin:0 auto; width: 20vw; top: 8vh; font-size: 1vw""> 
            <font color=""green""> Bonus : $0.85 </font>
            </div>
        </div>
    
        <img class=""stim"" src=./stimuli//pack_1/cat_1/ex_1_49.png></img>
    ","null","stimulus","","","","",""
"","","","","","html-keyboard-response","147","139744","0.0-6.0-2.18","6095eb8d3f11c1f6b463e2f0","6552129e68c08af5079f912e","65521378af1b4a67776b510e","null","
        <div style=""text-align: center; position: fixed; top: 5vh; left: 40vw;"">
            <div style=""margin:0 auto; width: 20vw; top: 8vh; font-size: 1vw""> 
            <font color=""green""> Bonus : $0.85 </font>
            </div>
        </div>
    ","null","","","","","",""
"","","","","","html-keyboard-response","148","140110","0.0-6.0-3.18","6095eb8d3f11c1f6b463e2f0","6552129e68c08af5079f912e","65521378af1b4a67776b510e","364","./stimuli//pack_1/cat_1/ex_1_49.png","arrowleft","response","ArrowLeft","49","1","true",""
"","","","","","html-keyboard-response","149","141613","0.0-6.0-4.18","6095eb8d3f11c1f6b463e2f0","6552129e68c08af5079f912e","65521378af1b4a67776b510e","null","<p> <font color=""green"" size=""4vw""> Correct category! </font> <br> <br> <font color=""green"" size=""7vw""> + $0.05 </font> </p>","null","feedback","","","","","0.9"
"","","","","","html-keyboard-response","150","142139","0.0-6.0-0.19","6095eb8d3f11c1f6b463e2f0","6552129e68c08af5079f912e","65521378af1b4a67776b510e","525","
            
        <div style=""text-align: center; position: fixed; top: 5vh; left: 40vw;"">
            <div style=""margin:0 auto; width: 20vw; top: 8vh; font-size: 1vw""> 
            <font color=""green""> Bonus : $0.9 </font>
            </div>
        </div>
    
            <div> Please press any button to continue to the next trial.</div>
        "," ","ITI","","","","",""
"","","","","","html-keyboard-response","151","142742","0.0-6.0-1.19","6095eb8d3f11c1f6b463e2f0","6552129e68c08af5079f912e","65521378af1b4a67776b510e","null","
        
        <div style=""text-align: center; position: fixed; top: 5vh; left: 40vw;"">
            <div style=""margin:0 auto; width: 20vw; top: 8vh; font-size: 1vw""> 
            <font color=""green""> Bonus : $0.9 </font>
            </div>
        </div>
    
        <img class=""stim"" src=./stimuli//pack_1/cat_1/ex_1_17.png></img>
    ","null","stimulus","","","","",""
"","","","","","html-keyboard-response","152","143744","0.0-6.0-2.19","6095eb8d3f11c1f6b463e2f0","6552129e68c08af5079f912e","65521378af1b4a67776b510e","null","
        <div style=""text-align: center; position: fixed; top: 5vh; left: 40vw;"">
            <div style=""margin:0 auto; width: 20vw; top: 8vh; font-size: 1vw""> 
            <font color=""green""> Bonus : $0.9 </font>
            </div>
        </div>
    ","null","","","","","",""
"","","","","","html-keyboard-response","153","144090","0.0-6.0-3.19","6095eb8d3f11c1f6b463e2f0","6552129e68c08af5079f912e","65521378af1b4a67776b510e","343","./stimuli//pack_1/cat_1/ex_1_17.png","arrowleft","response","ArrowLeft","17","1","true",""
"","","","","","html-keyboard-response","154","145593","0.0-6.0-4.19","6095eb8d3f11c1f6b463e2f0","6552129e68c08af5079f912e","65521378af1b4a67776b510e","null","<p> <font color=""green"" size=""4vw""> Correct category! </font> <br> <br> <font color=""green"" size=""7vw""> + $0.05 </font> </p>","null","feedback","","","","","0.95"
"","","","","","html-keyboard-response","155","145995","0.0-6.0-0.20","6095eb8d3f11c1f6b463e2f0","6552129e68c08af5079f912e","65521378af1b4a67776b510e","400","
            
        <div style=""text-align: center; position: fixed; top: 5vh; left: 40vw;"">
            <div style=""margin:0 auto; width: 20vw; top: 8vh; font-size: 1vw""> 
            <font color=""green""> Bonus : $0.95 </font>
            </div>
        </div>
    
            <div> Please press any button to continue to the next trial.</div>
        "," ","ITI","","","","",""
"","","","","","html-keyboard-response","156","146598","0.0-6.0-1.20","6095eb8d3f11c1f6b463e2f0","6552129e68c08af5079f912e","65521378af1b4a67776b510e","null","
        
        <div style=""text-align: center; position: fixed; top: 5vh; left: 40vw;"">
            <div style=""margin:0 auto; width: 20vw; top: 8vh; font-size: 1vw""> 
            <font color=""green""> Bonus : $0.95 </font>
            </div>
        </div>
    
        <img class=""stim"" src=./stimuli//pack_1/cat_1/ex_1_32.png></img>
    ","null","stimulus","","","","",""
"","","","","","html-keyboard-response","157","147600","0.0-6.0-2.20","6095eb8d3f11c1f6b463e2f0","6552129e68c08af5079f912e","65521378af1b4a67776b510e","null","
        <div style=""text-align: center; position: fixed; top: 5vh; left: 40vw;"">
            <div style=""margin:0 auto; width: 20vw; top: 8vh; font-size: 1vw""> 
            <font color=""green""> Bonus : $0.95 </font>
            </div>
        </div>
    ","null","","","","","",""
"","","","","","html-keyboard-response","158","147918","0.0-6.0-3.20","6095eb8d3f11c1f6b463e2f0","6552129e68c08af5079f912e","65521378af1b4a67776b510e","316","./stimuli//pack_1/cat_1/ex_1_32.png","arrowleft","response","ArrowLeft","32","1","true",""
"","","","","","html-keyboard-response","159","149421","0.0-6.0-4.20","6095eb8d3f11c1f6b463e2f0","6552129e68c08af5079f912e","65521378af1b4a67776b510e","null","<p> <font color=""green"" size=""4vw""> Correct category! </font> <br> <br> <font color=""green"" size=""7vw""> + $0.05 </font> </p>","null","feedback","","","","","1"
"","","","","","html-keyboard-response","160","149799","0.0-6.0-0.21","6095eb8d3f11c1f6b463e2f0","6552129e68c08af5079f912e","65521378af1b4a67776b510e","376","
            
        <div style=""text-align: center; position: fixed; top: 5vh; left: 40vw;"">
            <div style=""margin:0 auto; width: 20vw; top: 8vh; font-size: 1vw""> 
            <font color=""green""> Bonus : $1 </font>
            </div>
        </div>
    
            <div> Please press any button to continue to the next trial.</div>
        "," ","ITI","","","","",""
"","","","","","html-keyboard-response","161","150401","0.0-6.0-1.21","6095eb8d3f11c1f6b463e2f0","6552129e68c08af5079f912e","65521378af1b4a67776b510e","null","
        
        <div style=""text-align: center; position: fixed; top: 5vh; left: 40vw;"">
            <div style=""margin:0 auto; width: 20vw; top: 8vh; font-size: 1vw""> 
            <font color=""green""> Bonus : $1 </font>
            </div>
        </div>
    
        <img class=""stim"" src=./stimuli//pack_1/cat_1/ex_1_3.png></img>
    ","null","stimulus","","","","",""
"","","","","","html-keyboard-response","162","151403","0.0-6.0-2.21","6095eb8d3f11c1f6b463e2f0","6552129e68c08af5079f912e","65521378af1b4a67776b510e","null","
        <div style=""text-align: center; position: fixed; top: 5vh; left: 40vw;"">
            <div style=""margin:0 auto; width: 20vw; top: 8vh; font-size: 1vw""> 
            <font color=""green""> Bonus : $1 </font>
            </div>
        </div>
    ","null","","","","","",""
"","","","","","html-keyboard-response","163","151700","0.0-6.0-3.21","6095eb8d3f11c1f6b463e2f0","6552129e68c08af5079f912e","65521378af1b4a67776b510e","295","./stimuli//pack_1/cat_1/ex_1_3.png","arrowleft","response","ArrowLeft","3","1","true",""
"","","","","","html-keyboard-response","164","153202","0.0-6.0-4.21","6095eb8d3f11c1f6b463e2f0","6552129e68c08af5079f912e","65521378af1b4a67776b510e","null","<p> <font color=""green"" size=""4vw""> Correct category! </font> <br> <br> <font color=""green"" size=""7vw""> + $0.05 </font> </p>","null","feedback","","","","","1.05"
"","","","","","html-keyboard-response","165","153524","0.0-6.0-0.22","6095eb8d3f11c1f6b463e2f0","6552129e68c08af5079f912e","65521378af1b4a67776b510e","321","
            
        <div style=""text-align: center; position: fixed; top: 5vh; left: 40vw;"">
            <div style=""margin:0 auto; width: 20vw; top: 8vh; font-size: 1vw""> 
            <font color=""green""> Bonus : $1.05 </font>
            </div>
        </div>
    
            <div> Please press any button to continue to the next trial.</div>
        "," ","ITI","","","","",""
"","","","","","html-keyboard-response","166","154127","0.0-6.0-1.22","6095eb8d3f11c1f6b463e2f0","6552129e68c08af5079f912e","65521378af1b4a67776b510e","null","
        
        <div style=""text-align: center; position: fixed; top: 5vh; left: 40vw;"">
            <div style=""margin:0 auto; width: 20vw; top: 8vh; font-size: 1vw""> 
            <font color=""green""> Bonus : $1.05 </font>
            </div>
        </div>
    
        <img class=""stim"" src=./stimuli//pack_1/cat_1/ex_1_15.png></img>
    ","null","stimulus","","","","",""
"","","","","","html-keyboard-response","167","155129","0.0-6.0-2.22","6095eb8d3f11c1f6b463e2f0","6552129e68c08af5079f912e","65521378af1b4a67776b510e","null","
        <div style=""text-align: center; position: fixed; top: 5vh; left: 40vw;"">
            <div style=""margin:0 auto; width: 20vw; top: 8vh; font-size: 1vw""> 
            <font color=""green""> Bonus : $1.05 </font>
            </div>
        </div>
    ","null","","","","","",""
"","","","","","html-keyboard-response","168","155525","0.0-6.0-3.22","6095eb8d3f11c1f6b463e2f0","6552129e68c08af5079f912e","65521378af1b4a67776b510e","394","./stimuli//pack_1/cat_1/ex_1_15.png","arrowright","response","ArrowLeft","15","1","false",""
"","","","","","html-keyboard-response","169","157027","0.0-6.0-4.22","6095eb8d3f11c1f6b463e2f0","6552129e68c08af5079f912e","65521378af1b4a67776b510e","null","<p> <font color=""red"" size=""4vw""> Wrong category! </font> </p>","null","feedback","","","","","1.05"
"","","","","","html-keyboard-response","170","157618","0.0-6.0-0.23","6095eb8d3f11c1f6b463e2f0","6552129e68c08af5079f912e","65521378af1b4a67776b510e","589","
            
        <div style=""text-align: center; position: fixed; top: 5vh; left: 40vw;"">
            <div style=""margin:0 auto; width: 20vw; top: 8vh; font-size: 1vw""> 
            <font color=""green""> Bonus : $1.05 </font>
            </div>
        </div>
    
            <div> Please press any button to continue to the next trial.</div>
        "," ","ITI","","","","",""
"","","","","","html-keyboard-response","171","158221","0.0-6.0-1.23","6095eb8d3f11c1f6b463e2f0","6552129e68c08af5079f912e","65521378af1b4a67776b510e","null","
        
        <div style=""text-align: center; position: fixed; top: 5vh; left: 40vw;"">
            <div style=""margin:0 auto; width: 20vw; top: 8vh; font-size: 1vw""> 
            <font color=""green""> Bonus : $1.05 </font>
            </div>
        </div>
    
        <img class=""stim"" src=./stimuli//pack_1/cat_1/ex_1_33.png></img>
    ","null","stimulus","","","","",""
"","","","","","html-keyboard-response","172","159224","0.0-6.0-2.23","6095eb8d3f11c1f6b463e2f0","6552129e68c08af5079f912e","65521378af1b4a67776b510e","null","
        <div style=""text-align: center; position: fixed; top: 5vh; left: 40vw;"">
            <div style=""margin:0 auto; width: 20vw; top: 8vh; font-size: 1vw""> 
            <font color=""green""> Bonus : $1.05 </font>
            </div>
        </div>
    ","null","","","","","",""
"","","","","","html-keyboard-response","173","159519","0.0-6.0-3.23","6095eb8d3f11c1f6b463e2f0","6552129e68c08af5079f912e","65521378af1b4a67776b510e","293","./stimuli//pack_1/cat_1/ex_1_33.png","arrowright","response","ArrowLeft","33","1","false",""
"","","","","","html-keyboard-response","174","161021","0.0-6.0-4.23","6095eb8d3f11c1f6b463e2f0","6552129e68c08af5079f912e","65521378af1b4a67776b510e","null","<p> <font color=""red"" size=""4vw""> Wrong category! </font> </p>","null","feedback","","","","","1.05"
"","","","","","html-keyboard-response","175","161413","0.0-6.0-0.24","6095eb8d3f11c1f6b463e2f0","6552129e68c08af5079f912e","65521378af1b4a67776b510e","390","
            
        <div style=""text-align: center; position: fixed; top: 5vh; left: 40vw;"">
            <div style=""margin:0 auto; width: 20vw; top: 8vh; font-size: 1vw""> 
            <font color=""green""> Bonus : $1.05 </font>
            </div>
        </div>
    
            <div> Please press any button to continue to the next trial.</div>
        "," ","ITI","","","","",""
"","","","","","html-keyboard-response","176","162016","0.0-6.0-1.24","6095eb8d3f11c1f6b463e2f0","6552129e68c08af5079f912e","65521378af1b4a67776b510e","null","
        
        <div style=""text-align: center; position: fixed; top: 5vh; left: 40vw;"">
            <div style=""margin:0 auto; width: 20vw; top: 8vh; font-size: 1vw""> 
            <font color=""green""> Bonus : $1.05 </font>
            </div>
        </div>
    
        <img class=""stim"" src=./stimuli//pack_1/cat_2/ex_2_3.png></img>
    ","null","stimulus","","","","",""
"","","","","","html-keyboard-response","177","163019","0.0-6.0-2.24","6095eb8d3f11c1f6b463e2f0","6552129e68c08af5079f912e","65521378af1b4a67776b510e","null","
        <div style=""text-align: center; position: fixed; top: 5vh; left: 40vw;"">
            <div style=""margin:0 auto; width: 20vw; top: 8vh; font-size: 1vw""> 
            <font color=""green""> Bonus : $1.05 </font>
            </div>
        </div>
    ","null","","","","","",""
"","","","","","html-keyboard-response","178","163341","0.0-6.0-3.24","6095eb8d3f11c1f6b463e2f0","6552129e68c08af5079f912e","65521378af1b4a67776b510e","320","./stimuli//pack_1/cat_2/ex_2_3.png","arrowright","response","ArrowRight","3","2","true",""
"","","","","","html-keyboard-response","179","164843","0.0-6.0-4.24","6095eb8d3f11c1f6b463e2f0","6552129e68c08af5079f912e","65521378af1b4a67776b510e","null","<p> <font color=""green"" size=""4vw""> Correct category! </font> <br> <br> <font color=""green"" size=""7vw""> + $0.05 </font> </p>","null","feedback","","","","","1.1"
"","","","","","html-keyboard-response","180","165272","0.0-6.0-0.25","6095eb8d3f11c1f6b463e2f0","6552129e68c08af5079f912e","65521378af1b4a67776b510e","428","
            
        <div style=""text-align: center; position: fixed; top: 5vh; left: 40vw;"">
            <div style=""margin:0 auto; width: 20vw; top: 8vh; font-size: 1vw""> 
            <font color=""green""> Bonus : $1.1 </font>
            </div>
        </div>
    
            <div> Please press any button to continue to the next trial.</div>
        "," ","ITI","","","","",""
"","","","","","html-keyboard-response","181","165875","0.0-6.0-1.25","6095eb8d3f11c1f6b463e2f0","6552129e68c08af5079f912e","65521378af1b4a67776b510e","null","
        
        <div style=""text-align: center; position: fixed; top: 5vh; left: 40vw;"">
            <div style=""margin:0 auto; width: 20vw; top: 8vh; font-size: 1vw""> 
            <font color=""green""> Bonus : $1.1 </font>
            </div>
        </div>
    
        <img class=""stim"" src=./stimuli//pack_1/cat_1/ex_1_38.png></img>
    ","null","stimulus","","","","",""
"","","","","","html-keyboard-response","182","166878","0.0-6.0-2.25","6095eb8d3f11c1f6b463e2f0","6552129e68c08af5079f912e","65521378af1b4a67776b510e","null","
        <div style=""text-align: center; position: fixed; top: 5vh; left: 40vw;"">
            <div style=""margin:0 auto; width: 20vw; top: 8vh; font-size: 1vw""> 
            <font color=""green""> Bonus : $1.1 </font>
            </div>
        </div>
    ","null","","","","","",""
"","","","","","html-keyboard-response","183","167200","0.0-6.0-3.25","6095eb8d3f11c1f6b463e2f0","6552129e68c08af5079f912e","65521378af1b4a67776b510e","320","./stimuli//pack_1/cat_1/ex_1_38.png","arrowleft","response","ArrowLeft","38","1","true",""
"","","","","","html-keyboard-response","184","168702","0.0-6.0-4.25","6095eb8d3f11c1f6b463e2f0","6552129e68c08af5079f912e","65521378af1b4a67776b510e","null","<p> <font color=""green"" size=""4vw""> Correct category! </font> <br> <br> <font color=""green"" size=""7vw""> + $0.05 </font> </p>","null","feedback","","","","","1.15"
"","","","","","html-keyboard-response","185","169250","0.0-6.0-0.26","6095eb8d3f11c1f6b463e2f0","6552129e68c08af5079f912e","65521378af1b4a67776b510e","546","
            
        <div style=""text-align: center; position: fixed; top: 5vh; left: 40vw;"">
            <div style=""margin:0 auto; width: 20vw; top: 8vh; font-size: 1vw""> 
            <font color=""green""> Bonus : $1.15 </font>
            </div>
        </div>
    
            <div> Please press any button to continue to the next trial.</div>
        "," ","ITI","","","","",""
"","","","","","html-keyboard-response","186","169852","0.0-6.0-1.26","6095eb8d3f11c1f6b463e2f0","6552129e68c08af5079f912e","65521378af1b4a67776b510e","null","
        
        <div style=""text-align: center; position: fixed; top: 5vh; left: 40vw;"">
            <div style=""margin:0 auto; width: 20vw; top: 8vh; font-size: 1vw""> 
            <font color=""green""> Bonus : $1.15 </font>
            </div>
        </div>
    
        <img class=""stim"" src=./stimuli//pack_1/cat_2/ex_2_26.png></img>
    ","null","stimulus","","","","",""
"","","","","","html-keyboard-response","187","170855","0.0-6.0-2.26","6095eb8d3f11c1f6b463e2f0","6552129e68c08af5079f912e","65521378af1b4a67776b510e","null","
        <div style=""text-align: center; position: fixed; top: 5vh; left: 40vw;"">
            <div style=""margin:0 auto; width: 20vw; top: 8vh; font-size: 1vw""> 
            <font color=""green""> Bonus : $1.15 </font>
            </div>
        </div>
    ","null","","","","","",""
"","","","","","html-keyboard-response","188","171107","0.0-6.0-3.26","6095eb8d3f11c1f6b463e2f0","6552129e68c08af5079f912e","65521378af1b4a67776b510e","251","./stimuli//pack_1/cat_2/ex_2_26.png","arrowleft","response","ArrowRight","26","2","false",""
"","","","","","html-keyboard-response","189","172609","0.0-6.0-4.26","6095eb8d3f11c1f6b463e2f0","6552129e68c08af5079f912e","65521378af1b4a67776b510e","null","<p> <font color=""red"" size=""4vw""> Wrong category! </font> </p>","null","feedback","","","","","1.15"
"","","","","","html-keyboard-response","190","173025","0.0-6.0-0.27","6095eb8d3f11c1f6b463e2f0","6552129e68c08af5079f912e","65521378af1b4a67776b510e","414","
            
        <div style=""text-align: center; position: fixed; top: 5vh; left: 40vw;"">
            <div style=""margin:0 auto; width: 20vw; top: 8vh; font-size: 1vw""> 
            <font color=""green""> Bonus : $1.15 </font>
            </div>
        </div>
    
            <div> Please press any button to continue to the next trial.</div>
        "," ","ITI","","","","",""
"","","","","","html-keyboard-response","191","173628","0.0-6.0-1.27","6095eb8d3f11c1f6b463e2f0","6552129e68c08af5079f912e","65521378af1b4a67776b510e","null","
        
        <div style=""text-align: center; position: fixed; top: 5vh; left: 40vw;"">
            <div style=""margin:0 auto; width: 20vw; top: 8vh; font-size: 1vw""> 
            <font color=""green""> Bonus : $1.15 </font>
            </div>
        </div>
    
        <img class=""stim"" src=./stimuli//pack_1/cat_1/ex_1_79.png></img>
    ","null","stimulus","","","","",""
"","","","","","html-keyboard-response","192","174630","0.0-6.0-2.27","6095eb8d3f11c1f6b463e2f0","6552129e68c08af5079f912e","65521378af1b4a67776b510e","null","
        <div style=""text-align: center; position: fixed; top: 5vh; left: 40vw;"">
            <div style=""margin:0 auto; width: 20vw; top: 8vh; font-size: 1vw""> 
            <font color=""green""> Bonus : $1.15 </font>
            </div>
        </div>
    ","null","","","","","",""
"","","","","","html-keyboard-response","193","174929","0.0-6.0-3.27","6095eb8d3f11c1f6b463e2f0","6552129e68c08af5079f912e","65521378af1b4a67776b510e","297","./stimuli//pack_1/cat_1/ex_1_79.png","arrowleft","response","ArrowLeft","79","1","true",""
"","","","","","html-keyboard-response","194","176431","0.0-6.0-4.27","6095eb8d3f11c1f6b463e2f0","6552129e68c08af5079f912e","65521378af1b4a67776b510e","null","<p> <font color=""green"" size=""4vw""> Correct category! </font> <br> <br> <font color=""green"" size=""7vw""> + $0.05 </font> </p>","null","feedback","","","","","1.2"
"","","","","","html-keyboard-response","195","176764","0.0-6.0-0.28","6095eb8d3f11c1f6b463e2f0","6552129e68c08af5079f912e","65521378af1b4a67776b510e","332","
            
        <div style=""text-align: center; position: fixed; top: 5vh; left: 40vw;"">
            <div style=""margin:0 auto; width: 20vw; top: 8vh; font-size: 1vw""> 
            <font color=""green""> Bonus : $1.2 </font>
            </div>
        </div>
    
            <div> Please press any button to continue to the next trial.</div>
        "," ","ITI","","","","",""
"","","","","","html-keyboard-response","196","177367","0.0-6.0-1.28","6095eb8d3f11c1f6b463e2f0","6552129e68c08af5079f912e","65521378af1b4a67776b510e","null","
        
        <div style=""text-align: center; position: fixed; top: 5vh; left: 40vw;"">
            <div style=""margin:0 auto; width: 20vw; top: 8vh; font-size: 1vw""> 
            <font color=""green""> Bonus : $1.2 </font>
            </div>
        </div>
    
        <img class=""stim"" src=./stimuli//pack_1/cat_1/ex_1_91.png></img>
    ","null","stimulus","","","","",""
"","","","","","html-keyboard-response","197","178370","0.0-6.0-2.28","6095eb8d3f11c1f6b463e2f0","6552129e68c08af5079f912e","65521378af1b4a67776b510e","null","
        <div style=""text-align: center; position: fixed; top: 5vh; left: 40vw;"">
            <div style=""margin:0 auto; width: 20vw; top: 8vh; font-size: 1vw""> 
            <font color=""green""> Bonus : $1.2 </font>
            </div>
        </div>
    ","null","","","","","",""
"","","","","","html-keyboard-response","198","178690","0.0-6.0-3.28","6095eb8d3f11c1f6b463e2f0","6552129e68c08af5079f912e","65521378af1b4a67776b510e","318","./stimuli//pack_1/cat_1/ex_1_91.png","arrowleft","response","ArrowLeft","91","1","true",""
"","","","","","html-keyboard-response","199","180192","0.0-6.0-4.28","6095eb8d3f11c1f6b463e2f0","6552129e68c08af5079f912e","65521378af1b4a67776b510e","null","<p> <font color=""green"" size=""4vw""> Correct category! </font> <br> <br> <font color=""green"" size=""7vw""> + $0.05 </font> </p>","null","feedback","","","","","1.25"
"","","","","","html-keyboard-response","200","180573","0.0-6.0-0.29","6095eb8d3f11c1f6b463e2f0","6552129e68c08af5079f912e","65521378af1b4a67776b510e","379","
            
        <div style=""text-align: center; position: fixed; top: 5vh; left: 40vw;"">
            <div style=""margin:0 auto; width: 20vw; top: 8vh; font-size: 1vw""> 
            <font color=""green""> Bonus : $1.25 </font>
            </div>
        </div>
    
            <div> Please press any button to continue to the next trial.</div>
        "," ","ITI","","","","",""
"","","","","","html-keyboard-response","201","181176","0.0-6.0-1.29","6095eb8d3f11c1f6b463e2f0","6552129e68c08af5079f912e","65521378af1b4a67776b510e","null","
        
        <div style=""text-align: center; position: fixed; top: 5vh; left: 40vw;"">
            <div style=""margin:0 auto; width: 20vw; top: 8vh; font-size: 1vw""> 
            <font color=""green""> Bonus : $1.25 </font>
            </div>
        </div>
    
        <img class=""stim"" src=./stimuli//pack_1/cat_2/ex_2_6.png></img>
    ","null","stimulus","","","","",""
"","","","","","html-keyboard-response","202","182178","0.0-6.0-2.29","6095eb8d3f11c1f6b463e2f0","6552129e68c08af5079f912e","65521378af1b4a67776b510e","null","
        <div style=""text-align: center; position: fixed; top: 5vh; left: 40vw;"">
            <div style=""margin:0 auto; width: 20vw; top: 8vh; font-size: 1vw""> 
            <font color=""green""> Bonus : $1.25 </font>
            </div>
        </div>
    ","null","","","","","",""
"","","","","","html-keyboard-response","203","182514","0.0-6.0-3.29","6095eb8d3f11c1f6b463e2f0","6552129e68c08af5079f912e","65521378af1b4a67776b510e","334","./stimuli//pack_1/cat_2/ex_2_6.png","arrowright","response","ArrowRight","6","2","true",""
"","","","","","html-keyboard-response","204","184016","0.0-6.0-4.29","6095eb8d3f11c1f6b463e2f0","6552129e68c08af5079f912e","65521378af1b4a67776b510e","null","<p> <font color=""green"" size=""4vw""> Correct category! </font> <br> <br> <font color=""green"" size=""7vw""> + $0.05 </font> </p>","null","feedback","","","","","1.3"
"","","","","","html-keyboard-response","205","184726","0.0-6.0-0.30","6095eb8d3f11c1f6b463e2f0","6552129e68c08af5079f912e","65521378af1b4a67776b510e","709","
            
        <div style=""text-align: center; position: fixed; top: 5vh; left: 40vw;"">
            <div style=""margin:0 auto; width: 20vw; top: 8vh; font-size: 1vw""> 
            <font color=""green""> Bonus : $1.3 </font>
            </div>
        </div>
    
            <div> Please press any button to continue to the next trial.</div>
        "," ","ITI","","","","",""
"","","","","","html-keyboard-response","206","185329","0.0-6.0-1.30","6095eb8d3f11c1f6b463e2f0","6552129e68c08af5079f912e","65521378af1b4a67776b510e","null","
        
        <div style=""text-align: center; position: fixed; top: 5vh; left: 40vw;"">
            <div style=""margin:0 auto; width: 20vw; top: 8vh; font-size: 1vw""> 
            <font color=""green""> Bonus : $1.3 </font>
            </div>
        </div>
    
        <img class=""stim"" src=./stimuli//pack_1/cat_1/ex_1_76.png></img>
    ","null","stimulus","","","","",""
"","","","","","html-keyboard-response","207","186331","0.0-6.0-2.30","6095eb8d3f11c1f6b463e2f0","6552129e68c08af5079f912e","65521378af1b4a67776b510e","null","
        <div style=""text-align: center; position: fixed; top: 5vh; left: 40vw;"">
            <div style=""margin:0 auto; width: 20vw; top: 8vh; font-size: 1vw""> 
            <font color=""green""> Bonus : $1.3 </font>
            </div>
        </div>
    ","null","","","","","",""
"","","","","","html-keyboard-response","208","186631","0.0-6.0-3.30","6095eb8d3f11c1f6b463e2f0","6552129e68c08af5079f912e","65521378af1b4a67776b510e","298","./stimuli//pack_1/cat_1/ex_1_76.png","arrowleft","response","ArrowLeft","76","1","true",""
"","","","","","html-keyboard-response","209","188133","0.0-6.0-4.30","6095eb8d3f11c1f6b463e2f0","6552129e68c08af5079f912e","65521378af1b4a67776b510e","null","<p> <font color=""green"" size=""4vw""> Correct category! </font> <br> <br> <font color=""green"" size=""7vw""> + $0.05 </font> </p>","null","feedback","","","","","1.35"
"","","","","","html-keyboard-response","210","188600","0.0-6.0-0.31","6095eb8d3f11c1f6b463e2f0","6552129e68c08af5079f912e","65521378af1b4a67776b510e","465","
            
        <div style=""text-align: center; position: fixed; top: 5vh; left: 40vw;"">
            <div style=""margin:0 auto; width: 20vw; top: 8vh; font-size: 1vw""> 
            <font color=""green""> Bonus : $1.35 </font>
            </div>
        </div>
    
            <div> Please press any button to continue to the next trial.</div>
        "," ","ITI","","","","",""
"","","","","","html-keyboard-response","211","189203","0.0-6.0-1.31","6095eb8d3f11c1f6b463e2f0","6552129e68c08af5079f912e","65521378af1b4a67776b510e","null","
        
        <div style=""text-align: center; position: fixed; top: 5vh; left: 40vw;"">
            <div style=""margin:0 auto; width: 20vw; top: 8vh; font-size: 1vw""> 
            <font color=""green""> Bonus : $1.35 </font>
            </div>
        </div>
    
        <img class=""stim"" src=./stimuli//pack_1/cat_1/ex_1_30.png></img>
    ","null","stimulus","","","","",""
"","","","","","html-keyboard-response","212","190205","0.0-6.0-2.31","6095eb8d3f11c1f6b463e2f0","6552129e68c08af5079f912e","65521378af1b4a67776b510e","null","
        <div style=""text-align: center; position: fixed; top: 5vh; left: 40vw;"">
            <div style=""margin:0 auto; width: 20vw; top: 8vh; font-size: 1vw""> 
            <font color=""green""> Bonus : $1.35 </font>
            </div>
        </div>
    ","null","","","","","",""
"","","","","","html-keyboard-response","213","190597","0.0-6.0-3.31","6095eb8d3f11c1f6b463e2f0","6552129e68c08af5079f912e","65521378af1b4a67776b510e","389","./stimuli//pack_1/cat_1/ex_1_30.png","arrowleft","response","ArrowLeft","30","1","true",""
"","","","","","html-keyboard-response","214","192099","0.0-6.0-4.31","6095eb8d3f11c1f6b463e2f0","6552129e68c08af5079f912e","65521378af1b4a67776b510e","null","<p> <font color=""green"" size=""4vw""> Correct category! </font> <br> <br> <font color=""green"" size=""7vw""> + $0.05 </font> </p>","null","feedback","","","","","1.4"
"","","","","","html-keyboard-response","215","192613","0.0-6.0-0.32","6095eb8d3f11c1f6b463e2f0","6552129e68c08af5079f912e","65521378af1b4a67776b510e","512","
            
        <div style=""text-align: center; position: fixed; top: 5vh; left: 40vw;"">
            <div style=""margin:0 auto; width: 20vw; top: 8vh; font-size: 1vw""> 
            <font color=""green""> Bonus : $1.4 </font>
            </div>
        </div>
    
            <div> Please press any button to continue to the next trial.</div>
        "," ","ITI","","","","",""
"","","","","","html-keyboard-response","216","193216","0.0-6.0-1.32","6095eb8d3f11c1f6b463e2f0","6552129e68c08af5079f912e","65521378af1b4a67776b510e","null","
        
        <div style=""text-align: center; position: fixed; top: 5vh; left: 40vw;"">
            <div style=""margin:0 auto; width: 20vw; top: 8vh; font-size: 1vw""> 
            <font color=""green""> Bonus : $1.4 </font>
            </div>
        </div>
    
        <img class=""stim"" src=./stimuli//pack_1/cat_2/ex_2_54.png></img>
    ","null","stimulus","","","","",""
"","","","","","html-keyboard-response","217","194217","0.0-6.0-2.32","6095eb8d3f11c1f6b463e2f0","6552129e68c08af5079f912e","65521378af1b4a67776b510e","null","
        <div style=""text-align: center; position: fixed; top: 5vh; left: 40vw;"">
            <div style=""margin:0 auto; width: 20vw; top: 8vh; font-size: 1vw""> 
            <font color=""green""> Bonus : $1.4 </font>
            </div>
        </div>
    ","null","","","","","",""
"","","","","","html-keyboard-response","218","194617","0.0-6.0-3.32","6095eb8d3f11c1f6b463e2f0","6552129e68c08af5079f912e","65521378af1b4a67776b510e","398","./stimuli//pack_1/cat_2/ex_2_54.png","arrowright","response","ArrowRight","54","2","true",""
"","","","","","html-keyboard-response","219","196119","0.0-6.0-4.32","6095eb8d3f11c1f6b463e2f0","6552129e68c08af5079f912e","65521378af1b4a67776b510e","null","<p> <font color=""green"" size=""4vw""> Correct category! </font> <br> <br> <font color=""green"" size=""7vw""> + $0.05 </font> </p>","null","feedback","","","","","1.45"
"","","","","","html-keyboard-response","220","196672","0.0-6.0-0.33","6095eb8d3f11c1f6b463e2f0","6552129e68c08af5079f912e","65521378af1b4a67776b510e","551","
            
        <div style=""text-align: center; position: fixed; top: 5vh; left: 40vw;"">
            <div style=""margin:0 auto; width: 20vw; top: 8vh; font-size: 1vw""> 
            <font color=""green""> Bonus : $1.45 </font>
            </div>
        </div>
    
            <div> Please press any button to continue to the next trial.</div>
        "," ","ITI","","","","",""
"","","","","","html-keyboard-response","221","197275","0.0-6.0-1.33","6095eb8d3f11c1f6b463e2f0","6552129e68c08af5079f912e","65521378af1b4a67776b510e","null","
        
        <div style=""text-align: center; position: fixed; top: 5vh; left: 40vw;"">
            <div style=""margin:0 auto; width: 20vw; top: 8vh; font-size: 1vw""> 
            <font color=""green""> Bonus : $1.45 </font>
            </div>
        </div>
    
        <img class=""stim"" src=./stimuli//pack_1/cat_1/ex_1_69.png></img>
    ","null","stimulus","","","","",""
"","","","","","html-keyboard-response","222","198277","0.0-6.0-2.33","6095eb8d3f11c1f6b463e2f0","6552129e68c08af5079f912e","65521378af1b4a67776b510e","null","
        <div style=""text-align: center; position: fixed; top: 5vh; left: 40vw;"">
            <div style=""margin:0 auto; width: 20vw; top: 8vh; font-size: 1vw""> 
            <font color=""green""> Bonus : $1.45 </font>
            </div>
        </div>
    ","null","","","","","",""
"","","","","","html-keyboard-response","223","198562","0.0-6.0-3.33","6095eb8d3f11c1f6b463e2f0","6552129e68c08af5079f912e","65521378af1b4a67776b510e","284","./stimuli//pack_1/cat_1/ex_1_69.png","arrowleft","response","ArrowLeft","69","1","true",""
"","","","","","html-keyboard-response","224","200065","0.0-6.0-4.33","6095eb8d3f11c1f6b463e2f0","6552129e68c08af5079f912e","65521378af1b4a67776b510e","null","<p> <font color=""green"" size=""4vw""> Correct category! </font> <br> <br> <font color=""green"" size=""7vw""> + $0.05 </font> </p>","null","feedback","","","","","1.5"
"","","","","","html-keyboard-response","225","200562","0.0-6.0-0.34","6095eb8d3f11c1f6b463e2f0","6552129e68c08af5079f912e","65521378af1b4a67776b510e","496","
            
        <div style=""text-align: center; position: fixed; top: 5vh; left: 40vw;"">
            <div style=""margin:0 auto; width: 20vw; top: 8vh; font-size: 1vw""> 
            <font color=""green""> Bonus : $1.5 </font>
            </div>
        </div>
    
            <div> Please press any button to continue to the next trial.</div>
        "," ","ITI","","","","",""
"","","","","","html-keyboard-response","226","201165","0.0-6.0-1.34","6095eb8d3f11c1f6b463e2f0","6552129e68c08af5079f912e","65521378af1b4a67776b510e","null","
        
        <div style=""text-align: center; position: fixed; top: 5vh; left: 40vw;"">
            <div style=""margin:0 auto; width: 20vw; top: 8vh; font-size: 1vw""> 
            <font color=""green""> Bonus : $1.5 </font>
            </div>
        </div>
    
        <img class=""stim"" src=./stimuli//pack_1/cat_2/ex_2_91.png></img>
    ","null","stimulus","","","","",""
"","","","","","html-keyboard-response","227","202168","0.0-6.0-2.34","6095eb8d3f11c1f6b463e2f0","6552129e68c08af5079f912e","65521378af1b4a67776b510e","null","
        <div style=""text-align: center; position: fixed; top: 5vh; left: 40vw;"">
            <div style=""margin:0 auto; width: 20vw; top: 8vh; font-size: 1vw""> 
            <font color=""green""> Bonus : $1.5 </font>
            </div>
        </div>
    ","null","","","","","",""
"","","","","","html-keyboard-response","228","202470","0.0-6.0-3.34","6095eb8d3f11c1f6b463e2f0","6552129e68c08af5079f912e","65521378af1b4a67776b510e","301","./stimuli//pack_1/cat_2/ex_2_91.png","arrowright","response","ArrowRight","91","2","true",""
"","","","","","html-keyboard-response","229","203973","0.0-6.0-4.34","6095eb8d3f11c1f6b463e2f0","6552129e68c08af5079f912e","65521378af1b4a67776b510e","null","<p> <font color=""green"" size=""4vw""> Correct category! </font> <br> <br> <font color=""green"" size=""7vw""> + $0.05 </font> </p>","null","feedback","","","","","1.55"
"","","","","","html-keyboard-response","230","204320","0.0-6.0-0.35","6095eb8d3f11c1f6b463e2f0","6552129e68c08af5079f912e","65521378af1b4a67776b510e","346","
            
        <div style=""text-align: center; position: fixed; top: 5vh; left: 40vw;"">
            <div style=""margin:0 auto; width: 20vw; top: 8vh; font-size: 1vw""> 
            <font color=""green""> Bonus : $1.55 </font>
            </div>
        </div>
    
            <div> Please press any button to continue to the next trial.</div>
        "," ","ITI","","","","",""
"","","","","","html-keyboard-response","231","204923","0.0-6.0-1.35","6095eb8d3f11c1f6b463e2f0","6552129e68c08af5079f912e","65521378af1b4a67776b510e","null","
        
        <div style=""text-align: center; position: fixed; top: 5vh; left: 40vw;"">
            <div style=""margin:0 auto; width: 20vw; top: 8vh; font-size: 1vw""> 
            <font color=""green""> Bonus : $1.55 </font>
            </div>
        </div>
    
        <img class=""stim"" src=./stimuli//pack_1/cat_2/ex_2_5.png></img>
    ","null","stimulus","","","","",""
"","","","","","html-keyboard-response","232","205926","0.0-6.0-2.35","6095eb8d3f11c1f6b463e2f0","6552129e68c08af5079f912e","65521378af1b4a67776b510e","null","
        <div style=""text-align: center; position: fixed; top: 5vh; left: 40vw;"">
            <div style=""margin:0 auto; width: 20vw; top: 8vh; font-size: 1vw""> 
            <font color=""green""> Bonus : $1.55 </font>
            </div>
        </div>
    ","null","","","","","",""
"","","","","","html-keyboard-response","233","206194","0.0-6.0-3.35","6095eb8d3f11c1f6b463e2f0","6552129e68c08af5079f912e","65521378af1b4a67776b510e","266","./stimuli//pack_1/cat_2/ex_2_5.png","arrowright","response","ArrowRight","5","2","true",""
"","","","","","html-keyboard-response","234","207697","0.0-6.0-4.35","6095eb8d3f11c1f6b463e2f0","6552129e68c08af5079f912e","65521378af1b4a67776b510e","null","<p> <font color=""green"" size=""4vw""> Correct category! </font> <br> <br> <font color=""green"" size=""7vw""> + $0.05 </font> </p>","null","feedback","","","","","1.6"
"","","","","","html-keyboard-response","235","208111","0.0-6.0-0.36","6095eb8d3f11c1f6b463e2f0","6552129e68c08af5079f912e","65521378af1b4a67776b510e","413","
            
        <div style=""text-align: center; position: fixed; top: 5vh; left: 40vw;"">
            <div style=""margin:0 auto; width: 20vw; top: 8vh; font-size: 1vw""> 
            <font color=""green""> Bonus : $1.6 </font>
            </div>
        </div>
    
            <div> Please press any button to continue to the next trial.</div>
        "," ","ITI","","","","",""
"","","","","","html-keyboard-response","236","208713","0.0-6.0-1.36","6095eb8d3f11c1f6b463e2f0","6552129e68c08af5079f912e","65521378af1b4a67776b510e","null","
        
        <div style=""text-align: center; position: fixed; top: 5vh; left: 40vw;"">
            <div style=""margin:0 auto; width: 20vw; top: 8vh; font-size: 1vw""> 
            <font color=""green""> Bonus : $1.6 </font>
            </div>
        </div>
    
        <img class=""stim"" src=./stimuli//pack_1/cat_2/ex_2_19.png></img>
    ","null","stimulus","","","","",""
"","","","","","html-keyboard-response","237","209715","0.0-6.0-2.36","6095eb8d3f11c1f6b463e2f0","6552129e68c08af5079f912e","65521378af1b4a67776b510e","null","
        <div style=""text-align: center; position: fixed; top: 5vh; left: 40vw;"">
            <div style=""margin:0 auto; width: 20vw; top: 8vh; font-size: 1vw""> 
