"success","timeout","failed_images","failed_audio","failed_video","trial_type","trial_index","time_elapsed","internal_node_id","subject_id","study_id","session_id","rt","stimulus","response","task","correct_response","exemplar_ID","category","correct","bonus"
"true","false","[]","[]","[]","preload","0","4","0.0-0.0","610d842e204deeeccfc472d2","6554bfa13ac4b6a0ab00b03a","6554c1099aaa979220faacf4","","","","","","","","",""
"","","","","","html-keyboard-response","1","5240","0.0-1.0","610d842e204deeeccfc472d2","6554bfa13ac4b6a0ab00b03a","6554c1099aaa979220faacf4","5235","Welcome to the Category Learning experiment! Press any key to continue."," ","welcome","","","","",""
"","","","","","html-keyboard-response","2","34188","0.0-2.0","610d842e204deeeccfc472d2","6554bfa13ac4b6a0ab00b03a","6554c1099aaa979220faacf4","28946","
            <p>You will be shown images of black shapes.  Some are category A, some are category B.
            <br>You will not know in advance which category a specific shape belongs to.</p>
            <p>After you see an image, you will be asked to guess its category <b>(left arrow for category A, right arrow for category B)</b></p>
            <p>After you choose, the screen will show you whether you were correct or not.</p>
            <p><b>You will receive a bonus payment of $0.05 for each correct answer!</b></p>
            <p> So you can increase your bonus by guessing correctly, and by guessing as quickly as possible so you move on to the next image sooner.</p>
            <p>Press any key to continue.</p>
            ","arrowright","introduction_1","","","","",""
"","","","","","html-keyboard-response","3","43344","0.0-3.0","610d842e204deeeccfc472d2","6554bfa13ac4b6a0ab00b03a","6554c1099aaa979220faacf4","9153","
            <p> <b>The first 10 trials are a practice round that will not count towards your bonus payment.</b></p>
            <p> You will be notified when practice finishes and the test begins. </p>
            <p> Press any key to begin the practice round.</p>
            "," ","introduction_2","","","","",""
"","","","","","html-keyboard-response","4","46602","0.0-4.0-0.0","610d842e204deeeccfc472d2","6554bfa13ac4b6a0ab00b03a","6554c1099aaa979220faacf4","3230","
            
        <div style=""text-align: center; position: fixed; top: 5vh; left: 40vw;"">
            <div style=""margin:0 auto; width: 20vw; top: 8vh; font-size: 1vw""> 
            <font color=""green""> Bonus : $0 </font>
            </div>
        </div>
    
            <div> Please press any button to continue to the next trial.</div>
        "," ","ITI","","","","",""
"","","","","","html-keyboard-response","5","47221","0.0-4.0-1.0","610d842e204deeeccfc472d2","6554bfa13ac4b6a0ab00b03a","6554c1099aaa979220faacf4","null","
        
        <div style=""text-align: center; position: fixed; top: 5vh; left: 40vw;"">
            <div style=""margin:0 auto; width: 20vw; top: 8vh; font-size: 1vw""> 
            <font color=""green""> Bonus : $0 </font>
            </div>
        </div>
    
        <img class=""stim"" src=./stimuli//pack_shapes/cat_2/ex_2_8.png></img>
    ","null","stimulus","","","","",""
"","","","","","html-keyboard-response","6","48227","0.0-4.0-2.0","610d842e204deeeccfc472d2","6554bfa13ac4b6a0ab00b03a","6554c1099aaa979220faacf4","null","
        <div style=""text-align: center; position: fixed; top: 5vh; left: 40vw;"">
            <div style=""margin:0 auto; width: 20vw; top: 8vh; font-size: 1vw""> 
            <font color=""green""> Bonus : $0 </font>
            </div>
        </div>
    ","null","","","","","",""
"","","","","","html-keyboard-response","7","52243","0.0-4.0-3.0","610d842e204deeeccfc472d2","6554bfa13ac4b6a0ab00b03a","6554c1099aaa979220faacf4","null","./stimuli//pack_shapes/cat_2/ex_2_8.png","null","response","ArrowRight","8","2","false",""
"","","","","","html-keyboard-response","8","53862","0.0-4.0-4.0","610d842e204deeeccfc472d2","6554bfa13ac4b6a0ab00b03a","6554c1099aaa979220faacf4","null","<p> <font color=""red"" size=""5vw""> Time out! </font> <br> Please try to respond as quickly as possible. </p>","null","feedback","","","","","0"
"","","","","","html-keyboard-response","9","56030","0.0-4.0-0.1","610d842e204deeeccfc472d2","6554bfa13ac4b6a0ab00b03a","6554c1099aaa979220faacf4","2167","
            
        <div style=""text-align: center; position: fixed; top: 5vh; left: 40vw;"">
            <div style=""margin:0 auto; width: 20vw; top: 8vh; font-size: 1vw""> 
            <font color=""green""> Bonus : $0 </font>
            </div>
        </div>
    
            <div> Please press any button to continue to the next trial.</div>
        "," ","ITI","","","","",""
"","","","","","html-keyboard-response","10","56644","0.0-4.0-1.1","610d842e204deeeccfc472d2","6554bfa13ac4b6a0ab00b03a","6554c1099aaa979220faacf4","null","
        
        <div style=""text-align: center; position: fixed; top: 5vh; left: 40vw;"">
            <div style=""margin:0 auto; width: 20vw; top: 8vh; font-size: 1vw""> 
            <font color=""green""> Bonus : $0 </font>
            </div>
        </div>
    
        <img class=""stim"" src=./stimuli//pack_shapes/cat_1/ex_1_29.png></img>
    ","null","stimulus","","","","",""
"","","","","","html-keyboard-response","11","57649","0.0-4.0-2.1","610d842e204deeeccfc472d2","6554bfa13ac4b6a0ab00b03a","6554c1099aaa979220faacf4","null","
        <div style=""text-align: center; position: fixed; top: 5vh; left: 40vw;"">
            <div style=""margin:0 auto; width: 20vw; top: 8vh; font-size: 1vw""> 
            <font color=""green""> Bonus : $0 </font>
            </div>
        </div>
    ","null","","","","","",""
"","","","","","html-keyboard-response","12","61664","0.0-4.0-3.1","610d842e204deeeccfc472d2","6554bfa13ac4b6a0ab00b03a","6554c1099aaa979220faacf4","null","./stimuli//pack_shapes/cat_1/ex_1_29.png","null","response","ArrowLeft","29","1","false",""
"","","","","","html-keyboard-response","13","63180","0.0-4.0-4.1","610d842e204deeeccfc472d2","6554bfa13ac4b6a0ab00b03a","6554c1099aaa979220faacf4","null","<p> <font color=""red"" size=""5vw""> Time out! </font> <br> Please try to respond as quickly as possible. </p>","null","feedback","","","","","0"
"","","","","","html-keyboard-response","14","67893","0.0-4.0-0.2","610d842e204deeeccfc472d2","6554bfa13ac4b6a0ab00b03a","6554c1099aaa979220faacf4","4712","
            
        <div style=""text-align: center; position: fixed; top: 5vh; left: 40vw;"">
            <div style=""margin:0 auto; width: 20vw; top: 8vh; font-size: 1vw""> 
            <font color=""green""> Bonus : $0 </font>
            </div>
        </div>
    
            <div> Please press any button to continue to the next trial.</div>
        "," ","ITI","","","","",""
"","","","","","html-keyboard-response","15","68495","0.0-4.0-1.2","610d842e204deeeccfc472d2","6554bfa13ac4b6a0ab00b03a","6554c1099aaa979220faacf4","null","
        
        <div style=""text-align: center; position: fixed; top: 5vh; left: 40vw;"">
            <div style=""margin:0 auto; width: 20vw; top: 8vh; font-size: 1vw""> 
            <font color=""green""> Bonus : $0 </font>
            </div>
        </div>
    
        <img class=""stim"" src=./stimuli//pack_shapes/cat_2/ex_2_80.png></img>
    ","null","stimulus","","","","",""
"","","","","","html-keyboard-response","16","69505","0.0-4.0-2.2","610d842e204deeeccfc472d2","6554bfa13ac4b6a0ab00b03a","6554c1099aaa979220faacf4","null","
        <div style=""text-align: center; position: fixed; top: 5vh; left: 40vw;"">
            <div style=""margin:0 auto; width: 20vw; top: 8vh; font-size: 1vw""> 
            <font color=""green""> Bonus : $0 </font>
            </div>
        </div>
    ","null","","","","","",""
"","","","","","html-keyboard-response","17","73558","0.0-4.0-3.2","610d842e204deeeccfc472d2","6554bfa13ac4b6a0ab00b03a","6554c1099aaa979220faacf4","null","./stimuli//pack_shapes/cat_2/ex_2_80.png","null","response","ArrowRight","80","2","false",""
"","","","","","html-keyboard-response","18","75065","0.0-4.0-4.2","610d842e204deeeccfc472d2","6554bfa13ac4b6a0ab00b03a","6554c1099aaa979220faacf4","null","<p> <font color=""red"" size=""5vw""> Time out! </font> <br> Please try to respond as quickly as possible. </p>","null","feedback","","","","","0"
"","","","","","html-keyboard-response","19","80281","0.0-4.0-0.3","610d842e204deeeccfc472d2","6554bfa13ac4b6a0ab00b03a","6554c1099aaa979220faacf4","5214","
            
        <div style=""text-align: center; position: fixed; top: 5vh; left: 40vw;"">
            <div style=""margin:0 auto; width: 20vw; top: 8vh; font-size: 1vw""> 
            <font color=""green""> Bonus : $0 </font>
            </div>
        </div>
    
            <div> Please press any button to continue to the next trial.</div>
        ","arrowleft","ITI","","","","",""
"","","","","","html-keyboard-response","20","80898","0.0-4.0-1.3","610d842e204deeeccfc472d2","6554bfa13ac4b6a0ab00b03a","6554c1099aaa979220faacf4","null","
        
        <div style=""text-align: center; position: fixed; top: 5vh; left: 40vw;"">
            <div style=""margin:0 auto; width: 20vw; top: 8vh; font-size: 1vw""> 
            <font color=""green""> Bonus : $0 </font>
            </div>
        </div>
    
        <img class=""stim"" src=./stimuli//pack_shapes/cat_1/ex_1_39.png></img>
    ","null","stimulus","","","","",""
"","","","","","html-keyboard-response","21","81903","0.0-4.0-2.3","610d842e204deeeccfc472d2","6554bfa13ac4b6a0ab00b03a","6554c1099aaa979220faacf4","null","
        <div style=""text-align: center; position: fixed; top: 5vh; left: 40vw;"">
            <div style=""margin:0 auto; width: 20vw; top: 8vh; font-size: 1vw""> 
            <font color=""green""> Bonus : $0 </font>
            </div>
        </div>
    ","null","","","","","",""
"","","","","","html-keyboard-response","22","82258","0.0-4.0-3.3","610d842e204deeeccfc472d2","6554bfa13ac4b6a0ab00b03a","6554c1099aaa979220faacf4","352","./stimuli//pack_shapes/cat_1/ex_1_39.png","arrowleft","response","ArrowLeft","39","1","true",""
"","","","","","html-keyboard-response","23","83763","0.0-4.0-4.3","610d842e204deeeccfc472d2","6554bfa13ac4b6a0ab00b03a","6554c1099aaa979220faacf4","null","<p> <font color=""green"" size=""4vw""> Correct category! </font> </p>","null","feedback","","","","","0"
"","","","","","html-keyboard-response","24","86571","0.0-4.0-0.4","610d842e204deeeccfc472d2","6554bfa13ac4b6a0ab00b03a","6554c1099aaa979220faacf4","2808","
            
        <div style=""text-align: center; position: fixed; top: 5vh; left: 40vw;"">
            <div style=""margin:0 auto; width: 20vw; top: 8vh; font-size: 1vw""> 
            <font color=""green""> Bonus : $0 </font>
            </div>
        </div>
    
            <div> Please press any button to continue to the next trial.</div>
        ","arrowleft","ITI","","","","",""
"","","","","","html-keyboard-response","25","87182","0.0-4.0-1.4","610d842e204deeeccfc472d2","6554bfa13ac4b6a0ab00b03a","6554c1099aaa979220faacf4","null","
        
        <div style=""text-align: center; position: fixed; top: 5vh; left: 40vw;"">
            <div style=""margin:0 auto; width: 20vw; top: 8vh; font-size: 1vw""> 
            <font color=""green""> Bonus : $0 </font>
            </div>
        </div>
    
        <img class=""stim"" src=./stimuli//pack_shapes/cat_1/ex_1_3.png></img>
    ","null","stimulus","","","","",""
"","","","","","html-keyboard-response","26","88190","0.0-4.0-2.4","610d842e204deeeccfc472d2","6554bfa13ac4b6a0ab00b03a","6554c1099aaa979220faacf4","null","
        <div style=""text-align: center; position: fixed; top: 5vh; left: 40vw;"">
            <div style=""margin:0 auto; width: 20vw; top: 8vh; font-size: 1vw""> 
            <font color=""green""> Bonus : $0 </font>
            </div>
        </div>
    ","null","","","","","",""
"","","","","","html-keyboard-response","27","88486","0.0-4.0-3.4","610d842e204deeeccfc472d2","6554bfa13ac4b6a0ab00b03a","6554c1099aaa979220faacf4","295","./stimuli//pack_shapes/cat_1/ex_1_3.png","arrowleft","response","ArrowLeft","3","1","true",""
"","","","","","html-keyboard-response","28","90002","0.0-4.0-4.4","610d842e204deeeccfc472d2","6554bfa13ac4b6a0ab00b03a","6554c1099aaa979220faacf4","null","<p> <font color=""green"" size=""4vw""> Correct category! </font> </p>","null","feedback","","","","","0"
"","","","","","html-keyboard-response","29","91598","0.0-4.0-0.5","610d842e204deeeccfc472d2","6554bfa13ac4b6a0ab00b03a","6554c1099aaa979220faacf4","1594","
            
        <div style=""text-align: center; position: fixed; top: 5vh; left: 40vw;"">
            <div style=""margin:0 auto; width: 20vw; top: 8vh; font-size: 1vw""> 
            <font color=""green""> Bonus : $0 </font>
            </div>
        </div>
    
            <div> Please press any button to continue to the next trial.</div>
        ","arrowleft","ITI","","","","",""
"","","","","","html-keyboard-response","30","92207","0.0-4.0-1.5","610d842e204deeeccfc472d2","6554bfa13ac4b6a0ab00b03a","6554c1099aaa979220faacf4","null","
        
        <div style=""text-align: center; position: fixed; top: 5vh; left: 40vw;"">
            <div style=""margin:0 auto; width: 20vw; top: 8vh; font-size: 1vw""> 
            <font color=""green""> Bonus : $0 </font>
            </div>
        </div>
    
        <img class=""stim"" src=./stimuli//pack_shapes/cat_2/ex_2_49.png></img>
    ","null","stimulus","","","","",""
"","","","","","html-keyboard-response","31","93213","0.0-4.0-2.5","610d842e204deeeccfc472d2","6554bfa13ac4b6a0ab00b03a","6554c1099aaa979220faacf4","null","
        <div style=""text-align: center; position: fixed; top: 5vh; left: 40vw;"">
            <div style=""margin:0 auto; width: 20vw; top: 8vh; font-size: 1vw""> 
            <font color=""green""> Bonus : $0 </font>
            </div>
        </div>
    ","null","","","","","",""
"","","","","","html-keyboard-response","32","93226","0.0-4.0-3.5","610d842e204deeeccfc472d2","6554bfa13ac4b6a0ab00b03a","6554c1099aaa979220faacf4","11","./stimuli//pack_shapes/cat_2/ex_2_49.png","arrowleft","response","ArrowRight","49","2","false",""
"","","","","","html-keyboard-response","33","94740","0.0-4.0-4.5","610d842e204deeeccfc472d2","6554bfa13ac4b6a0ab00b03a","6554c1099aaa979220faacf4","null","<p> <font color=""red"" size=""4vw""> Wrong category! </font> </p>","null","feedback","","","","","0"
"","","","","","html-keyboard-response","34","95871","0.0-4.0-0.6","610d842e204deeeccfc472d2","6554bfa13ac4b6a0ab00b03a","6554c1099aaa979220faacf4","1130","
            
        <div style=""text-align: center; position: fixed; top: 5vh; left: 40vw;"">
            <div style=""margin:0 auto; width: 20vw; top: 8vh; font-size: 1vw""> 
            <font color=""green""> Bonus : $0 </font>
            </div>
        </div>
    
            <div> Please press any button to continue to the next trial.</div>
        ","arrowleft","ITI","","","","",""
"","","","","","html-keyboard-response","35","96482","0.0-4.0-1.6","610d842e204deeeccfc472d2","6554bfa13ac4b6a0ab00b03a","6554c1099aaa979220faacf4","null","
        
        <div style=""text-align: center; position: fixed; top: 5vh; left: 40vw;"">
            <div style=""margin:0 auto; width: 20vw; top: 8vh; font-size: 1vw""> 
            <font color=""green""> Bonus : $0 </font>
            </div>
        </div>
    
        <img class=""stim"" src=./stimuli//pack_shapes/cat_2/ex_2_39.png></img>
    ","null","stimulus","","","","",""
"","","","","","html-keyboard-response","36","97493","0.0-4.0-2.6","610d842e204deeeccfc472d2","6554bfa13ac4b6a0ab00b03a","6554c1099aaa979220faacf4","null","
        <div style=""text-align: center; position: fixed; top: 5vh; left: 40vw;"">
            <div style=""margin:0 auto; width: 20vw; top: 8vh; font-size: 1vw""> 
            <font color=""green""> Bonus : $0 </font>
            </div>
        </div>
    ","null","","","","","",""
"","","","","","html-keyboard-response","37","97780","0.0-4.0-3.6","610d842e204deeeccfc472d2","6554bfa13ac4b6a0ab00b03a","6554c1099aaa979220faacf4","286","./stimuli//pack_shapes/cat_2/ex_2_39.png","arrowleft","response","ArrowRight","39","2","false",""
"","","","","","html-keyboard-response","38","99289","0.0-4.0-4.6","610d842e204deeeccfc472d2","6554bfa13ac4b6a0ab00b03a","6554c1099aaa979220faacf4","null","<p> <font color=""red"" size=""4vw""> Wrong category! </font> </p>","null","feedback","","","","","0"
"","","","","","html-keyboard-response","39","101215","0.0-4.0-0.7","610d842e204deeeccfc472d2","6554bfa13ac4b6a0ab00b03a","6554c1099aaa979220faacf4","1925","
            
        <div style=""text-align: center; position: fixed; top: 5vh; left: 40vw;"">
            <div style=""margin:0 auto; width: 20vw; top: 8vh; font-size: 1vw""> 
            <font color=""green""> Bonus : $0 </font>
            </div>
        </div>
    
            <div> Please press any button to continue to the next trial.</div>
        ","arrowleft","ITI","","","","",""
"","","","","","html-keyboard-response","40","101816","0.0-4.0-1.7","610d842e204deeeccfc472d2","6554bfa13ac4b6a0ab00b03a","6554c1099aaa979220faacf4","null","
        
        <div style=""text-align: center; position: fixed; top: 5vh; left: 40vw;"">
            <div style=""margin:0 auto; width: 20vw; top: 8vh; font-size: 1vw""> 
            <font color=""green""> Bonus : $0 </font>
            </div>
        </div>
    
        <img class=""stim"" src=./stimuli//pack_shapes/cat_1/ex_1_49.png></img>
    ","null","stimulus","","","","",""
"","","","","","html-keyboard-response","41","102829","0.0-4.0-2.7","610d842e204deeeccfc472d2","6554bfa13ac4b6a0ab00b03a","6554c1099aaa979220faacf4","null","
        <div style=""text-align: center; position: fixed; top: 5vh; left: 40vw;"">
            <div style=""margin:0 auto; width: 20vw; top: 8vh; font-size: 1vw""> 
            <font color=""green""> Bonus : $0 </font>
            </div>
        </div>
    ","null","","","","","",""
"","","","","","html-keyboard-response","42","103243","0.0-4.0-3.7","610d842e204deeeccfc472d2","6554bfa13ac4b6a0ab00b03a","6554c1099aaa979220faacf4","412","./stimuli//pack_shapes/cat_1/ex_1_49.png","arrowright","response","ArrowLeft","49","1","false",""
"","","","","","html-keyboard-response","43","104749","0.0-4.0-4.7","610d842e204deeeccfc472d2","6554bfa13ac4b6a0ab00b03a","6554c1099aaa979220faacf4","null","<p> <font color=""red"" size=""4vw""> Wrong category! </font> </p>","null","feedback","","","","","0"
"","","","","","html-keyboard-response","44","105571","0.0-4.0-0.8","610d842e204deeeccfc472d2","6554bfa13ac4b6a0ab00b03a","6554c1099aaa979220faacf4","821","
            
        <div style=""text-align: center; position: fixed; top: 5vh; left: 40vw;"">
            <div style=""margin:0 auto; width: 20vw; top: 8vh; font-size: 1vw""> 
            <font color=""green""> Bonus : $0 </font>
            </div>
        </div>
    
            <div> Please press any button to continue to the next trial.</div>
        ","arrowleft","ITI","","","","",""
"","","","","","html-keyboard-response","45","106175","0.0-4.0-1.8","610d842e204deeeccfc472d2","6554bfa13ac4b6a0ab00b03a","6554c1099aaa979220faacf4","null","
        
        <div style=""text-align: center; position: fixed; top: 5vh; left: 40vw;"">
            <div style=""margin:0 auto; width: 20vw; top: 8vh; font-size: 1vw""> 
            <font color=""green""> Bonus : $0 </font>
            </div>
        </div>
    
        <img class=""stim"" src=./stimuli//pack_shapes/cat_1/ex_1_75.png></img>
    ","null","stimulus","","","","",""
"","","","","","html-keyboard-response","46","107274","0.0-4.0-2.8","610d842e204deeeccfc472d2","6554bfa13ac4b6a0ab00b03a","6554c1099aaa979220faacf4","null","
        <div style=""text-align: center; position: fixed; top: 5vh; left: 40vw;"">
            <div style=""margin:0 auto; width: 20vw; top: 8vh; font-size: 1vw""> 
            <font color=""green""> Bonus : $0 </font>
            </div>
        </div>
    ","null","","","","","",""
"","","","","","html-keyboard-response","47","107552","0.0-4.0-3.8","610d842e204deeeccfc472d2","6554bfa13ac4b6a0ab00b03a","6554c1099aaa979220faacf4","276","./stimuli//pack_shapes/cat_1/ex_1_75.png","arrowleft","response","ArrowLeft","75","1","true",""
"","","","","","html-keyboard-response","48","109055","0.0-4.0-4.8","610d842e204deeeccfc472d2","6554bfa13ac4b6a0ab00b03a","6554c1099aaa979220faacf4","null","<p> <font color=""green"" size=""4vw""> Correct category! </font> </p>","null","feedback","","","","","0"
"","","","","","html-keyboard-response","49","112903","0.0-4.0-0.9","610d842e204deeeccfc472d2","6554bfa13ac4b6a0ab00b03a","6554c1099aaa979220faacf4","3847","
            
        <div style=""text-align: center; position: fixed; top: 5vh; left: 40vw;"">
            <div style=""margin:0 auto; width: 20vw; top: 8vh; font-size: 1vw""> 
            <font color=""green""> Bonus : $0 </font>
            </div>
        </div>
    
            <div> Please press any button to continue to the next trial.</div>
        ","arrowleft","ITI","","","","",""
"","","","","","html-keyboard-response","50","113515","0.0-4.0-1.9","610d842e204deeeccfc472d2","6554bfa13ac4b6a0ab00b03a","6554c1099aaa979220faacf4","null","
        
        <div style=""text-align: center; position: fixed; top: 5vh; left: 40vw;"">
            <div style=""margin:0 auto; width: 20vw; top: 8vh; font-size: 1vw""> 
            <font color=""green""> Bonus : $0 </font>
            </div>
        </div>
    
        <img class=""stim"" src=./stimuli//pack_shapes/cat_2/ex_2_29.png></img>
    ","null","stimulus","","","","",""
"","","","","","html-keyboard-response","51","114518","0.0-4.0-2.9","610d842e204deeeccfc472d2","6554bfa13ac4b6a0ab00b03a","6554c1099aaa979220faacf4","null","
        <div style=""text-align: center; position: fixed; top: 5vh; left: 40vw;"">
            <div style=""margin:0 auto; width: 20vw; top: 8vh; font-size: 1vw""> 
            <font color=""green""> Bonus : $0 </font>
            </div>
        </div>
    ","null","","","","","",""
"","","","","","html-keyboard-response","52","114910","0.0-4.0-3.9","610d842e204deeeccfc472d2","6554bfa13ac4b6a0ab00b03a","6554c1099aaa979220faacf4","390","./stimuli//pack_shapes/cat_2/ex_2_29.png","arrowleft","response","ArrowRight","29","2","false",""
"","","","","","html-keyboard-response","53","116411","0.0-4.0-4.9","610d842e204deeeccfc472d2","6554bfa13ac4b6a0ab00b03a","6554c1099aaa979220faacf4","null","<p> <font color=""red"" size=""4vw""> Wrong category! </font> </p>","null","feedback","","","","","0"
"","","","","","html-keyboard-response","54","120582","0.0-5.0","610d842e204deeeccfc472d2","6554bfa13ac4b6a0ab00b03a","6554c1099aaa979220faacf4","4170","
            <b> <p> The practice round has finished.</p>
            <b> For the rest of the experiment you will receive a $0.05 bonus for each correct answer!</b>
            <p> Press any key to begin the test. </p>
            "," ","intermission","","","","",""
"","","","","","html-keyboard-response","55","122189","0.0-6.0-0.0","610d842e204deeeccfc472d2","6554bfa13ac4b6a0ab00b03a","6554c1099aaa979220faacf4","1606","
            
        <div style=""text-align: center; position: fixed; top: 5vh; left: 40vw;"">
            <div style=""margin:0 auto; width: 20vw; top: 8vh; font-size: 1vw""> 
            <font color=""green""> Bonus : $0 </font>
            </div>
        </div>
    
            <div> Please press any button to continue to the next trial.</div>
        ","arrowleft","ITI","","","","",""
"","","","","","html-keyboard-response","56","122800","0.0-6.0-1.0","610d842e204deeeccfc472d2","6554bfa13ac4b6a0ab00b03a","6554c1099aaa979220faacf4","null","
        
        <div style=""text-align: center; position: fixed; top: 5vh; left: 40vw;"">
            <div style=""margin:0 auto; width: 20vw; top: 8vh; font-size: 1vw""> 
            <font color=""green""> Bonus : $0 </font>
            </div>
        </div>
    
        <img class=""stim"" src=./stimuli//pack_shapes/cat_1/ex_1_25.png></img>
    ","null","stimulus","","","","",""
"","","","","","html-keyboard-response","57","123805","0.0-6.0-2.0","610d842e204deeeccfc472d2","6554bfa13ac4b6a0ab00b03a","6554c1099aaa979220faacf4","null","
        <div style=""text-align: center; position: fixed; top: 5vh; left: 40vw;"">
            <div style=""margin:0 auto; width: 20vw; top: 8vh; font-size: 1vw""> 
            <font color=""green""> Bonus : $0 </font>
            </div>
        </div>
    ","null","","","","","",""
"","","","","","html-keyboard-response","58","124088","0.0-6.0-3.0","610d842e204deeeccfc472d2","6554bfa13ac4b6a0ab00b03a","6554c1099aaa979220faacf4","282","./stimuli//pack_shapes/cat_1/ex_1_25.png","arrowleft","response","ArrowLeft","25","1","true",""
"","","","","","html-keyboard-response","59","125593","0.0-6.0-4.0","610d842e204deeeccfc472d2","6554bfa13ac4b6a0ab00b03a","6554c1099aaa979220faacf4","null","<p> <font color=""green"" size=""4vw""> Correct category! </font> <br> <br> <font color=""green"" size=""7vw""> + $0.05 </font> </p>","null","feedback","","","","","0.05"
"","","","","","html-keyboard-response","60","126416","0.0-6.0-0.1","610d842e204deeeccfc472d2","6554bfa13ac4b6a0ab00b03a","6554c1099aaa979220faacf4","822","
            
        <div style=""text-align: center; position: fixed; top: 5vh; left: 40vw;"">
            <div style=""margin:0 auto; width: 20vw; top: 8vh; font-size: 1vw""> 
            <font color=""green""> Bonus : $0.05 </font>
            </div>
        </div>
    
            <div> Please press any button to continue to the next trial.</div>
        ","arrowleft","ITI","","","","",""
"","","","","","html-keyboard-response","61","127032","0.0-6.0-1.1","610d842e204deeeccfc472d2","6554bfa13ac4b6a0ab00b03a","6554c1099aaa979220faacf4","null","
        
        <div style=""text-align: center; position: fixed; top: 5vh; left: 40vw;"">
            <div style=""margin:0 auto; width: 20vw; top: 8vh; font-size: 1vw""> 
            <font color=""green""> Bonus : $0.05 </font>
            </div>
        </div>
    
        <img class=""stim"" src=./stimuli//pack_shapes/cat_2/ex_2_77.png></img>
    ","null","stimulus","","","","",""
"","","","","","html-keyboard-response","62","128039","0.0-6.0-2.1","610d842e204deeeccfc472d2","6554bfa13ac4b6a0ab00b03a","6554c1099aaa979220faacf4","null","
        <div style=""text-align: center; position: fixed; top: 5vh; left: 40vw;"">
            <div style=""margin:0 auto; width: 20vw; top: 8vh; font-size: 1vw""> 
            <font color=""green""> Bonus : $0.05 </font>
            </div>
        </div>
    ","null","","","","","",""
"","","","","","html-keyboard-response","63","128321","0.0-6.0-3.1","610d842e204deeeccfc472d2","6554bfa13ac4b6a0ab00b03a","6554c1099aaa979220faacf4","280","./stimuli//pack_shapes/cat_2/ex_2_77.png","arrowleft","response","ArrowRight","77","2","false",""
"","","","","","html-keyboard-response","64","129835","0.0-6.0-4.1","610d842e204deeeccfc472d2","6554bfa13ac4b6a0ab00b03a","6554c1099aaa979220faacf4","null","<p> <font color=""red"" size=""4vw""> Wrong category! </font> </p>","null","feedback","","","","","0.05"
"","","","","","html-keyboard-response","65","130543","0.0-6.0-0.2","610d842e204deeeccfc472d2","6554bfa13ac4b6a0ab00b03a","6554c1099aaa979220faacf4","706","
            
        <div style=""text-align: center; position: fixed; top: 5vh; left: 40vw;"">
            <div style=""margin:0 auto; width: 20vw; top: 8vh; font-size: 1vw""> 
            <font color=""green""> Bonus : $0.05 </font>
            </div>
        </div>
    
            <div> Please press any button to continue to the next trial.</div>
        ","arrowleft","ITI","","","","",""
"","","","","","html-keyboard-response","66","131148","0.0-6.0-1.2","610d842e204deeeccfc472d2","6554bfa13ac4b6a0ab00b03a","6554c1099aaa979220faacf4","null","
        
        <div style=""text-align: center; position: fixed; top: 5vh; left: 40vw;"">
            <div style=""margin:0 auto; width: 20vw; top: 8vh; font-size: 1vw""> 
            <font color=""green""> Bonus : $0.05 </font>
            </div>
        </div>
    
        <img class=""stim"" src=./stimuli//pack_shapes/cat_1/ex_1_11.png></img>
    ","null","stimulus","","","","",""
"","","","","","html-keyboard-response","67","132155","0.0-6.0-2.2","610d842e204deeeccfc472d2","6554bfa13ac4b6a0ab00b03a","6554c1099aaa979220faacf4","null","
        <div style=""text-align: center; position: fixed; top: 5vh; left: 40vw;"">
            <div style=""margin:0 auto; width: 20vw; top: 8vh; font-size: 1vw""> 
            <font color=""green""> Bonus : $0.05 </font>
            </div>
        </div>
    ","null","","","","","",""
"","","","","","html-keyboard-response","68","132436","0.0-6.0-3.2","610d842e204deeeccfc472d2","6554bfa13ac4b6a0ab00b03a","6554c1099aaa979220faacf4","279","./stimuli//pack_shapes/cat_1/ex_1_11.png","arrowleft","response","ArrowLeft","11","1","true",""
"","","","","","html-keyboard-response","69","133938","0.0-6.0-4.2","610d842e204deeeccfc472d2","6554bfa13ac4b6a0ab00b03a","6554c1099aaa979220faacf4","null","<p> <font color=""green"" size=""4vw""> Correct category! </font> <br> <br> <font color=""green"" size=""7vw""> + $0.05 </font> </p>","null","feedback","","","","","0.1"
"","","","","","html-keyboard-response","70","134806","0.0-6.0-0.3","610d842e204deeeccfc472d2","6554bfa13ac4b6a0ab00b03a","6554c1099aaa979220faacf4","868","
            
        <div style=""text-align: center; position: fixed; top: 5vh; left: 40vw;"">
            <div style=""margin:0 auto; width: 20vw; top: 8vh; font-size: 1vw""> 
            <font color=""green""> Bonus : $0.1 </font>
            </div>
        </div>
    
            <div> Please press any button to continue to the next trial.</div>
        ","arrowleft","ITI","","","","",""
"","","","","","html-keyboard-response","71","135413","0.0-6.0-1.3","610d842e204deeeccfc472d2","6554bfa13ac4b6a0ab00b03a","6554c1099aaa979220faacf4","null","
        
        <div style=""text-align: center; position: fixed; top: 5vh; left: 40vw;"">
            <div style=""margin:0 auto; width: 20vw; top: 8vh; font-size: 1vw""> 
            <font color=""green""> Bonus : $0.1 </font>
            </div>
        </div>
    
        <img class=""stim"" src=./stimuli//pack_shapes/cat_1/ex_1_44.png></img>
    ","null","stimulus","","","","",""
"","","","","","html-keyboard-response","72","136414","0.0-6.0-2.3","610d842e204deeeccfc472d2","6554bfa13ac4b6a0ab00b03a","6554c1099aaa979220faacf4","null","
        <div style=""text-align: center; position: fixed; top: 5vh; left: 40vw;"">
            <div style=""margin:0 auto; width: 20vw; top: 8vh; font-size: 1vw""> 
            <font color=""green""> Bonus : $0.1 </font>
            </div>
        </div>
    ","null","","","","","",""
"","","","","","html-keyboard-response","73","136522","0.0-6.0-3.3","610d842e204deeeccfc472d2","6554bfa13ac4b6a0ab00b03a","6554c1099aaa979220faacf4","107","./stimuli//pack_shapes/cat_1/ex_1_44.png","arrowleft","response","ArrowLeft","44","1","true",""
"","","","","","html-keyboard-response","74","138030","0.0-6.0-4.3","610d842e204deeeccfc472d2","6554bfa13ac4b6a0ab00b03a","6554c1099aaa979220faacf4","null","<p> <font color=""green"" size=""4vw""> Correct category! </font> <br> <br> <font color=""green"" size=""7vw""> + $0.05 </font> </p>","null","feedback","","","","","0.15"
"","","","","","html-keyboard-response","75","138935","0.0-6.0-0.4","610d842e204deeeccfc472d2","6554bfa13ac4b6a0ab00b03a","6554c1099aaa979220faacf4","904","
            
        <div style=""text-align: center; position: fixed; top: 5vh; left: 40vw;"">
            <div style=""margin:0 auto; width: 20vw; top: 8vh; font-size: 1vw""> 
            <font color=""green""> Bonus : $0.15 </font>
            </div>
        </div>
    
            <div> Please press any button to continue to the next trial.</div>
        ","arrowleft","ITI","","","","",""
"","","","","","html-keyboard-response","76","139553","0.0-6.0-1.4","610d842e204deeeccfc472d2","6554bfa13ac4b6a0ab00b03a","6554c1099aaa979220faacf4","null","
        
        <div style=""text-align: center; position: fixed; top: 5vh; left: 40vw;"">
            <div style=""margin:0 auto; width: 20vw; top: 8vh; font-size: 1vw""> 
            <font color=""green""> Bonus : $0.15 </font>
            </div>
        </div>
    
        <img class=""stim"" src=./stimuli//pack_shapes/cat_1/ex_1_14.png></img>
    ","null","stimulus","","","","",""
"","","","","","html-keyboard-response","77","140564","0.0-6.0-2.4","610d842e204deeeccfc472d2","6554bfa13ac4b6a0ab00b03a","6554c1099aaa979220faacf4","null","
        <div style=""text-align: center; position: fixed; top: 5vh; left: 40vw;"">
            <div style=""margin:0 auto; width: 20vw; top: 8vh; font-size: 1vw""> 
            <font color=""green""> Bonus : $0.15 </font>
            </div>
        </div>
    ","null","","","","","",""
"","","","","","html-keyboard-response","78","140791","0.0-6.0-3.4","610d842e204deeeccfc472d2","6554bfa13ac4b6a0ab00b03a","6554c1099aaa979220faacf4","226","./stimuli//pack_shapes/cat_1/ex_1_14.png","arrowleft","response","ArrowLeft","14","1","true",""
"","","","","","html-keyboard-response","79","142294","0.0-6.0-4.4","610d842e204deeeccfc472d2","6554bfa13ac4b6a0ab00b03a","6554c1099aaa979220faacf4","null","<p> <font color=""green"" size=""4vw""> Correct category! </font> <br> <br> <font color=""green"" size=""7vw""> + $0.05 </font> </p>","null","feedback","","","","","0.2"
"","","","","","html-keyboard-response","80","143273","0.0-6.0-0.5","610d842e204deeeccfc472d2","6554bfa13ac4b6a0ab00b03a","6554c1099aaa979220faacf4","977","
            
        <div style=""text-align: center; position: fixed; top: 5vh; left: 40vw;"">
            <div style=""margin:0 auto; width: 20vw; top: 8vh; font-size: 1vw""> 
            <font color=""green""> Bonus : $0.2 </font>
            </div>
        </div>
    
            <div> Please press any button to continue to the next trial.</div>
        ","arrowleft","ITI","","","","",""
"","","","","","html-keyboard-response","81","143878","0.0-6.0-1.5","610d842e204deeeccfc472d2","6554bfa13ac4b6a0ab00b03a","6554c1099aaa979220faacf4","null","
        
        <div style=""text-align: center; position: fixed; top: 5vh; left: 40vw;"">
            <div style=""margin:0 auto; width: 20vw; top: 8vh; font-size: 1vw""> 
            <font color=""green""> Bonus : $0.2 </font>
            </div>
        </div>
    
        <img class=""stim"" src=./stimuli//pack_shapes/cat_1/ex_1_54.png></img>
    ","null","stimulus","","","","",""
"","","","","","html-keyboard-response","82","144883","0.0-6.0-2.5","610d842e204deeeccfc472d2","6554bfa13ac4b6a0ab00b03a","6554c1099aaa979220faacf4","null","
        <div style=""text-align: center; position: fixed; top: 5vh; left: 40vw;"">
            <div style=""margin:0 auto; width: 20vw; top: 8vh; font-size: 1vw""> 
            <font color=""green""> Bonus : $0.2 </font>
            </div>
        </div>
    ","null","","","","","",""
"","","","","","html-keyboard-response","83","145197","0.0-6.0-3.5","610d842e204deeeccfc472d2","6554bfa13ac4b6a0ab00b03a","6554c1099aaa979220faacf4","312","./stimuli//pack_shapes/cat_1/ex_1_54.png","arrowright","response","ArrowLeft","54","1","false",""
"","","","","","html-keyboard-response","84","146697","0.0-6.0-4.5","610d842e204deeeccfc472d2","6554bfa13ac4b6a0ab00b03a","6554c1099aaa979220faacf4","null","<p> <font color=""red"" size=""4vw""> Wrong category! </font> </p>","null","feedback","","","","","0.2"
"","","","","","html-keyboard-response","85","147253","0.0-6.0-0.6","610d842e204deeeccfc472d2","6554bfa13ac4b6a0ab00b03a","6554c1099aaa979220faacf4","554","
            
        <div style=""text-align: center; position: fixed; top: 5vh; left: 40vw;"">
            <div style=""margin:0 auto; width: 20vw; top: 8vh; font-size: 1vw""> 
            <font color=""green""> Bonus : $0.2 </font>
            </div>
        </div>
    
            <div> Please press any button to continue to the next trial.</div>
        ","arrowleft","ITI","","","","",""
"","","","","","html-keyboard-response","86","147858","0.0-6.0-1.6","610d842e204deeeccfc472d2","6554bfa13ac4b6a0ab00b03a","6554c1099aaa979220faacf4","null","
        
        <div style=""text-align: center; position: fixed; top: 5vh; left: 40vw;"">
            <div style=""margin:0 auto; width: 20vw; top: 8vh; font-size: 1vw""> 
            <font color=""green""> Bonus : $0.2 </font>
            </div>
        </div>
    
        <img class=""stim"" src=./stimuli//pack_shapes/cat_2/ex_2_44.png></img>
    ","null","stimulus","","","","",""
"","","","","","html-keyboard-response","87","148863","0.0-6.0-2.6","610d842e204deeeccfc472d2","6554bfa13ac4b6a0ab00b03a","6554c1099aaa979220faacf4","null","
        <div style=""text-align: center; position: fixed; top: 5vh; left: 40vw;"">
            <div style=""margin:0 auto; width: 20vw; top: 8vh; font-size: 1vw""> 
            <font color=""green""> Bonus : $0.2 </font>
            </div>
        </div>
    ","null","","","","","",""
"","","","","","html-keyboard-response","88","149177","0.0-6.0-3.6","610d842e204deeeccfc472d2","6554bfa13ac4b6a0ab00b03a","6554c1099aaa979220faacf4","312","./stimuli//pack_shapes/cat_2/ex_2_44.png","arrowleft","response","ArrowRight","44","2","false",""
"","","","","","html-keyboard-response","89","150690","0.0-6.0-4.6","610d842e204deeeccfc472d2","6554bfa13ac4b6a0ab00b03a","6554c1099aaa979220faacf4","null","<p> <font color=""red"" size=""4vw""> Wrong category! </font> </p>","null","feedback","","","","","0.2"
"","","","","","html-keyboard-response","90","151114","0.0-6.0-0.7","610d842e204deeeccfc472d2","6554bfa13ac4b6a0ab00b03a","6554c1099aaa979220faacf4","423","
            
        <div style=""text-align: center; position: fixed; top: 5vh; left: 40vw;"">
            <div style=""margin:0 auto; width: 20vw; top: 8vh; font-size: 1vw""> 
            <font color=""green""> Bonus : $0.2 </font>
            </div>
        </div>
    
            <div> Please press any button to continue to the next trial.</div>
        ","arrowleft","ITI","","","","",""
"","","","","","html-keyboard-response","91","151729","0.0-6.0-1.7","610d842e204deeeccfc472d2","6554bfa13ac4b6a0ab00b03a","6554c1099aaa979220faacf4","null","
        
        <div style=""text-align: center; position: fixed; top: 5vh; left: 40vw;"">
            <div style=""margin:0 auto; width: 20vw; top: 8vh; font-size: 1vw""> 
            <font color=""green""> Bonus : $0.2 </font>
            </div>
        </div>
    
        <img class=""stim"" src=./stimuli//pack_shapes/cat_1/ex_1_57.png></img>
    ","null","stimulus","","","","",""
"","","","","","html-keyboard-response","92","152742","0.0-6.0-2.7","610d842e204deeeccfc472d2","6554bfa13ac4b6a0ab00b03a","6554c1099aaa979220faacf4","null","
        <div style=""text-align: center; position: fixed; top: 5vh; left: 40vw;"">
            <div style=""margin:0 auto; width: 20vw; top: 8vh; font-size: 1vw""> 
            <font color=""green""> Bonus : $0.2 </font>
            </div>
        </div>
    ","null","","","","","",""
"","","","","","html-keyboard-response","93","153028","0.0-6.0-3.7","610d842e204deeeccfc472d2","6554bfa13ac4b6a0ab00b03a","6554c1099aaa979220faacf4","284","./stimuli//pack_shapes/cat_1/ex_1_57.png","arrowleft","response","ArrowLeft","57","1","true",""
"","","","","","html-keyboard-response","94","154539","0.0-6.0-4.7","610d842e204deeeccfc472d2","6554bfa13ac4b6a0ab00b03a","6554c1099aaa979220faacf4","null","<p> <font color=""green"" size=""4vw""> Correct category! </font> <br> <br> <font color=""green"" size=""7vw""> + $0.05 </font> </p>","null","feedback","","","","","0.25"
"","","","","","html-keyboard-response","95","155235","0.0-6.0-0.8","610d842e204deeeccfc472d2","6554bfa13ac4b6a0ab00b03a","6554c1099aaa979220faacf4","696","
            
        <div style=""text-align: center; position: fixed; top: 5vh; left: 40vw;"">
            <div style=""margin:0 auto; width: 20vw; top: 8vh; font-size: 1vw""> 
            <font color=""green""> Bonus : $0.25 </font>
            </div>
        </div>
    
            <div> Please press any button to continue to the next trial.</div>
        ","arrowleft","ITI","","","","",""
"","","","","","html-keyboard-response","96","155852","0.0-6.0-1.8","610d842e204deeeccfc472d2","6554bfa13ac4b6a0ab00b03a","6554c1099aaa979220faacf4","null","
        
        <div style=""text-align: center; position: fixed; top: 5vh; left: 40vw;"">
            <div style=""margin:0 auto; width: 20vw; top: 8vh; font-size: 1vw""> 
            <font color=""green""> Bonus : $0.25 </font>
            </div>
        </div>
    
        <img class=""stim"" src=./stimuli//pack_shapes/cat_2/ex_2_65.png></img>
    ","null","stimulus","","","","",""
"","","","","","html-keyboard-response","97","156859","0.0-6.0-2.8","610d842e204deeeccfc472d2","6554bfa13ac4b6a0ab00b03a","6554c1099aaa979220faacf4","null","
        <div style=""text-align: center; position: fixed; top: 5vh; left: 40vw;"">
            <div style=""margin:0 auto; width: 20vw; top: 8vh; font-size: 1vw""> 
            <font color=""green""> Bonus : $0.25 </font>
            </div>
        </div>
    ","null","","","","","",""
"","","","","","html-keyboard-response","98","157127","0.0-6.0-3.8","610d842e204deeeccfc472d2","6554bfa13ac4b6a0ab00b03a","6554c1099aaa979220faacf4","267","./stimuli//pack_shapes/cat_2/ex_2_65.png","arrowleft","response","ArrowRight","65","2","false",""
"","","","","","html-keyboard-response","99","158629","0.0-6.0-4.8","610d842e204deeeccfc472d2","6554bfa13ac4b6a0ab00b03a","6554c1099aaa979220faacf4","null","<p> <font color=""red"" size=""4vw""> Wrong category! </font> </p>","null","feedback","","","","","0.25"
"","","","","","html-keyboard-response","100","159041","0.0-6.0-0.9","610d842e204deeeccfc472d2","6554bfa13ac4b6a0ab00b03a","6554c1099aaa979220faacf4","412","
            
        <div style=""text-align: center; position: fixed; top: 5vh; left: 40vw;"">
            <div style=""margin:0 auto; width: 20vw; top: 8vh; font-size: 1vw""> 
            <font color=""green""> Bonus : $0.25 </font>
            </div>
        </div>
    
            <div> Please press any button to continue to the next trial.</div>
        ","arrowleft","ITI","","","","",""
"","","","","","html-keyboard-response","101","159648","0.0-6.0-1.9","610d842e204deeeccfc472d2","6554bfa13ac4b6a0ab00b03a","6554c1099aaa979220faacf4","null","
        
        <div style=""text-align: center; position: fixed; top: 5vh; left: 40vw;"">
            <div style=""margin:0 auto; width: 20vw; top: 8vh; font-size: 1vw""> 
            <font color=""green""> Bonus : $0.25 </font>
            </div>
        </div>
    
        <img class=""stim"" src=./stimuli//pack_shapes/cat_1/ex_1_21.png></img>
    ","null","stimulus","","","","",""
"","","","","","html-keyboard-response","102","160654","0.0-6.0-2.9","610d842e204deeeccfc472d2","6554bfa13ac4b6a0ab00b03a","6554c1099aaa979220faacf4","null","
        <div style=""text-align: center; position: fixed; top: 5vh; left: 40vw;"">
            <div style=""margin:0 auto; width: 20vw; top: 8vh; font-size: 1vw""> 
            <font color=""green""> Bonus : $0.25 </font>
            </div>
        </div>
    ","null","","","","","",""
"","","","","","html-keyboard-response","103","160963","0.0-6.0-3.9","610d842e204deeeccfc472d2","6554bfa13ac4b6a0ab00b03a","6554c1099aaa979220faacf4","307","./stimuli//pack_shapes/cat_1/ex_1_21.png","arrowleft","response","ArrowLeft","21","1","true",""
"","","","","","html-keyboard-response","104","162472","0.0-6.0-4.9","610d842e204deeeccfc472d2","6554bfa13ac4b6a0ab00b03a","6554c1099aaa979220faacf4","null","<p> <font color=""green"" size=""4vw""> Correct category! </font> <br> <br> <font color=""green"" size=""7vw""> + $0.05 </font> </p>","null","feedback","","","","","0.3"
"","","","","","html-keyboard-response","105","162998","0.0-6.0-0.10","610d842e204deeeccfc472d2","6554bfa13ac4b6a0ab00b03a","6554c1099aaa979220faacf4","525","
            
        <div style=""text-align: center; position: fixed; top: 5vh; left: 40vw;"">
            <div style=""margin:0 auto; width: 20vw; top: 8vh; font-size: 1vw""> 
            <font color=""green""> Bonus : $0.3 </font>
            </div>
        </div>
    
            <div> Please press any button to continue to the next trial.</div>
        ","arrowleft","ITI","","","","",""
"","","","","","html-keyboard-response","106","163634","0.0-6.0-1.10","610d842e204deeeccfc472d2","6554bfa13ac4b6a0ab00b03a","6554c1099aaa979220faacf4","null","
        
        <div style=""text-align: center; position: fixed; top: 5vh; left: 40vw;"">
            <div style=""margin:0 auto; width: 20vw; top: 8vh; font-size: 1vw""> 
            <font color=""green""> Bonus : $0.3 </font>
            </div>
        </div>
    
        <img class=""stim"" src=./stimuli//pack_shapes/cat_2/ex_2_67.png></img>
    ","null","stimulus","","","","",""
"","","","","","html-keyboard-response","107","164647","0.0-6.0-2.10","610d842e204deeeccfc472d2","6554bfa13ac4b6a0ab00b03a","6554c1099aaa979220faacf4","null","
        <div style=""text-align: center; position: fixed; top: 5vh; left: 40vw;"">
            <div style=""margin:0 auto; width: 20vw; top: 8vh; font-size: 1vw""> 
            <font color=""green""> Bonus : $0.3 </font>
            </div>
        </div>
    ","null","","","","","",""
"","","","","","html-keyboard-response","108","164870","0.0-6.0-3.10","610d842e204deeeccfc472d2","6554bfa13ac4b6a0ab00b03a","6554c1099aaa979220faacf4","221","./stimuli//pack_shapes/cat_2/ex_2_67.png","arrowright","response","ArrowRight","67","2","true",""
"","","","","","html-keyboard-response","109","166378","0.0-6.0-4.10","610d842e204deeeccfc472d2","6554bfa13ac4b6a0ab00b03a","6554c1099aaa979220faacf4","null","<p> <font color=""green"" size=""4vw""> Correct category! </font> <br> <br> <font color=""green"" size=""7vw""> + $0.05 </font> </p>","null","feedback","","","","","0.35"
"","","","","","html-keyboard-response","110","166694","0.0-6.0-0.11","610d842e204deeeccfc472d2","6554bfa13ac4b6a0ab00b03a","6554c1099aaa979220faacf4","314","
            
        <div style=""text-align: center; position: fixed; top: 5vh; left: 40vw;"">
            <div style=""margin:0 auto; width: 20vw; top: 8vh; font-size: 1vw""> 
            <font color=""green""> Bonus : $0.35 </font>
            </div>
        </div>
    
            <div> Please press any button to continue to the next trial.</div>
        ","arrowleft","ITI","","","","",""
"","","","","","html-keyboard-response","111","167309","0.0-6.0-1.11","610d842e204deeeccfc472d2","6554bfa13ac4b6a0ab00b03a","6554c1099aaa979220faacf4","null","
        
        <div style=""text-align: center; position: fixed; top: 5vh; left: 40vw;"">
            <div style=""margin:0 auto; width: 20vw; top: 8vh; font-size: 1vw""> 
            <font color=""green""> Bonus : $0.35 </font>
            </div>
        </div>
    
        <img class=""stim"" src=./stimuli//pack_shapes/cat_1/ex_1_58.png></img>
    ","null","stimulus","","","","",""
"","","","","","html-keyboard-response","112","168393","0.0-6.0-2.11","610d842e204deeeccfc472d2","6554bfa13ac4b6a0ab00b03a","6554c1099aaa979220faacf4","null","
        <div style=""text-align: center; position: fixed; top: 5vh; left: 40vw;"">
            <div style=""margin:0 auto; width: 20vw; top: 8vh; font-size: 1vw""> 
            <font color=""green""> Bonus : $0.35 </font>
            </div>
        </div>
    ","null","","","","","",""
"","","","","","html-keyboard-response","113","168716","0.0-6.0-3.11","610d842e204deeeccfc472d2","6554bfa13ac4b6a0ab00b03a","6554c1099aaa979220faacf4","322","./stimuli//pack_shapes/cat_1/ex_1_58.png","arrowright","response","ArrowLeft","58","1","false",""
"","","","","","html-keyboard-response","114","170223","0.0-6.0-4.11","610d842e204deeeccfc472d2","6554bfa13ac4b6a0ab00b03a","6554c1099aaa979220faacf4","null","<p> <font color=""red"" size=""4vw""> Wrong category! </font> </p>","null","feedback","","","","","0.35"
"","","","","","html-keyboard-response","115","170545","0.0-6.0-0.12","610d842e204deeeccfc472d2","6554bfa13ac4b6a0ab00b03a","6554c1099aaa979220faacf4","323","
            
        <div style=""text-align: center; position: fixed; top: 5vh; left: 40vw;"">
            <div style=""margin:0 auto; width: 20vw; top: 8vh; font-size: 1vw""> 
            <font color=""green""> Bonus : $0.35 </font>
            </div>
        </div>
    
            <div> Please press any button to continue to the next trial.</div>
        ","arrowleft","ITI","","","","",""
"","","","","","html-keyboard-response","116","171154","0.0-6.0-1.12","610d842e204deeeccfc472d2","6554bfa13ac4b6a0ab00b03a","6554c1099aaa979220faacf4","null","
        
        <div style=""text-align: center; position: fixed; top: 5vh; left: 40vw;"">
            <div style=""margin:0 auto; width: 20vw; top: 8vh; font-size: 1vw""> 
            <font color=""green""> Bonus : $0.35 </font>
            </div>
        </div>
    
        <img class=""stim"" src=./stimuli//pack_shapes/cat_1/ex_1_51.png></img>
    ","null","stimulus","","","","",""
"","","","","","html-keyboard-response","117","172162","0.0-6.0-2.12","610d842e204deeeccfc472d2","6554bfa13ac4b6a0ab00b03a","6554c1099aaa979220faacf4","null","
        <div style=""text-align: center; position: fixed; top: 5vh; left: 40vw;"">
            <div style=""margin:0 auto; width: 20vw; top: 8vh; font-size: 1vw""> 
            <font color=""green""> Bonus : $0.35 </font>
            </div>
        </div>
    ","null","","","","","",""
"","","","","","html-keyboard-response","118","172390","0.0-6.0-3.12","610d842e204deeeccfc472d2","6554bfa13ac4b6a0ab00b03a","6554c1099aaa979220faacf4","226","./stimuli//pack_shapes/cat_1/ex_1_51.png","arrowleft","response","ArrowLeft","51","1","true",""
"","","","","","html-keyboard-response","119","173901","0.0-6.0-4.12","610d842e204deeeccfc472d2","6554bfa13ac4b6a0ab00b03a","6554c1099aaa979220faacf4","null","<p> <font color=""green"" size=""4vw""> Correct category! </font> <br> <br> <font color=""green"" size=""7vw""> + $0.05 </font> </p>","null","feedback","","","","","0.4"
"","","","","","html-keyboard-response","120","174216","0.0-6.0-0.13","610d842e204deeeccfc472d2","6554bfa13ac4b6a0ab00b03a","6554c1099aaa979220faacf4","314","
            
        <div style=""text-align: center; position: fixed; top: 5vh; left: 40vw;"">
            <div style=""margin:0 auto; width: 20vw; top: 8vh; font-size: 1vw""> 
            <font color=""green""> Bonus : $0.4 </font>
            </div>
        </div>
    
            <div> Please press any button to continue to the next trial.</div>
        ","arrowleft","ITI","","","","",""
"","","","","","html-keyboard-response","121","174829","0.0-6.0-1.13","610d842e204deeeccfc472d2","6554bfa13ac4b6a0ab00b03a","6554c1099aaa979220faacf4","null","
        
        <div style=""text-align: center; position: fixed; top: 5vh; left: 40vw;"">
            <div style=""margin:0 auto; width: 20vw; top: 8vh; font-size: 1vw""> 
            <font color=""green""> Bonus : $0.4 </font>
            </div>
        </div>
    
        <img class=""stim"" src=./stimuli//pack_shapes/cat_2/ex_2_19.png></img>
    ","null","stimulus","","","","",""
"","","","","","html-keyboard-response","122","175838","0.0-6.0-2.13","610d842e204deeeccfc472d2","6554bfa13ac4b6a0ab00b03a","6554c1099aaa979220faacf4","null","
        <div style=""text-align: center; position: fixed; top: 5vh; left: 40vw;"">
            <div style=""margin:0 auto; width: 20vw; top: 8vh; font-size: 1vw""> 
            <font color=""green""> Bonus : $0.4 </font>
            </div>
        </div>
    ","null","","","","","",""
"","","","","","html-keyboard-response","123","176032","0.0-6.0-3.13","610d842e204deeeccfc472d2","6554bfa13ac4b6a0ab00b03a","6554c1099aaa979220faacf4","193","./stimuli//pack_shapes/cat_2/ex_2_19.png","arrowleft","response","ArrowRight","19","2","false",""
"","","","","","html-keyboard-response","124","177663","0.0-6.0-4.13","610d842e204deeeccfc472d2","6554bfa13ac4b6a0ab00b03a","6554c1099aaa979220faacf4","null","<p> <font color=""red"" size=""4vw""> Wrong category! </font> </p>","null","feedback","","","","","0.4"
"","","","","","html-keyboard-response","125","177961","0.0-6.0-0.14","610d842e204deeeccfc472d2","6554bfa13ac4b6a0ab00b03a","6554c1099aaa979220faacf4","296","
            
        <div style=""text-align: center; position: fixed; top: 5vh; left: 40vw;"">
            <div style=""margin:0 auto; width: 20vw; top: 8vh; font-size: 1vw""> 
            <font color=""green""> Bonus : $0.4 </font>
            </div>
        </div>
    
            <div> Please press any button to continue to the next trial.</div>
        ","arrowleft","ITI","","","","",""
"","","","","","html-keyboard-response","126","178576","0.0-6.0-1.14","610d842e204deeeccfc472d2","6554bfa13ac4b6a0ab00b03a","6554c1099aaa979220faacf4","null","
        
        <div style=""text-align: center; position: fixed; top: 5vh; left: 40vw;"">
            <div style=""margin:0 auto; width: 20vw; top: 8vh; font-size: 1vw""> 
            <font color=""green""> Bonus : $0.4 </font>
            </div>
        </div>
    
        <img class=""stim"" src=./stimuli//pack_shapes/cat_1/ex_1_20.png></img>
    ","null","stimulus","","","","",""
"","","","","","html-keyboard-response","127","179578","0.0-6.0-2.14","610d842e204deeeccfc472d2","6554bfa13ac4b6a0ab00b03a","6554c1099aaa979220faacf4","null","
        <div style=""text-align: center; position: fixed; top: 5vh; left: 40vw;"">
            <div style=""margin:0 auto; width: 20vw; top: 8vh; font-size: 1vw""> 
            <font color=""green""> Bonus : $0.4 </font>
            </div>
        </div>
    ","null","","","","","",""
"","","","","","html-keyboard-response","128","179839","0.0-6.0-3.14","610d842e204deeeccfc472d2","6554bfa13ac4b6a0ab00b03a","6554c1099aaa979220faacf4","260","./stimuli//pack_shapes/cat_1/ex_1_20.png","arrowleft","response","ArrowLeft","20","1","true",""
"","","","","","html-keyboard-response","129","181352","0.0-6.0-4.14","610d842e204deeeccfc472d2","6554bfa13ac4b6a0ab00b03a","6554c1099aaa979220faacf4","null","<p> <font color=""green"" size=""4vw""> Correct category! </font> <br> <br> <font color=""green"" size=""7vw""> + $0.05 </font> </p>","null","feedback","","","","","0.45"
"","","","","","html-keyboard-response","130","181647","0.0-6.0-0.15","610d842e204deeeccfc472d2","6554bfa13ac4b6a0ab00b03a","6554c1099aaa979220faacf4","295","
            
        <div style=""text-align: center; position: fixed; top: 5vh; left: 40vw;"">
            <div style=""margin:0 auto; width: 20vw; top: 8vh; font-size: 1vw""> 
            <font color=""green""> Bonus : $0.45 </font>
            </div>
        </div>
    
            <div> Please press any button to continue to the next trial.</div>
        ","arrowleft","ITI","","","","",""
"","","","","","html-keyboard-response","131","182254","0.0-6.0-1.15","610d842e204deeeccfc472d2","6554bfa13ac4b6a0ab00b03a","6554c1099aaa979220faacf4","null","
        
        <div style=""text-align: center; position: fixed; top: 5vh; left: 40vw;"">
            <div style=""margin:0 auto; width: 20vw; top: 8vh; font-size: 1vw""> 
            <font color=""green""> Bonus : $0.45 </font>
            </div>
        </div>
    
        <img class=""stim"" src=./stimuli//pack_shapes/cat_2/ex_2_66.png></img>
    ","null","stimulus","","","","",""
"","","","","","html-keyboard-response","132","183264","0.0-6.0-2.15","610d842e204deeeccfc472d2","6554bfa13ac4b6a0ab00b03a","6554c1099aaa979220faacf4","null","
        <div style=""text-align: center; position: fixed; top: 5vh; left: 40vw;"">
            <div style=""margin:0 auto; width: 20vw; top: 8vh; font-size: 1vw""> 
            <font color=""green""> Bonus : $0.45 </font>
            </div>
        </div>
    ","null","","","","","",""
"","","","","","html-keyboard-response","133","183514","0.0-6.0-3.15","610d842e204deeeccfc472d2","6554bfa13ac4b6a0ab00b03a","6554c1099aaa979220faacf4","249","./stimuli//pack_shapes/cat_2/ex_2_66.png","arrowleft","response","ArrowRight","66","2","false",""
"","","","","","html-keyboard-response","134","185022","0.0-6.0-4.15","610d842e204deeeccfc472d2","6554bfa13ac4b6a0ab00b03a","6554c1099aaa979220faacf4","null","<p> <font color=""red"" size=""4vw""> Wrong category! </font> </p>","null","feedback","","","","","0.45"
"","","","","","html-keyboard-response","135","185328","0.0-6.0-0.16","610d842e204deeeccfc472d2","6554bfa13ac4b6a0ab00b03a","6554c1099aaa979220faacf4","305","
            
        <div style=""text-align: center; position: fixed; top: 5vh; left: 40vw;"">
            <div style=""margin:0 auto; width: 20vw; top: 8vh; font-size: 1vw""> 
            <font color=""green""> Bonus : $0.45 </font>
            </div>
        </div>
    
            <div> Please press any button to continue to the next trial.</div>
        ","arrowleft","ITI","","","","",""
"","","","","","html-keyboard-response","136","185936","0.0-6.0-1.16","610d842e204deeeccfc472d2","6554bfa13ac4b6a0ab00b03a","6554c1099aaa979220faacf4","null","
        
        <div style=""text-align: center; position: fixed; top: 5vh; left: 40vw;"">
            <div style=""margin:0 auto; width: 20vw; top: 8vh; font-size: 1vw""> 
            <font color=""green""> Bonus : $0.45 </font>
            </div>
        </div>
    
        <img class=""stim"" src=./stimuli//pack_shapes/cat_2/ex_2_16.png></img>
    ","null","stimulus","","","","",""
"","","","","","html-keyboard-response","137","187037","0.0-6.0-2.16","610d842e204deeeccfc472d2","6554bfa13ac4b6a0ab00b03a","6554c1099aaa979220faacf4","null","
        <div style=""text-align: center; position: fixed; top: 5vh; left: 40vw;"">
            <div style=""margin:0 auto; width: 20vw; top: 8vh; font-size: 1vw""> 
            <font color=""green""> Bonus : $0.45 </font>
            </div>
        </div>
    ","null","","","","","",""
"","","","","","html-keyboard-response","138","187331","0.0-6.0-3.16","610d842e204deeeccfc472d2","6554bfa13ac4b6a0ab00b03a","6554c1099aaa979220faacf4","294","./stimuli//pack_shapes/cat_2/ex_2_16.png","arrowright","response","ArrowRight","16","2","true",""
"","","","","","html-keyboard-response","139","188835","0.0-6.0-4.16","610d842e204deeeccfc472d2","6554bfa13ac4b6a0ab00b03a","6554c1099aaa979220faacf4","null","<p> <font color=""green"" size=""4vw""> Correct category! </font> <br> <br> <font color=""green"" size=""7vw""> + $0.05 </font> </p>","null","feedback","","","","","0.5"
"","","","","","html-keyboard-response","140","189304","0.0-6.0-0.17","610d842e204deeeccfc472d2","6554bfa13ac4b6a0ab00b03a","6554c1099aaa979220faacf4","468","
            
        <div style=""text-align: center; position: fixed; top: 5vh; left: 40vw;"">
            <div style=""margin:0 auto; width: 20vw; top: 8vh; font-size: 1vw""> 
            <font color=""green""> Bonus : $0.5 </font>
            </div>
        </div>
    
            <div> Please press any button to continue to the next trial.</div>
        ","arrowleft","ITI","","","","",""
"","","","","","html-keyboard-response","141","189917","0.0-6.0-1.17","610d842e204deeeccfc472d2","6554bfa13ac4b6a0ab00b03a","6554c1099aaa979220faacf4","null","
        
        <div style=""text-align: center; position: fixed; top: 5vh; left: 40vw;"">
            <div style=""margin:0 auto; width: 20vw; top: 8vh; font-size: 1vw""> 
            <font color=""green""> Bonus : $0.5 </font>
            </div>
        </div>
    
        <img class=""stim"" src=./stimuli//pack_shapes/cat_1/ex_1_64.png></img>
    ","null","stimulus","","","","",""
"","","","","","html-keyboard-response","142","190923","0.0-6.0-2.17","610d842e204deeeccfc472d2","6554bfa13ac4b6a0ab00b03a","6554c1099aaa979220faacf4","null","
        <div style=""text-align: center; position: fixed; top: 5vh; left: 40vw;"">
            <div style=""margin:0 auto; width: 20vw; top: 8vh; font-size: 1vw""> 
            <font color=""green""> Bonus : $0.5 </font>
            </div>
        </div>
    ","null","","","","","",""
"","","","","","html-keyboard-response","143","191186","0.0-6.0-3.17","610d842e204deeeccfc472d2","6554bfa13ac4b6a0ab00b03a","6554c1099aaa979220faacf4","262","./stimuli//pack_shapes/cat_1/ex_1_64.png","arrowleft","response","ArrowLeft","64","1","true",""
"","","","","","html-keyboard-response","144","192688","0.0-6.0-4.17","610d842e204deeeccfc472d2","6554bfa13ac4b6a0ab00b03a","6554c1099aaa979220faacf4","null","<p> <font color=""green"" size=""4vw""> Correct category! </font> <br> <br> <font color=""green"" size=""7vw""> + $0.05 </font> </p>","null","feedback","","","","","0.55"
"","","","","","html-keyboard-response","145","193061","0.0-6.0-0.18","610d842e204deeeccfc472d2","6554bfa13ac4b6a0ab00b03a","6554c1099aaa979220faacf4","371","
            
        <div style=""text-align: center; position: fixed; top: 5vh; left: 40vw;"">
            <div style=""margin:0 auto; width: 20vw; top: 8vh; font-size: 1vw""> 
            <font color=""green""> Bonus : $0.55 </font>
            </div>
        </div>
    
            <div> Please press any button to continue to the next trial.</div>
        ","arrowleft","ITI","","","","",""
"","","","","","html-keyboard-response","146","193665","0.0-6.0-1.18","610d842e204deeeccfc472d2","6554bfa13ac4b6a0ab00b03a","6554c1099aaa979220faacf4","null","
        
        <div style=""text-align: center; position: fixed; top: 5vh; left: 40vw;"">
            <div style=""margin:0 auto; width: 20vw; top: 8vh; font-size: 1vw""> 
            <font color=""green""> Bonus : $0.55 </font>
            </div>
        </div>
    
        <img class=""stim"" src=./stimuli//pack_shapes/cat_2/ex_2_42.png></img>
    ","null","stimulus","","","","",""
"","","","","","html-keyboard-response","147","194672","0.0-6.0-2.18","610d842e204deeeccfc472d2","6554bfa13ac4b6a0ab00b03a","6554c1099aaa979220faacf4","null","
        <div style=""text-align: center; position: fixed; top: 5vh; left: 40vw;"">
            <div style=""margin:0 auto; width: 20vw; top: 8vh; font-size: 1vw""> 
            <font color=""green""> Bonus : $0.55 </font>
            </div>
        </div>
    ","null","","","","","",""
"","","","","","html-keyboard-response","148","194698","0.0-6.0-3.18","610d842e204deeeccfc472d2","6554bfa13ac4b6a0ab00b03a","6554c1099aaa979220faacf4","23","./stimuli//pack_shapes/cat_2/ex_2_42.png","arrowright","response","ArrowRight","42","2","true",""
"","","","","","html-keyboard-response","149","196208","0.0-6.0-4.18","610d842e204deeeccfc472d2","6554bfa13ac4b6a0ab00b03a","6554c1099aaa979220faacf4","null","<p> <font color=""green"" size=""4vw""> Correct category! </font> <br> <br> <font color=""green"" size=""7vw""> + $0.05 </font> </p>","null","feedback","","","","","0.6"
"","","","","","html-keyboard-response","150","196556","0.0-6.0-0.19","610d842e204deeeccfc472d2","6554bfa13ac4b6a0ab00b03a","6554c1099aaa979220faacf4","347","
            
        <div style=""text-align: center; position: fixed; top: 5vh; left: 40vw;"">
            <div style=""margin:0 auto; width: 20vw; top: 8vh; font-size: 1vw""> 
            <font color=""green""> Bonus : $0.6 </font>
            </div>
        </div>
    
            <div> Please press any button to continue to the next trial.</div>
        ","arrowleft","ITI","","","","",""
"","","","","","html-keyboard-response","151","197169","0.0-6.0-1.19","610d842e204deeeccfc472d2","6554bfa13ac4b6a0ab00b03a","6554c1099aaa979220faacf4","null","
        
        <div style=""text-align: center; position: fixed; top: 5vh; left: 40vw;"">
            <div style=""margin:0 auto; width: 20vw; top: 8vh; font-size: 1vw""> 
            <font color=""green""> Bonus : $0.6 </font>
            </div>
        </div>
    
        <img class=""stim"" src=./stimuli//pack_shapes/cat_2/ex_2_79.png></img>
    ","null","stimulus","","","","",""
"","","","","","html-keyboard-response","152","198209","0.0-6.0-2.19","610d842e204deeeccfc472d2","6554bfa13ac4b6a0ab00b03a","6554c1099aaa979220faacf4","null","
        <div style=""text-align: center; position: fixed; top: 5vh; left: 40vw;"">
            <div style=""margin:0 auto; width: 20vw; top: 8vh; font-size: 1vw""> 
            <font color=""green""> Bonus : $0.6 </font>
            </div>
        </div>
    ","null","","","","","",""
"","","","","","html-keyboard-response","153","198480","0.0-6.0-3.19","610d842e204deeeccfc472d2","6554bfa13ac4b6a0ab00b03a","6554c1099aaa979220faacf4","269","./stimuli//pack_shapes/cat_2/ex_2_79.png","arrowleft","response","ArrowRight","79","2","false",""
"","","","","","html-keyboard-response","154","199981","0.0-6.0-4.19","610d842e204deeeccfc472d2","6554bfa13ac4b6a0ab00b03a","6554c1099aaa979220faacf4","null","<p> <font color=""red"" size=""4vw""> Wrong category! </font> </p>","null","feedback","","","","","0.6"
"","","","","","html-keyboard-response","155","200255","0.0-6.0-0.20","610d842e204deeeccfc472d2","6554bfa13ac4b6a0ab00b03a","6554c1099aaa979220faacf4","273","
            
        <div style=""text-align: center; position: fixed; top: 5vh; left: 40vw;"">
            <div style=""margin:0 auto; width: 20vw; top: 8vh; font-size: 1vw""> 
            <font color=""green""> Bonus : $0.6 </font>
            </div>
        </div>
    
            <div> Please press any button to continue to the next trial.</div>
        ","arrowleft","ITI","","","","",""
"","","","","","html-keyboard-response","156","200863","0.0-6.0-1.20","610d842e204deeeccfc472d2","6554bfa13ac4b6a0ab00b03a","6554c1099aaa979220faacf4","null","
        
        <div style=""text-align: center; position: fixed; top: 5vh; left: 40vw;"">
            <div style=""margin:0 auto; width: 20vw; top: 8vh; font-size: 1vw""> 
            <font color=""green""> Bonus : $0.6 </font>
            </div>
        </div>
    
        <img class=""stim"" src=./stimuli//pack_shapes/cat_2/ex_2_37.png></img>
    ","null","stimulus","","","","",""
"","","","","","html-keyboard-response","157","201869","0.0-6.0-2.20","610d842e204deeeccfc472d2","6554bfa13ac4b6a0ab00b03a","6554c1099aaa979220faacf4","null","
        <div style=""text-align: center; position: fixed; top: 5vh; left: 40vw;"">
            <div style=""margin:0 auto; width: 20vw; top: 8vh; font-size: 1vw""> 
            <font color=""green""> Bonus : $0.6 </font>
            </div>
        </div>
    ","null","","","","","",""
"","","","","","html-keyboard-response","158","202154","0.0-6.0-3.20","610d842e204deeeccfc472d2","6554bfa13ac4b6a0ab00b03a","6554c1099aaa979220faacf4","283","./stimuli//pack_shapes/cat_2/ex_2_37.png","arrowright","response","ArrowRight","37","2","true",""
"","","","","","html-keyboard-response","159","203655","0.0-6.0-4.20","610d842e204deeeccfc472d2","6554bfa13ac4b6a0ab00b03a","6554c1099aaa979220faacf4","null","<p> <font color=""green"" size=""4vw""> Correct category! </font> <br> <br> <font color=""green"" size=""7vw""> + $0.05 </font> </p>","null","feedback","","","","","0.65"
"","","","","","html-keyboard-response","160","204020","0.0-6.0-0.21","610d842e204deeeccfc472d2","6554bfa13ac4b6a0ab00b03a","6554c1099aaa979220faacf4","364","
            
        <div style=""text-align: center; position: fixed; top: 5vh; left: 40vw;"">
            <div style=""margin:0 auto; width: 20vw; top: 8vh; font-size: 1vw""> 
            <font color=""green""> Bonus : $0.65 </font>
            </div>
        </div>
    
            <div> Please press any button to continue to the next trial.</div>
        ","arrowleft","ITI","","","","",""
"","","","","","html-keyboard-response","161","204627","0.0-6.0-1.21","610d842e204deeeccfc472d2","6554bfa13ac4b6a0ab00b03a","6554c1099aaa979220faacf4","null","
        
        <div style=""text-align: center; position: fixed; top: 5vh; left: 40vw;"">
            <div style=""margin:0 auto; width: 20vw; top: 8vh; font-size: 1vw""> 
            <font color=""green""> Bonus : $0.65 </font>
            </div>
        </div>
    
        <img class=""stim"" src=./stimuli//pack_shapes/cat_1/ex_1_55.png></img>
    ","null","stimulus","","","","",""
"","","","","","html-keyboard-response","162","205666","0.0-6.0-2.21","610d842e204deeeccfc472d2","6554bfa13ac4b6a0ab00b03a","6554c1099aaa979220faacf4","null","
        <div style=""text-align: center; position: fixed; top: 5vh; left: 40vw;"">
            <div style=""margin:0 auto; width: 20vw; top: 8vh; font-size: 1vw""> 
            <font color=""green""> Bonus : $0.65 </font>
            </div>
        </div>
    ","null","","","","","",""
"","","","","","html-keyboard-response","163","205983","0.0-6.0-3.21","610d842e204deeeccfc472d2","6554bfa13ac4b6a0ab00b03a","6554c1099aaa979220faacf4","315","./stimuli//pack_shapes/cat_1/ex_1_55.png","arrowleft","response","ArrowLeft","55","1","true",""
"","","","","","html-keyboard-response","164","207488","0.0-6.0-4.21","610d842e204deeeccfc472d2","6554bfa13ac4b6a0ab00b03a","6554c1099aaa979220faacf4","null","<p> <font color=""green"" size=""4vw""> Correct category! </font> <br> <br> <font color=""green"" size=""7vw""> + $0.05 </font> </p>","null","feedback","","","","","0.7"
"","","","","","html-keyboard-response","165","207909","0.0-6.0-0.22","610d842e204deeeccfc472d2","6554bfa13ac4b6a0ab00b03a","6554c1099aaa979220faacf4","420","
            
        <div style=""text-align: center; position: fixed; top: 5vh; left: 40vw;"">
            <div style=""margin:0 auto; width: 20vw; top: 8vh; font-size: 1vw""> 
            <font color=""green""> Bonus : $0.7 </font>
            </div>
        </div>
    
            <div> Please press any button to continue to the next trial.</div>
        ","arrowleft","ITI","","","","",""
"","","","","","html-keyboard-response","166","208525","0.0-6.0-1.22","610d842e204deeeccfc472d2","6554bfa13ac4b6a0ab00b03a","6554c1099aaa979220faacf4","null","
        
        <div style=""text-align: center; position: fixed; top: 5vh; left: 40vw;"">
            <div style=""margin:0 auto; width: 20vw; top: 8vh; font-size: 1vw""> 
            <font color=""green""> Bonus : $0.7 </font>
            </div>
        </div>
    
        <img class=""stim"" src=./stimuli//pack_shapes/cat_2/ex_2_48.png></img>
    ","null","stimulus","","","","",""
"","","","","","html-keyboard-response","167","209533","0.0-6.0-2.22","610d842e204deeeccfc472d2","6554bfa13ac4b6a0ab00b03a","6554c1099aaa979220faacf4","null","
        <div style=""text-align: center; position: fixed; top: 5vh; left: 40vw;"">
            <div style=""margin:0 auto; width: 20vw; top: 8vh; font-size: 1vw""> 
            <font color=""green""> Bonus : $0.7 </font>
            </div>
        </div>
    ","null","","","","","",""
"","","","","","html-keyboard-response","168","209981","0.0-6.0-3.22","610d842e204deeeccfc472d2","6554bfa13ac4b6a0ab00b03a","6554c1099aaa979220faacf4","447","./stimuli//pack_shapes/cat_2/ex_2_48.png","arrowright","response","ArrowRight","48","2","true",""
"","","","","","html-keyboard-response","169","211488","0.0-6.0-4.22","610d842e204deeeccfc472d2","6554bfa13ac4b6a0ab00b03a","6554c1099aaa979220faacf4","null","<p> <font color=""green"" size=""4vw""> Correct category! </font> <br> <br> <font color=""green"" size=""7vw""> + $0.05 </font> </p>","null","feedback","","","","","0.75"
"","","","","","html-keyboard-response","170","211849","0.0-6.0-0.23","610d842e204deeeccfc472d2","6554bfa13ac4b6a0ab00b03a","6554c1099aaa979220faacf4","360","
            
        <div style=""text-align: center; position: fixed; top: 5vh; left: 40vw;"">
            <div style=""margin:0 auto; width: 20vw; top: 8vh; font-size: 1vw""> 
            <font color=""green""> Bonus : $0.75 </font>
            </div>
        </div>
    
            <div> Please press any button to continue to the next trial.</div>
        ","arrowleft","ITI","","","","",""
"","","","","","html-keyboard-response","171","212464","0.0-6.0-1.23","610d842e204deeeccfc472d2","6554bfa13ac4b6a0ab00b03a","6554c1099aaa979220faacf4","null","
        
        <div style=""text-align: center; position: fixed; top: 5vh; left: 40vw;"">
            <div style=""margin:0 auto; width: 20vw; top: 8vh; font-size: 1vw""> 
            <font color=""green""> Bonus : $0.75 </font>
            </div>
        </div>
    
        <img class=""stim"" src=./stimuli//pack_shapes/cat_2/ex_2_64.png></img>
    ","null","stimulus","","","","",""
"","","","","","html-keyboard-response","172","213474","0.0-6.0-2.23","610d842e204deeeccfc472d2","6554bfa13ac4b6a0ab00b03a","6554c1099aaa979220faacf4","null","
        <div style=""text-align: center; position: fixed; top: 5vh; left: 40vw;"">
            <div style=""margin:0 auto; width: 20vw; top: 8vh; font-size: 1vw""> 
            <font color=""green""> Bonus : $0.75 </font>
            </div>
        </div>
    ","null","","","","","",""
"","","","","","html-keyboard-response","173","213762","0.0-6.0-3.23","610d842e204deeeccfc472d2","6554bfa13ac4b6a0ab00b03a","6554c1099aaa979220faacf4","286","./stimuli//pack_shapes/cat_2/ex_2_64.png","arrowright","response","ArrowRight","64","2","true",""
"","","","","","html-keyboard-response","174","215271","0.0-6.0-4.23","610d842e204deeeccfc472d2","6554bfa13ac4b6a0ab00b03a","6554c1099aaa979220faacf4","null","<p> <font color=""green"" size=""4vw""> Correct category! </font> <br> <br> <font color=""green"" size=""7vw""> + $0.05 </font> </p>","null","feedback","","","","","0.8"
"","","","","","html-keyboard-response","175","215680","0.0-6.0-0.24","610d842e204deeeccfc472d2","6554bfa13ac4b6a0ab00b03a","6554c1099aaa979220faacf4","408","
            
        <div style=""text-align: center; position: fixed; top: 5vh; left: 40vw;"">
            <div style=""margin:0 auto; width: 20vw; top: 8vh; font-size: 1vw""> 
            <font color=""green""> Bonus : $0.8 </font>
            </div>
        </div>
    
            <div> Please press any button to continue to the next trial.</div>
        ","arrowleft","ITI","","","","",""
"","","","","","html-keyboard-response","176","216292","0.0-6.0-1.24","610d842e204deeeccfc472d2","6554bfa13ac4b6a0ab00b03a","6554c1099aaa979220faacf4","null","
        
        <div style=""text-align: center; position: fixed; top: 5vh; left: 40vw;"">
            <div style=""margin:0 auto; width: 20vw; top: 8vh; font-size: 1vw""> 
            <font color=""green""> Bonus : $0.8 </font>
            </div>
        </div>
    
        <img class=""stim"" src=./stimuli//pack_shapes/cat_1/ex_1_66.png></img>
    ","null","stimulus","","","","",""
"","","","","","html-keyboard-response","177","217298","0.0-6.0-2.24","610d842e204deeeccfc472d2","6554bfa13ac4b6a0ab00b03a","6554c1099aaa979220faacf4","null","
        <div style=""text-align: center; position: fixed; top: 5vh; left: 40vw;"">
            <div style=""margin:0 auto; width: 20vw; top: 8vh; font-size: 1vw""> 
            <font color=""green""> Bonus : $0.8 </font>
            </div>
        </div>
    ","null","","","","","",""
"","","","","","html-keyboard-response","178","217643","0.0-6.0-3.24","610d842e204deeeccfc472d2","6554bfa13ac4b6a0ab00b03a","6554c1099aaa979220faacf4","343","./stimuli//pack_shapes/cat_1/ex_1_66.png","arrowleft","response","ArrowLeft","66","1","true",""
"","","","","","html-keyboard-response","179","219146","0.0-6.0-4.24","610d842e204deeeccfc472d2","6554bfa13ac4b6a0ab00b03a","6554c1099aaa979220faacf4","null","<p> <font color=""green"" size=""4vw""> Correct category! </font> <br> <br> <font color=""green"" size=""7vw""> + $0.05 </font> </p>","null","feedback","","","","","0.85"
"","","","","","html-keyboard-response","180","219482","0.0-6.0-0.25","610d842e204deeeccfc472d2","6554bfa13ac4b6a0ab00b03a","6554c1099aaa979220faacf4","335","
            
        <div style=""text-align: center; position: fixed; top: 5vh; left: 40vw;"">
            <div style=""margin:0 auto; width: 20vw; top: 8vh; font-size: 1vw""> 
            <font color=""green""> Bonus : $0.85 </font>
            </div>
        </div>
    
            <div> Please press any button to continue to the next trial.</div>
        ","arrowleft","ITI","","","","",""
"","","","","","html-keyboard-response","181","220091","0.0-6.0-1.25","610d842e204deeeccfc472d2","6554bfa13ac4b6a0ab00b03a","6554c1099aaa979220faacf4","null","
        
        <div style=""text-align: center; position: fixed; top: 5vh; left: 40vw;"">
            <div style=""margin:0 auto; width: 20vw; top: 8vh; font-size: 1vw""> 
            <font color=""green""> Bonus : $0.85 </font>
            </div>
        </div>
    
        <img class=""stim"" src=./stimuli//pack_shapes/cat_1/ex_1_31.png></img>
    ","null","stimulus","","","","",""
"","","","","","html-keyboard-response","182","221096","0.0-6.0-2.25","610d842e204deeeccfc472d2","6554bfa13ac4b6a0ab00b03a","6554c1099aaa979220faacf4","null","
        <div style=""text-align: center; position: fixed; top: 5vh; left: 40vw;"">
            <div style=""margin:0 auto; width: 20vw; top: 8vh; font-size: 1vw""> 
            <font color=""green""> Bonus : $0.85 </font>
            </div>
        </div>
    ","null","","","","","",""
"","","","","","html-keyboard-response","183","221457","0.0-6.0-3.25","610d842e204deeeccfc472d2","6554bfa13ac4b6a0ab00b03a","6554c1099aaa979220faacf4","360","./stimuli//pack_shapes/cat_1/ex_1_31.png","arrowright","response","ArrowLeft","31","1","false",""
"","","","","","html-keyboard-response","184","222960","0.0-6.0-4.25","610d842e204deeeccfc472d2","6554bfa13ac4b6a0ab00b03a","6554c1099aaa979220faacf4","null","<p> <font color=""red"" size=""4vw""> Wrong category! </font> </p>","null","feedback","","","","","0.85"
"","","","","","html-keyboard-response","185","223305","0.0-6.0-0.26","610d842e204deeeccfc472d2","6554bfa13ac4b6a0ab00b03a","6554c1099aaa979220faacf4","344","
            
        <div style=""text-align: center; position: fixed; top: 5vh; left: 40vw;"">
            <div style=""margin:0 auto; width: 20vw; top: 8vh; font-size: 1vw""> 
            <font color=""green""> Bonus : $0.85 </font>
            </div>
        </div>
    
            <div> Please press any button to continue to the next trial.</div>
        ","arrowleft","ITI","","","","",""
"","","","","","html-keyboard-response","186","223919","0.0-6.0-1.26","610d842e204deeeccfc472d2","6554bfa13ac4b6a0ab00b03a","6554c1099aaa979220faacf4","null","
        
        <div style=""text-align: center; position: fixed; top: 5vh; left: 40vw;"">
            <div style=""margin:0 auto; width: 20vw; top: 8vh; font-size: 1vw""> 
            <font color=""green""> Bonus : $0.85 </font>
            </div>
        </div>
    
        <img class=""stim"" src=./stimuli//pack_shapes/cat_1/ex_1_17.png></img>
    ","null","stimulus","","","","",""
"","","","","","html-keyboard-response","187","224928","0.0-6.0-2.26","610d842e204deeeccfc472d2","6554bfa13ac4b6a0ab00b03a","6554c1099aaa979220faacf4","null","
        <div style=""text-align: center; position: fixed; top: 5vh; left: 40vw;"">
            <div style=""margin:0 auto; width: 20vw; top: 8vh; font-size: 1vw""> 
            <font color=""green""> Bonus : $0.85 </font>
            </div>
        </div>
    ","null","","","","","",""
"","","","","","html-keyboard-response","188","225374","0.0-6.0-3.26","610d842e204deeeccfc472d2","6554bfa13ac4b6a0ab00b03a","6554c1099aaa979220faacf4","444","./stimuli//pack_shapes/cat_1/ex_1_17.png","arrowleft","response","ArrowLeft","17","1","true",""
"","","","","","html-keyboard-response","189","226885","0.0-6.0-4.26","610d842e204deeeccfc472d2","6554bfa13ac4b6a0ab00b03a","6554c1099aaa979220faacf4","null","<p> <font color=""green"" size=""4vw""> Correct category! </font> <br> <br> <font color=""green"" size=""7vw""> + $0.05 </font> </p>","null","feedback","","","","","0.9"
"","","","","","html-keyboard-response","190","227294","0.0-6.0-0.27","610d842e204deeeccfc472d2","6554bfa13ac4b6a0ab00b03a","6554c1099aaa979220faacf4","409","
            
        <div style=""text-align: center; position: fixed; top: 5vh; left: 40vw;"">
            <div style=""margin:0 auto; width: 20vw; top: 8vh; font-size: 1vw""> 
            <font color=""green""> Bonus : $0.9 </font>
            </div>
        </div>
    
            <div> Please press any button to continue to the next trial.</div>
        ","arrowleft","ITI","","","","",""
"","","","","","html-keyboard-response","191","227907","0.0-6.0-1.27","610d842e204deeeccfc472d2","6554bfa13ac4b6a0ab00b03a","6554c1099aaa979220faacf4","null","
        
        <div style=""text-align: center; position: fixed; top: 5vh; left: 40vw;"">
            <div style=""margin:0 auto; width: 20vw; top: 8vh; font-size: 1vw""> 
            <font color=""green""> Bonus : $0.9 </font>
            </div>
        </div>
    
        <img class=""stim"" src=./stimuli//pack_shapes/cat_1/ex_1_9.png></img>
    ","null","stimulus","","","","",""
"","","","","","html-keyboard-response","192","228912","0.0-6.0-2.27","610d842e204deeeccfc472d2","6554bfa13ac4b6a0ab00b03a","6554c1099aaa979220faacf4","null","
        <div style=""text-align: center; position: fixed; top: 5vh; left: 40vw;"">
            <div style=""margin:0 auto; width: 20vw; top: 8vh; font-size: 1vw""> 
            <font color=""green""> Bonus : $0.9 </font>
            </div>
        </div>
    ","null","","","","","",""
"","","","","","html-keyboard-response","193","229639","0.0-6.0-3.27","610d842e204deeeccfc472d2","6554bfa13ac4b6a0ab00b03a","6554c1099aaa979220faacf4","724","./stimuli//pack_shapes/cat_1/ex_1_9.png","arrowright","response","ArrowLeft","9","1","false",""
"","","","","","html-keyboard-response","194","231141","0.0-6.0-4.27","610d842e204deeeccfc472d2","6554bfa13ac4b6a0ab00b03a","6554c1099aaa979220faacf4","null","<p> <font color=""red"" size=""4vw""> Wrong category! </font> </p>","null","feedback","","","","","0.9"
"","","","","","html-keyboard-response","195","231573","0.0-6.0-0.28","610d842e204deeeccfc472d2","6554bfa13ac4b6a0ab00b03a","6554c1099aaa979220faacf4","430","
            
        <div style=""text-align: center; position: fixed; top: 5vh; left: 40vw;"">
            <div style=""margin:0 auto; width: 20vw; top: 8vh; font-size: 1vw""> 
            <font color=""green""> Bonus : $0.9 </font>
            </div>
        </div>
    
            <div> Please press any button to continue to the next trial.</div>
        ","arrowleft","ITI","","","","",""
"","","","","","html-keyboard-response","196","232178","0.0-6.0-1.28","610d842e204deeeccfc472d2","6554bfa13ac4b6a0ab00b03a","6554c1099aaa979220faacf4","null","
        
        <div style=""text-align: center; position: fixed; top: 5vh; left: 40vw;"">
            <div style=""margin:0 auto; width: 20vw; top: 8vh; font-size: 1vw""> 
            <font color=""green""> Bonus : $0.9 </font>
            </div>
        </div>
    
        <img class=""stim"" src=./stimuli//pack_shapes/cat_2/ex_2_73.png></img>
    ","null","stimulus","","","","",""
"","","","","","html-keyboard-response","197","233185","0.0-6.0-2.28","610d842e204deeeccfc472d2","6554bfa13ac4b6a0ab00b03a","6554c1099aaa979220faacf4","null","
        <div style=""text-align: center; position: fixed; top: 5vh; left: 40vw;"">
            <div style=""margin:0 auto; width: 20vw; top: 8vh; font-size: 1vw""> 
            <font color=""green""> Bonus : $0.9 </font>
            </div>
        </div>
    ","null","","","","","",""
"","","","","","html-keyboard-response","198","233484","0.0-6.0-3.28","610d842e204deeeccfc472d2","6554bfa13ac4b6a0ab00b03a","6554c1099aaa979220faacf4","297","./stimuli//pack_shapes/cat_2/ex_2_73.png","arrowleft","response","ArrowRight","73","2","false",""
"","","","","","html-keyboard-response","199","234995","0.0-6.0-4.28","610d842e204deeeccfc472d2","6554bfa13ac4b6a0ab00b03a","6554c1099aaa979220faacf4","null","<p> <font color=""red"" size=""4vw""> Wrong category! </font> </p>","null","feedback","","","","","0.9"
"","","","","","html-keyboard-response","200","235360","0.0-6.0-0.29","610d842e204deeeccfc472d2","6554bfa13ac4b6a0ab00b03a","6554c1099aaa979220faacf4","364","
            
        <div style=""text-align: center; position: fixed; top: 5vh; left: 40vw;"">
            <div style=""margin:0 auto; width: 20vw; top: 8vh; font-size: 1vw""> 
            <font color=""green""> Bonus : $0.9 </font>
            </div>
        </div>
    
            <div> Please press any button to continue to the next trial.</div>
        ","arrowleft","ITI","","","","",""
"","","","","","html-keyboard-response","201","235970","0.0-6.0-1.29","610d842e204deeeccfc472d2","6554bfa13ac4b6a0ab00b03a","6554c1099aaa979220faacf4","null","
        
        <div style=""text-align: center; position: fixed; top: 5vh; left: 40vw;"">
            <div style=""margin:0 auto; width: 20vw; top: 8vh; font-size: 1vw""> 
            <font color=""green""> Bonus : $0.9 </font>
            </div>
        </div>
    
        <img class=""stim"" src=./stimuli//pack_shapes/cat_2/ex_2_12.png></img>
    ","null","stimulus","","","","",""
"","","","","","html-keyboard-response","202","236976","0.0-6.0-2.29","610d842e204deeeccfc472d2","6554bfa13ac4b6a0ab00b03a","6554c1099aaa979220faacf4","null","
        <div style=""text-align: center; position: fixed; top: 5vh; left: 40vw;"">
            <div style=""margin:0 auto; width: 20vw; top: 8vh; font-size: 1vw""> 
            <font color=""green""> Bonus : $0.9 </font>
            </div>
        </div>
    ","null","","","","","",""
"","","","","","html-keyboard-response","203","237315","0.0-6.0-3.29","610d842e204deeeccfc472d2","6554bfa13ac4b6a0ab00b03a","6554c1099aaa979220faacf4","336","./stimuli//pack_shapes/cat_2/ex_2_12.png","arrowleft","response","ArrowRight","12","2","false",""
"","","","","","html-keyboard-response","204","238822","0.0-6.0-4.29","610d842e204deeeccfc472d2","6554bfa13ac4b6a0ab00b03a","6554c1099aaa979220faacf4","null","<p> <font color=""red"" size=""4vw""> Wrong category! </font> </p>","null","feedback","","","","","0.9"
"","","","","","html-keyboard-response","205","239315","0.0-6.0-0.30","610d842e204deeeccfc472d2","6554bfa13ac4b6a0ab00b03a","6554c1099aaa979220faacf4","492","
            
        <div style=""text-align: center; position: fixed; top: 5vh; left: 40vw;"">
            <div style=""margin:0 auto; width: 20vw; top: 8vh; font-size: 1vw""> 
            <font color=""green""> Bonus : $0.9 </font>
            </div>
        </div>
    
            <div> Please press any button to continue to the next trial.</div>
        ","arrowleft","ITI","","","","",""
"","","","","","html-keyboard-response","206","239919","0.0-6.0-1.30","610d842e204deeeccfc472d2","6554bfa13ac4b6a0ab00b03a","6554c1099aaa979220faacf4","null","
        
        <div style=""text-align: center; position: fixed; top: 5vh; left: 40vw;"">
            <div style=""margin:0 auto; width: 20vw; top: 8vh; font-size: 1vw""> 
            <font color=""green""> Bonus : $0.9 </font>
            </div>
        </div>
    
        <img class=""stim"" src=./stimuli//pack_shapes/cat_2/ex_2_15.png></img>
    ","null","stimulus","","","","",""
"","","","","","html-keyboard-response","207","240929","0.0-6.0-2.30","610d842e204deeeccfc472d2","6554bfa13ac4b6a0ab00b03a","6554c1099aaa979220faacf4","null","
        <div style=""text-align: center; position: fixed; top: 5vh; left: 40vw;"">
            <div style=""margin:0 auto; width: 20vw; top: 8vh; font-size: 1vw""> 
            <font color=""green""> Bonus : $0.9 </font>
            </div>
        </div>
    ","null","","","","","",""
"","","","","","html-keyboard-response","208","241322","0.0-6.0-3.30","610d842e204deeeccfc472d2","6554bfa13ac4b6a0ab00b03a","6554c1099aaa979220faacf4","392","./stimuli//pack_shapes/cat_2/ex_2_15.png","arrowleft","response","ArrowRight","15","2","false",""
"","","","","","html-keyboard-response","209","242833","0.0-6.0-4.30","610d842e204deeeccfc472d2","6554bfa13ac4b6a0ab00b03a","6554c1099aaa979220faacf4","null","<p> <font color=""red"" size=""4vw""> Wrong category! </font> </p>","null","feedback","","","","","0.9"
"","","","","","html-keyboard-response","210","243198","0.0-6.0-0.31","610d842e204deeeccfc472d2","6554bfa13ac4b6a0ab00b03a","6554c1099aaa979220faacf4","364","
            
        <div style=""text-align: center; position: fixed; top: 5vh; left: 40vw;"">
            <div style=""margin:0 auto; width: 20vw; top: 8vh; font-size: 1vw""> 
            <font color=""green""> Bonus : $0.9 </font>
            </div>
        </div>
    
            <div> Please press any button to continue to the next trial.</div>
        ","arrowleft","ITI","","","","",""
"","","","","","html-keyboard-response","211","243808","0.0-6.0-1.31","610d842e204deeeccfc472d2","6554bfa13ac4b6a0ab00b03a","6554c1099aaa979220faacf4","null","
        
        <div style=""text-align: center; position: fixed; top: 5vh; left: 40vw;"">
            <div style=""margin:0 auto; width: 20vw; top: 8vh; font-size: 1vw""> 
            <font color=""green""> Bonus : $0.9 </font>
            </div>
        </div>
    
        <img class=""stim"" src=./stimuli//pack_shapes/cat_2/ex_2_35.png></img>
    ","null","stimulus","","","","",""
"","","","","","html-keyboard-response","212","244834","0.0-6.0-2.31","610d842e204deeeccfc472d2","6554bfa13ac4b6a0ab00b03a","6554c1099aaa979220faacf4","null","
        <div style=""text-align: center; position: fixed; top: 5vh; left: 40vw;"">
            <div style=""margin:0 auto; width: 20vw; top: 8vh; font-size: 1vw""> 
            <font color=""green""> Bonus : $0.9 </font>
            </div>
        </div>
    ","null","","","","","",""
"","","","","","html-keyboard-response","213","245106","0.0-6.0-3.31","610d842e204deeeccfc472d2","6554bfa13ac4b6a0ab00b03a","6554c1099aaa979220faacf4","271","./stimuli//pack_shapes/cat_2/ex_2_35.png","arrowleft","response","ArrowRight","35","2","false",""
"","","","","","html-keyboard-response","214","246609","0.0-6.0-4.31","610d842e204deeeccfc472d2","6554bfa13ac4b6a0ab00b03a","6554c1099aaa979220faacf4","null","<p> <font color=""red"" size=""4vw""> Wrong category! </font> </p>","null","feedback","","","","","0.9"
"","","","","","html-keyboard-response","215","247011","0.0-6.0-0.32","610d842e204deeeccfc472d2","6554bfa13ac4b6a0ab00b03a","6554c1099aaa979220faacf4","402","
            
        <div style=""text-align: center; position: fixed; top: 5vh; left: 40vw;"">
            <div style=""margin:0 auto; width: 20vw; top: 8vh; font-size: 1vw""> 
            <font color=""green""> Bonus : $0.9 </font>
            </div>
        </div>
    
            <div> Please press any button to continue to the next trial.</div>
        ","arrowleft","ITI","","","","",""
"","","","","","html-keyboard-response","216","247630","0.0-6.0-1.32","610d842e204deeeccfc472d2","6554bfa13ac4b6a0ab00b03a","6554c1099aaa979220faacf4","null","
        
        <div style=""text-align: center; position: fixed; top: 5vh; left: 40vw;"">
            <div style=""margin:0 auto; width: 20vw; top: 8vh; font-size: 1vw""> 
            <font color=""green""> Bonus : $0.9 </font>
            </div>
        </div>
    
        <img class=""stim"" src=./stimuli//pack_shapes/cat_1/ex_1_24.png></img>
    ","null","stimulus","","","","",""
"","","","","","html-keyboard-response","217","248639","0.0-6.0-2.32","610d842e204deeeccfc472d2","6554bfa13ac4b6a0ab00b03a","6554c1099aaa979220faacf4","null","
        <div style=""text-align: center; position: fixed; top: 5vh; left: 40vw;"">
            <div style=""margin:0 auto; width: 20vw; top: 8vh; font-size: 1vw""> 
            <font color=""green""> Bonus : $0.9 </font>
            </div>
        </div>
    ","null","","","","","",""
"","","","","","html-keyboard-response","218","248896","0.0-6.0-3.32","610d842e204deeeccfc472d2","6554bfa13ac4b6a0ab00b03a","6554c1099aaa979220faacf4","255","./stimuli//pack_shapes/cat_1/ex_1_24.png","arrowright","response","ArrowLeft","24","1","false",""
"","","","","","html-keyboard-response","219","250405","0.0-6.0-4.32","610d842e204deeeccfc472d2","6554bfa13ac4b6a0ab00b03a","6554c1099aaa979220faacf4","null","<p> <font color=""red"" size=""4vw""> Wrong category! </font> </p>","null","feedback","","","","","0.9"
"","","","","","html-keyboard-response","220","250726","0.0-6.0-0.33","610d842e204deeeccfc472d2","6554bfa13ac4b6a0ab00b03a","6554c1099aaa979220faacf4","321","
            
        <div style=""text-align: center; position: fixed; top: 5vh; left: 40vw;"">
            <div style=""margin:0 auto; width: 20vw; top: 8vh; font-size: 1vw""> 
            <font color=""green""> Bonus : $0.9 </font>
            </div>
        </div>
    
            <div> Please press any button to continue to the next trial.</div>
        ","arrowleft","ITI","","","","",""
"","","","","","html-keyboard-response","221","251334","0.0-6.0-1.33","610d842e204deeeccfc472d2","6554bfa13ac4b6a0ab00b03a","6554c1099aaa979220faacf4","null","
        
        <div style=""text-align: center; position: fixed; top: 5vh; left: 40vw;"">
            <div style=""margin:0 auto; width: 20vw; top: 8vh; font-size: 1vw""> 
            <font color=""green""> Bonus : $0.9 </font>
            </div>
        </div>
    
        <img class=""stim"" src=./stimuli//pack_shapes/cat_1/ex_1_42.png></img>
    ","null","stimulus","","","","",""
"","","","","","html-keyboard-response","222","252340","0.0-6.0-2.33","610d842e204deeeccfc472d2","6554bfa13ac4b6a0ab00b03a","6554c1099aaa979220faacf4","null","
        <div style=""text-align: center; position: fixed; top: 5vh; left: 40vw;"">
            <div style=""margin:0 auto; width: 20vw; top: 8vh; font-size: 1vw""> 
            <font color=""green""> Bonus : $0.9 </font>
            </div>
        </div>
    ","null","","","","","",""
"","","","","","html-keyboard-response","223","252607","0.0-6.0-3.33","610d842e204deeeccfc472d2","6554bfa13ac4b6a0ab00b03a","6554c1099aaa979220faacf4","265","./stimuli//pack_shapes/cat_1/ex_1_42.png","arrowright","response","ArrowLeft","42","1","false",""
"","","","","","html-keyboard-response","224","254123","0.0-6.0-4.33","610d842e204deeeccfc472d2","6554bfa13ac4b6a0ab00b03a","6554c1099aaa979220faacf4","null","<p> <font color=""red"" size=""4vw""> Wrong category! </font> </p>","null","feedback","","","","","0.9"
"","","","","","html-keyboard-response","225","254442","0.0-6.0-0.34","610d842e204deeeccfc472d2","6554bfa13ac4b6a0ab00b03a","6554c1099aaa979220faacf4","320","
            
        <div style=""text-align: center; position: fixed; top: 5vh; left: 40vw;"">
            <div style=""margin:0 auto; width: 20vw; top: 8vh; font-size: 1vw""> 
            <font color=""green""> Bonus : $0.9 </font>
            </div>
        </div>
    
            <div> Please press any button to continue to the next trial.</div>
        ","arrowleft","ITI","","","","",""
"","","","","","html-keyboard-response","226","255081","0.0-6.0-1.34","610d842e204deeeccfc472d2","6554bfa13ac4b6a0ab00b03a","6554c1099aaa979220faacf4","null","
        
        <div style=""text-align: center; position: fixed; top: 5vh; left: 40vw;"">
            <div style=""margin:0 auto; width: 20vw; top: 8vh; font-size: 1vw""> 
            <font color=""green""> Bonus : $0.9 </font>
            </div>
        </div>
    
        <img class=""stim"" src=./stimuli//pack_shapes/cat_2/ex_2_26.png></img>
    ","null","stimulus","","","","",""
"","","","","","html-keyboard-response","227","256102","0.0-6.0-2.34","610d842e204deeeccfc472d2","6554bfa13ac4b6a0ab00b03a","6554c1099aaa979220faacf4","null","
        <div style=""text-align: center; position: fixed; top: 5vh; left: 40vw;"">
            <div style=""margin:0 auto; width: 20vw; top: 8vh; font-size: 1vw""> 
            <font color=""green""> Bonus : $0.9 </font>
            </div>
        </div>
    ","null","","","","","",""
"","","","","","html-keyboard-response","228","256372","0.0-6.0-3.34","610d842e204deeeccfc472d2","6554bfa13ac4b6a0ab00b03a","6554c1099aaa979220faacf4","267","./stimuli//pack_shapes/cat_2/ex_2_26.png","arrowleft","response","ArrowRight","26","2","false",""
"","","","","","html-keyboard-response","229","257874","0.0-6.0-4.34","610d842e204deeeccfc472d2","6554bfa13ac4b6a0ab00b03a","6554c1099aaa979220faacf4","null","<p> <font color=""red"" size=""4vw""> Wrong category! </font> </p>","null","feedback","","","","","0.9"
"","","","","","html-keyboard-response","230","258305","0.0-6.0-0.35","610d842e204deeeccfc472d2","6554bfa13ac4b6a0ab00b03a","6554c1099aaa979220faacf4","431","
            
        <div style=""text-align: center; position: fixed; top: 5vh; left: 40vw;"">
            <div style=""margin:0 auto; width: 20vw; top: 8vh; font-size: 1vw""> 
            <font color=""green""> Bonus : $0.9 </font>
            </div>
        </div>
    
            <div> Please press any button to continue to the next trial.</div>
        ","arrowleft","ITI","","","","",""
"","","","","","html-keyboard-response","231","258915","0.0-6.0-1.35","610d842e204deeeccfc472d2","6554bfa13ac4b6a0ab00b03a","6554c1099aaa979220faacf4","null","
        
        <div style=""text-align: center; position: fixed; top: 5vh; left: 40vw;"">
            <div style=""margin:0 auto; width: 20vw; top: 8vh; font-size: 1vw""> 
            <font color=""green""> Bonus : $0.9 </font>
            </div>
        </div>
    
        <img class=""stim"" src=./stimuli//pack_shapes/cat_2/ex_2_27.png></img>
    ","null","stimulus","","","","",""
"","","","","","html-keyboard-response","232","259928","0.0-6.0-2.35","610d842e204deeeccfc472d2","6554bfa13ac4b6a0ab00b03a","6554c1099aaa979220faacf4","null","
        <div style=""text-align: center; position: fixed; top: 5vh; left: 40vw;"">
            <div style=""margin:0 auto; width: 20vw; top: 8vh; font-size: 1vw""> 
            <font color=""green""> Bonus : $0.9 </font>
            </div>
        </div>
    ","null","","","","","",""
"","","","","","html-keyboard-response","233","260172","0.0-6.0-3.35","610d842e204deeeccfc472d2","6554bfa13ac4b6a0ab00b03a","6554c1099aaa979220faacf4","242","./stimuli//pack_shapes/cat_2/ex_2_27.png","arrowleft","response","ArrowRight","27","2","false",""
"","","","","","html-keyboard-response","234","261678","0.0-6.0-4.35","610d842e204deeeccfc472d2","6554bfa13ac4b6a0ab00b03a","6554c1099aaa979220faacf4","null","<p> <font color=""red"" size=""4vw""> Wrong category! </font> </p>","null","feedback","","","","","0.9"
"","","","","","html-keyboard-response","235","262091","0.0-6.0-0.36","610d842e204deeeccfc472d2","6554bfa13ac4b6a0ab00b03a","6554c1099aaa979220faacf4","411","
            
        <div style=""text-align: center; position: fixed; top: 5vh; left: 40vw;"">
            <div style=""margin:0 auto; width: 20vw; top: 8vh; font-size: 1vw""> 
            <font color=""green""> Bonus : $0.9 </font>
            </div>
        </div>
    
            <div> Please press any button to continue to the next trial.</div>
        ","arrowleft","ITI","","","","",""
"","","","","","html-keyboard-response","236","262698","0.0-6.0-1.36","610d842e204deeeccfc472d2","6554bfa13ac4b6a0ab00b03a","6554c1099aaa979220faacf4","null","
        
        <div style=""text-align: center; position: fixed; top: 5vh; left: 40vw;"">
            <div style=""margin:0 auto; width: 20vw; top: 8vh; font-size: 1vw""> 
            <font color=""green""> Bonus : $0.9 </font>
            </div>
        </div>
    
        <img class=""stim"" src=./stimuli//pack_shapes/cat_2/ex_2_34.png></img>
    ","null","stimulus","","","","",""
"","","","","","html-keyboard-response","237","263707","0.0-6.0-2.36","610d842e204deeeccfc472d2","6554bfa13ac4b6a0ab00b03a","6554c1099aaa979220faacf4","null","
        <div style=""text-align: center; position: fixed; top: 5vh; left: 40vw;"">
