"success","timeout","failed_images","failed_audio","failed_video","trial_type","trial_index","time_elapsed","internal_node_id","subject_id","study_id","session_id","rt","stimulus","response","task","correct_response","exemplar_ID","category","correct","bonus"
"true","false","[]","[]","[]","preload","0","9","0.0-0.0","60b8ac4b038e47623e85337b","6554bfa13ac4b6a0ab00b03a","6554bffbba88a41843446f20","","","","","","","","",""
"","","","","","html-keyboard-response","1","6386","0.0-1.0","60b8ac4b038e47623e85337b","6554bfa13ac4b6a0ab00b03a","6554bffbba88a41843446f20","6375","Welcome to the Category Learning experiment! Press any key to continue.","enter","welcome","","","","",""
"","","","","","html-keyboard-response","2","49116","0.0-2.0","60b8ac4b038e47623e85337b","6554bfa13ac4b6a0ab00b03a","6554bffbba88a41843446f20","42729","
            <p>You will be shown images of black shapes.  Some are category A, some are category B.
            <br>You will not know in advance which category a specific shape belongs to.</p>
            <p>After you see an image, you will be asked to guess its category <b>(left arrow for category A, right arrow for category B)</b></p>
            <p>After you choose, the screen will show you whether you were correct or not.</p>
            <p><b>You will receive a bonus payment of $0.05 for each correct answer!</b></p>
            <p> So you can increase your bonus by guessing correctly, and by guessing as quickly as possible so you move on to the next image sooner.</p>
            <p>Press any key to continue.</p>
            "," ","introduction_1","","","","",""
"","","","","","html-keyboard-response","3","54809","0.0-3.0","60b8ac4b038e47623e85337b","6554bfa13ac4b6a0ab00b03a","6554bffbba88a41843446f20","5691","
            <p> <b>The first 10 trials are a practice round that will not count towards your bonus payment.</b></p>
            <p> You will be notified when practice finishes and the test begins. </p>
            <p> Press any key to begin the practice round.</p>
            "," ","introduction_2","","","","",""
"","","","","","html-keyboard-response","4","57836","0.0-4.0-0.0","60b8ac4b038e47623e85337b","6554bfa13ac4b6a0ab00b03a","6554bffbba88a41843446f20","3025","
            
        <div style=""text-align: center; position: fixed; top: 5vh; left: 40vw;"">
            <div style=""margin:0 auto; width: 20vw; top: 8vh; font-size: 1vw""> 
            <font color=""green""> Bonus : $0 </font>
            </div>
        </div>
    
            <div> Please press any button to continue to the next trial.</div>
        "," ","ITI","","","","",""
"","","","","","html-keyboard-response","5","58447","0.0-4.0-1.0","60b8ac4b038e47623e85337b","6554bfa13ac4b6a0ab00b03a","6554bffbba88a41843446f20","null","
        
        <div style=""text-align: center; position: fixed; top: 5vh; left: 40vw;"">
            <div style=""margin:0 auto; width: 20vw; top: 8vh; font-size: 1vw""> 
            <font color=""green""> Bonus : $0 </font>
            </div>
        </div>
    
        <img class=""stim"" src=./stimuli//pack_shapes/cat_2/ex_2_49.png></img>
    ","null","stimulus","","","","",""
"","","","","","html-keyboard-response","6","59463","0.0-4.0-2.0","60b8ac4b038e47623e85337b","6554bfa13ac4b6a0ab00b03a","6554bffbba88a41843446f20","null","
        <div style=""text-align: center; position: fixed; top: 5vh; left: 40vw;"">
            <div style=""margin:0 auto; width: 20vw; top: 8vh; font-size: 1vw""> 
            <font color=""green""> Bonus : $0 </font>
            </div>
        </div>
    ","null","","","","","",""
"","","","","","html-keyboard-response","7","63475","0.0-4.0-3.0","60b8ac4b038e47623e85337b","6554bfa13ac4b6a0ab00b03a","6554bffbba88a41843446f20","null","./stimuli//pack_shapes/cat_2/ex_2_49.png","null","response","ArrowRight","49","2","false",""
"","","","","","html-keyboard-response","8","64978","0.0-4.0-4.0","60b8ac4b038e47623e85337b","6554bfa13ac4b6a0ab00b03a","6554bffbba88a41843446f20","null","<p> <font color=""red"" size=""5vw""> Time out! </font> <br> Please try to respond as quickly as possible. </p>","null","feedback","","","","","0"
"","","","","","html-keyboard-response","9","67903","0.0-4.0-0.1","60b8ac4b038e47623e85337b","6554bfa13ac4b6a0ab00b03a","6554bffbba88a41843446f20","2923","
            
        <div style=""text-align: center; position: fixed; top: 5vh; left: 40vw;"">
            <div style=""margin:0 auto; width: 20vw; top: 8vh; font-size: 1vw""> 
            <font color=""green""> Bonus : $0 </font>
            </div>
        </div>
    
            <div> Please press any button to continue to the next trial.</div>
        ","arrowleft","ITI","","","","",""
"","","","","","html-keyboard-response","10","68510","0.0-4.0-1.1","60b8ac4b038e47623e85337b","6554bfa13ac4b6a0ab00b03a","6554bffbba88a41843446f20","null","
        
        <div style=""text-align: center; position: fixed; top: 5vh; left: 40vw;"">
            <div style=""margin:0 auto; width: 20vw; top: 8vh; font-size: 1vw""> 
            <font color=""green""> Bonus : $0 </font>
            </div>
        </div>
    
        <img class=""stim"" src=./stimuli//pack_shapes/cat_2/ex_2_29.png></img>
    ","null","stimulus","","","","",""
"","","","","","html-keyboard-response","11","69526","0.0-4.0-2.1","60b8ac4b038e47623e85337b","6554bfa13ac4b6a0ab00b03a","6554bffbba88a41843446f20","null","
        <div style=""text-align: center; position: fixed; top: 5vh; left: 40vw;"">
            <div style=""margin:0 auto; width: 20vw; top: 8vh; font-size: 1vw""> 
            <font color=""green""> Bonus : $0 </font>
            </div>
        </div>
    ","null","","","","","",""
"","","","","","html-keyboard-response","12","69884","0.0-4.0-3.1","60b8ac4b038e47623e85337b","6554bfa13ac4b6a0ab00b03a","6554bffbba88a41843446f20","356","./stimuli//pack_shapes/cat_2/ex_2_29.png","arrowleft","response","ArrowRight","29","2","false",""
"","","","","","html-keyboard-response","13","71400","0.0-4.0-4.1","60b8ac4b038e47623e85337b","6554bfa13ac4b6a0ab00b03a","6554bffbba88a41843446f20","null","<p> <font color=""red"" size=""4vw""> Wrong category! </font> </p>","null","feedback","","","","","0"
"","","","","","html-keyboard-response","14","73005","0.0-4.0-0.2","60b8ac4b038e47623e85337b","6554bfa13ac4b6a0ab00b03a","6554bffbba88a41843446f20","1604","
            
        <div style=""text-align: center; position: fixed; top: 5vh; left: 40vw;"">
            <div style=""margin:0 auto; width: 20vw; top: 8vh; font-size: 1vw""> 
            <font color=""green""> Bonus : $0 </font>
            </div>
        </div>
    
            <div> Please press any button to continue to the next trial.</div>
        "," ","ITI","","","","",""
"","","","","","html-keyboard-response","15","73620","0.0-4.0-1.2","60b8ac4b038e47623e85337b","6554bfa13ac4b6a0ab00b03a","6554bffbba88a41843446f20","null","
        
        <div style=""text-align: center; position: fixed; top: 5vh; left: 40vw;"">
            <div style=""margin:0 auto; width: 20vw; top: 8vh; font-size: 1vw""> 
            <font color=""green""> Bonus : $0 </font>
            </div>
        </div>
    
        <img class=""stim"" src=./stimuli//pack_shapes/cat_1/ex_1_49.png></img>
    ","null","stimulus","","","","",""
"","","","","","html-keyboard-response","16","74626","0.0-4.0-2.2","60b8ac4b038e47623e85337b","6554bfa13ac4b6a0ab00b03a","6554bffbba88a41843446f20","null","
        <div style=""text-align: center; position: fixed; top: 5vh; left: 40vw;"">
            <div style=""margin:0 auto; width: 20vw; top: 8vh; font-size: 1vw""> 
            <font color=""green""> Bonus : $0 </font>
            </div>
        </div>
    ","null","","","","","",""
"","","","","","html-keyboard-response","17","75360","0.0-4.0-3.2","60b8ac4b038e47623e85337b","6554bfa13ac4b6a0ab00b03a","6554bffbba88a41843446f20","732","./stimuli//pack_shapes/cat_1/ex_1_49.png","arrowright","response","ArrowLeft","49","1","false",""
"","","","","","html-keyboard-response","18","76883","0.0-4.0-4.2","60b8ac4b038e47623e85337b","6554bfa13ac4b6a0ab00b03a","6554bffbba88a41843446f20","null","<p> <font color=""red"" size=""4vw""> Wrong category! </font> </p>","null","feedback","","","","","0"
"","","","","","html-keyboard-response","19","77919","0.0-4.0-0.3","60b8ac4b038e47623e85337b","6554bfa13ac4b6a0ab00b03a","6554bffbba88a41843446f20","1036","
            
        <div style=""text-align: center; position: fixed; top: 5vh; left: 40vw;"">
            <div style=""margin:0 auto; width: 20vw; top: 8vh; font-size: 1vw""> 
            <font color=""green""> Bonus : $0 </font>
            </div>
        </div>
    
            <div> Please press any button to continue to the next trial.</div>
        "," ","ITI","","","","",""
"","","","","","html-keyboard-response","20","78534","0.0-4.0-1.3","60b8ac4b038e47623e85337b","6554bfa13ac4b6a0ab00b03a","6554bffbba88a41843446f20","null","
        
        <div style=""text-align: center; position: fixed; top: 5vh; left: 40vw;"">
            <div style=""margin:0 auto; width: 20vw; top: 8vh; font-size: 1vw""> 
            <font color=""green""> Bonus : $0 </font>
            </div>
        </div>
    
        <img class=""stim"" src=./stimuli//pack_shapes/cat_2/ex_2_8.png></img>
    ","null","stimulus","","","","",""
"","","","","","html-keyboard-response","21","79536","0.0-4.0-2.3","60b8ac4b038e47623e85337b","6554bfa13ac4b6a0ab00b03a","6554bffbba88a41843446f20","null","
        <div style=""text-align: center; position: fixed; top: 5vh; left: 40vw;"">
            <div style=""margin:0 auto; width: 20vw; top: 8vh; font-size: 1vw""> 
            <font color=""green""> Bonus : $0 </font>
            </div>
        </div>
    ","null","","","","","",""
"","","","","","html-keyboard-response","22","80009","0.0-4.0-3.3","60b8ac4b038e47623e85337b","6554bfa13ac4b6a0ab00b03a","6554bffbba88a41843446f20","471","./stimuli//pack_shapes/cat_2/ex_2_8.png","arrowleft","response","ArrowRight","8","2","false",""
"","","","","","html-keyboard-response","23","81525","0.0-4.0-4.3","60b8ac4b038e47623e85337b","6554bfa13ac4b6a0ab00b03a","6554bffbba88a41843446f20","null","<p> <font color=""red"" size=""4vw""> Wrong category! </font> </p>","null","feedback","","","","","0"
"","","","","","html-keyboard-response","24","82666","0.0-4.0-0.4","60b8ac4b038e47623e85337b","6554bfa13ac4b6a0ab00b03a","6554bffbba88a41843446f20","1141","
            
        <div style=""text-align: center; position: fixed; top: 5vh; left: 40vw;"">
            <div style=""margin:0 auto; width: 20vw; top: 8vh; font-size: 1vw""> 
            <font color=""green""> Bonus : $0 </font>
            </div>
        </div>
    
            <div> Please press any button to continue to the next trial.</div>
        "," ","ITI","","","","",""
"","","","","","html-keyboard-response","25","83282","0.0-4.0-1.4","60b8ac4b038e47623e85337b","6554bfa13ac4b6a0ab00b03a","6554bffbba88a41843446f20","null","
        
        <div style=""text-align: center; position: fixed; top: 5vh; left: 40vw;"">
            <div style=""margin:0 auto; width: 20vw; top: 8vh; font-size: 1vw""> 
            <font color=""green""> Bonus : $0 </font>
            </div>
        </div>
    
        <img class=""stim"" src=./stimuli//pack_shapes/cat_1/ex_1_75.png></img>
    ","null","stimulus","","","","",""
"","","","","","html-keyboard-response","26","84283","0.0-4.0-2.4","60b8ac4b038e47623e85337b","6554bfa13ac4b6a0ab00b03a","6554bffbba88a41843446f20","null","
        <div style=""text-align: center; position: fixed; top: 5vh; left: 40vw;"">
            <div style=""margin:0 auto; width: 20vw; top: 8vh; font-size: 1vw""> 
            <font color=""green""> Bonus : $0 </font>
            </div>
        </div>
    ","null","","","","","",""
"","","","","","html-keyboard-response","27","84598","0.0-4.0-3.4","60b8ac4b038e47623e85337b","6554bfa13ac4b6a0ab00b03a","6554bffbba88a41843446f20","314","./stimuli//pack_shapes/cat_1/ex_1_75.png","arrowright","response","ArrowLeft","75","1","false",""
"","","","","","html-keyboard-response","28","86103","0.0-4.0-4.4","60b8ac4b038e47623e85337b","6554bfa13ac4b6a0ab00b03a","6554bffbba88a41843446f20","null","<p> <font color=""red"" size=""4vw""> Wrong category! </font> </p>","null","feedback","","","","","0"
"","","","","","html-keyboard-response","29","86524","0.0-4.0-0.5","60b8ac4b038e47623e85337b","6554bfa13ac4b6a0ab00b03a","6554bffbba88a41843446f20","420","
            
        <div style=""text-align: center; position: fixed; top: 5vh; left: 40vw;"">
            <div style=""margin:0 auto; width: 20vw; top: 8vh; font-size: 1vw""> 
            <font color=""green""> Bonus : $0 </font>
            </div>
        </div>
    
            <div> Please press any button to continue to the next trial.</div>
        "," ","ITI","","","","",""
"","","","","","html-keyboard-response","30","87127","0.0-4.0-1.5","60b8ac4b038e47623e85337b","6554bfa13ac4b6a0ab00b03a","6554bffbba88a41843446f20","null","
        
        <div style=""text-align: center; position: fixed; top: 5vh; left: 40vw;"">
            <div style=""margin:0 auto; width: 20vw; top: 8vh; font-size: 1vw""> 
            <font color=""green""> Bonus : $0 </font>
            </div>
        </div>
    
        <img class=""stim"" src=./stimuli//pack_shapes/cat_1/ex_1_3.png></img>
    ","null","stimulus","","","","",""
"","","","","","html-keyboard-response","31","88143","0.0-4.0-2.5","60b8ac4b038e47623e85337b","6554bfa13ac4b6a0ab00b03a","6554bffbba88a41843446f20","null","
        <div style=""text-align: center; position: fixed; top: 5vh; left: 40vw;"">
            <div style=""margin:0 auto; width: 20vw; top: 8vh; font-size: 1vw""> 
            <font color=""green""> Bonus : $0 </font>
            </div>
        </div>
    ","null","","","","","",""
"","","","","","html-keyboard-response","32","89610","0.0-4.0-3.5","60b8ac4b038e47623e85337b","6554bfa13ac4b6a0ab00b03a","6554bffbba88a41843446f20","1466","./stimuli//pack_shapes/cat_1/ex_1_3.png","arrowleft","response","ArrowLeft","3","1","true",""
"","","","","","html-keyboard-response","33","91133","0.0-4.0-4.5","60b8ac4b038e47623e85337b","6554bfa13ac4b6a0ab00b03a","6554bffbba88a41843446f20","null","<p> <font color=""green"" size=""4vw""> Correct category! </font> </p>","null","feedback","","","","","0"
"","","","","","html-keyboard-response","34","91750","0.0-4.0-0.6","60b8ac4b038e47623e85337b","6554bfa13ac4b6a0ab00b03a","6554bffbba88a41843446f20","616","
            
        <div style=""text-align: center; position: fixed; top: 5vh; left: 40vw;"">
            <div style=""margin:0 auto; width: 20vw; top: 8vh; font-size: 1vw""> 
            <font color=""green""> Bonus : $0 </font>
            </div>
        </div>
    
            <div> Please press any button to continue to the next trial.</div>
        ","control","ITI","","","","",""
"","","","","","html-keyboard-response","35","92368","0.0-4.0-1.6","60b8ac4b038e47623e85337b","6554bfa13ac4b6a0ab00b03a","6554bffbba88a41843446f20","null","
        
        <div style=""text-align: center; position: fixed; top: 5vh; left: 40vw;"">
            <div style=""margin:0 auto; width: 20vw; top: 8vh; font-size: 1vw""> 
            <font color=""green""> Bonus : $0 </font>
            </div>
        </div>
    
        <img class=""stim"" src=./stimuli//pack_shapes/cat_2/ex_2_80.png></img>
    ","null","stimulus","","","","",""
"","","","","","html-keyboard-response","36","93370","0.0-4.0-2.6","60b8ac4b038e47623e85337b","6554bfa13ac4b6a0ab00b03a","6554bffbba88a41843446f20","null","
        <div style=""text-align: center; position: fixed; top: 5vh; left: 40vw;"">
            <div style=""margin:0 auto; width: 20vw; top: 8vh; font-size: 1vw""> 
            <font color=""green""> Bonus : $0 </font>
            </div>
        </div>
    ","null","","","","","",""
"","","","","","html-keyboard-response","37","93747","0.0-4.0-3.6","60b8ac4b038e47623e85337b","6554bfa13ac4b6a0ab00b03a","6554bffbba88a41843446f20","376","./stimuli//pack_shapes/cat_2/ex_2_80.png","arrowleft","response","ArrowRight","80","2","false",""
"","","","","","html-keyboard-response","38","95256","0.0-4.0-4.6","60b8ac4b038e47623e85337b","6554bfa13ac4b6a0ab00b03a","6554bffbba88a41843446f20","null","<p> <font color=""red"" size=""4vw""> Wrong category! </font> </p>","null","feedback","","","","","0"
"","","","","","html-keyboard-response","39","96603","0.0-4.0-0.7","60b8ac4b038e47623e85337b","6554bfa13ac4b6a0ab00b03a","6554bffbba88a41843446f20","1346","
            
        <div style=""text-align: center; position: fixed; top: 5vh; left: 40vw;"">
            <div style=""margin:0 auto; width: 20vw; top: 8vh; font-size: 1vw""> 
            <font color=""green""> Bonus : $0 </font>
            </div>
        </div>
    
            <div> Please press any button to continue to the next trial.</div>
        "," ","ITI","","","","",""
"","","","","","html-keyboard-response","40","97208","0.0-4.0-1.7","60b8ac4b038e47623e85337b","6554bfa13ac4b6a0ab00b03a","6554bffbba88a41843446f20","null","
        
        <div style=""text-align: center; position: fixed; top: 5vh; left: 40vw;"">
            <div style=""margin:0 auto; width: 20vw; top: 8vh; font-size: 1vw""> 
            <font color=""green""> Bonus : $0 </font>
            </div>
        </div>
    
        <img class=""stim"" src=./stimuli//pack_shapes/cat_1/ex_1_39.png></img>
    ","null","stimulus","","","","",""
"","","","","","html-keyboard-response","41","98210","0.0-4.0-2.7","60b8ac4b038e47623e85337b","6554bfa13ac4b6a0ab00b03a","6554bffbba88a41843446f20","null","
        <div style=""text-align: center; position: fixed; top: 5vh; left: 40vw;"">
            <div style=""margin:0 auto; width: 20vw; top: 8vh; font-size: 1vw""> 
            <font color=""green""> Bonus : $0 </font>
            </div>
        </div>
    ","null","","","","","",""
"","","","","","html-keyboard-response","42","99663","0.0-4.0-3.7","60b8ac4b038e47623e85337b","6554bfa13ac4b6a0ab00b03a","6554bffbba88a41843446f20","1451","./stimuli//pack_shapes/cat_1/ex_1_39.png","arrowleft","response","ArrowLeft","39","1","true",""
"","","","","","html-keyboard-response","43","101171","0.0-4.0-4.7","60b8ac4b038e47623e85337b","6554bfa13ac4b6a0ab00b03a","6554bffbba88a41843446f20","null","<p> <font color=""green"" size=""4vw""> Correct category! </font> </p>","null","feedback","","","","","0"
"","","","","","html-keyboard-response","44","101646","0.0-4.0-0.8","60b8ac4b038e47623e85337b","6554bfa13ac4b6a0ab00b03a","6554bffbba88a41843446f20","474","
            
        <div style=""text-align: center; position: fixed; top: 5vh; left: 40vw;"">
            <div style=""margin:0 auto; width: 20vw; top: 8vh; font-size: 1vw""> 
            <font color=""green""> Bonus : $0 </font>
            </div>
        </div>
    
            <div> Please press any button to continue to the next trial.</div>
        "," ","ITI","","","","",""
"","","","","","html-keyboard-response","45","102257","0.0-4.0-1.8","60b8ac4b038e47623e85337b","6554bfa13ac4b6a0ab00b03a","6554bffbba88a41843446f20","null","
        
        <div style=""text-align: center; position: fixed; top: 5vh; left: 40vw;"">
            <div style=""margin:0 auto; width: 20vw; top: 8vh; font-size: 1vw""> 
            <font color=""green""> Bonus : $0 </font>
            </div>
        </div>
    
        <img class=""stim"" src=./stimuli//pack_shapes/cat_2/ex_2_39.png></img>
    ","null","stimulus","","","","",""
"","","","","","html-keyboard-response","46","103259","0.0-4.0-2.8","60b8ac4b038e47623e85337b","6554bfa13ac4b6a0ab00b03a","6554bffbba88a41843446f20","null","
        <div style=""text-align: center; position: fixed; top: 5vh; left: 40vw;"">
            <div style=""margin:0 auto; width: 20vw; top: 8vh; font-size: 1vw""> 
            <font color=""green""> Bonus : $0 </font>
            </div>
        </div>
    ","null","","","","","",""
"","","","","","html-keyboard-response","47","103652","0.0-4.0-3.8","60b8ac4b038e47623e85337b","6554bfa13ac4b6a0ab00b03a","6554bffbba88a41843446f20","391","./stimuli//pack_shapes/cat_2/ex_2_39.png","arrowleft","response","ArrowRight","39","2","false",""
"","","","","","html-keyboard-response","48","103771","0.0-4.0-4.8","60b8ac4b038e47623e85337b","6554bfa13ac4b6a0ab00b03a","6554bffbba88a41843446f20","118","<p> <font color=""red"" size=""4vw""> Wrong category! </font> </p>","arrowright","feedback","","","","","0"
"","","","","","html-keyboard-response","49","105600","0.0-4.0-0.9","60b8ac4b038e47623e85337b","6554bfa13ac4b6a0ab00b03a","6554bffbba88a41843446f20","1828","
            
        <div style=""text-align: center; position: fixed; top: 5vh; left: 40vw;"">
            <div style=""margin:0 auto; width: 20vw; top: 8vh; font-size: 1vw""> 
            <font color=""green""> Bonus : $0 </font>
            </div>
        </div>
    
            <div> Please press any button to continue to the next trial.</div>
        "," ","ITI","","","","",""
"","","","","","html-keyboard-response","50","106211","0.0-4.0-1.9","60b8ac4b038e47623e85337b","6554bfa13ac4b6a0ab00b03a","6554bffbba88a41843446f20","null","
        
        <div style=""text-align: center; position: fixed; top: 5vh; left: 40vw;"">
            <div style=""margin:0 auto; width: 20vw; top: 8vh; font-size: 1vw""> 
            <font color=""green""> Bonus : $0 </font>
            </div>
        </div>
    
        <img class=""stim"" src=./stimuli//pack_shapes/cat_1/ex_1_29.png></img>
    ","null","stimulus","","","","",""
"","","","","","html-keyboard-response","51","107215","0.0-4.0-2.9","60b8ac4b038e47623e85337b","6554bfa13ac4b6a0ab00b03a","6554bffbba88a41843446f20","null","
        <div style=""text-align: center; position: fixed; top: 5vh; left: 40vw;"">
            <div style=""margin:0 auto; width: 20vw; top: 8vh; font-size: 1vw""> 
            <font color=""green""> Bonus : $0 </font>
            </div>
        </div>
    ","null","","","","","",""
"","","","","","html-keyboard-response","52","107853","0.0-4.0-3.9","60b8ac4b038e47623e85337b","6554bfa13ac4b6a0ab00b03a","6554bffbba88a41843446f20","646","./stimuli//pack_shapes/cat_1/ex_1_29.png","arrowleft","response","ArrowLeft","29","1","true",""
"","","","","","html-keyboard-response","53","109363","0.0-4.0-4.9","60b8ac4b038e47623e85337b","6554bfa13ac4b6a0ab00b03a","6554bffbba88a41843446f20","null","<p> <font color=""green"" size=""4vw""> Correct category! </font> </p>","null","feedback","","","","","0"
"","","","","","html-keyboard-response","54","113117","0.0-5.0","60b8ac4b038e47623e85337b","6554bfa13ac4b6a0ab00b03a","6554bffbba88a41843446f20","3754","
            <b> <p> The practice round has finished.</p>
            <b> For the rest of the experiment you will receive a $0.05 bonus for each correct answer!</b>
            <p> Press any key to begin the test. </p>
            "," ","intermission","","","","",""
"","","","","","html-keyboard-response","55","114527","0.0-6.0-0.0","60b8ac4b038e47623e85337b","6554bfa13ac4b6a0ab00b03a","6554bffbba88a41843446f20","1408","
            
        <div style=""text-align: center; position: fixed; top: 5vh; left: 40vw;"">
            <div style=""margin:0 auto; width: 20vw; top: 8vh; font-size: 1vw""> 
            <font color=""green""> Bonus : $0 </font>
            </div>
        </div>
    
            <div> Please press any button to continue to the next trial.</div>
        "," ","ITI","","","","",""
"","","","","","html-keyboard-response","56","115132","0.0-6.0-1.0","60b8ac4b038e47623e85337b","6554bfa13ac4b6a0ab00b03a","6554bffbba88a41843446f20","null","
        
        <div style=""text-align: center; position: fixed; top: 5vh; left: 40vw;"">
            <div style=""margin:0 auto; width: 20vw; top: 8vh; font-size: 1vw""> 
            <font color=""green""> Bonus : $0 </font>
            </div>
        </div>
    
        <img class=""stim"" src=./stimuli//pack_shapes/cat_2/ex_2_38.png></img>
    ","null","stimulus","","","","",""
"","","","","","html-keyboard-response","57","116134","0.0-6.0-2.0","60b8ac4b038e47623e85337b","6554bfa13ac4b6a0ab00b03a","6554bffbba88a41843446f20","null","
        <div style=""text-align: center; position: fixed; top: 5vh; left: 40vw;"">
            <div style=""margin:0 auto; width: 20vw; top: 8vh; font-size: 1vw""> 
            <font color=""green""> Bonus : $0 </font>
            </div>
        </div>
    ","null","","","","","",""
"","","","","","html-keyboard-response","58","117312","0.0-6.0-3.0","60b8ac4b038e47623e85337b","6554bfa13ac4b6a0ab00b03a","6554bffbba88a41843446f20","1176","./stimuli//pack_shapes/cat_2/ex_2_38.png","arrowright","response","ArrowRight","38","2","true",""
"","","","","","html-keyboard-response","59","118825","0.0-6.0-4.0","60b8ac4b038e47623e85337b","6554bfa13ac4b6a0ab00b03a","6554bffbba88a41843446f20","null","<p> <font color=""green"" size=""4vw""> Correct category! </font> <br> <br> <font color=""green"" size=""7vw""> + $0.05 </font> </p>","null","feedback","","","","","0.05"
"","","","","","html-keyboard-response","60","120095","0.0-6.0-0.1","60b8ac4b038e47623e85337b","6554bfa13ac4b6a0ab00b03a","6554bffbba88a41843446f20","1269","
            
        <div style=""text-align: center; position: fixed; top: 5vh; left: 40vw;"">
            <div style=""margin:0 auto; width: 20vw; top: 8vh; font-size: 1vw""> 
            <font color=""green""> Bonus : $0.05 </font>
            </div>
        </div>
    
            <div> Please press any button to continue to the next trial.</div>
        "," ","ITI","","","","",""
"","","","","","html-keyboard-response","61","120697","0.0-6.0-1.1","60b8ac4b038e47623e85337b","6554bfa13ac4b6a0ab00b03a","6554bffbba88a41843446f20","null","
        
        <div style=""text-align: center; position: fixed; top: 5vh; left: 40vw;"">
            <div style=""margin:0 auto; width: 20vw; top: 8vh; font-size: 1vw""> 
            <font color=""green""> Bonus : $0.05 </font>
            </div>
        </div>
    
        <img class=""stim"" src=./stimuli//pack_shapes/cat_1/ex_1_54.png></img>
    ","null","stimulus","","","","",""
"","","","","","html-keyboard-response","62","121698","0.0-6.0-2.1","60b8ac4b038e47623e85337b","6554bfa13ac4b6a0ab00b03a","6554bffbba88a41843446f20","null","
        <div style=""text-align: center; position: fixed; top: 5vh; left: 40vw;"">
            <div style=""margin:0 auto; width: 20vw; top: 8vh; font-size: 1vw""> 
            <font color=""green""> Bonus : $0.05 </font>
            </div>
        </div>
    ","null","","","","","",""
"","","","","","html-keyboard-response","63","122507","0.0-6.0-3.1","60b8ac4b038e47623e85337b","6554bfa13ac4b6a0ab00b03a","6554bffbba88a41843446f20","806","./stimuli//pack_shapes/cat_1/ex_1_54.png","arrowleft","response","ArrowLeft","54","1","true",""
"","","","","","html-keyboard-response","64","124016","0.0-6.0-4.1","60b8ac4b038e47623e85337b","6554bfa13ac4b6a0ab00b03a","6554bffbba88a41843446f20","null","<p> <font color=""green"" size=""4vw""> Correct category! </font> <br> <br> <font color=""green"" size=""7vw""> + $0.05 </font> </p>","null","feedback","","","","","0.1"
"","","","","","html-keyboard-response","65","124542","0.0-6.0-0.2","60b8ac4b038e47623e85337b","6554bfa13ac4b6a0ab00b03a","6554bffbba88a41843446f20","524","
            
        <div style=""text-align: center; position: fixed; top: 5vh; left: 40vw;"">
            <div style=""margin:0 auto; width: 20vw; top: 8vh; font-size: 1vw""> 
            <font color=""green""> Bonus : $0.1 </font>
            </div>
        </div>
    
            <div> Please press any button to continue to the next trial.</div>
        "," ","ITI","","","","",""
"","","","","","html-keyboard-response","66","125150","0.0-6.0-1.2","60b8ac4b038e47623e85337b","6554bfa13ac4b6a0ab00b03a","6554bffbba88a41843446f20","null","
        
        <div style=""text-align: center; position: fixed; top: 5vh; left: 40vw;"">
            <div style=""margin:0 auto; width: 20vw; top: 8vh; font-size: 1vw""> 
            <font color=""green""> Bonus : $0.1 </font>
            </div>
        </div>
    
        <img class=""stim"" src=./stimuli//pack_shapes/cat_2/ex_2_13.png></img>
    ","null","stimulus","","","","",""
"","","","","","html-keyboard-response","67","126158","0.0-6.0-2.2","60b8ac4b038e47623e85337b","6554bfa13ac4b6a0ab00b03a","6554bffbba88a41843446f20","null","
        <div style=""text-align: center; position: fixed; top: 5vh; left: 40vw;"">
            <div style=""margin:0 auto; width: 20vw; top: 8vh; font-size: 1vw""> 
            <font color=""green""> Bonus : $0.1 </font>
            </div>
        </div>
    ","null","","","","","",""
"","","","","","html-keyboard-response","68","126763","0.0-6.0-3.2","60b8ac4b038e47623e85337b","6554bfa13ac4b6a0ab00b03a","6554bffbba88a41843446f20","603","./stimuli//pack_shapes/cat_2/ex_2_13.png","arrowright","response","ArrowRight","13","2","true",""
"","","","","","html-keyboard-response","69","128224","0.0-6.0-4.2","60b8ac4b038e47623e85337b","6554bfa13ac4b6a0ab00b03a","6554bffbba88a41843446f20","1460","<p> <font color=""green"" size=""4vw""> Correct category! </font> <br> <br> <font color=""green"" size=""7vw""> + $0.05 </font> </p>"," ","feedback","","","","","0.15"
"","","","","","html-keyboard-response","70","130454","0.0-6.0-0.3","60b8ac4b038e47623e85337b","6554bfa13ac4b6a0ab00b03a","6554bffbba88a41843446f20","2229","
            
        <div style=""text-align: center; position: fixed; top: 5vh; left: 40vw;"">
            <div style=""margin:0 auto; width: 20vw; top: 8vh; font-size: 1vw""> 
            <font color=""green""> Bonus : $0.15 </font>
            </div>
        </div>
    
            <div> Please press any button to continue to the next trial.</div>
        "," ","ITI","","","","",""
"","","","","","html-keyboard-response","71","131060","0.0-6.0-1.3","60b8ac4b038e47623e85337b","6554bfa13ac4b6a0ab00b03a","6554bffbba88a41843446f20","null","
        
        <div style=""text-align: center; position: fixed; top: 5vh; left: 40vw;"">
            <div style=""margin:0 auto; width: 20vw; top: 8vh; font-size: 1vw""> 
            <font color=""green""> Bonus : $0.15 </font>
            </div>
        </div>
    
        <img class=""stim"" src=./stimuli//pack_shapes/cat_2/ex_2_57.png></img>
    ","null","stimulus","","","","",""
"","","","","","html-keyboard-response","72","132063","0.0-6.0-2.3","60b8ac4b038e47623e85337b","6554bfa13ac4b6a0ab00b03a","6554bffbba88a41843446f20","null","
        <div style=""text-align: center; position: fixed; top: 5vh; left: 40vw;"">
            <div style=""margin:0 auto; width: 20vw; top: 8vh; font-size: 1vw""> 
            <font color=""green""> Bonus : $0.15 </font>
            </div>
        </div>
    ","null","","","","","",""
"","","","","","html-keyboard-response","73","132966","0.0-6.0-3.3","60b8ac4b038e47623e85337b","6554bfa13ac4b6a0ab00b03a","6554bffbba88a41843446f20","903","./stimuli//pack_shapes/cat_2/ex_2_57.png","arrowright","response","ArrowRight","57","2","true",""
"","","","","","html-keyboard-response","74","134134","0.0-6.0-4.3","60b8ac4b038e47623e85337b","6554bfa13ac4b6a0ab00b03a","6554bffbba88a41843446f20","1168","<p> <font color=""green"" size=""4vw""> Correct category! </font> <br> <br> <font color=""green"" size=""7vw""> + $0.05 </font> </p>"," ","feedback","","","","","0.2"
"","","","","","html-keyboard-response","75","135290","0.0-6.0-0.4","60b8ac4b038e47623e85337b","6554bfa13ac4b6a0ab00b03a","6554bffbba88a41843446f20","1155","
            
        <div style=""text-align: center; position: fixed; top: 5vh; left: 40vw;"">
            <div style=""margin:0 auto; width: 20vw; top: 8vh; font-size: 1vw""> 
            <font color=""green""> Bonus : $0.2 </font>
            </div>
        </div>
    
            <div> Please press any button to continue to the next trial.</div>
        "," ","ITI","","","","",""
"","","","","","html-keyboard-response","76","135911","0.0-6.0-1.4","60b8ac4b038e47623e85337b","6554bfa13ac4b6a0ab00b03a","6554bffbba88a41843446f20","null","
        
        <div style=""text-align: center; position: fixed; top: 5vh; left: 40vw;"">
            <div style=""margin:0 auto; width: 20vw; top: 8vh; font-size: 1vw""> 
            <font color=""green""> Bonus : $0.2 </font>
            </div>
        </div>
    
        <img class=""stim"" src=./stimuli//pack_shapes/cat_1/ex_1_47.png></img>
    ","null","stimulus","","","","",""
"","","","","","html-keyboard-response","77","136913","0.0-6.0-2.4","60b8ac4b038e47623e85337b","6554bfa13ac4b6a0ab00b03a","6554bffbba88a41843446f20","null","
        <div style=""text-align: center; position: fixed; top: 5vh; left: 40vw;"">
            <div style=""margin:0 auto; width: 20vw; top: 8vh; font-size: 1vw""> 
            <font color=""green""> Bonus : $0.2 </font>
            </div>
        </div>
    ","null","","","","","",""
"","","","","","html-keyboard-response","78","137373","0.0-6.0-3.4","60b8ac4b038e47623e85337b","6554bfa13ac4b6a0ab00b03a","6554bffbba88a41843446f20","458","./stimuli//pack_shapes/cat_1/ex_1_47.png","arrowleft","response","ArrowLeft","47","1","true",""
"","","","","","html-keyboard-response","79","138876","0.0-6.0-4.4","60b8ac4b038e47623e85337b","6554bfa13ac4b6a0ab00b03a","6554bffbba88a41843446f20","null","<p> <font color=""green"" size=""4vw""> Correct category! </font> <br> <br> <font color=""green"" size=""7vw""> + $0.05 </font> </p>","null","feedback","","","","","0.25"
"","","","","","html-keyboard-response","80","139409","0.0-6.0-0.5","60b8ac4b038e47623e85337b","6554bfa13ac4b6a0ab00b03a","6554bffbba88a41843446f20","533","
            
        <div style=""text-align: center; position: fixed; top: 5vh; left: 40vw;"">
            <div style=""margin:0 auto; width: 20vw; top: 8vh; font-size: 1vw""> 
            <font color=""green""> Bonus : $0.25 </font>
            </div>
        </div>
    
            <div> Please press any button to continue to the next trial.</div>
        "," ","ITI","","","","",""
"","","","","","html-keyboard-response","81","140015","0.0-6.0-1.5","60b8ac4b038e47623e85337b","6554bfa13ac4b6a0ab00b03a","6554bffbba88a41843446f20","null","
        
        <div style=""text-align: center; position: fixed; top: 5vh; left: 40vw;"">
            <div style=""margin:0 auto; width: 20vw; top: 8vh; font-size: 1vw""> 
            <font color=""green""> Bonus : $0.25 </font>
            </div>
        </div>
    
        <img class=""stim"" src=./stimuli//pack_shapes/cat_1/ex_1_2.png></img>
    ","null","stimulus","","","","",""
"","","","","","html-keyboard-response","82","141017","0.0-6.0-2.5","60b8ac4b038e47623e85337b","6554bfa13ac4b6a0ab00b03a","6554bffbba88a41843446f20","null","
        <div style=""text-align: center; position: fixed; top: 5vh; left: 40vw;"">
            <div style=""margin:0 auto; width: 20vw; top: 8vh; font-size: 1vw""> 
            <font color=""green""> Bonus : $0.25 </font>
            </div>
        </div>
    ","null","","","","","",""
"","","","","","html-keyboard-response","83","141650","0.0-6.0-3.5","60b8ac4b038e47623e85337b","6554bfa13ac4b6a0ab00b03a","6554bffbba88a41843446f20","631","./stimuli//pack_shapes/cat_1/ex_1_2.png","arrowleft","response","ArrowLeft","2","1","true",""
"","","","","","html-keyboard-response","84","143154","0.0-6.0-4.5","60b8ac4b038e47623e85337b","6554bfa13ac4b6a0ab00b03a","6554bffbba88a41843446f20","null","<p> <font color=""green"" size=""4vw""> Correct category! </font> <br> <br> <font color=""green"" size=""7vw""> + $0.05 </font> </p>","null","feedback","","","","","0.3"
"","","","","","html-keyboard-response","85","143848","0.0-6.0-0.6","60b8ac4b038e47623e85337b","6554bfa13ac4b6a0ab00b03a","6554bffbba88a41843446f20","693","
            
        <div style=""text-align: center; position: fixed; top: 5vh; left: 40vw;"">
            <div style=""margin:0 auto; width: 20vw; top: 8vh; font-size: 1vw""> 
            <font color=""green""> Bonus : $0.3 </font>
            </div>
        </div>
    
            <div> Please press any button to continue to the next trial.</div>
        "," ","ITI","","","","",""
"","","","","","html-keyboard-response","86","144456","0.0-6.0-1.6","60b8ac4b038e47623e85337b","6554bfa13ac4b6a0ab00b03a","6554bffbba88a41843446f20","null","
        
        <div style=""text-align: center; position: fixed; top: 5vh; left: 40vw;"">
            <div style=""margin:0 auto; width: 20vw; top: 8vh; font-size: 1vw""> 
            <font color=""green""> Bonus : $0.3 </font>
            </div>
        </div>
    
        <img class=""stim"" src=./stimuli//pack_shapes/cat_1/ex_1_45.png></img>
    ","null","stimulus","","","","",""
"","","","","","html-keyboard-response","87","145458","0.0-6.0-2.6","60b8ac4b038e47623e85337b","6554bfa13ac4b6a0ab00b03a","6554bffbba88a41843446f20","null","
        <div style=""text-align: center; position: fixed; top: 5vh; left: 40vw;"">
            <div style=""margin:0 auto; width: 20vw; top: 8vh; font-size: 1vw""> 
            <font color=""green""> Bonus : $0.3 </font>
            </div>
        </div>
    ","null","","","","","",""
"","","","","","html-keyboard-response","88","145836","0.0-6.0-3.6","60b8ac4b038e47623e85337b","6554bfa13ac4b6a0ab00b03a","6554bffbba88a41843446f20","375","./stimuli//pack_shapes/cat_1/ex_1_45.png","arrowleft","response","ArrowLeft","45","1","true",""
"","","","","","html-keyboard-response","89","147347","0.0-6.0-4.6","60b8ac4b038e47623e85337b","6554bfa13ac4b6a0ab00b03a","6554bffbba88a41843446f20","null","<p> <font color=""green"" size=""4vw""> Correct category! </font> <br> <br> <font color=""green"" size=""7vw""> + $0.05 </font> </p>","null","feedback","","","","","0.35"
"","","","","","html-keyboard-response","90","150545","0.0-6.0-0.7","60b8ac4b038e47623e85337b","6554bfa13ac4b6a0ab00b03a","6554bffbba88a41843446f20","3197","
            
        <div style=""text-align: center; position: fixed; top: 5vh; left: 40vw;"">
            <div style=""margin:0 auto; width: 20vw; top: 8vh; font-size: 1vw""> 
            <font color=""green""> Bonus : $0.35 </font>
            </div>
        </div>
    
            <div> Please press any button to continue to the next trial.</div>
        "," ","ITI","","","","",""
"","","","","","html-keyboard-response","91","151156","0.0-6.0-1.7","60b8ac4b038e47623e85337b","6554bfa13ac4b6a0ab00b03a","6554bffbba88a41843446f20","null","
        
        <div style=""text-align: center; position: fixed; top: 5vh; left: 40vw;"">
            <div style=""margin:0 auto; width: 20vw; top: 8vh; font-size: 1vw""> 
            <font color=""green""> Bonus : $0.35 </font>
            </div>
        </div>
    
        <img class=""stim"" src=./stimuli//pack_shapes/cat_1/ex_1_56.png></img>
    ","null","stimulus","","","","",""
"","","","","","html-keyboard-response","92","152158","0.0-6.0-2.7","60b8ac4b038e47623e85337b","6554bfa13ac4b6a0ab00b03a","6554bffbba88a41843446f20","null","
        <div style=""text-align: center; position: fixed; top: 5vh; left: 40vw;"">
            <div style=""margin:0 auto; width: 20vw; top: 8vh; font-size: 1vw""> 
            <font color=""green""> Bonus : $0.35 </font>
            </div>
        </div>
    ","null","","","","","",""
"","","","","","html-keyboard-response","93","152472","0.0-6.0-3.7","60b8ac4b038e47623e85337b","6554bfa13ac4b6a0ab00b03a","6554bffbba88a41843446f20","312","./stimuli//pack_shapes/cat_1/ex_1_56.png","arrowleft","response","ArrowLeft","56","1","true",""
"","","","","","html-keyboard-response","94","153977","0.0-6.0-4.7","60b8ac4b038e47623e85337b","6554bfa13ac4b6a0ab00b03a","6554bffbba88a41843446f20","null","<p> <font color=""green"" size=""4vw""> Correct category! </font> <br> <br> <font color=""green"" size=""7vw""> + $0.05 </font> </p>","null","feedback","","","","","0.4"
"","","","","","html-keyboard-response","95","154322","0.0-6.0-0.8","60b8ac4b038e47623e85337b","6554bfa13ac4b6a0ab00b03a","6554bffbba88a41843446f20","344","
            
        <div style=""text-align: center; position: fixed; top: 5vh; left: 40vw;"">
            <div style=""margin:0 auto; width: 20vw; top: 8vh; font-size: 1vw""> 
            <font color=""green""> Bonus : $0.4 </font>
            </div>
        </div>
    
            <div> Please press any button to continue to the next trial.</div>
        "," ","ITI","","","","",""
"","","","","","html-keyboard-response","96","154946","0.0-6.0-1.8","60b8ac4b038e47623e85337b","6554bfa13ac4b6a0ab00b03a","6554bffbba88a41843446f20","null","
        
        <div style=""text-align: center; position: fixed; top: 5vh; left: 40vw;"">
            <div style=""margin:0 auto; width: 20vw; top: 8vh; font-size: 1vw""> 
            <font color=""green""> Bonus : $0.4 </font>
            </div>
        </div>
    
        <img class=""stim"" src=./stimuli//pack_shapes/cat_2/ex_2_25.png></img>
    ","null","stimulus","","","","",""
"","","","","","html-keyboard-response","97","155963","0.0-6.0-2.8","60b8ac4b038e47623e85337b","6554bfa13ac4b6a0ab00b03a","6554bffbba88a41843446f20","null","
        <div style=""text-align: center; position: fixed; top: 5vh; left: 40vw;"">
            <div style=""margin:0 auto; width: 20vw; top: 8vh; font-size: 1vw""> 
            <font color=""green""> Bonus : $0.4 </font>
            </div>
        </div>
    ","null","","","","","",""
"","","","","","html-keyboard-response","98","156421","0.0-6.0-3.8","60b8ac4b038e47623e85337b","6554bfa13ac4b6a0ab00b03a","6554bffbba88a41843446f20","456","./stimuli//pack_shapes/cat_2/ex_2_25.png","arrowright","response","ArrowRight","25","2","true",""
"","","","","","html-keyboard-response","99","157932","0.0-6.0-4.8","60b8ac4b038e47623e85337b","6554bfa13ac4b6a0ab00b03a","6554bffbba88a41843446f20","null","<p> <font color=""green"" size=""4vw""> Correct category! </font> <br> <br> <font color=""green"" size=""7vw""> + $0.05 </font> </p>","null","feedback","","","","","0.45"
"","","","","","html-keyboard-response","100","158231","0.0-6.0-0.9","60b8ac4b038e47623e85337b","6554bfa13ac4b6a0ab00b03a","6554bffbba88a41843446f20","298","
            
        <div style=""text-align: center; position: fixed; top: 5vh; left: 40vw;"">
            <div style=""margin:0 auto; width: 20vw; top: 8vh; font-size: 1vw""> 
            <font color=""green""> Bonus : $0.45 </font>
            </div>
        </div>
    
            <div> Please press any button to continue to the next trial.</div>
        "," ","ITI","","","","",""
"","","","","","html-keyboard-response","101","158833","0.0-6.0-1.9","60b8ac4b038e47623e85337b","6554bfa13ac4b6a0ab00b03a","6554bffbba88a41843446f20","null","
        
        <div style=""text-align: center; position: fixed; top: 5vh; left: 40vw;"">
            <div style=""margin:0 auto; width: 20vw; top: 8vh; font-size: 1vw""> 
            <font color=""green""> Bonus : $0.45 </font>
            </div>
        </div>
    
        <img class=""stim"" src=./stimuli//pack_shapes/cat_2/ex_2_36.png></img>
    ","null","stimulus","","","","",""
"","","","","","html-keyboard-response","102","159836","0.0-6.0-2.9","60b8ac4b038e47623e85337b","6554bfa13ac4b6a0ab00b03a","6554bffbba88a41843446f20","null","
        <div style=""text-align: center; position: fixed; top: 5vh; left: 40vw;"">
            <div style=""margin:0 auto; width: 20vw; top: 8vh; font-size: 1vw""> 
            <font color=""green""> Bonus : $0.45 </font>
            </div>
        </div>
    ","null","","","","","",""
"","","","","","html-keyboard-response","103","160319","0.0-6.0-3.9","60b8ac4b038e47623e85337b","6554bfa13ac4b6a0ab00b03a","6554bffbba88a41843446f20","482","./stimuli//pack_shapes/cat_2/ex_2_36.png","arrowright","response","ArrowRight","36","2","true",""
"","","","","","html-keyboard-response","104","161366","0.0-6.0-4.9","60b8ac4b038e47623e85337b","6554bfa13ac4b6a0ab00b03a","6554bffbba88a41843446f20","1047","<p> <font color=""green"" size=""4vw""> Correct category! </font> <br> <br> <font color=""green"" size=""7vw""> + $0.05 </font> </p>"," ","feedback","","","","","0.5"
"","","","","","html-keyboard-response","105","163805","0.0-6.0-0.10","60b8ac4b038e47623e85337b","6554bfa13ac4b6a0ab00b03a","6554bffbba88a41843446f20","2437","
            
        <div style=""text-align: center; position: fixed; top: 5vh; left: 40vw;"">
            <div style=""margin:0 auto; width: 20vw; top: 8vh; font-size: 1vw""> 
            <font color=""green""> Bonus : $0.5 </font>
            </div>
        </div>
    
            <div> Please press any button to continue to the next trial.</div>
        "," ","ITI","","","","",""
"","","","","","html-keyboard-response","106","164412","0.0-6.0-1.10","60b8ac4b038e47623e85337b","6554bfa13ac4b6a0ab00b03a","6554bffbba88a41843446f20","null","
        
        <div style=""text-align: center; position: fixed; top: 5vh; left: 40vw;"">
            <div style=""margin:0 auto; width: 20vw; top: 8vh; font-size: 1vw""> 
            <font color=""green""> Bonus : $0.5 </font>
            </div>
        </div>
    
        <img class=""stim"" src=./stimuli//pack_shapes/cat_2/ex_2_44.png></img>
    ","null","stimulus","","","","",""
"","","","","","html-keyboard-response","107","165414","0.0-6.0-2.10","60b8ac4b038e47623e85337b","6554bfa13ac4b6a0ab00b03a","6554bffbba88a41843446f20","null","
        <div style=""text-align: center; position: fixed; top: 5vh; left: 40vw;"">
            <div style=""margin:0 auto; width: 20vw; top: 8vh; font-size: 1vw""> 
            <font color=""green""> Bonus : $0.5 </font>
            </div>
        </div>
    ","null","","","","","",""
"","","","","","html-keyboard-response","108","165800","0.0-6.0-3.10","60b8ac4b038e47623e85337b","6554bfa13ac4b6a0ab00b03a","6554bffbba88a41843446f20","384","./stimuli//pack_shapes/cat_2/ex_2_44.png","arrowright","response","ArrowRight","44","2","true",""
"","","","","","html-keyboard-response","109","167115","0.0-6.0-4.10","60b8ac4b038e47623e85337b","6554bfa13ac4b6a0ab00b03a","6554bffbba88a41843446f20","1313","<p> <font color=""green"" size=""4vw""> Correct category! </font> <br> <br> <font color=""green"" size=""7vw""> + $0.05 </font> </p>"," ","feedback","","","","","0.55"
"","","","","","html-keyboard-response","110","168515","0.0-6.0-0.11","60b8ac4b038e47623e85337b","6554bfa13ac4b6a0ab00b03a","6554bffbba88a41843446f20","1395","
            
        <div style=""text-align: center; position: fixed; top: 5vh; left: 40vw;"">
            <div style=""margin:0 auto; width: 20vw; top: 8vh; font-size: 1vw""> 
            <font color=""green""> Bonus : $0.55 </font>
            </div>
        </div>
    
            <div> Please press any button to continue to the next trial.</div>
        "," ","ITI","","","","",""
"","","","","","html-keyboard-response","111","169127","0.0-6.0-1.11","60b8ac4b038e47623e85337b","6554bfa13ac4b6a0ab00b03a","6554bffbba88a41843446f20","null","
        
        <div style=""text-align: center; position: fixed; top: 5vh; left: 40vw;"">
            <div style=""margin:0 auto; width: 20vw; top: 8vh; font-size: 1vw""> 
            <font color=""green""> Bonus : $0.55 </font>
            </div>
        </div>
    
        <img class=""stim"" src=./stimuli//pack_shapes/cat_2/ex_2_45.png></img>
    ","null","stimulus","","","","",""
"","","","","","html-keyboard-response","112","170129","0.0-6.0-2.11","60b8ac4b038e47623e85337b","6554bfa13ac4b6a0ab00b03a","6554bffbba88a41843446f20","null","
        <div style=""text-align: center; position: fixed; top: 5vh; left: 40vw;"">
            <div style=""margin:0 auto; width: 20vw; top: 8vh; font-size: 1vw""> 
            <font color=""green""> Bonus : $0.55 </font>
            </div>
        </div>
    ","null","","","","","",""
"","","","","","html-keyboard-response","113","170559","0.0-6.0-3.11","60b8ac4b038e47623e85337b","6554bfa13ac4b6a0ab00b03a","6554bffbba88a41843446f20","429","./stimuli//pack_shapes/cat_2/ex_2_45.png","arrowright","response","ArrowRight","45","2","true",""
"","","","","","html-keyboard-response","114","171312","0.0-6.0-4.11","60b8ac4b038e47623e85337b","6554bfa13ac4b6a0ab00b03a","6554bffbba88a41843446f20","753","<p> <font color=""green"" size=""4vw""> Correct category! </font> <br> <br> <font color=""green"" size=""7vw""> + $0.05 </font> </p>"," ","feedback","","","","","0.6"
"","","","","","html-keyboard-response","115","171816","0.0-6.0-0.12","60b8ac4b038e47623e85337b","6554bfa13ac4b6a0ab00b03a","6554bffbba88a41843446f20","502","
            
        <div style=""text-align: center; position: fixed; top: 5vh; left: 40vw;"">
            <div style=""margin:0 auto; width: 20vw; top: 8vh; font-size: 1vw""> 
            <font color=""green""> Bonus : $0.6 </font>
            </div>
        </div>
    
            <div> Please press any button to continue to the next trial.</div>
        "," ","ITI","","","","",""
"","","","","","html-keyboard-response","116","172435","0.0-6.0-1.12","60b8ac4b038e47623e85337b","6554bfa13ac4b6a0ab00b03a","6554bffbba88a41843446f20","null","
        
        <div style=""text-align: center; position: fixed; top: 5vh; left: 40vw;"">
            <div style=""margin:0 auto; width: 20vw; top: 8vh; font-size: 1vw""> 
            <font color=""green""> Bonus : $0.6 </font>
            </div>
        </div>
    
        <img class=""stim"" src=./stimuli//pack_shapes/cat_2/ex_2_82.png></img>
    ","null","stimulus","","","","",""
"","","","","","html-keyboard-response","117","173437","0.0-6.0-2.12","60b8ac4b038e47623e85337b","6554bfa13ac4b6a0ab00b03a","6554bffbba88a41843446f20","null","
        <div style=""text-align: center; position: fixed; top: 5vh; left: 40vw;"">
            <div style=""margin:0 auto; width: 20vw; top: 8vh; font-size: 1vw""> 
            <font color=""green""> Bonus : $0.6 </font>
            </div>
        </div>
    ","null","","","","","",""
"","","","","","html-keyboard-response","118","173948","0.0-6.0-3.12","60b8ac4b038e47623e85337b","6554bfa13ac4b6a0ab00b03a","6554bffbba88a41843446f20","509","./stimuli//pack_shapes/cat_2/ex_2_82.png","arrowleft","response","ArrowRight","82","2","false",""
"","","","","","html-keyboard-response","119","174722","0.0-6.0-4.12","60b8ac4b038e47623e85337b","6554bfa13ac4b6a0ab00b03a","6554bffbba88a41843446f20","773","<p> <font color=""red"" size=""4vw""> Wrong category! </font> </p>"," ","feedback","","","","","0.6"
"","","","","","html-keyboard-response","120","175714","0.0-6.0-0.13","60b8ac4b038e47623e85337b","6554bfa13ac4b6a0ab00b03a","6554bffbba88a41843446f20","990","
            
        <div style=""text-align: center; position: fixed; top: 5vh; left: 40vw;"">
            <div style=""margin:0 auto; width: 20vw; top: 8vh; font-size: 1vw""> 
            <font color=""green""> Bonus : $0.6 </font>
            </div>
        </div>
    
            <div> Please press any button to continue to the next trial.</div>
        "," ","ITI","","","","",""
"","","","","","html-keyboard-response","121","176329","0.0-6.0-1.13","60b8ac4b038e47623e85337b","6554bfa13ac4b6a0ab00b03a","6554bffbba88a41843446f20","null","
        
        <div style=""text-align: center; position: fixed; top: 5vh; left: 40vw;"">
            <div style=""margin:0 auto; width: 20vw; top: 8vh; font-size: 1vw""> 
            <font color=""green""> Bonus : $0.6 </font>
            </div>
        </div>
    
        <img class=""stim"" src=./stimuli//pack_shapes/cat_1/ex_1_67.png></img>
    ","null","stimulus","","","","",""
"","","","","","html-keyboard-response","122","177346","0.0-6.0-2.13","60b8ac4b038e47623e85337b","6554bfa13ac4b6a0ab00b03a","6554bffbba88a41843446f20","null","
        <div style=""text-align: center; position: fixed; top: 5vh; left: 40vw;"">
            <div style=""margin:0 auto; width: 20vw; top: 8vh; font-size: 1vw""> 
            <font color=""green""> Bonus : $0.6 </font>
            </div>
        </div>
    ","null","","","","","",""
"","","","","","html-keyboard-response","123","178029","0.0-6.0-3.13","60b8ac4b038e47623e85337b","6554bfa13ac4b6a0ab00b03a","6554bffbba88a41843446f20","681","./stimuli//pack_shapes/cat_1/ex_1_67.png","arrowleft","response","ArrowLeft","67","1","true",""
"","","","","","html-keyboard-response","124","178688","0.0-6.0-4.13","60b8ac4b038e47623e85337b","6554bfa13ac4b6a0ab00b03a","6554bffbba88a41843446f20","658","<p> <font color=""green"" size=""4vw""> Correct category! </font> <br> <br> <font color=""green"" size=""7vw""> + $0.05 </font> </p>"," ","feedback","","","","","0.65"
"","","","","","html-keyboard-response","125","179674","0.0-6.0-0.14","60b8ac4b038e47623e85337b","6554bfa13ac4b6a0ab00b03a","6554bffbba88a41843446f20","985","
            
        <div style=""text-align: center; position: fixed; top: 5vh; left: 40vw;"">
            <div style=""margin:0 auto; width: 20vw; top: 8vh; font-size: 1vw""> 
            <font color=""green""> Bonus : $0.65 </font>
            </div>
        </div>
    
            <div> Please press any button to continue to the next trial.</div>
        "," ","ITI","","","","",""
"","","","","","html-keyboard-response","126","180283","0.0-6.0-1.14","60b8ac4b038e47623e85337b","6554bfa13ac4b6a0ab00b03a","6554bffbba88a41843446f20","null","
        
        <div style=""text-align: center; position: fixed; top: 5vh; left: 40vw;"">
            <div style=""margin:0 auto; width: 20vw; top: 8vh; font-size: 1vw""> 
            <font color=""green""> Bonus : $0.65 </font>
            </div>
        </div>
    
        <img class=""stim"" src=./stimuli//pack_shapes/cat_1/ex_1_20.png></img>
    ","null","stimulus","","","","",""
"","","","","","html-keyboard-response","127","181285","0.0-6.0-2.14","60b8ac4b038e47623e85337b","6554bfa13ac4b6a0ab00b03a","6554bffbba88a41843446f20","null","
        <div style=""text-align: center; position: fixed; top: 5vh; left: 40vw;"">
            <div style=""margin:0 auto; width: 20vw; top: 8vh; font-size: 1vw""> 
            <font color=""green""> Bonus : $0.65 </font>
            </div>
        </div>
    ","null","","","","","",""
"","","","","","html-keyboard-response","128","181615","0.0-6.0-3.14","60b8ac4b038e47623e85337b","6554bfa13ac4b6a0ab00b03a","6554bffbba88a41843446f20","330","./stimuli//pack_shapes/cat_1/ex_1_20.png","arrowleft","response","ArrowLeft","20","1","true",""
"","","","","","html-keyboard-response","129","182179","0.0-6.0-4.14","60b8ac4b038e47623e85337b","6554bfa13ac4b6a0ab00b03a","6554bffbba88a41843446f20","564","<p> <font color=""green"" size=""4vw""> Correct category! </font> <br> <br> <font color=""green"" size=""7vw""> + $0.05 </font> </p>"," ","feedback","","","","","0.7"
"","","","","","html-keyboard-response","130","182677","0.0-6.0-0.15","60b8ac4b038e47623e85337b","6554bfa13ac4b6a0ab00b03a","6554bffbba88a41843446f20","497","
            
        <div style=""text-align: center; position: fixed; top: 5vh; left: 40vw;"">
            <div style=""margin:0 auto; width: 20vw; top: 8vh; font-size: 1vw""> 
            <font color=""green""> Bonus : $0.7 </font>
            </div>
        </div>
    
            <div> Please press any button to continue to the next trial.</div>
        "," ","ITI","","","","",""
"","","","","","html-keyboard-response","131","183290","0.0-6.0-1.15","60b8ac4b038e47623e85337b","6554bfa13ac4b6a0ab00b03a","6554bffbba88a41843446f20","null","
        
        <div style=""text-align: center; position: fixed; top: 5vh; left: 40vw;"">
            <div style=""margin:0 auto; width: 20vw; top: 8vh; font-size: 1vw""> 
            <font color=""green""> Bonus : $0.7 </font>
            </div>
        </div>
    
        <img class=""stim"" src=./stimuli//pack_shapes/cat_2/ex_2_78.png></img>
    ","null","stimulus","","","","",""
"","","","","","html-keyboard-response","132","184292","0.0-6.0-2.15","60b8ac4b038e47623e85337b","6554bfa13ac4b6a0ab00b03a","6554bffbba88a41843446f20","null","
        <div style=""text-align: center; position: fixed; top: 5vh; left: 40vw;"">
            <div style=""margin:0 auto; width: 20vw; top: 8vh; font-size: 1vw""> 
            <font color=""green""> Bonus : $0.7 </font>
            </div>
        </div>
    ","null","","","","","",""
"","","","","","html-keyboard-response","133","184698","0.0-6.0-3.15","60b8ac4b038e47623e85337b","6554bfa13ac4b6a0ab00b03a","6554bffbba88a41843446f20","405","./stimuli//pack_shapes/cat_2/ex_2_78.png","arrowleft","response","ArrowRight","78","2","false",""
"","","","","","html-keyboard-response","134","186215","0.0-6.0-4.15","60b8ac4b038e47623e85337b","6554bfa13ac4b6a0ab00b03a","6554bffbba88a41843446f20","null","<p> <font color=""red"" size=""4vw""> Wrong category! </font> </p>","null","feedback","","","","","0.7"
"","","","","","html-keyboard-response","135","186679","0.0-6.0-0.16","60b8ac4b038e47623e85337b","6554bfa13ac4b6a0ab00b03a","6554bffbba88a41843446f20","462","
            
        <div style=""text-align: center; position: fixed; top: 5vh; left: 40vw;"">
            <div style=""margin:0 auto; width: 20vw; top: 8vh; font-size: 1vw""> 
            <font color=""green""> Bonus : $0.7 </font>
            </div>
        </div>
    
            <div> Please press any button to continue to the next trial.</div>
        "," ","ITI","","","","",""
"","","","","","html-keyboard-response","136","187295","0.0-6.0-1.16","60b8ac4b038e47623e85337b","6554bfa13ac4b6a0ab00b03a","6554bffbba88a41843446f20","null","
        
        <div style=""text-align: center; position: fixed; top: 5vh; left: 40vw;"">
            <div style=""margin:0 auto; width: 20vw; top: 8vh; font-size: 1vw""> 
            <font color=""green""> Bonus : $0.7 </font>
            </div>
        </div>
    
        <img class=""stim"" src=./stimuli//pack_shapes/cat_1/ex_1_28.png></img>
    ","null","stimulus","","","","",""
"","","","","","html-keyboard-response","137","188296","0.0-6.0-2.16","60b8ac4b038e47623e85337b","6554bfa13ac4b6a0ab00b03a","6554bffbba88a41843446f20","null","
        <div style=""text-align: center; position: fixed; top: 5vh; left: 40vw;"">
            <div style=""margin:0 auto; width: 20vw; top: 8vh; font-size: 1vw""> 
            <font color=""green""> Bonus : $0.7 </font>
            </div>
        </div>
    ","null","","","","","",""
"","","","","","html-keyboard-response","138","189179","0.0-6.0-3.16","60b8ac4b038e47623e85337b","6554bfa13ac4b6a0ab00b03a","6554bffbba88a41843446f20","880","./stimuli//pack_shapes/cat_1/ex_1_28.png","arrowleft","response","ArrowLeft","28","1","true",""
"","","","","","html-keyboard-response","139","189749","0.0-6.0-4.16","60b8ac4b038e47623e85337b","6554bfa13ac4b6a0ab00b03a","6554bffbba88a41843446f20","569","<p> <font color=""green"" size=""4vw""> Correct category! </font> <br> <br> <font color=""green"" size=""7vw""> + $0.05 </font> </p>"," ","feedback","","","","","0.75"
"","","","","","html-keyboard-response","140","191800","0.0-6.0-0.17","60b8ac4b038e47623e85337b","6554bfa13ac4b6a0ab00b03a","6554bffbba88a41843446f20","2050","
            
        <div style=""text-align: center; position: fixed; top: 5vh; left: 40vw;"">
            <div style=""margin:0 auto; width: 20vw; top: 8vh; font-size: 1vw""> 
            <font color=""green""> Bonus : $0.75 </font>
            </div>
        </div>
    
            <div> Please press any button to continue to the next trial.</div>
        "," ","ITI","","","","",""
"","","","","","html-keyboard-response","141","192407","0.0-6.0-1.17","60b8ac4b038e47623e85337b","6554bfa13ac4b6a0ab00b03a","6554bffbba88a41843446f20","null","
        
        <div style=""text-align: center; position: fixed; top: 5vh; left: 40vw;"">
            <div style=""margin:0 auto; width: 20vw; top: 8vh; font-size: 1vw""> 
            <font color=""green""> Bonus : $0.75 </font>
            </div>
        </div>
    
        <img class=""stim"" src=./stimuli//pack_shapes/cat_1/ex_1_18.png></img>
    ","null","stimulus","","","","",""
"","","","","","html-keyboard-response","142","193431","0.0-6.0-2.17","60b8ac4b038e47623e85337b","6554bfa13ac4b6a0ab00b03a","6554bffbba88a41843446f20","null","
        <div style=""text-align: center; position: fixed; top: 5vh; left: 40vw;"">
            <div style=""margin:0 auto; width: 20vw; top: 8vh; font-size: 1vw""> 
            <font color=""green""> Bonus : $0.75 </font>
            </div>
        </div>
    ","null","","","","","",""
"","","","","","html-keyboard-response","143","193808","0.0-6.0-3.17","60b8ac4b038e47623e85337b","6554bfa13ac4b6a0ab00b03a","6554bffbba88a41843446f20","376","./stimuli//pack_shapes/cat_1/ex_1_18.png","arrowleft","response","ArrowLeft","18","1","true",""
"","","","","","html-keyboard-response","144","194350","0.0-6.0-4.17","60b8ac4b038e47623e85337b","6554bfa13ac4b6a0ab00b03a","6554bffbba88a41843446f20","541","<p> <font color=""green"" size=""4vw""> Correct category! </font> <br> <br> <font color=""green"" size=""7vw""> + $0.05 </font> </p>"," ","feedback","","","","","0.8"
"","","","","","html-keyboard-response","145","196150","0.0-6.0-0.18","60b8ac4b038e47623e85337b","6554bfa13ac4b6a0ab00b03a","6554bffbba88a41843446f20","1798","
            
        <div style=""text-align: center; position: fixed; top: 5vh; left: 40vw;"">
            <div style=""margin:0 auto; width: 20vw; top: 8vh; font-size: 1vw""> 
            <font color=""green""> Bonus : $0.8 </font>
            </div>
        </div>
    
            <div> Please press any button to continue to the next trial.</div>
        "," ","ITI","","","","",""
"","","","","","html-keyboard-response","146","196757","0.0-6.0-1.18","60b8ac4b038e47623e85337b","6554bfa13ac4b6a0ab00b03a","6554bffbba88a41843446f20","null","
        
        <div style=""text-align: center; position: fixed; top: 5vh; left: 40vw;"">
            <div style=""margin:0 auto; width: 20vw; top: 8vh; font-size: 1vw""> 
            <font color=""green""> Bonus : $0.8 </font>
            </div>
        </div>
    
        <img class=""stim"" src=./stimuli//pack_shapes/cat_1/ex_1_69.png></img>
    ","null","stimulus","","","","",""
"","","","","","html-keyboard-response","147","197774","0.0-6.0-2.18","60b8ac4b038e47623e85337b","6554bfa13ac4b6a0ab00b03a","6554bffbba88a41843446f20","null","
        <div style=""text-align: center; position: fixed; top: 5vh; left: 40vw;"">
            <div style=""margin:0 auto; width: 20vw; top: 8vh; font-size: 1vw""> 
            <font color=""green""> Bonus : $0.8 </font>
            </div>
        </div>
    ","null","","","","","",""
"","","","","","html-keyboard-response","148","198397","0.0-6.0-3.18","60b8ac4b038e47623e85337b","6554bfa13ac4b6a0ab00b03a","6554bffbba88a41843446f20","620","./stimuli//pack_shapes/cat_1/ex_1_69.png","arrowright","response","ArrowLeft","69","1","false",""
"","","","","","html-keyboard-response","149","199121","0.0-6.0-4.18","60b8ac4b038e47623e85337b","6554bfa13ac4b6a0ab00b03a","6554bffbba88a41843446f20","722","<p> <font color=""red"" size=""4vw""> Wrong category! </font> </p>"," ","feedback","","","","","0.8"
"","","","","","html-keyboard-response","150","199921","0.0-6.0-0.19","60b8ac4b038e47623e85337b","6554bfa13ac4b6a0ab00b03a","6554bffbba88a41843446f20","799","
            
        <div style=""text-align: center; position: fixed; top: 5vh; left: 40vw;"">
            <div style=""margin:0 auto; width: 20vw; top: 8vh; font-size: 1vw""> 
            <font color=""green""> Bonus : $0.8 </font>
            </div>
        </div>
    
            <div> Please press any button to continue to the next trial.</div>
        "," ","ITI","","","","",""
"","","","","","html-keyboard-response","151","200524","0.0-6.0-1.19","60b8ac4b038e47623e85337b","6554bfa13ac4b6a0ab00b03a","6554bffbba88a41843446f20","null","
        
        <div style=""text-align: center; position: fixed; top: 5vh; left: 40vw;"">
            <div style=""margin:0 auto; width: 20vw; top: 8vh; font-size: 1vw""> 
            <font color=""green""> Bonus : $0.8 </font>
            </div>
        </div>
    
        <img class=""stim"" src=./stimuli//pack_shapes/cat_1/ex_1_76.png></img>
    ","null","stimulus","","","","",""
"","","","","","html-keyboard-response","152","201548","0.0-6.0-2.19","60b8ac4b038e47623e85337b","6554bfa13ac4b6a0ab00b03a","6554bffbba88a41843446f20","null","
        <div style=""text-align: center; position: fixed; top: 5vh; left: 40vw;"">
            <div style=""margin:0 auto; width: 20vw; top: 8vh; font-size: 1vw""> 
            <font color=""green""> Bonus : $0.8 </font>
            </div>
        </div>
    ","null","","","","","",""
"","","","","","html-keyboard-response","153","201933","0.0-6.0-3.19","60b8ac4b038e47623e85337b","6554bfa13ac4b6a0ab00b03a","6554bffbba88a41843446f20","384","./stimuli//pack_shapes/cat_1/ex_1_76.png","arrowright","response","ArrowLeft","76","1","false",""
"","","","","","html-keyboard-response","154","202373","0.0-6.0-4.19","60b8ac4b038e47623e85337b","6554bfa13ac4b6a0ab00b03a","6554bffbba88a41843446f20","439","<p> <font color=""red"" size=""4vw""> Wrong category! </font> </p>"," ","feedback","","","","","0.8"
"","","","","","html-keyboard-response","155","202762","0.0-6.0-0.20","60b8ac4b038e47623e85337b","6554bfa13ac4b6a0ab00b03a","6554bffbba88a41843446f20","388","
            
        <div style=""text-align: center; position: fixed; top: 5vh; left: 40vw;"">
            <div style=""margin:0 auto; width: 20vw; top: 8vh; font-size: 1vw""> 
            <font color=""green""> Bonus : $0.8 </font>
            </div>
        </div>
    
            <div> Please press any button to continue to the next trial.</div>
        "," ","ITI","","","","",""
"","","","","","html-keyboard-response","156","203367","0.0-6.0-1.20","60b8ac4b038e47623e85337b","6554bfa13ac4b6a0ab00b03a","6554bffbba88a41843446f20","null","
        
        <div style=""text-align: center; position: fixed; top: 5vh; left: 40vw;"">
            <div style=""margin:0 auto; width: 20vw; top: 8vh; font-size: 1vw""> 
            <font color=""green""> Bonus : $0.8 </font>
            </div>
        </div>
    
        <img class=""stim"" src=./stimuli//pack_shapes/cat_2/ex_2_59.png></img>
    ","null","stimulus","","","","",""
"","","","","","html-keyboard-response","157","204370","0.0-6.0-2.20","60b8ac4b038e47623e85337b","6554bfa13ac4b6a0ab00b03a","6554bffbba88a41843446f20","null","
        <div style=""text-align: center; position: fixed; top: 5vh; left: 40vw;"">
            <div style=""margin:0 auto; width: 20vw; top: 8vh; font-size: 1vw""> 
            <font color=""green""> Bonus : $0.8 </font>
            </div>
        </div>
    ","null","","","","","",""
"","","","","","html-keyboard-response","158","204764","0.0-6.0-3.20","60b8ac4b038e47623e85337b","6554bfa13ac4b6a0ab00b03a","6554bffbba88a41843446f20","393","./stimuli//pack_shapes/cat_2/ex_2_59.png","arrowright","response","ArrowRight","59","2","true",""
"","","","","","html-keyboard-response","159","205346","0.0-6.0-4.20","60b8ac4b038e47623e85337b","6554bfa13ac4b6a0ab00b03a","6554bffbba88a41843446f20","582","<p> <font color=""green"" size=""4vw""> Correct category! </font> <br> <br> <font color=""green"" size=""7vw""> + $0.05 </font> </p>"," ","feedback","","","","","0.85"
"","","","","","html-keyboard-response","160","205796","0.0-6.0-0.21","60b8ac4b038e47623e85337b","6554bfa13ac4b6a0ab00b03a","6554bffbba88a41843446f20","449","
            
        <div style=""text-align: center; position: fixed; top: 5vh; left: 40vw;"">
            <div style=""margin:0 auto; width: 20vw; top: 8vh; font-size: 1vw""> 
            <font color=""green""> Bonus : $0.85 </font>
            </div>
        </div>
    
            <div> Please press any button to continue to the next trial.</div>
        "," ","ITI","","","","",""
"","","","","","html-keyboard-response","161","206406","0.0-6.0-1.21","60b8ac4b038e47623e85337b","6554bfa13ac4b6a0ab00b03a","6554bffbba88a41843446f20","null","
        
        <div style=""text-align: center; position: fixed; top: 5vh; left: 40vw;"">
            <div style=""margin:0 auto; width: 20vw; top: 8vh; font-size: 1vw""> 
            <font color=""green""> Bonus : $0.85 </font>
            </div>
        </div>
    
        <img class=""stim"" src=./stimuli//pack_shapes/cat_1/ex_1_12.png></img>
    ","null","stimulus","","","","",""
"","","","","","html-keyboard-response","162","207408","0.0-6.0-2.21","60b8ac4b038e47623e85337b","6554bfa13ac4b6a0ab00b03a","6554bffbba88a41843446f20","null","
        <div style=""text-align: center; position: fixed; top: 5vh; left: 40vw;"">
            <div style=""margin:0 auto; width: 20vw; top: 8vh; font-size: 1vw""> 
            <font color=""green""> Bonus : $0.85 </font>
            </div>
        </div>
    ","null","","","","","",""
"","","","","","html-keyboard-response","163","207877","0.0-6.0-3.21","60b8ac4b038e47623e85337b","6554bfa13ac4b6a0ab00b03a","6554bffbba88a41843446f20","468","./stimuli//pack_shapes/cat_1/ex_1_12.png","arrowleft","response","ArrowLeft","12","1","true",""
"","","","","","html-keyboard-response","164","208423","0.0-6.0-4.21","60b8ac4b038e47623e85337b","6554bfa13ac4b6a0ab00b03a","6554bffbba88a41843446f20","546","<p> <font color=""green"" size=""4vw""> Correct category! </font> <br> <br> <font color=""green"" size=""7vw""> + $0.05 </font> </p>"," ","feedback","","","","","0.9"
"","","","","","html-keyboard-response","165","209363","0.0-6.0-0.22","60b8ac4b038e47623e85337b","6554bfa13ac4b6a0ab00b03a","6554bffbba88a41843446f20","938","
            
        <div style=""text-align: center; position: fixed; top: 5vh; left: 40vw;"">
            <div style=""margin:0 auto; width: 20vw; top: 8vh; font-size: 1vw""> 
            <font color=""green""> Bonus : $0.9 </font>
            </div>
        </div>
    
            <div> Please press any button to continue to the next trial.</div>
        "," ","ITI","","","","",""
"","","","","","html-keyboard-response","166","209968","0.0-6.0-1.22","60b8ac4b038e47623e85337b","6554bfa13ac4b6a0ab00b03a","6554bffbba88a41843446f20","null","
        
        <div style=""text-align: center; position: fixed; top: 5vh; left: 40vw;"">
            <div style=""margin:0 auto; width: 20vw; top: 8vh; font-size: 1vw""> 
            <font color=""green""> Bonus : $0.9 </font>
            </div>
        </div>
    
        <img class=""stim"" src=./stimuli//pack_shapes/cat_2/ex_2_27.png></img>
    ","null","stimulus","","","","",""
"","","","","","html-keyboard-response","167","210971","0.0-6.0-2.22","60b8ac4b038e47623e85337b","6554bfa13ac4b6a0ab00b03a","6554bffbba88a41843446f20","null","
        <div style=""text-align: center; position: fixed; top: 5vh; left: 40vw;"">
            <div style=""margin:0 auto; width: 20vw; top: 8vh; font-size: 1vw""> 
            <font color=""green""> Bonus : $0.9 </font>
            </div>
        </div>
    ","null","","","","","",""
"","","","","","html-keyboard-response","168","211447","0.0-6.0-3.22","60b8ac4b038e47623e85337b","6554bfa13ac4b6a0ab00b03a","6554bffbba88a41843446f20","473","./stimuli//pack_shapes/cat_2/ex_2_27.png","arrowright","response","ArrowRight","27","2","true",""
"","","","","","html-keyboard-response","169","211977","0.0-6.0-4.22","60b8ac4b038e47623e85337b","6554bfa13ac4b6a0ab00b03a","6554bffbba88a41843446f20","529","<p> <font color=""green"" size=""4vw""> Correct category! </font> <br> <br> <font color=""green"" size=""7vw""> + $0.05 </font> </p>"," ","feedback","","","","","0.95"
"","","","","","html-keyboard-response","170","212326","0.0-6.0-0.23","60b8ac4b038e47623e85337b","6554bfa13ac4b6a0ab00b03a","6554bffbba88a41843446f20","348","
            
        <div style=""text-align: center; position: fixed; top: 5vh; left: 40vw;"">
            <div style=""margin:0 auto; width: 20vw; top: 8vh; font-size: 1vw""> 
            <font color=""green""> Bonus : $0.95 </font>
            </div>
        </div>
    
            <div> Please press any button to continue to the next trial.</div>
        "," ","ITI","","","","",""
"","","","","","html-keyboard-response","171","212938","0.0-6.0-1.23","60b8ac4b038e47623e85337b","6554bfa13ac4b6a0ab00b03a","6554bffbba88a41843446f20","null","
        
        <div style=""text-align: center; position: fixed; top: 5vh; left: 40vw;"">
            <div style=""margin:0 auto; width: 20vw; top: 8vh; font-size: 1vw""> 
            <font color=""green""> Bonus : $0.95 </font>
            </div>
        </div>
    
        <img class=""stim"" src=./stimuli//pack_shapes/cat_2/ex_2_46.png></img>
    ","null","stimulus","","","","",""
"","","","","","html-keyboard-response","172","213940","0.0-6.0-2.23","60b8ac4b038e47623e85337b","6554bfa13ac4b6a0ab00b03a","6554bffbba88a41843446f20","null","
        <div style=""text-align: center; position: fixed; top: 5vh; left: 40vw;"">
            <div style=""margin:0 auto; width: 20vw; top: 8vh; font-size: 1vw""> 
            <font color=""green""> Bonus : $0.95 </font>
            </div>
        </div>
    ","null","","","","","",""
"","","","","","html-keyboard-response","173","214731","0.0-6.0-3.23","60b8ac4b038e47623e85337b","6554bfa13ac4b6a0ab00b03a","6554bffbba88a41843446f20","788","./stimuli//pack_shapes/cat_2/ex_2_46.png","arrowleft","response","ArrowRight","46","2","false",""
"","","","","","html-keyboard-response","174","215189","0.0-6.0-4.23","60b8ac4b038e47623e85337b","6554bfa13ac4b6a0ab00b03a","6554bffbba88a41843446f20","457","<p> <font color=""red"" size=""4vw""> Wrong category! </font> </p>"," ","feedback","","","","","0.95"
"","","","","","html-keyboard-response","175","215605","0.0-6.0-0.24","60b8ac4b038e47623e85337b","6554bfa13ac4b6a0ab00b03a","6554bffbba88a41843446f20","414","
            
        <div style=""text-align: center; position: fixed; top: 5vh; left: 40vw;"">
            <div style=""margin:0 auto; width: 20vw; top: 8vh; font-size: 1vw""> 
            <font color=""green""> Bonus : $0.95 </font>
            </div>
        </div>
    
            <div> Please press any button to continue to the next trial.</div>
        "," ","ITI","","","","",""
"","","","","","html-keyboard-response","176","216211","0.0-6.0-1.24","60b8ac4b038e47623e85337b","6554bfa13ac4b6a0ab00b03a","6554bffbba88a41843446f20","null","
        
        <div style=""text-align: center; position: fixed; top: 5vh; left: 40vw;"">
            <div style=""margin:0 auto; width: 20vw; top: 8vh; font-size: 1vw""> 
            <font color=""green""> Bonus : $0.95 </font>
            </div>
        </div>
    
        <img class=""stim"" src=./stimuli//pack_shapes/cat_2/ex_2_34.png></img>
    ","null","stimulus","","","","",""
"","","","","","html-keyboard-response","177","217214","0.0-6.0-2.24","60b8ac4b038e47623e85337b","6554bfa13ac4b6a0ab00b03a","6554bffbba88a41843446f20","null","
        <div style=""text-align: center; position: fixed; top: 5vh; left: 40vw;"">
            <div style=""margin:0 auto; width: 20vw; top: 8vh; font-size: 1vw""> 
            <font color=""green""> Bonus : $0.95 </font>
            </div>
        </div>
    ","null","","","","","",""
"","","","","","html-keyboard-response","178","217548","0.0-6.0-3.24","60b8ac4b038e47623e85337b","6554bfa13ac4b6a0ab00b03a","6554bffbba88a41843446f20","334","./stimuli//pack_shapes/cat_2/ex_2_34.png","arrowright","response","ArrowRight","34","2","true",""
"","","","","","html-keyboard-response","179","218006","0.0-6.0-4.24","60b8ac4b038e47623e85337b","6554bfa13ac4b6a0ab00b03a","6554bffbba88a41843446f20","456","<p> <font color=""green"" size=""4vw""> Correct category! </font> <br> <br> <font color=""green"" size=""7vw""> + $0.05 </font> </p>"," ","feedback","","","","","1"
"","","","","","html-keyboard-response","180","218354","0.0-6.0-0.25","60b8ac4b038e47623e85337b","6554bfa13ac4b6a0ab00b03a","6554bffbba88a41843446f20","348","
            
        <div style=""text-align: center; position: fixed; top: 5vh; left: 40vw;"">
            <div style=""margin:0 auto; width: 20vw; top: 8vh; font-size: 1vw""> 
            <font color=""green""> Bonus : $1 </font>
            </div>
        </div>
    
            <div> Please press any button to continue to the next trial.</div>
        "," ","ITI","","","","",""
"","","","","","html-keyboard-response","181","218966","0.0-6.0-1.25","60b8ac4b038e47623e85337b","6554bfa13ac4b6a0ab00b03a","6554bffbba88a41843446f20","null","
        
        <div style=""text-align: center; position: fixed; top: 5vh; left: 40vw;"">
            <div style=""margin:0 auto; width: 20vw; top: 8vh; font-size: 1vw""> 
            <font color=""green""> Bonus : $1 </font>
            </div>
        </div>
    
        <img class=""stim"" src=./stimuli//pack_shapes/cat_2/ex_2_60.png></img>
    ","null","stimulus","","","","",""
"","","","","","html-keyboard-response","182","219968","0.0-6.0-2.25","60b8ac4b038e47623e85337b","6554bfa13ac4b6a0ab00b03a","6554bffbba88a41843446f20","null","
        <div style=""text-align: center; position: fixed; top: 5vh; left: 40vw;"">
            <div style=""margin:0 auto; width: 20vw; top: 8vh; font-size: 1vw""> 
            <font color=""green""> Bonus : $1 </font>
            </div>
        </div>
    ","null","","","","","",""
"","","","","","html-keyboard-response","183","220264","0.0-6.0-3.25","60b8ac4b038e47623e85337b","6554bfa13ac4b6a0ab00b03a","6554bffbba88a41843446f20","294","./stimuli//pack_shapes/cat_2/ex_2_60.png","arrowleft","response","ArrowRight","60","2","false",""
"","","","","","html-keyboard-response","184","220753","0.0-6.0-4.25","60b8ac4b038e47623e85337b","6554bfa13ac4b6a0ab00b03a","6554bffbba88a41843446f20","488","<p> <font color=""red"" size=""4vw""> Wrong category! </font> </p>"," ","feedback","","","","","1"
"","","","","","html-keyboard-response","185","221088","0.0-6.0-0.26","60b8ac4b038e47623e85337b","6554bfa13ac4b6a0ab00b03a","6554bffbba88a41843446f20","334","
            
        <div style=""text-align: center; position: fixed; top: 5vh; left: 40vw;"">
            <div style=""margin:0 auto; width: 20vw; top: 8vh; font-size: 1vw""> 
            <font color=""green""> Bonus : $1 </font>
            </div>
        </div>
    
            <div> Please press any button to continue to the next trial.</div>
        "," ","ITI","","","","",""
"","","","","","html-keyboard-response","186","221694","0.0-6.0-1.26","60b8ac4b038e47623e85337b","6554bfa13ac4b6a0ab00b03a","6554bffbba88a41843446f20","null","
        
        <div style=""text-align: center; position: fixed; top: 5vh; left: 40vw;"">
            <div style=""margin:0 auto; width: 20vw; top: 8vh; font-size: 1vw""> 
            <font color=""green""> Bonus : $1 </font>
            </div>
        </div>
    
        <img class=""stim"" src=./stimuli//pack_shapes/cat_2/ex_2_12.png></img>
    ","null","stimulus","","","","",""
"","","","","","html-keyboard-response","187","222710","0.0-6.0-2.26","60b8ac4b038e47623e85337b","6554bfa13ac4b6a0ab00b03a","6554bffbba88a41843446f20","null","
        <div style=""text-align: center; position: fixed; top: 5vh; left: 40vw;"">
            <div style=""margin:0 auto; width: 20vw; top: 8vh; font-size: 1vw""> 
            <font color=""green""> Bonus : $1 </font>
            </div>
        </div>
    ","null","","","","","",""
"","","","","","html-keyboard-response","188","223051","0.0-6.0-3.26","60b8ac4b038e47623e85337b","6554bfa13ac4b6a0ab00b03a","6554bffbba88a41843446f20","340","./stimuli//pack_shapes/cat_2/ex_2_12.png","arrowright","response","ArrowRight","12","2","true",""
"","","","","","html-keyboard-response","189","223526","0.0-6.0-4.26","60b8ac4b038e47623e85337b","6554bfa13ac4b6a0ab00b03a","6554bffbba88a41843446f20","473","<p> <font color=""green"" size=""4vw""> Correct category! </font> <br> <br> <font color=""green"" size=""7vw""> + $0.05 </font> </p>"," ","feedback","","","","","1.05"
"","","","","","html-keyboard-response","190","224107","0.0-6.0-0.27","60b8ac4b038e47623e85337b","6554bfa13ac4b6a0ab00b03a","6554bffbba88a41843446f20","580","
            
        <div style=""text-align: center; position: fixed; top: 5vh; left: 40vw;"">
            <div style=""margin:0 auto; width: 20vw; top: 8vh; font-size: 1vw""> 
            <font color=""green""> Bonus : $1.05 </font>
            </div>
        </div>
    
            <div> Please press any button to continue to the next trial.</div>
        "," ","ITI","","","","",""
"","","","","","html-keyboard-response","191","224712","0.0-6.0-1.27","60b8ac4b038e47623e85337b","6554bfa13ac4b6a0ab00b03a","6554bffbba88a41843446f20","null","
        
        <div style=""text-align: center; position: fixed; top: 5vh; left: 40vw;"">
            <div style=""margin:0 auto; width: 20vw; top: 8vh; font-size: 1vw""> 
            <font color=""green""> Bonus : $1.05 </font>
            </div>
        </div>
    
        <img class=""stim"" src=./stimuli//pack_shapes/cat_1/ex_1_51.png></img>
    ","null","stimulus","","","","",""
"","","","","","html-keyboard-response","192","225714","0.0-6.0-2.27","60b8ac4b038e47623e85337b","6554bfa13ac4b6a0ab00b03a","6554bffbba88a41843446f20","null","
        <div style=""text-align: center; position: fixed; top: 5vh; left: 40vw;"">
            <div style=""margin:0 auto; width: 20vw; top: 8vh; font-size: 1vw""> 
            <font color=""green""> Bonus : $1.05 </font>
            </div>
        </div>
    ","null","","","","","",""
"","","","","","html-keyboard-response","193","226110","0.0-6.0-3.27","60b8ac4b038e47623e85337b","6554bfa13ac4b6a0ab00b03a","6554bffbba88a41843446f20","395","./stimuli//pack_shapes/cat_1/ex_1_51.png","arrowleft","response","ArrowLeft","51","1","true",""
"","","","","","html-keyboard-response","194","227564","0.0-6.0-4.27","60b8ac4b038e47623e85337b","6554bfa13ac4b6a0ab00b03a","6554bffbba88a41843446f20","1453","<p> <font color=""green"" size=""4vw""> Correct category! </font> <br> <br> <font color=""green"" size=""7vw""> + $0.05 </font> </p>"," ","feedback","","","","","1.1"
"","","","","","html-keyboard-response","195","229096","0.0-6.0-0.28","60b8ac4b038e47623e85337b","6554bfa13ac4b6a0ab00b03a","6554bffbba88a41843446f20","1538","
            
        <div style=""text-align: center; position: fixed; top: 5vh; left: 40vw;"">
            <div style=""margin:0 auto; width: 20vw; top: 8vh; font-size: 1vw""> 
            <font color=""green""> Bonus : $1.1 </font>
            </div>
        </div>
    
            <div> Please press any button to continue to the next trial.</div>
        "," ","ITI","","","","",""
"","","","","","html-keyboard-response","196","229701","0.0-6.0-1.28","60b8ac4b038e47623e85337b","6554bfa13ac4b6a0ab00b03a","6554bffbba88a41843446f20","null","
        
        <div style=""text-align: center; position: fixed; top: 5vh; left: 40vw;"">
            <div style=""margin:0 auto; width: 20vw; top: 8vh; font-size: 1vw""> 
            <font color=""green""> Bonus : $1.1 </font>
            </div>
        </div>
    
        <img class=""stim"" src=./stimuli//pack_shapes/cat_1/ex_1_46.png></img>
    ","null","stimulus","","","","",""
"","","","","","html-keyboard-response","197","231082","0.0-6.0-2.28","60b8ac4b038e47623e85337b","6554bfa13ac4b6a0ab00b03a","6554bffbba88a41843446f20","null","
        <div style=""text-align: center; position: fixed; top: 5vh; left: 40vw;"">
            <div style=""margin:0 auto; width: 20vw; top: 8vh; font-size: 1vw""> 
            <font color=""green""> Bonus : $1.1 </font>
            </div>
        </div>
    ","null","","","","","",""
"","","","","","html-keyboard-response","198","236078","0.0-6.0-3.28","60b8ac4b038e47623e85337b","6554bfa13ac4b6a0ab00b03a","6554bffbba88a41843446f20","null","./stimuli//pack_shapes/cat_1/ex_1_46.png","null","response","ArrowLeft","46","1","false",""
"","","","","","html-keyboard-response","199","238082","0.0-6.0-4.28","60b8ac4b038e47623e85337b","6554bfa13ac4b6a0ab00b03a","6554bffbba88a41843446f20","null","<p> <font color=""red"" size=""5vw""> Time out! </font> <br> Please try to respond as quickly as possible. </p>","null","feedback","","","","","1.1"
"","","","","","html-keyboard-response","200","241071","0.0-6.0-0.29","60b8ac4b038e47623e85337b","6554bfa13ac4b6a0ab00b03a","6554bffbba88a41843446f20","2989","
            
        <div style=""text-align: center; position: fixed; top: 5vh; left: 40vw;"">
            <div style=""margin:0 auto; width: 20vw; top: 8vh; font-size: 1vw""> 
            <font color=""green""> Bonus : $1.1 </font>
            </div>
        </div>
    
            <div> Please press any button to continue to the next trial.</div>
        ","arrowleft","ITI","","","","",""
"","","","","","html-keyboard-response","201","241686","0.0-6.0-1.29","60b8ac4b038e47623e85337b","6554bfa13ac4b6a0ab00b03a","6554bffbba88a41843446f20","null","
        
        <div style=""text-align: center; position: fixed; top: 5vh; left: 40vw;"">
            <div style=""margin:0 auto; width: 20vw; top: 8vh; font-size: 1vw""> 
            <font color=""green""> Bonus : $1.1 </font>
            </div>
        </div>
    
        <img class=""stim"" src=./stimuli//pack_shapes/cat_1/ex_1_74.png></img>
    ","null","stimulus","","","","",""
"","","","","","html-keyboard-response","202","242688","0.0-6.0-2.29","60b8ac4b038e47623e85337b","6554bfa13ac4b6a0ab00b03a","6554bffbba88a41843446f20","null","
        <div style=""text-align: center; position: fixed; top: 5vh; left: 40vw;"">
            <div style=""margin:0 auto; width: 20vw; top: 8vh; font-size: 1vw""> 
            <font color=""green""> Bonus : $1.1 </font>
            </div>
        </div>
    ","null","","","","","",""
"","","","","","html-keyboard-response","203","243244","0.0-6.0-3.29","60b8ac4b038e47623e85337b","6554bfa13ac4b6a0ab00b03a","6554bffbba88a41843446f20","555","./stimuli//pack_shapes/cat_1/ex_1_74.png","arrowright","response","ArrowLeft","74","1","false",""
"","","","","","html-keyboard-response","204","244219","0.0-6.0-4.29","60b8ac4b038e47623e85337b","6554bfa13ac4b6a0ab00b03a","6554bffbba88a41843446f20","974","<p> <font color=""red"" size=""4vw""> Wrong category! </font> </p>"," ","feedback","","","","","1.1"
"","","","","","html-keyboard-response","205","244857","0.0-6.0-0.30","60b8ac4b038e47623e85337b","6554bfa13ac4b6a0ab00b03a","6554bffbba88a41843446f20","637","
            
        <div style=""text-align: center; position: fixed; top: 5vh; left: 40vw;"">
            <div style=""margin:0 auto; width: 20vw; top: 8vh; font-size: 1vw""> 
            <font color=""green""> Bonus : $1.1 </font>
            </div>
        </div>
    
            <div> Please press any button to continue to the next trial.</div>
        ","arrowright","ITI","","","","",""
"","","","","","html-keyboard-response","206","245462","0.0-6.0-1.30","60b8ac4b038e47623e85337b","6554bfa13ac4b6a0ab00b03a","6554bffbba88a41843446f20","null","
        
        <div style=""text-align: center; position: fixed; top: 5vh; left: 40vw;"">
            <div style=""margin:0 auto; width: 20vw; top: 8vh; font-size: 1vw""> 
            <font color=""green""> Bonus : $1.1 </font>
            </div>
        </div>
    
        <img class=""stim"" src=./stimuli//pack_shapes/cat_1/ex_1_11.png></img>
    ","null","stimulus","","","","",""
"","","","","","html-keyboard-response","207","246466","0.0-6.0-2.30","60b8ac4b038e47623e85337b","6554bfa13ac4b6a0ab00b03a","6554bffbba88a41843446f20","null","
        <div style=""text-align: center; position: fixed; top: 5vh; left: 40vw;"">
            <div style=""margin:0 auto; width: 20vw; top: 8vh; font-size: 1vw""> 
            <font color=""green""> Bonus : $1.1 </font>
            </div>
        </div>
    ","null","","","","","",""
"","","","","","html-keyboard-response","208","246776","0.0-6.0-3.30","60b8ac4b038e47623e85337b","6554bfa13ac4b6a0ab00b03a","6554bffbba88a41843446f20","308","./stimuli//pack_shapes/cat_1/ex_1_11.png","arrowleft","response","ArrowLeft","11","1","true",""
"","","","","","html-keyboard-response","209","247593","0.0-6.0-4.30","60b8ac4b038e47623e85337b","6554bfa13ac4b6a0ab00b03a","6554bffbba88a41843446f20","816","<p> <font color=""green"" size=""4vw""> Correct category! </font> <br> <br> <font color=""green"" size=""7vw""> + $0.05 </font> </p>","arrowleft","feedback","","","","","1.15"
"","","","","","html-keyboard-response","210","248477","0.0-6.0-0.31","60b8ac4b038e47623e85337b","6554bfa13ac4b6a0ab00b03a","6554bffbba88a41843446f20","883","
            
        <div style=""text-align: center; position: fixed; top: 5vh; left: 40vw;"">
            <div style=""margin:0 auto; width: 20vw; top: 8vh; font-size: 1vw""> 
            <font color=""green""> Bonus : $1.15 </font>
            </div>
        </div>
    
            <div> Please press any button to continue to the next trial.</div>
        ","arrowleft","ITI","","","","",""
"","","","","","html-keyboard-response","211","249085","0.0-6.0-1.31","60b8ac4b038e47623e85337b","6554bfa13ac4b6a0ab00b03a","6554bffbba88a41843446f20","null","
        
        <div style=""text-align: center; position: fixed; top: 5vh; left: 40vw;"">
            <div style=""margin:0 auto; width: 20vw; top: 8vh; font-size: 1vw""> 
            <font color=""green""> Bonus : $1.15 </font>
            </div>
        </div>
    
        <img class=""stim"" src=./stimuli//pack_shapes/cat_2/ex_2_67.png></img>
    ","null","stimulus","","","","",""
"","","","","","html-keyboard-response","212","250102","0.0-6.0-2.31","60b8ac4b038e47623e85337b","6554bfa13ac4b6a0ab00b03a","6554bffbba88a41843446f20","null","
        <div style=""text-align: center; position: fixed; top: 5vh; left: 40vw;"">
            <div style=""margin:0 auto; width: 20vw; top: 8vh; font-size: 1vw""> 
            <font color=""green""> Bonus : $1.15 </font>
            </div>
        </div>
    ","null","","","","","",""
"","","","","","html-keyboard-response","213","255072","0.0-6.0-3.31","60b8ac4b038e47623e85337b","6554bfa13ac4b6a0ab00b03a","6554bffbba88a41843446f20","null","./stimuli//pack_shapes/cat_2/ex_2_67.png","null","response","ArrowRight","67","2","false",""
"","","","","","html-keyboard-response","214","257085","0.0-6.0-4.31","60b8ac4b038e47623e85337b","6554bfa13ac4b6a0ab00b03a","6554bffbba88a41843446f20","null","<p> <font color=""red"" size=""5vw""> Time out! </font> <br> Please try to respond as quickly as possible. </p>","null","feedback","","","","","1.15"
"","","","","","html-keyboard-response","215","260638","0.0-6.0-0.32","60b8ac4b038e47623e85337b","6554bfa13ac4b6a0ab00b03a","6554bffbba88a41843446f20","3552","
            
        <div style=""text-align: center; position: fixed; top: 5vh; left: 40vw;"">
            <div style=""margin:0 auto; width: 20vw; top: 8vh; font-size: 1vw""> 
            <font color=""green""> Bonus : $1.15 </font>
            </div>
        </div>
    
            <div> Please press any button to continue to the next trial.</div>
        ","arrowright","ITI","","","","",""
"","","","","","html-keyboard-response","216","261241","0.0-6.0-1.32","60b8ac4b038e47623e85337b","6554bfa13ac4b6a0ab00b03a","6554bffbba88a41843446f20","null","
        
        <div style=""text-align: center; position: fixed; top: 5vh; left: 40vw;"">
            <div style=""margin:0 auto; width: 20vw; top: 8vh; font-size: 1vw""> 
            <font color=""green""> Bonus : $1.15 </font>
            </div>
        </div>
    
        <img class=""stim"" src=./stimuli//pack_shapes/cat_1/ex_1_44.png></img>
    ","null","stimulus","","","","",""
"","","","","","html-keyboard-response","217","262266","0.0-6.0-2.32","60b8ac4b038e47623e85337b","6554bfa13ac4b6a0ab00b03a","6554bffbba88a41843446f20","null","
        <div style=""text-align: center; position: fixed; top: 5vh; left: 40vw;"">
            <div style=""margin:0 auto; width: 20vw; top: 8vh; font-size: 1vw""> 
            <font color=""green""> Bonus : $1.15 </font>
            </div>
        </div>
    ","null","","","","","",""
"","","","","","html-keyboard-response","218","262940","0.0-6.0-3.32","60b8ac4b038e47623e85337b","6554bfa13ac4b6a0ab00b03a","6554bffbba88a41843446f20","671","./stimuli//pack_shapes/cat_1/ex_1_44.png","arrowleft","response","ArrowLeft","44","1","true",""
"","","","","","html-keyboard-response","219","263584","0.0-6.0-4.32","60b8ac4b038e47623e85337b","6554bfa13ac4b6a0ab00b03a","6554bffbba88a41843446f20","642","<p> <font color=""green"" size=""4vw""> Correct category! </font> <br> <br> <font color=""green"" size=""7vw""> + $0.05 </font> </p>","control","feedback","","","","","1.2"
"","","","","","html-keyboard-response","220","263586","0.0-6.0-0.33","60b8ac4b038e47623e85337b","6554bfa13ac4b6a0ab00b03a","6554bffbba88a41843446f20","0","
            
        <div style=""text-align: center; position: fixed; top: 5vh; left: 40vw;"">
            <div style=""margin:0 auto; width: 20vw; top: 8vh; font-size: 1vw""> 
            <font color=""green""> Bonus : $1.2 </font>
            </div>
        </div>
    
            <div> Please press any button to continue to the next trial.</div>
        ","altgraph","ITI","","","","",""
"","","","","","html-keyboard-response","221","264199","0.0-6.0-1.33","60b8ac4b038e47623e85337b","6554bfa13ac4b6a0ab00b03a","6554bffbba88a41843446f20","null","
        
        <div style=""text-align: center; position: fixed; top: 5vh; left: 40vw;"">
            <div style=""margin:0 auto; width: 20vw; top: 8vh; font-size: 1vw""> 
            <font color=""green""> Bonus : $1.2 </font>
            </div>
        </div>
    
        <img class=""stim"" src=./stimuli//pack_shapes/cat_1/ex_1_57.png></img>
    ","null","stimulus","","","","",""
"","","","","","html-keyboard-response","222","265214","0.0-6.0-2.33","60b8ac4b038e47623e85337b","6554bfa13ac4b6a0ab00b03a","6554bffbba88a41843446f20","null","
        <div style=""text-align: center; position: fixed; top: 5vh; left: 40vw;"">
            <div style=""margin:0 auto; width: 20vw; top: 8vh; font-size: 1vw""> 
            <font color=""green""> Bonus : $1.2 </font>
            </div>
        </div>
    ","null","","","","","",""
"","","","","","html-keyboard-response","223","265679","0.0-6.0-3.33","60b8ac4b038e47623e85337b","6554bfa13ac4b6a0ab00b03a","6554bffbba88a41843446f20","463","./stimuli//pack_shapes/cat_1/ex_1_57.png","arrowleft","response","ArrowLeft","57","1","true",""
"","","","","","html-keyboard-response","224","267196","0.0-6.0-4.33","60b8ac4b038e47623e85337b","6554bfa13ac4b6a0ab00b03a","6554bffbba88a41843446f20","null","<p> <font color=""green"" size=""4vw""> Correct category! </font> <br> <br> <font color=""green"" size=""7vw""> + $0.05 </font> </p>","null","feedback","","","","","1.25"
"","","","","","html-keyboard-response","225","267235","0.0-6.0-0.34","60b8ac4b038e47623e85337b","6554bfa13ac4b6a0ab00b03a","6554bffbba88a41843446f20","39","
            
        <div style=""text-align: center; position: fixed; top: 5vh; left: 40vw;"">
            <div style=""margin:0 auto; width: 20vw; top: 8vh; font-size: 1vw""> 
            <font color=""green""> Bonus : $1.25 </font>
            </div>
        </div>
    
            <div> Please press any button to continue to the next trial.</div>
        ","arrowdown","ITI","","","","",""
"","","","","","html-keyboard-response","226","267852","0.0-6.0-1.34","60b8ac4b038e47623e85337b","6554bfa13ac4b6a0ab00b03a","6554bffbba88a41843446f20","null","
        
        <div style=""text-align: center; position: fixed; top: 5vh; left: 40vw;"">
            <div style=""margin:0 auto; width: 20vw; top: 8vh; font-size: 1vw""> 
            <font color=""green""> Bonus : $1.25 </font>
            </div>
        </div>
    
        <img class=""stim"" src=./stimuli//pack_shapes/cat_2/ex_2_77.png></img>
    ","null","stimulus","","","","",""
"","","","","","html-keyboard-response","227","268854","0.0-6.0-2.34","60b8ac4b038e47623e85337b","6554bfa13ac4b6a0ab00b03a","6554bffbba88a41843446f20","null","
        <div style=""text-align: center; position: fixed; top: 5vh; left: 40vw;"">
            <div style=""margin:0 auto; width: 20vw; top: 8vh; font-size: 1vw""> 
            <font color=""green""> Bonus : $1.25 </font>
            </div>
        </div>
    ","null","","","","","",""
"","","","","","html-keyboard-response","228","269365","0.0-6.0-3.34","60b8ac4b038e47623e85337b","6554bfa13ac4b6a0ab00b03a","6554bffbba88a41843446f20","510","./stimuli//pack_shapes/cat_2/ex_2_77.png","arrowright","response","ArrowRight","77","2","true",""
"","","","","","html-keyboard-response","229","270044","0.0-6.0-4.34","60b8ac4b038e47623e85337b","6554bfa13ac4b6a0ab00b03a","6554bffbba88a41843446f20","678","<p> <font color=""green"" size=""4vw""> Correct category! </font> <br> <br> <font color=""green"" size=""7vw""> + $0.05 </font> </p>","control","feedback","","","","","1.3"
"","","","","","html-keyboard-response","230","270045","0.0-6.0-0.35","60b8ac4b038e47623e85337b","6554bfa13ac4b6a0ab00b03a","6554bffbba88a41843446f20","0","
            
        <div style=""text-align: center; position: fixed; top: 5vh; left: 40vw;"">
            <div style=""margin:0 auto; width: 20vw; top: 8vh; font-size: 1vw""> 
            <font color=""green""> Bonus : $1.3 </font>
            </div>
        </div>
    
            <div> Please press any button to continue to the next trial.</div>
        ","altgraph","ITI","","","","",""
"","","","","","html-keyboard-response","231","270660","0.0-6.0-1.35","60b8ac4b038e47623e85337b","6554bfa13ac4b6a0ab00b03a","6554bffbba88a41843446f20","null","
        
        <div style=""text-align: center; position: fixed; top: 5vh; left: 40vw;"">
            <div style=""margin:0 auto; width: 20vw; top: 8vh; font-size: 1vw""> 
            <font color=""green""> Bonus : $1.3 </font>
            </div>
        </div>
    
        <img class=""stim"" src=./stimuli//pack_shapes/cat_1/ex_1_13.png></img>
    ","null","stimulus","","","","",""
"","","","","","html-keyboard-response","232","271683","0.0-6.0-2.35","60b8ac4b038e47623e85337b","6554bfa13ac4b6a0ab00b03a","6554bffbba88a41843446f20","null","
        <div style=""text-align: center; position: fixed; top: 5vh; left: 40vw;"">
            <div style=""margin:0 auto; width: 20vw; top: 8vh; font-size: 1vw""> 
            <font color=""green""> Bonus : $1.3 </font>
            </div>
        </div>
    ","null","","","","","",""
"","","","","","html-keyboard-response","233","272202","0.0-6.0-3.35","60b8ac4b038e47623e85337b","6554bfa13ac4b6a0ab00b03a","6554bffbba88a41843446f20","517","./stimuli//pack_shapes/cat_1/ex_1_13.png","arrowright","response","ArrowLeft","13","1","false",""
"","","","","","html-keyboard-response","234","273232","0.0-6.0-4.35","60b8ac4b038e47623e85337b","6554bfa13ac4b6a0ab00b03a","6554bffbba88a41843446f20","1029","<p> <font color=""red"" size=""4vw""> Wrong category! </font> </p>","arrowdown","feedback","","","","","1.3"
"","","","","","html-keyboard-response","235","273969","0.0-6.0-0.36","60b8ac4b038e47623e85337b","6554bfa13ac4b6a0ab00b03a","6554bffbba88a41843446f20","735","
            
        <div style=""text-align: center; position: fixed; top: 5vh; left: 40vw;"">
            <div style=""margin:0 auto; width: 20vw; top: 8vh; font-size: 1vw""> 
            <font color=""green""> Bonus : $1.3 </font>
            </div>
        </div>
    
            <div> Please press any button to continue to the next trial.</div>
        ","arrowdown","ITI","","","","",""
"","","","","","html-keyboard-response","236","274586","0.0-6.0-1.36","60b8ac4b038e47623e85337b","6554bfa13ac4b6a0ab00b03a","6554bffbba88a41843446f20","null","
        
        <div style=""text-align: center; position: fixed; top: 5vh; left: 40vw;"">
            <div style=""margin:0 auto; width: 20vw; top: 8vh; font-size: 1vw""> 
            <font color=""green""> Bonus : $1.3 </font>
            </div>
        </div>
    
        <img class=""stim"" src=./stimuli//pack_shapes/cat_1/ex_1_72.png></img>
    ","null","stimulus","","","","",""
