"success","timeout","failed_images","failed_audio","failed_video","trial_type","trial_index","time_elapsed","internal_node_id","subject_id","study_id","session_id","rt","stimulus","response","task","correct_response","exemplar_ID","category","correct","bonus"
"true","false","[]","[]","[]","preload","0","2","0.0-0.0","60fd225c4faaa264601c1792","6554bfa13ac4b6a0ab00b03a","6554bfeaa4c94267213f4f5e","","","","","","","","",""
"","","","","","html-keyboard-response","1","2305","0.0-1.0","60fd225c4faaa264601c1792","6554bfa13ac4b6a0ab00b03a","6554bfeaa4c94267213f4f5e","2301","Welcome to the Category Learning experiment! Press any key to continue."," ","welcome","","","","",""
"","","","","","html-keyboard-response","2","18706","0.0-2.0","60fd225c4faaa264601c1792","6554bfa13ac4b6a0ab00b03a","6554bfeaa4c94267213f4f5e","16399","
            <p>You will be shown images of black shapes.  Some are category A, some are category B.
            <br>You will not know in advance which category a specific shape belongs to.</p>
            <p>After you see an image, you will be asked to guess its category <b>(left arrow for category A, right arrow for category B)</b></p>
            <p>After you choose, the screen will show you whether you were correct or not.</p>
            <p><b>You will receive a bonus payment of $0.05 for each correct answer!</b></p>
            <p> So you can increase your bonus by guessing correctly, and by guessing as quickly as possible so you move on to the next image sooner.</p>
            <p>Press any key to continue.</p>
            "," ","introduction_1","","","","",""
"","","","","","html-keyboard-response","3","23143","0.0-3.0","60fd225c4faaa264601c1792","6554bfa13ac4b6a0ab00b03a","6554bfeaa4c94267213f4f5e","4436","
            <p> <b>The first 10 trials are a practice round that will not count towards your bonus payment.</b></p>
            <p> You will be notified when practice finishes and the test begins. </p>
            <p> Press any key to begin the practice round.</p>
            "," ","introduction_2","","","","",""
"","","","","","html-keyboard-response","4","24826","0.0-4.0-0.0","60fd225c4faaa264601c1792","6554bfa13ac4b6a0ab00b03a","6554bfeaa4c94267213f4f5e","1682","
            
        <div style=""text-align: center; position: fixed; top: 5vh; left: 40vw;"">
            <div style=""margin:0 auto; width: 20vw; top: 8vh; font-size: 1vw""> 
            <font color=""green""> Bonus : $0 </font>
            </div>
        </div>
    
            <div> Please press any button to continue to the next trial.</div>
        "," ","ITI","","","","",""
"","","","","","html-keyboard-response","5","25434","0.0-4.0-1.0","60fd225c4faaa264601c1792","6554bfa13ac4b6a0ab00b03a","6554bfeaa4c94267213f4f5e","null","
        
        <div style=""text-align: center; position: fixed; top: 5vh; left: 40vw;"">
            <div style=""margin:0 auto; width: 20vw; top: 8vh; font-size: 1vw""> 
            <font color=""green""> Bonus : $0 </font>
            </div>
        </div>
    
        <img class=""stim"" src=./stimuli//pack_shapes/cat_2/ex_2_8.png></img>
    ","null","stimulus","","","","",""
"","","","","","html-keyboard-response","6","26438","0.0-4.0-2.0","60fd225c4faaa264601c1792","6554bfa13ac4b6a0ab00b03a","6554bfeaa4c94267213f4f5e","null","
        <div style=""text-align: center; position: fixed; top: 5vh; left: 40vw;"">
            <div style=""margin:0 auto; width: 20vw; top: 8vh; font-size: 1vw""> 
            <font color=""green""> Bonus : $0 </font>
            </div>
        </div>
    ","null","","","","","",""
"","","","","","html-keyboard-response","7","27426","0.0-4.0-3.0","60fd225c4faaa264601c1792","6554bfa13ac4b6a0ab00b03a","6554bfeaa4c94267213f4f5e","986","./stimuli//pack_shapes/cat_2/ex_2_8.png","arrowleft","response","ArrowRight","8","2","false",""
"","","","","","html-keyboard-response","8","28934","0.0-4.0-4.0","60fd225c4faaa264601c1792","6554bfa13ac4b6a0ab00b03a","6554bfeaa4c94267213f4f5e","null","<p> <font color=""red"" size=""4vw""> Wrong category! </font> </p>","null","feedback","","","","","0"
"","","","","","html-keyboard-response","9","30341","0.0-4.0-0.1","60fd225c4faaa264601c1792","6554bfa13ac4b6a0ab00b03a","6554bfeaa4c94267213f4f5e","1405","
            
        <div style=""text-align: center; position: fixed; top: 5vh; left: 40vw;"">
            <div style=""margin:0 auto; width: 20vw; top: 8vh; font-size: 1vw""> 
            <font color=""green""> Bonus : $0 </font>
            </div>
        </div>
    
            <div> Please press any button to continue to the next trial.</div>
        ","arrowleft","ITI","","","","",""
"","","","","","html-keyboard-response","10","30946","0.0-4.0-1.1","60fd225c4faaa264601c1792","6554bfa13ac4b6a0ab00b03a","6554bfeaa4c94267213f4f5e","null","
        
        <div style=""text-align: center; position: fixed; top: 5vh; left: 40vw;"">
            <div style=""margin:0 auto; width: 20vw; top: 8vh; font-size: 1vw""> 
            <font color=""green""> Bonus : $0 </font>
            </div>
        </div>
    
        <img class=""stim"" src=./stimuli//pack_shapes/cat_2/ex_2_39.png></img>
    ","null","stimulus","","","","",""
"","","","","","html-keyboard-response","11","31953","0.0-4.0-2.1","60fd225c4faaa264601c1792","6554bfa13ac4b6a0ab00b03a","6554bfeaa4c94267213f4f5e","null","
        <div style=""text-align: center; position: fixed; top: 5vh; left: 40vw;"">
            <div style=""margin:0 auto; width: 20vw; top: 8vh; font-size: 1vw""> 
            <font color=""green""> Bonus : $0 </font>
            </div>
        </div>
    ","null","","","","","",""
"","","","","","html-keyboard-response","12","32384","0.0-4.0-3.1","60fd225c4faaa264601c1792","6554bfa13ac4b6a0ab00b03a","6554bfeaa4c94267213f4f5e","429","./stimuli//pack_shapes/cat_2/ex_2_39.png","arrowright","response","ArrowRight","39","2","true",""
"","","","","","html-keyboard-response","13","33891","0.0-4.0-4.1","60fd225c4faaa264601c1792","6554bfa13ac4b6a0ab00b03a","6554bfeaa4c94267213f4f5e","null","<p> <font color=""green"" size=""4vw""> Correct category! </font> </p>","null","feedback","","","","","0"
"","","","","","html-keyboard-response","14","34712","0.0-4.0-0.2","60fd225c4faaa264601c1792","6554bfa13ac4b6a0ab00b03a","6554bfeaa4c94267213f4f5e","820","
            
        <div style=""text-align: center; position: fixed; top: 5vh; left: 40vw;"">
            <div style=""margin:0 auto; width: 20vw; top: 8vh; font-size: 1vw""> 
            <font color=""green""> Bonus : $0 </font>
            </div>
        </div>
    
            <div> Please press any button to continue to the next trial.</div>
        ","arrowleft","ITI","","","","",""
"","","","","","html-keyboard-response","15","35318","0.0-4.0-1.2","60fd225c4faaa264601c1792","6554bfa13ac4b6a0ab00b03a","6554bfeaa4c94267213f4f5e","null","
        
        <div style=""text-align: center; position: fixed; top: 5vh; left: 40vw;"">
            <div style=""margin:0 auto; width: 20vw; top: 8vh; font-size: 1vw""> 
            <font color=""green""> Bonus : $0 </font>
            </div>
        </div>
    
        <img class=""stim"" src=./stimuli//pack_shapes/cat_1/ex_1_3.png></img>
    ","null","stimulus","","","","",""
"","","","","","html-keyboard-response","16","36321","0.0-4.0-2.2","60fd225c4faaa264601c1792","6554bfa13ac4b6a0ab00b03a","6554bfeaa4c94267213f4f5e","null","
        <div style=""text-align: center; position: fixed; top: 5vh; left: 40vw;"">
            <div style=""margin:0 auto; width: 20vw; top: 8vh; font-size: 1vw""> 
            <font color=""green""> Bonus : $0 </font>
            </div>
        </div>
    ","null","","","","","",""
"","","","","","html-keyboard-response","17","36603","0.0-4.0-3.2","60fd225c4faaa264601c1792","6554bfa13ac4b6a0ab00b03a","6554bfeaa4c94267213f4f5e","281","./stimuli//pack_shapes/cat_1/ex_1_3.png","arrowleft","response","ArrowLeft","3","1","true",""
"","","","","","html-keyboard-response","18","38104","0.0-4.0-4.2","60fd225c4faaa264601c1792","6554bfa13ac4b6a0ab00b03a","6554bfeaa4c94267213f4f5e","null","<p> <font color=""green"" size=""4vw""> Correct category! </font> </p>","null","feedback","","","","","0"
"","","","","","html-keyboard-response","19","38692","0.0-4.0-0.3","60fd225c4faaa264601c1792","6554bfa13ac4b6a0ab00b03a","6554bfeaa4c94267213f4f5e","586","
            
        <div style=""text-align: center; position: fixed; top: 5vh; left: 40vw;"">
            <div style=""margin:0 auto; width: 20vw; top: 8vh; font-size: 1vw""> 
            <font color=""green""> Bonus : $0 </font>
            </div>
        </div>
    
            <div> Please press any button to continue to the next trial.</div>
        ","arrowleft","ITI","","","","",""
"","","","","","html-keyboard-response","20","39297","0.0-4.0-1.3","60fd225c4faaa264601c1792","6554bfa13ac4b6a0ab00b03a","6554bfeaa4c94267213f4f5e","null","
        
        <div style=""text-align: center; position: fixed; top: 5vh; left: 40vw;"">
            <div style=""margin:0 auto; width: 20vw; top: 8vh; font-size: 1vw""> 
            <font color=""green""> Bonus : $0 </font>
            </div>
        </div>
    
        <img class=""stim"" src=./stimuli//pack_shapes/cat_1/ex_1_29.png></img>
    ","null","stimulus","","","","",""
"","","","","","html-keyboard-response","21","40303","0.0-4.0-2.3","60fd225c4faaa264601c1792","6554bfa13ac4b6a0ab00b03a","6554bfeaa4c94267213f4f5e","null","
        <div style=""text-align: center; position: fixed; top: 5vh; left: 40vw;"">
            <div style=""margin:0 auto; width: 20vw; top: 8vh; font-size: 1vw""> 
            <font color=""green""> Bonus : $0 </font>
            </div>
        </div>
    ","null","","","","","",""
"","","","","","html-keyboard-response","22","40570","0.0-4.0-3.3","60fd225c4faaa264601c1792","6554bfa13ac4b6a0ab00b03a","6554bfeaa4c94267213f4f5e","266","./stimuli//pack_shapes/cat_1/ex_1_29.png","arrowleft","response","ArrowLeft","29","1","true",""
"","","","","","html-keyboard-response","23","42076","0.0-4.0-4.3","60fd225c4faaa264601c1792","6554bfa13ac4b6a0ab00b03a","6554bfeaa4c94267213f4f5e","null","<p> <font color=""green"" size=""4vw""> Correct category! </font> </p>","null","feedback","","","","","0"
"","","","","","html-keyboard-response","24","42553","0.0-4.0-0.4","60fd225c4faaa264601c1792","6554bfa13ac4b6a0ab00b03a","6554bfeaa4c94267213f4f5e","476","
            
        <div style=""text-align: center; position: fixed; top: 5vh; left: 40vw;"">
            <div style=""margin:0 auto; width: 20vw; top: 8vh; font-size: 1vw""> 
            <font color=""green""> Bonus : $0 </font>
            </div>
        </div>
    
            <div> Please press any button to continue to the next trial.</div>
        ","arrowleft","ITI","","","","",""
"","","","","","html-keyboard-response","25","43160","0.0-4.0-1.4","60fd225c4faaa264601c1792","6554bfa13ac4b6a0ab00b03a","6554bfeaa4c94267213f4f5e","null","
        
        <div style=""text-align: center; position: fixed; top: 5vh; left: 40vw;"">
            <div style=""margin:0 auto; width: 20vw; top: 8vh; font-size: 1vw""> 
            <font color=""green""> Bonus : $0 </font>
            </div>
        </div>
    
        <img class=""stim"" src=./stimuli//pack_shapes/cat_1/ex_1_75.png></img>
    ","null","stimulus","","","","",""
"","","","","","html-keyboard-response","26","44166","0.0-4.0-2.4","60fd225c4faaa264601c1792","6554bfa13ac4b6a0ab00b03a","6554bfeaa4c94267213f4f5e","null","
        <div style=""text-align: center; position: fixed; top: 5vh; left: 40vw;"">
            <div style=""margin:0 auto; width: 20vw; top: 8vh; font-size: 1vw""> 
            <font color=""green""> Bonus : $0 </font>
            </div>
        </div>
    ","null","","","","","",""
"","","","","","html-keyboard-response","27","44549","0.0-4.0-3.4","60fd225c4faaa264601c1792","6554bfa13ac4b6a0ab00b03a","6554bfeaa4c94267213f4f5e","382","./stimuli//pack_shapes/cat_1/ex_1_75.png","arrowright","response","ArrowLeft","75","1","false",""
"","","","","","html-keyboard-response","28","45137","0.0-4.0-4.4","60fd225c4faaa264601c1792","6554bfa13ac4b6a0ab00b03a","6554bfeaa4c94267213f4f5e","587","<p> <font color=""red"" size=""4vw""> Wrong category! </font> </p>","arrowleft","feedback","","","","","0"
"","","","","","html-keyboard-response","29","45778","0.0-4.0-0.5","60fd225c4faaa264601c1792","6554bfa13ac4b6a0ab00b03a","6554bfeaa4c94267213f4f5e","639","
            
        <div style=""text-align: center; position: fixed; top: 5vh; left: 40vw;"">
            <div style=""margin:0 auto; width: 20vw; top: 8vh; font-size: 1vw""> 
            <font color=""green""> Bonus : $0 </font>
            </div>
        </div>
    
            <div> Please press any button to continue to the next trial.</div>
        ","arrowleft","ITI","","","","",""
"","","","","","html-keyboard-response","30","46383","0.0-4.0-1.5","60fd225c4faaa264601c1792","6554bfa13ac4b6a0ab00b03a","6554bfeaa4c94267213f4f5e","null","
        
        <div style=""text-align: center; position: fixed; top: 5vh; left: 40vw;"">
            <div style=""margin:0 auto; width: 20vw; top: 8vh; font-size: 1vw""> 
            <font color=""green""> Bonus : $0 </font>
            </div>
        </div>
    
        <img class=""stim"" src=./stimuli//pack_shapes/cat_2/ex_2_29.png></img>
    ","null","stimulus","","","","",""
"","","","","","html-keyboard-response","31","47386","0.0-4.0-2.5","60fd225c4faaa264601c1792","6554bfa13ac4b6a0ab00b03a","6554bfeaa4c94267213f4f5e","null","
        <div style=""text-align: center; position: fixed; top: 5vh; left: 40vw;"">
            <div style=""margin:0 auto; width: 20vw; top: 8vh; font-size: 1vw""> 
            <font color=""green""> Bonus : $0 </font>
            </div>
        </div>
    ","null","","","","","",""
"","","","","","html-keyboard-response","32","47777","0.0-4.0-3.5","60fd225c4faaa264601c1792","6554bfa13ac4b6a0ab00b03a","6554bfeaa4c94267213f4f5e","390","./stimuli//pack_shapes/cat_2/ex_2_29.png","arrowright","response","ArrowRight","29","2","true",""
"","","","","","html-keyboard-response","33","49283","0.0-4.0-4.5","60fd225c4faaa264601c1792","6554bfa13ac4b6a0ab00b03a","6554bfeaa4c94267213f4f5e","null","<p> <font color=""green"" size=""4vw""> Correct category! </font> </p>","null","feedback","","","","","0"
"","","","","","html-keyboard-response","34","49699","0.0-4.0-0.6","60fd225c4faaa264601c1792","6554bfa13ac4b6a0ab00b03a","6554bfeaa4c94267213f4f5e","415","
            
        <div style=""text-align: center; position: fixed; top: 5vh; left: 40vw;"">
            <div style=""margin:0 auto; width: 20vw; top: 8vh; font-size: 1vw""> 
            <font color=""green""> Bonus : $0 </font>
            </div>
        </div>
    
            <div> Please press any button to continue to the next trial.</div>
        ","arrowleft","ITI","","","","",""
"","","","","","html-keyboard-response","35","50306","0.0-4.0-1.6","60fd225c4faaa264601c1792","6554bfa13ac4b6a0ab00b03a","6554bfeaa4c94267213f4f5e","null","
        
        <div style=""text-align: center; position: fixed; top: 5vh; left: 40vw;"">
            <div style=""margin:0 auto; width: 20vw; top: 8vh; font-size: 1vw""> 
            <font color=""green""> Bonus : $0 </font>
            </div>
        </div>
    
        <img class=""stim"" src=./stimuli//pack_shapes/cat_1/ex_1_49.png></img>
    ","null","stimulus","","","","",""
"","","","","","html-keyboard-response","36","51312","0.0-4.0-2.6","60fd225c4faaa264601c1792","6554bfa13ac4b6a0ab00b03a","6554bfeaa4c94267213f4f5e","null","
        <div style=""text-align: center; position: fixed; top: 5vh; left: 40vw;"">
            <div style=""margin:0 auto; width: 20vw; top: 8vh; font-size: 1vw""> 
            <font color=""green""> Bonus : $0 </font>
            </div>
        </div>
    ","null","","","","","",""
"","","","","","html-keyboard-response","37","51589","0.0-4.0-3.6","60fd225c4faaa264601c1792","6554bfa13ac4b6a0ab00b03a","6554bfeaa4c94267213f4f5e","275","./stimuli//pack_shapes/cat_1/ex_1_49.png","arrowleft","response","ArrowLeft","49","1","true",""
"","","","","","html-keyboard-response","38","53095","0.0-4.0-4.6","60fd225c4faaa264601c1792","6554bfa13ac4b6a0ab00b03a","6554bfeaa4c94267213f4f5e","null","<p> <font color=""green"" size=""4vw""> Correct category! </font> </p>","null","feedback","","","","","0"
"","","","","","html-keyboard-response","39","53491","0.0-4.0-0.7","60fd225c4faaa264601c1792","6554bfa13ac4b6a0ab00b03a","6554bfeaa4c94267213f4f5e","396","
            
        <div style=""text-align: center; position: fixed; top: 5vh; left: 40vw;"">
            <div style=""margin:0 auto; width: 20vw; top: 8vh; font-size: 1vw""> 
            <font color=""green""> Bonus : $0 </font>
            </div>
        </div>
    
            <div> Please press any button to continue to the next trial.</div>
        ","arrowleft","ITI","","","","",""
"","","","","","html-keyboard-response","40","54097","0.0-4.0-1.7","60fd225c4faaa264601c1792","6554bfa13ac4b6a0ab00b03a","6554bfeaa4c94267213f4f5e","null","
        
        <div style=""text-align: center; position: fixed; top: 5vh; left: 40vw;"">
            <div style=""margin:0 auto; width: 20vw; top: 8vh; font-size: 1vw""> 
            <font color=""green""> Bonus : $0 </font>
            </div>
        </div>
    
        <img class=""stim"" src=./stimuli//pack_shapes/cat_1/ex_1_39.png></img>
    ","null","stimulus","","","","",""
"","","","","","html-keyboard-response","41","55103","0.0-4.0-2.7","60fd225c4faaa264601c1792","6554bfa13ac4b6a0ab00b03a","6554bfeaa4c94267213f4f5e","null","
        <div style=""text-align: center; position: fixed; top: 5vh; left: 40vw;"">
            <div style=""margin:0 auto; width: 20vw; top: 8vh; font-size: 1vw""> 
            <font color=""green""> Bonus : $0 </font>
            </div>
        </div>
    ","null","","","","","",""
"","","","","","html-keyboard-response","42","55348","0.0-4.0-3.7","60fd225c4faaa264601c1792","6554bfa13ac4b6a0ab00b03a","6554bfeaa4c94267213f4f5e","243","./stimuli//pack_shapes/cat_1/ex_1_39.png","arrowleft","response","ArrowLeft","39","1","true",""
"","","","","","html-keyboard-response","43","56854","0.0-4.0-4.7","60fd225c4faaa264601c1792","6554bfa13ac4b6a0ab00b03a","6554bfeaa4c94267213f4f5e","null","<p> <font color=""green"" size=""4vw""> Correct category! </font> </p>","null","feedback","","","","","0"
"","","","","","html-keyboard-response","44","57261","0.0-4.0-0.8","60fd225c4faaa264601c1792","6554bfa13ac4b6a0ab00b03a","6554bfeaa4c94267213f4f5e","406","
            
        <div style=""text-align: center; position: fixed; top: 5vh; left: 40vw;"">
            <div style=""margin:0 auto; width: 20vw; top: 8vh; font-size: 1vw""> 
            <font color=""green""> Bonus : $0 </font>
            </div>
        </div>
    
            <div> Please press any button to continue to the next trial.</div>
        ","arrowleft","ITI","","","","",""
"","","","","","html-keyboard-response","45","57863","0.0-4.0-1.8","60fd225c4faaa264601c1792","6554bfa13ac4b6a0ab00b03a","6554bfeaa4c94267213f4f5e","null","
        
        <div style=""text-align: center; position: fixed; top: 5vh; left: 40vw;"">
            <div style=""margin:0 auto; width: 20vw; top: 8vh; font-size: 1vw""> 
            <font color=""green""> Bonus : $0 </font>
            </div>
        </div>
    
        <img class=""stim"" src=./stimuli//pack_shapes/cat_2/ex_2_80.png></img>
    ","null","stimulus","","","","",""
"","","","","","html-keyboard-response","46","58865","0.0-4.0-2.8","60fd225c4faaa264601c1792","6554bfa13ac4b6a0ab00b03a","6554bfeaa4c94267213f4f5e","null","
        <div style=""text-align: center; position: fixed; top: 5vh; left: 40vw;"">
            <div style=""margin:0 auto; width: 20vw; top: 8vh; font-size: 1vw""> 
            <font color=""green""> Bonus : $0 </font>
            </div>
        </div>
    ","null","","","","","",""
"","","","","","html-keyboard-response","47","59138","0.0-4.0-3.8","60fd225c4faaa264601c1792","6554bfa13ac4b6a0ab00b03a","6554bfeaa4c94267213f4f5e","271","./stimuli//pack_shapes/cat_2/ex_2_80.png","arrowright","response","ArrowRight","80","2","true",""
"","","","","","html-keyboard-response","48","60644","0.0-4.0-4.8","60fd225c4faaa264601c1792","6554bfa13ac4b6a0ab00b03a","6554bfeaa4c94267213f4f5e","null","<p> <font color=""green"" size=""4vw""> Correct category! </font> </p>","null","feedback","","","","","0"
"","","","","","html-keyboard-response","49","61124","0.0-4.0-0.9","60fd225c4faaa264601c1792","6554bfa13ac4b6a0ab00b03a","6554bfeaa4c94267213f4f5e","479","
            
        <div style=""text-align: center; position: fixed; top: 5vh; left: 40vw;"">
            <div style=""margin:0 auto; width: 20vw; top: 8vh; font-size: 1vw""> 
            <font color=""green""> Bonus : $0 </font>
            </div>
        </div>
    
            <div> Please press any button to continue to the next trial.</div>
        ","arrowleft","ITI","","","","",""
"","","","","","html-keyboard-response","50","61731","0.0-4.0-1.9","60fd225c4faaa264601c1792","6554bfa13ac4b6a0ab00b03a","6554bfeaa4c94267213f4f5e","null","
        
        <div style=""text-align: center; position: fixed; top: 5vh; left: 40vw;"">
            <div style=""margin:0 auto; width: 20vw; top: 8vh; font-size: 1vw""> 
            <font color=""green""> Bonus : $0 </font>
            </div>
        </div>
    
        <img class=""stim"" src=./stimuli//pack_shapes/cat_2/ex_2_49.png></img>
    ","null","stimulus","","","","",""
"","","","","","html-keyboard-response","51","62738","0.0-4.0-2.9","60fd225c4faaa264601c1792","6554bfa13ac4b6a0ab00b03a","6554bfeaa4c94267213f4f5e","null","
        <div style=""text-align: center; position: fixed; top: 5vh; left: 40vw;"">
            <div style=""margin:0 auto; width: 20vw; top: 8vh; font-size: 1vw""> 
            <font color=""green""> Bonus : $0 </font>
            </div>
        </div>
    ","null","","","","","",""
"","","","","","html-keyboard-response","52","63024","0.0-4.0-3.9","60fd225c4faaa264601c1792","6554bfa13ac4b6a0ab00b03a","6554bfeaa4c94267213f4f5e","284","./stimuli//pack_shapes/cat_2/ex_2_49.png","arrowright","response","ArrowRight","49","2","true",""
"","","","","","html-keyboard-response","53","64531","0.0-4.0-4.9","60fd225c4faaa264601c1792","6554bfa13ac4b6a0ab00b03a","6554bfeaa4c94267213f4f5e","null","<p> <font color=""green"" size=""4vw""> Correct category! </font> </p>","null","feedback","","","","","0"
"","","","","","html-keyboard-response","54","66453","0.0-5.0","60fd225c4faaa264601c1792","6554bfa13ac4b6a0ab00b03a","6554bfeaa4c94267213f4f5e","1921","
            <b> <p> The practice round has finished.</p>
            <b> For the rest of the experiment you will receive a $0.05 bonus for each correct answer!</b>
            <p> Press any key to begin the test. </p>
            ","arrowleft","intermission","","","","",""
"","","","","","html-keyboard-response","55","66980","0.0-6.0-0.0","60fd225c4faaa264601c1792","6554bfa13ac4b6a0ab00b03a","6554bfeaa4c94267213f4f5e","526","
            
        <div style=""text-align: center; position: fixed; top: 5vh; left: 40vw;"">
            <div style=""margin:0 auto; width: 20vw; top: 8vh; font-size: 1vw""> 
            <font color=""green""> Bonus : $0 </font>
            </div>
        </div>
    
            <div> Please press any button to continue to the next trial.</div>
        ","arrowleft","ITI","","","","",""
"","","","","","html-keyboard-response","56","67581","0.0-6.0-1.0","60fd225c4faaa264601c1792","6554bfa13ac4b6a0ab00b03a","6554bfeaa4c94267213f4f5e","null","
        
        <div style=""text-align: center; position: fixed; top: 5vh; left: 40vw;"">
            <div style=""margin:0 auto; width: 20vw; top: 8vh; font-size: 1vw""> 
            <font color=""green""> Bonus : $0 </font>
            </div>
        </div>
    
        <img class=""stim"" src=./stimuli//pack_shapes/cat_1/ex_1_43.png></img>
    ","null","stimulus","","","","",""
"","","","","","html-keyboard-response","57","68586","0.0-6.0-2.0","60fd225c4faaa264601c1792","6554bfa13ac4b6a0ab00b03a","6554bfeaa4c94267213f4f5e","null","
        <div style=""text-align: center; position: fixed; top: 5vh; left: 40vw;"">
            <div style=""margin:0 auto; width: 20vw; top: 8vh; font-size: 1vw""> 
            <font color=""green""> Bonus : $0 </font>
            </div>
        </div>
    ","null","","","","","",""
"","","","","","html-keyboard-response","58","68898","0.0-6.0-3.0","60fd225c4faaa264601c1792","6554bfa13ac4b6a0ab00b03a","6554bfeaa4c94267213f4f5e","310","./stimuli//pack_shapes/cat_1/ex_1_43.png","arrowleft","response","ArrowLeft","43","1","true",""
"","","","","","html-keyboard-response","59","70403","0.0-6.0-4.0","60fd225c4faaa264601c1792","6554bfa13ac4b6a0ab00b03a","6554bfeaa4c94267213f4f5e","null","<p> <font color=""green"" size=""4vw""> Correct category! </font> <br> <br> <font color=""green"" size=""7vw""> + $0.05 </font> </p>","null","feedback","","","","","0.05"
"","","","","","html-keyboard-response","60","70990","0.0-6.0-0.1","60fd225c4faaa264601c1792","6554bfa13ac4b6a0ab00b03a","6554bfeaa4c94267213f4f5e","586","
            
        <div style=""text-align: center; position: fixed; top: 5vh; left: 40vw;"">
            <div style=""margin:0 auto; width: 20vw; top: 8vh; font-size: 1vw""> 
            <font color=""green""> Bonus : $0.05 </font>
            </div>
        </div>
    
            <div> Please press any button to continue to the next trial.</div>
        ","arrowleft","ITI","","","","",""
"","","","","","html-keyboard-response","61","71593","0.0-6.0-1.1","60fd225c4faaa264601c1792","6554bfa13ac4b6a0ab00b03a","6554bfeaa4c94267213f4f5e","null","
        
        <div style=""text-align: center; position: fixed; top: 5vh; left: 40vw;"">
            <div style=""margin:0 auto; width: 20vw; top: 8vh; font-size: 1vw""> 
            <font color=""green""> Bonus : $0.05 </font>
            </div>
        </div>
    
        <img class=""stim"" src=./stimuli//pack_shapes/cat_1/ex_1_54.png></img>
    ","null","stimulus","","","","",""
"","","","","","html-keyboard-response","62","72600","0.0-6.0-2.1","60fd225c4faaa264601c1792","6554bfa13ac4b6a0ab00b03a","6554bfeaa4c94267213f4f5e","null","
        <div style=""text-align: center; position: fixed; top: 5vh; left: 40vw;"">
            <div style=""margin:0 auto; width: 20vw; top: 8vh; font-size: 1vw""> 
            <font color=""green""> Bonus : $0.05 </font>
            </div>
        </div>
    ","null","","","","","",""
"","","","","","html-keyboard-response","63","72853","0.0-6.0-3.1","60fd225c4faaa264601c1792","6554bfa13ac4b6a0ab00b03a","6554bfeaa4c94267213f4f5e","252","./stimuli//pack_shapes/cat_1/ex_1_54.png","arrowleft","response","ArrowLeft","54","1","true",""
"","","","","","html-keyboard-response","64","74355","0.0-6.0-4.1","60fd225c4faaa264601c1792","6554bfa13ac4b6a0ab00b03a","6554bfeaa4c94267213f4f5e","null","<p> <font color=""green"" size=""4vw""> Correct category! </font> <br> <br> <font color=""green"" size=""7vw""> + $0.05 </font> </p>","null","feedback","","","","","0.1"
"","","","","","html-keyboard-response","65","74719","0.0-6.0-0.2","60fd225c4faaa264601c1792","6554bfa13ac4b6a0ab00b03a","6554bfeaa4c94267213f4f5e","363","
            
        <div style=""text-align: center; position: fixed; top: 5vh; left: 40vw;"">
            <div style=""margin:0 auto; width: 20vw; top: 8vh; font-size: 1vw""> 
            <font color=""green""> Bonus : $0.1 </font>
            </div>
        </div>
    
            <div> Please press any button to continue to the next trial.</div>
        ","arrowleft","ITI","","","","",""
"","","","","","html-keyboard-response","66","75326","0.0-6.0-1.2","60fd225c4faaa264601c1792","6554bfa13ac4b6a0ab00b03a","6554bfeaa4c94267213f4f5e","null","
        
        <div style=""text-align: center; position: fixed; top: 5vh; left: 40vw;"">
            <div style=""margin:0 auto; width: 20vw; top: 8vh; font-size: 1vw""> 
            <font color=""green""> Bonus : $0.1 </font>
            </div>
        </div>
    
        <img class=""stim"" src=./stimuli//pack_shapes/cat_2/ex_2_13.png></img>
    ","null","stimulus","","","","",""
"","","","","","html-keyboard-response","67","76333","0.0-6.0-2.2","60fd225c4faaa264601c1792","6554bfa13ac4b6a0ab00b03a","6554bfeaa4c94267213f4f5e","null","
        <div style=""text-align: center; position: fixed; top: 5vh; left: 40vw;"">
            <div style=""margin:0 auto; width: 20vw; top: 8vh; font-size: 1vw""> 
            <font color=""green""> Bonus : $0.1 </font>
            </div>
        </div>
    ","null","","","","","",""
"","","","","","html-keyboard-response","68","76602","0.0-6.0-3.2","60fd225c4faaa264601c1792","6554bfa13ac4b6a0ab00b03a","6554bfeaa4c94267213f4f5e","268","./stimuli//pack_shapes/cat_2/ex_2_13.png","arrowright","response","ArrowRight","13","2","true",""
"","","","","","html-keyboard-response","69","78108","0.0-6.0-4.2","60fd225c4faaa264601c1792","6554bfa13ac4b6a0ab00b03a","6554bfeaa4c94267213f4f5e","null","<p> <font color=""green"" size=""4vw""> Correct category! </font> <br> <br> <font color=""green"" size=""7vw""> + $0.05 </font> </p>","null","feedback","","","","","0.15"
"","","","","","html-keyboard-response","70","78430","0.0-6.0-0.3","60fd225c4faaa264601c1792","6554bfa13ac4b6a0ab00b03a","6554bfeaa4c94267213f4f5e","321","
            
        <div style=""text-align: center; position: fixed; top: 5vh; left: 40vw;"">
            <div style=""margin:0 auto; width: 20vw; top: 8vh; font-size: 1vw""> 
            <font color=""green""> Bonus : $0.15 </font>
            </div>
        </div>
    
            <div> Please press any button to continue to the next trial.</div>
        ","arrowleft","ITI","","","","",""
"","","","","","html-keyboard-response","71","79038","0.0-6.0-1.3","60fd225c4faaa264601c1792","6554bfa13ac4b6a0ab00b03a","6554bfeaa4c94267213f4f5e","null","
        
        <div style=""text-align: center; position: fixed; top: 5vh; left: 40vw;"">
            <div style=""margin:0 auto; width: 20vw; top: 8vh; font-size: 1vw""> 
            <font color=""green""> Bonus : $0.15 </font>
            </div>
        </div>
    
        <img class=""stim"" src=./stimuli//pack_shapes/cat_2/ex_2_51.png></img>
    ","null","stimulus","","","","",""
"","","","","","html-keyboard-response","72","80044","0.0-6.0-2.3","60fd225c4faaa264601c1792","6554bfa13ac4b6a0ab00b03a","6554bfeaa4c94267213f4f5e","null","
        <div style=""text-align: center; position: fixed; top: 5vh; left: 40vw;"">
            <div style=""margin:0 auto; width: 20vw; top: 8vh; font-size: 1vw""> 
            <font color=""green""> Bonus : $0.15 </font>
            </div>
        </div>
    ","null","","","","","",""
"","","","","","html-keyboard-response","73","80280","0.0-6.0-3.3","60fd225c4faaa264601c1792","6554bfa13ac4b6a0ab00b03a","6554bfeaa4c94267213f4f5e","234","./stimuli//pack_shapes/cat_2/ex_2_51.png","arrowright","response","ArrowRight","51","2","true",""
"","","","","","html-keyboard-response","74","81786","0.0-6.0-4.3","60fd225c4faaa264601c1792","6554bfa13ac4b6a0ab00b03a","6554bfeaa4c94267213f4f5e","null","<p> <font color=""green"" size=""4vw""> Correct category! </font> <br> <br> <font color=""green"" size=""7vw""> + $0.05 </font> </p>","null","feedback","","","","","0.2"
"","","","","","html-keyboard-response","75","82266","0.0-6.0-0.4","60fd225c4faaa264601c1792","6554bfa13ac4b6a0ab00b03a","6554bfeaa4c94267213f4f5e","479","
            
        <div style=""text-align: center; position: fixed; top: 5vh; left: 40vw;"">
            <div style=""margin:0 auto; width: 20vw; top: 8vh; font-size: 1vw""> 
            <font color=""green""> Bonus : $0.2 </font>
            </div>
        </div>
    
            <div> Please press any button to continue to the next trial.</div>
        ","arrowleft","ITI","","","","",""
"","","","","","html-keyboard-response","76","82873","0.0-6.0-1.4","60fd225c4faaa264601c1792","6554bfa13ac4b6a0ab00b03a","6554bfeaa4c94267213f4f5e","null","
        
        <div style=""text-align: center; position: fixed; top: 5vh; left: 40vw;"">
            <div style=""margin:0 auto; width: 20vw; top: 8vh; font-size: 1vw""> 
            <font color=""green""> Bonus : $0.2 </font>
            </div>
        </div>
    
        <img class=""stim"" src=./stimuli//pack_shapes/cat_1/ex_1_76.png></img>
    ","null","stimulus","","","","",""
"","","","","","html-keyboard-response","77","83878","0.0-6.0-2.4","60fd225c4faaa264601c1792","6554bfa13ac4b6a0ab00b03a","6554bfeaa4c94267213f4f5e","null","
        <div style=""text-align: center; position: fixed; top: 5vh; left: 40vw;"">
            <div style=""margin:0 auto; width: 20vw; top: 8vh; font-size: 1vw""> 
            <font color=""green""> Bonus : $0.2 </font>
            </div>
        </div>
    ","null","","","","","",""
"","","","","","html-keyboard-response","78","84108","0.0-6.0-3.4","60fd225c4faaa264601c1792","6554bfa13ac4b6a0ab00b03a","6554bfeaa4c94267213f4f5e","228","./stimuli//pack_shapes/cat_1/ex_1_76.png","arrowleft","response","ArrowLeft","76","1","true",""
"","","","","","html-keyboard-response","79","85615","0.0-6.0-4.4","60fd225c4faaa264601c1792","6554bfa13ac4b6a0ab00b03a","6554bfeaa4c94267213f4f5e","null","<p> <font color=""green"" size=""4vw""> Correct category! </font> <br> <br> <font color=""green"" size=""7vw""> + $0.05 </font> </p>","null","feedback","","","","","0.25"
"","","","","","html-keyboard-response","80","86010","0.0-6.0-0.5","60fd225c4faaa264601c1792","6554bfa13ac4b6a0ab00b03a","6554bfeaa4c94267213f4f5e","394","
            
        <div style=""text-align: center; position: fixed; top: 5vh; left: 40vw;"">
            <div style=""margin:0 auto; width: 20vw; top: 8vh; font-size: 1vw""> 
            <font color=""green""> Bonus : $0.25 </font>
            </div>
        </div>
    
            <div> Please press any button to continue to the next trial.</div>
        ","arrowleft","ITI","","","","",""
"","","","","","html-keyboard-response","81","86617","0.0-6.0-1.5","60fd225c4faaa264601c1792","6554bfa13ac4b6a0ab00b03a","6554bfeaa4c94267213f4f5e","null","
        
        <div style=""text-align: center; position: fixed; top: 5vh; left: 40vw;"">
            <div style=""margin:0 auto; width: 20vw; top: 8vh; font-size: 1vw""> 
            <font color=""green""> Bonus : $0.25 </font>
            </div>
        </div>
    
        <img class=""stim"" src=./stimuli//pack_shapes/cat_1/ex_1_37.png></img>
    ","null","stimulus","","","","",""
"","","","","","html-keyboard-response","82","87622","0.0-6.0-2.5","60fd225c4faaa264601c1792","6554bfa13ac4b6a0ab00b03a","6554bfeaa4c94267213f4f5e","null","
        <div style=""text-align: center; position: fixed; top: 5vh; left: 40vw;"">
            <div style=""margin:0 auto; width: 20vw; top: 8vh; font-size: 1vw""> 
            <font color=""green""> Bonus : $0.25 </font>
            </div>
        </div>
    ","null","","","","","",""
"","","","","","html-keyboard-response","83","87862","0.0-6.0-3.5","60fd225c4faaa264601c1792","6554bfa13ac4b6a0ab00b03a","6554bfeaa4c94267213f4f5e","238","./stimuli//pack_shapes/cat_1/ex_1_37.png","arrowleft","response","ArrowLeft","37","1","true",""
"","","","","","html-keyboard-response","84","89369","0.0-6.0-4.5","60fd225c4faaa264601c1792","6554bfa13ac4b6a0ab00b03a","6554bfeaa4c94267213f4f5e","null","<p> <font color=""green"" size=""4vw""> Correct category! </font> <br> <br> <font color=""green"" size=""7vw""> + $0.05 </font> </p>","null","feedback","","","","","0.3"
"","","","","","html-keyboard-response","85","89658","0.0-6.0-0.6","60fd225c4faaa264601c1792","6554bfa13ac4b6a0ab00b03a","6554bfeaa4c94267213f4f5e","288","
            
        <div style=""text-align: center; position: fixed; top: 5vh; left: 40vw;"">
            <div style=""margin:0 auto; width: 20vw; top: 8vh; font-size: 1vw""> 
            <font color=""green""> Bonus : $0.3 </font>
            </div>
        </div>
    
            <div> Please press any button to continue to the next trial.</div>
        ","arrowleft","ITI","","","","",""
"","","","","","html-keyboard-response","86","90264","0.0-6.0-1.6","60fd225c4faaa264601c1792","6554bfa13ac4b6a0ab00b03a","6554bfeaa4c94267213f4f5e","null","
        
        <div style=""text-align: center; position: fixed; top: 5vh; left: 40vw;"">
            <div style=""margin:0 auto; width: 20vw; top: 8vh; font-size: 1vw""> 
            <font color=""green""> Bonus : $0.3 </font>
            </div>
        </div>
    
        <img class=""stim"" src=./stimuli//pack_shapes/cat_2/ex_2_46.png></img>
    ","null","stimulus","","","","",""
"","","","","","html-keyboard-response","87","91271","0.0-6.0-2.6","60fd225c4faaa264601c1792","6554bfa13ac4b6a0ab00b03a","6554bfeaa4c94267213f4f5e","null","
        <div style=""text-align: center; position: fixed; top: 5vh; left: 40vw;"">
            <div style=""margin:0 auto; width: 20vw; top: 8vh; font-size: 1vw""> 
            <font color=""green""> Bonus : $0.3 </font>
            </div>
        </div>
    ","null","","","","","",""
"","","","","","html-keyboard-response","88","91471","0.0-6.0-3.6","60fd225c4faaa264601c1792","6554bfa13ac4b6a0ab00b03a","6554bfeaa4c94267213f4f5e","199","./stimuli//pack_shapes/cat_2/ex_2_46.png","arrowright","response","ArrowRight","46","2","true",""
"","","","","","html-keyboard-response","89","92978","0.0-6.0-4.6","60fd225c4faaa264601c1792","6554bfa13ac4b6a0ab00b03a","6554bfeaa4c94267213f4f5e","null","<p> <font color=""green"" size=""4vw""> Correct category! </font> <br> <br> <font color=""green"" size=""7vw""> + $0.05 </font> </p>","null","feedback","","","","","0.35"
"","","","","","html-keyboard-response","90","93028","0.0-6.0-0.7","60fd225c4faaa264601c1792","6554bfa13ac4b6a0ab00b03a","6554bfeaa4c94267213f4f5e","49","
            
        <div style=""text-align: center; position: fixed; top: 5vh; left: 40vw;"">
            <div style=""margin:0 auto; width: 20vw; top: 8vh; font-size: 1vw""> 
            <font color=""green""> Bonus : $0.35 </font>
            </div>
        </div>
    
            <div> Please press any button to continue to the next trial.</div>
        ","arrowright","ITI","","","","",""
"","","","","","html-keyboard-response","91","93633","0.0-6.0-1.7","60fd225c4faaa264601c1792","6554bfa13ac4b6a0ab00b03a","6554bfeaa4c94267213f4f5e","null","
        
        <div style=""text-align: center; position: fixed; top: 5vh; left: 40vw;"">
            <div style=""margin:0 auto; width: 20vw; top: 8vh; font-size: 1vw""> 
            <font color=""green""> Bonus : $0.35 </font>
            </div>
        </div>
    
        <img class=""stim"" src=./stimuli//pack_shapes/cat_2/ex_2_30.png></img>
    ","null","stimulus","","","","",""
"","","","","","html-keyboard-response","92","94636","0.0-6.0-2.7","60fd225c4faaa264601c1792","6554bfa13ac4b6a0ab00b03a","6554bfeaa4c94267213f4f5e","null","
        <div style=""text-align: center; position: fixed; top: 5vh; left: 40vw;"">
            <div style=""margin:0 auto; width: 20vw; top: 8vh; font-size: 1vw""> 
            <font color=""green""> Bonus : $0.35 </font>
            </div>
        </div>
    ","null","","","","","",""
"","","","","","html-keyboard-response","93","94893","0.0-6.0-3.7","60fd225c4faaa264601c1792","6554bfa13ac4b6a0ab00b03a","6554bfeaa4c94267213f4f5e","255","./stimuli//pack_shapes/cat_2/ex_2_30.png","arrowright","response","ArrowRight","30","2","true",""
"","","","","","html-keyboard-response","94","96400","0.0-6.0-4.7","60fd225c4faaa264601c1792","6554bfa13ac4b6a0ab00b03a","6554bfeaa4c94267213f4f5e","null","<p> <font color=""green"" size=""4vw""> Correct category! </font> <br> <br> <font color=""green"" size=""7vw""> + $0.05 </font> </p>","null","feedback","","","","","0.4"
"","","","","","html-keyboard-response","95","97587","0.0-6.0-0.8","60fd225c4faaa264601c1792","6554bfa13ac4b6a0ab00b03a","6554bfeaa4c94267213f4f5e","1186","
            
        <div style=""text-align: center; position: fixed; top: 5vh; left: 40vw;"">
            <div style=""margin:0 auto; width: 20vw; top: 8vh; font-size: 1vw""> 
            <font color=""green""> Bonus : $0.4 </font>
            </div>
        </div>
    
            <div> Please press any button to continue to the next trial.</div>
        ","arrowleft","ITI","","","","",""
"","","","","","html-keyboard-response","96","98194","0.0-6.0-1.8","60fd225c4faaa264601c1792","6554bfa13ac4b6a0ab00b03a","6554bfeaa4c94267213f4f5e","null","
        
        <div style=""text-align: center; position: fixed; top: 5vh; left: 40vw;"">
            <div style=""margin:0 auto; width: 20vw; top: 8vh; font-size: 1vw""> 
            <font color=""green""> Bonus : $0.4 </font>
            </div>
        </div>
    
        <img class=""stim"" src=./stimuli//pack_shapes/cat_1/ex_1_48.png></img>
    ","null","stimulus","","","","",""
"","","","","","html-keyboard-response","97","99200","0.0-6.0-2.8","60fd225c4faaa264601c1792","6554bfa13ac4b6a0ab00b03a","6554bfeaa4c94267213f4f5e","null","
        <div style=""text-align: center; position: fixed; top: 5vh; left: 40vw;"">
            <div style=""margin:0 auto; width: 20vw; top: 8vh; font-size: 1vw""> 
            <font color=""green""> Bonus : $0.4 </font>
            </div>
        </div>
    ","null","","","","","",""
"","","","","","html-keyboard-response","98","99488","0.0-6.0-3.8","60fd225c4faaa264601c1792","6554bfa13ac4b6a0ab00b03a","6554bfeaa4c94267213f4f5e","286","./stimuli//pack_shapes/cat_1/ex_1_48.png","arrowleft","response","ArrowLeft","48","1","true",""
"","","","","","html-keyboard-response","99","100995","0.0-6.0-4.8","60fd225c4faaa264601c1792","6554bfa13ac4b6a0ab00b03a","6554bfeaa4c94267213f4f5e","null","<p> <font color=""green"" size=""4vw""> Correct category! </font> <br> <br> <font color=""green"" size=""7vw""> + $0.05 </font> </p>","null","feedback","","","","","0.45"
"","","","","","html-keyboard-response","100","101403","0.0-6.0-0.9","60fd225c4faaa264601c1792","6554bfa13ac4b6a0ab00b03a","6554bfeaa4c94267213f4f5e","407","
            
        <div style=""text-align: center; position: fixed; top: 5vh; left: 40vw;"">
            <div style=""margin:0 auto; width: 20vw; top: 8vh; font-size: 1vw""> 
            <font color=""green""> Bonus : $0.45 </font>
            </div>
        </div>
    
            <div> Please press any button to continue to the next trial.</div>
        ","arrowleft","ITI","","","","",""
"","","","","","html-keyboard-response","101","102006","0.0-6.0-1.9","60fd225c4faaa264601c1792","6554bfa13ac4b6a0ab00b03a","6554bfeaa4c94267213f4f5e","null","
        
        <div style=""text-align: center; position: fixed; top: 5vh; left: 40vw;"">
            <div style=""margin:0 auto; width: 20vw; top: 8vh; font-size: 1vw""> 
            <font color=""green""> Bonus : $0.45 </font>
            </div>
        </div>
    
        <img class=""stim"" src=./stimuli//pack_shapes/cat_1/ex_1_51.png></img>
    ","null","stimulus","","","","",""
"","","","","","html-keyboard-response","102","103011","0.0-6.0-2.9","60fd225c4faaa264601c1792","6554bfa13ac4b6a0ab00b03a","6554bfeaa4c94267213f4f5e","null","
        <div style=""text-align: center; position: fixed; top: 5vh; left: 40vw;"">
            <div style=""margin:0 auto; width: 20vw; top: 8vh; font-size: 1vw""> 
            <font color=""green""> Bonus : $0.45 </font>
            </div>
        </div>
    ","null","","","","","",""
"","","","","","html-keyboard-response","103","103291","0.0-6.0-3.9","60fd225c4faaa264601c1792","6554bfa13ac4b6a0ab00b03a","6554bfeaa4c94267213f4f5e","278","./stimuli//pack_shapes/cat_1/ex_1_51.png","arrowleft","response","ArrowLeft","51","1","true",""
"","","","","","html-keyboard-response","104","104797","0.0-6.0-4.9","60fd225c4faaa264601c1792","6554bfa13ac4b6a0ab00b03a","6554bfeaa4c94267213f4f5e","null","<p> <font color=""green"" size=""4vw""> Correct category! </font> <br> <br> <font color=""green"" size=""7vw""> + $0.05 </font> </p>","null","feedback","","","","","0.5"
"","","","","","html-keyboard-response","105","105673","0.0-6.0-0.10","60fd225c4faaa264601c1792","6554bfa13ac4b6a0ab00b03a","6554bfeaa4c94267213f4f5e","874","
            
        <div style=""text-align: center; position: fixed; top: 5vh; left: 40vw;"">
            <div style=""margin:0 auto; width: 20vw; top: 8vh; font-size: 1vw""> 
            <font color=""green""> Bonus : $0.5 </font>
            </div>
        </div>
    
            <div> Please press any button to continue to the next trial.</div>
        ","arrowleft","ITI","","","","",""
"","","","","","html-keyboard-response","106","106279","0.0-6.0-1.10","60fd225c4faaa264601c1792","6554bfa13ac4b6a0ab00b03a","6554bfeaa4c94267213f4f5e","null","
        
        <div style=""text-align: center; position: fixed; top: 5vh; left: 40vw;"">
            <div style=""margin:0 auto; width: 20vw; top: 8vh; font-size: 1vw""> 
            <font color=""green""> Bonus : $0.5 </font>
            </div>
        </div>
    
        <img class=""stim"" src=./stimuli//pack_shapes/cat_1/ex_1_31.png></img>
    ","null","stimulus","","","","",""
"","","","","","html-keyboard-response","107","107286","0.0-6.0-2.10","60fd225c4faaa264601c1792","6554bfa13ac4b6a0ab00b03a","6554bfeaa4c94267213f4f5e","null","
        <div style=""text-align: center; position: fixed; top: 5vh; left: 40vw;"">
            <div style=""margin:0 auto; width: 20vw; top: 8vh; font-size: 1vw""> 
            <font color=""green""> Bonus : $0.5 </font>
            </div>
        </div>
    ","null","","","","","",""
"","","","","","html-keyboard-response","108","107517","0.0-6.0-3.10","60fd225c4faaa264601c1792","6554bfa13ac4b6a0ab00b03a","6554bfeaa4c94267213f4f5e","229","./stimuli//pack_shapes/cat_1/ex_1_31.png","arrowleft","response","ArrowLeft","31","1","true",""
"","","","","","html-keyboard-response","109","108048","0.0-6.0-4.10","60fd225c4faaa264601c1792","6554bfa13ac4b6a0ab00b03a","6554bfeaa4c94267213f4f5e","531","<p> <font color=""green"" size=""4vw""> Correct category! </font> <br> <br> <font color=""green"" size=""7vw""> + $0.05 </font> </p>","arrowleft","feedback","","","","","0.55"
"","","","","","html-keyboard-response","110","108990","0.0-6.0-0.11","60fd225c4faaa264601c1792","6554bfa13ac4b6a0ab00b03a","6554bfeaa4c94267213f4f5e","941","
            
        <div style=""text-align: center; position: fixed; top: 5vh; left: 40vw;"">
            <div style=""margin:0 auto; width: 20vw; top: 8vh; font-size: 1vw""> 
            <font color=""green""> Bonus : $0.55 </font>
            </div>
        </div>
    
            <div> Please press any button to continue to the next trial.</div>
        ","arrowleft","ITI","","","","",""
"","","","","","html-keyboard-response","111","109596","0.0-6.0-1.11","60fd225c4faaa264601c1792","6554bfa13ac4b6a0ab00b03a","6554bfeaa4c94267213f4f5e","null","
        
        <div style=""text-align: center; position: fixed; top: 5vh; left: 40vw;"">
            <div style=""margin:0 auto; width: 20vw; top: 8vh; font-size: 1vw""> 
            <font color=""green""> Bonus : $0.55 </font>
            </div>
        </div>
    
        <img class=""stim"" src=./stimuli//pack_shapes/cat_2/ex_2_40.png></img>
    ","null","stimulus","","","","",""
"","","","","","html-keyboard-response","112","110603","0.0-6.0-2.11","60fd225c4faaa264601c1792","6554bfa13ac4b6a0ab00b03a","6554bfeaa4c94267213f4f5e","null","
        <div style=""text-align: center; position: fixed; top: 5vh; left: 40vw;"">
            <div style=""margin:0 auto; width: 20vw; top: 8vh; font-size: 1vw""> 
            <font color=""green""> Bonus : $0.55 </font>
            </div>
        </div>
    ","null","","","","","",""
"","","","","","html-keyboard-response","113","110871","0.0-6.0-3.11","60fd225c4faaa264601c1792","6554bfa13ac4b6a0ab00b03a","6554bfeaa4c94267213f4f5e","266","./stimuli//pack_shapes/cat_2/ex_2_40.png","arrowright","response","ArrowRight","40","2","true",""
"","","","","","html-keyboard-response","114","112378","0.0-6.0-4.11","60fd225c4faaa264601c1792","6554bfa13ac4b6a0ab00b03a","6554bfeaa4c94267213f4f5e","null","<p> <font color=""green"" size=""4vw""> Correct category! </font> <br> <br> <font color=""green"" size=""7vw""> + $0.05 </font> </p>","null","feedback","","","","","0.6"
"","","","","","html-keyboard-response","115","112870","0.0-6.0-0.12","60fd225c4faaa264601c1792","6554bfa13ac4b6a0ab00b03a","6554bfeaa4c94267213f4f5e","491","
            
        <div style=""text-align: center; position: fixed; top: 5vh; left: 40vw;"">
            <div style=""margin:0 auto; width: 20vw; top: 8vh; font-size: 1vw""> 
            <font color=""green""> Bonus : $0.6 </font>
            </div>
        </div>
    
            <div> Please press any button to continue to the next trial.</div>
        ","arrowleft","ITI","","","","",""
"","","","","","html-keyboard-response","116","113476","0.0-6.0-1.12","60fd225c4faaa264601c1792","6554bfa13ac4b6a0ab00b03a","6554bfeaa4c94267213f4f5e","null","
        
        <div style=""text-align: center; position: fixed; top: 5vh; left: 40vw;"">
            <div style=""margin:0 auto; width: 20vw; top: 8vh; font-size: 1vw""> 
            <font color=""green""> Bonus : $0.6 </font>
            </div>
        </div>
    
        <img class=""stim"" src=./stimuli//pack_shapes/cat_2/ex_2_34.png></img>
    ","null","stimulus","","","","",""
"","","","","","html-keyboard-response","117","114483","0.0-6.0-2.12","60fd225c4faaa264601c1792","6554bfa13ac4b6a0ab00b03a","6554bfeaa4c94267213f4f5e","null","
        <div style=""text-align: center; position: fixed; top: 5vh; left: 40vw;"">
            <div style=""margin:0 auto; width: 20vw; top: 8vh; font-size: 1vw""> 
            <font color=""green""> Bonus : $0.6 </font>
            </div>
        </div>
    ","null","","","","","",""
"","","","","","html-keyboard-response","118","115391","0.0-6.0-3.12","60fd225c4faaa264601c1792","6554bfa13ac4b6a0ab00b03a","6554bfeaa4c94267213f4f5e","906","./stimuli//pack_shapes/cat_2/ex_2_34.png","arrowright","response","ArrowRight","34","2","true",""
"","","","","","html-keyboard-response","119","116897","0.0-6.0-4.12","60fd225c4faaa264601c1792","6554bfa13ac4b6a0ab00b03a","6554bfeaa4c94267213f4f5e","null","<p> <font color=""green"" size=""4vw""> Correct category! </font> <br> <br> <font color=""green"" size=""7vw""> + $0.05 </font> </p>","null","feedback","","","","","0.65"
"","","","","","html-keyboard-response","120","117233","0.0-6.0-0.13","60fd225c4faaa264601c1792","6554bfa13ac4b6a0ab00b03a","6554bfeaa4c94267213f4f5e","335","
            
        <div style=""text-align: center; position: fixed; top: 5vh; left: 40vw;"">
            <div style=""margin:0 auto; width: 20vw; top: 8vh; font-size: 1vw""> 
            <font color=""green""> Bonus : $0.65 </font>
            </div>
        </div>
    
            <div> Please press any button to continue to the next trial.</div>
        ","arrowleft","ITI","","","","",""
"","","","","","html-keyboard-response","121","117839","0.0-6.0-1.13","60fd225c4faaa264601c1792","6554bfa13ac4b6a0ab00b03a","6554bfeaa4c94267213f4f5e","null","
        
        <div style=""text-align: center; position: fixed; top: 5vh; left: 40vw;"">
            <div style=""margin:0 auto; width: 20vw; top: 8vh; font-size: 1vw""> 
            <font color=""green""> Bonus : $0.65 </font>
            </div>
        </div>
    
        <img class=""stim"" src=./stimuli//pack_shapes/cat_2/ex_2_18.png></img>
    ","null","stimulus","","","","",""
"","","","","","html-keyboard-response","122","118846","0.0-6.0-2.13","60fd225c4faaa264601c1792","6554bfa13ac4b6a0ab00b03a","6554bfeaa4c94267213f4f5e","null","
        <div style=""text-align: center; position: fixed; top: 5vh; left: 40vw;"">
            <div style=""margin:0 auto; width: 20vw; top: 8vh; font-size: 1vw""> 
            <font color=""green""> Bonus : $0.65 </font>
            </div>
        </div>
    ","null","","","","","",""
"","","","","","html-keyboard-response","123","119091","0.0-6.0-3.13","60fd225c4faaa264601c1792","6554bfa13ac4b6a0ab00b03a","6554bfeaa4c94267213f4f5e","243","./stimuli//pack_shapes/cat_2/ex_2_18.png","arrowright","response","ArrowRight","18","2","true",""
"","","","","","html-keyboard-response","124","120598","0.0-6.0-4.13","60fd225c4faaa264601c1792","6554bfa13ac4b6a0ab00b03a","6554bfeaa4c94267213f4f5e","null","<p> <font color=""green"" size=""4vw""> Correct category! </font> <br> <br> <font color=""green"" size=""7vw""> + $0.05 </font> </p>","null","feedback","","","","","0.7"
"","","","","","html-keyboard-response","125","120951","0.0-6.0-0.14","60fd225c4faaa264601c1792","6554bfa13ac4b6a0ab00b03a","6554bfeaa4c94267213f4f5e","352","
            
        <div style=""text-align: center; position: fixed; top: 5vh; left: 40vw;"">
            <div style=""margin:0 auto; width: 20vw; top: 8vh; font-size: 1vw""> 
            <font color=""green""> Bonus : $0.7 </font>
            </div>
        </div>
    
            <div> Please press any button to continue to the next trial.</div>
        ","arrowleft","ITI","","","","",""
"","","","","","html-keyboard-response","126","121557","0.0-6.0-1.14","60fd225c4faaa264601c1792","6554bfa13ac4b6a0ab00b03a","6554bfeaa4c94267213f4f5e","null","
        
        <div style=""text-align: center; position: fixed; top: 5vh; left: 40vw;"">
            <div style=""margin:0 auto; width: 20vw; top: 8vh; font-size: 1vw""> 
            <font color=""green""> Bonus : $0.7 </font>
            </div>
        </div>
    
        <img class=""stim"" src=./stimuli//pack_shapes/cat_2/ex_2_45.png></img>
    ","null","stimulus","","","","",""
"","","","","","html-keyboard-response","127","122563","0.0-6.0-2.14","60fd225c4faaa264601c1792","6554bfa13ac4b6a0ab00b03a","6554bfeaa4c94267213f4f5e","null","
        <div style=""text-align: center; position: fixed; top: 5vh; left: 40vw;"">
            <div style=""margin:0 auto; width: 20vw; top: 8vh; font-size: 1vw""> 
            <font color=""green""> Bonus : $0.7 </font>
            </div>
        </div>
    ","null","","","","","",""
"","","","","","html-keyboard-response","128","122824","0.0-6.0-3.14","60fd225c4faaa264601c1792","6554bfa13ac4b6a0ab00b03a","6554bfeaa4c94267213f4f5e","259","./stimuli//pack_shapes/cat_2/ex_2_45.png","arrowright","response","ArrowRight","45","2","true",""
"","","","","","html-keyboard-response","129","124331","0.0-6.0-4.14","60fd225c4faaa264601c1792","6554bfa13ac4b6a0ab00b03a","6554bfeaa4c94267213f4f5e","null","<p> <font color=""green"" size=""4vw""> Correct category! </font> <br> <br> <font color=""green"" size=""7vw""> + $0.05 </font> </p>","null","feedback","","","","","0.75"
"","","","","","html-keyboard-response","130","124728","0.0-6.0-0.15","60fd225c4faaa264601c1792","6554bfa13ac4b6a0ab00b03a","6554bfeaa4c94267213f4f5e","396","
            
        <div style=""text-align: center; position: fixed; top: 5vh; left: 40vw;"">
            <div style=""margin:0 auto; width: 20vw; top: 8vh; font-size: 1vw""> 
            <font color=""green""> Bonus : $0.75 </font>
            </div>
        </div>
    
            <div> Please press any button to continue to the next trial.</div>
        ","arrowleft","ITI","","","","",""
"","","","","","html-keyboard-response","131","125330","0.0-6.0-1.15","60fd225c4faaa264601c1792","6554bfa13ac4b6a0ab00b03a","6554bfeaa4c94267213f4f5e","null","
        
        <div style=""text-align: center; position: fixed; top: 5vh; left: 40vw;"">
            <div style=""margin:0 auto; width: 20vw; top: 8vh; font-size: 1vw""> 
            <font color=""green""> Bonus : $0.75 </font>
            </div>
        </div>
    
        <img class=""stim"" src=./stimuli//pack_shapes/cat_2/ex_2_47.png></img>
    ","null","stimulus","","","","",""
"","","","","","html-keyboard-response","132","126336","0.0-6.0-2.15","60fd225c4faaa264601c1792","6554bfa13ac4b6a0ab00b03a","6554bfeaa4c94267213f4f5e","null","
        <div style=""text-align: center; position: fixed; top: 5vh; left: 40vw;"">
            <div style=""margin:0 auto; width: 20vw; top: 8vh; font-size: 1vw""> 
            <font color=""green""> Bonus : $0.75 </font>
            </div>
        </div>
    ","null","","","","","",""
"","","","","","html-keyboard-response","133","126543","0.0-6.0-3.15","60fd225c4faaa264601c1792","6554bfa13ac4b6a0ab00b03a","6554bfeaa4c94267213f4f5e","205","./stimuli//pack_shapes/cat_2/ex_2_47.png","arrowright","response","ArrowRight","47","2","true",""
"","","","","","html-keyboard-response","134","128049","0.0-6.0-4.15","60fd225c4faaa264601c1792","6554bfa13ac4b6a0ab00b03a","6554bfeaa4c94267213f4f5e","null","<p> <font color=""green"" size=""4vw""> Correct category! </font> <br> <br> <font color=""green"" size=""7vw""> + $0.05 </font> </p>","null","feedback","","","","","0.8"
"","","","","","html-keyboard-response","135","128406","0.0-6.0-0.16","60fd225c4faaa264601c1792","6554bfa13ac4b6a0ab00b03a","6554bfeaa4c94267213f4f5e","356","
            
        <div style=""text-align: center; position: fixed; top: 5vh; left: 40vw;"">
            <div style=""margin:0 auto; width: 20vw; top: 8vh; font-size: 1vw""> 
            <font color=""green""> Bonus : $0.8 </font>
            </div>
        </div>
    
            <div> Please press any button to continue to the next trial.</div>
        ","arrowleft","ITI","","","","",""
"","","","","","html-keyboard-response","136","129009","0.0-6.0-1.16","60fd225c4faaa264601c1792","6554bfa13ac4b6a0ab00b03a","6554bfeaa4c94267213f4f5e","null","
        
        <div style=""text-align: center; position: fixed; top: 5vh; left: 40vw;"">
            <div style=""margin:0 auto; width: 20vw; top: 8vh; font-size: 1vw""> 
            <font color=""green""> Bonus : $0.8 </font>
            </div>
        </div>
    
        <img class=""stim"" src=./stimuli//pack_shapes/cat_1/ex_1_8.png></img>
    ","null","stimulus","","","","",""
"","","","","","html-keyboard-response","137","130013","0.0-6.0-2.16","60fd225c4faaa264601c1792","6554bfa13ac4b6a0ab00b03a","6554bfeaa4c94267213f4f5e","null","
        <div style=""text-align: center; position: fixed; top: 5vh; left: 40vw;"">
            <div style=""margin:0 auto; width: 20vw; top: 8vh; font-size: 1vw""> 
            <font color=""green""> Bonus : $0.8 </font>
            </div>
        </div>
    ","null","","","","","",""
"","","","","","html-keyboard-response","138","130372","0.0-6.0-3.16","60fd225c4faaa264601c1792","6554bfa13ac4b6a0ab00b03a","6554bfeaa4c94267213f4f5e","357","./stimuli//pack_shapes/cat_1/ex_1_8.png","arrowleft","response","ArrowLeft","8","1","true",""
"","","","","","html-keyboard-response","139","131879","0.0-6.0-4.16","60fd225c4faaa264601c1792","6554bfa13ac4b6a0ab00b03a","6554bfeaa4c94267213f4f5e","null","<p> <font color=""green"" size=""4vw""> Correct category! </font> <br> <br> <font color=""green"" size=""7vw""> + $0.05 </font> </p>","null","feedback","","","","","0.85"
"","","","","","html-keyboard-response","140","132250","0.0-6.0-0.17","60fd225c4faaa264601c1792","6554bfa13ac4b6a0ab00b03a","6554bfeaa4c94267213f4f5e","371","
            
        <div style=""text-align: center; position: fixed; top: 5vh; left: 40vw;"">
            <div style=""margin:0 auto; width: 20vw; top: 8vh; font-size: 1vw""> 
            <font color=""green""> Bonus : $0.85 </font>
            </div>
        </div>
    
            <div> Please press any button to continue to the next trial.</div>
        ","arrowleft","ITI","","","","",""
"","","","","","html-keyboard-response","141","132853","0.0-6.0-1.17","60fd225c4faaa264601c1792","6554bfa13ac4b6a0ab00b03a","6554bfeaa4c94267213f4f5e","null","
        
        <div style=""text-align: center; position: fixed; top: 5vh; left: 40vw;"">
            <div style=""margin:0 auto; width: 20vw; top: 8vh; font-size: 1vw""> 
            <font color=""green""> Bonus : $0.85 </font>
            </div>
        </div>
    
        <img class=""stim"" src=./stimuli//pack_shapes/cat_2/ex_2_82.png></img>
    ","null","stimulus","","","","",""
"","","","","","html-keyboard-response","142","133856","0.0-6.0-2.17","60fd225c4faaa264601c1792","6554bfa13ac4b6a0ab00b03a","6554bfeaa4c94267213f4f5e","null","
        <div style=""text-align: center; position: fixed; top: 5vh; left: 40vw;"">
            <div style=""margin:0 auto; width: 20vw; top: 8vh; font-size: 1vw""> 
            <font color=""green""> Bonus : $0.85 </font>
            </div>
        </div>
    ","null","","","","","",""
"","","","","","html-keyboard-response","143","134135","0.0-6.0-3.17","60fd225c4faaa264601c1792","6554bfa13ac4b6a0ab00b03a","6554bfeaa4c94267213f4f5e","278","./stimuli//pack_shapes/cat_2/ex_2_82.png","arrowleft","response","ArrowRight","82","2","false",""
"","","","","","html-keyboard-response","144","135297","0.0-6.0-4.17","60fd225c4faaa264601c1792","6554bfa13ac4b6a0ab00b03a","6554bfeaa4c94267213f4f5e","1161","<p> <font color=""red"" size=""4vw""> Wrong category! </font> </p>","arrowleft","feedback","","","","","0.85"
"","","","","","html-keyboard-response","145","135836","0.0-6.0-0.18","60fd225c4faaa264601c1792","6554bfa13ac4b6a0ab00b03a","6554bfeaa4c94267213f4f5e","538","
            
        <div style=""text-align: center; position: fixed; top: 5vh; left: 40vw;"">
            <div style=""margin:0 auto; width: 20vw; top: 8vh; font-size: 1vw""> 
            <font color=""green""> Bonus : $0.85 </font>
            </div>
        </div>
    
            <div> Please press any button to continue to the next trial.</div>
        ","arrowleft","ITI","","","","",""
"","","","","","html-keyboard-response","146","136442","0.0-6.0-1.18","60fd225c4faaa264601c1792","6554bfa13ac4b6a0ab00b03a","6554bfeaa4c94267213f4f5e","null","
        
        <div style=""text-align: center; position: fixed; top: 5vh; left: 40vw;"">
            <div style=""margin:0 auto; width: 20vw; top: 8vh; font-size: 1vw""> 
            <font color=""green""> Bonus : $0.85 </font>
            </div>
        </div>
    
        <img class=""stim"" src=./stimuli//pack_shapes/cat_2/ex_2_57.png></img>
    ","null","stimulus","","","","",""
"","","","","","html-keyboard-response","147","137448","0.0-6.0-2.18","60fd225c4faaa264601c1792","6554bfa13ac4b6a0ab00b03a","6554bfeaa4c94267213f4f5e","null","
        <div style=""text-align: center; position: fixed; top: 5vh; left: 40vw;"">
            <div style=""margin:0 auto; width: 20vw; top: 8vh; font-size: 1vw""> 
            <font color=""green""> Bonus : $0.85 </font>
            </div>
        </div>
    ","null","","","","","",""
"","","","","","html-keyboard-response","148","137700","0.0-6.0-3.18","60fd225c4faaa264601c1792","6554bfa13ac4b6a0ab00b03a","6554bfeaa4c94267213f4f5e","250","./stimuli//pack_shapes/cat_2/ex_2_57.png","arrowright","response","ArrowRight","57","2","true",""
"","","","","","html-keyboard-response","149","139203","0.0-6.0-4.18","60fd225c4faaa264601c1792","6554bfa13ac4b6a0ab00b03a","6554bfeaa4c94267213f4f5e","null","<p> <font color=""green"" size=""4vw""> Correct category! </font> <br> <br> <font color=""green"" size=""7vw""> + $0.05 </font> </p>","null","feedback","","","","","0.9"
"","","","","","html-keyboard-response","150","139580","0.0-6.0-0.19","60fd225c4faaa264601c1792","6554bfa13ac4b6a0ab00b03a","6554bfeaa4c94267213f4f5e","377","
            
        <div style=""text-align: center; position: fixed; top: 5vh; left: 40vw;"">
            <div style=""margin:0 auto; width: 20vw; top: 8vh; font-size: 1vw""> 
            <font color=""green""> Bonus : $0.9 </font>
            </div>
        </div>
    
            <div> Please press any button to continue to the next trial.</div>
        ","arrowleft","ITI","","","","",""
"","","","","","html-keyboard-response","151","140186","0.0-6.0-1.19","60fd225c4faaa264601c1792","6554bfa13ac4b6a0ab00b03a","6554bfeaa4c94267213f4f5e","null","
        
        <div style=""text-align: center; position: fixed; top: 5vh; left: 40vw;"">
            <div style=""margin:0 auto; width: 20vw; top: 8vh; font-size: 1vw""> 
            <font color=""green""> Bonus : $0.9 </font>
            </div>
        </div>
    
        <img class=""stim"" src=./stimuli//pack_shapes/cat_2/ex_2_78.png></img>
    ","null","stimulus","","","","",""
"","","","","","html-keyboard-response","152","141193","0.0-6.0-2.19","60fd225c4faaa264601c1792","6554bfa13ac4b6a0ab00b03a","6554bfeaa4c94267213f4f5e","null","
        <div style=""text-align: center; position: fixed; top: 5vh; left: 40vw;"">
            <div style=""margin:0 auto; width: 20vw; top: 8vh; font-size: 1vw""> 
            <font color=""green""> Bonus : $0.9 </font>
            </div>
        </div>
    ","null","","","","","",""
"","","","","","html-keyboard-response","153","141565","0.0-6.0-3.19","60fd225c4faaa264601c1792","6554bfa13ac4b6a0ab00b03a","6554bfeaa4c94267213f4f5e","371","./stimuli//pack_shapes/cat_2/ex_2_78.png","arrowleft","response","ArrowRight","78","2","false",""
"","","","","","html-keyboard-response","154","143072","0.0-6.0-4.19","60fd225c4faaa264601c1792","6554bfa13ac4b6a0ab00b03a","6554bfeaa4c94267213f4f5e","null","<p> <font color=""red"" size=""4vw""> Wrong category! </font> </p>","null","feedback","","","","","0.9"
"","","","","","html-keyboard-response","155","143413","0.0-6.0-0.20","60fd225c4faaa264601c1792","6554bfa13ac4b6a0ab00b03a","6554bfeaa4c94267213f4f5e","340","
            
        <div style=""text-align: center; position: fixed; top: 5vh; left: 40vw;"">
            <div style=""margin:0 auto; width: 20vw; top: 8vh; font-size: 1vw""> 
            <font color=""green""> Bonus : $0.9 </font>
            </div>
        </div>
    
            <div> Please press any button to continue to the next trial.</div>
        ","arrowleft","ITI","","","","",""
"","","","","","html-keyboard-response","156","144019","0.0-6.0-1.20","60fd225c4faaa264601c1792","6554bfa13ac4b6a0ab00b03a","6554bfeaa4c94267213f4f5e","null","
        
        <div style=""text-align: center; position: fixed; top: 5vh; left: 40vw;"">
            <div style=""margin:0 auto; width: 20vw; top: 8vh; font-size: 1vw""> 
            <font color=""green""> Bonus : $0.9 </font>
            </div>
        </div>
    
        <img class=""stim"" src=./stimuli//pack_shapes/cat_1/ex_1_2.png></img>
    ","null","stimulus","","","","",""
"","","","","","html-keyboard-response","157","145025","0.0-6.0-2.20","60fd225c4faaa264601c1792","6554bfa13ac4b6a0ab00b03a","6554bfeaa4c94267213f4f5e","null","
        <div style=""text-align: center; position: fixed; top: 5vh; left: 40vw;"">
            <div style=""margin:0 auto; width: 20vw; top: 8vh; font-size: 1vw""> 
            <font color=""green""> Bonus : $0.9 </font>
            </div>
        </div>
    ","null","","","","","",""
"","","","","","html-keyboard-response","158","145412","0.0-6.0-3.20","60fd225c4faaa264601c1792","6554bfa13ac4b6a0ab00b03a","6554bfeaa4c94267213f4f5e","385","./stimuli//pack_shapes/cat_1/ex_1_2.png","arrowleft","response","ArrowLeft","2","1","true",""
"","","","","","html-keyboard-response","159","146918","0.0-6.0-4.20","60fd225c4faaa264601c1792","6554bfa13ac4b6a0ab00b03a","6554bfeaa4c94267213f4f5e","null","<p> <font color=""green"" size=""4vw""> Correct category! </font> <br> <br> <font color=""green"" size=""7vw""> + $0.05 </font> </p>","null","feedback","","","","","0.95"
"","","","","","html-keyboard-response","160","147226","0.0-6.0-0.21","60fd225c4faaa264601c1792","6554bfa13ac4b6a0ab00b03a","6554bfeaa4c94267213f4f5e","307","
            
        <div style=""text-align: center; position: fixed; top: 5vh; left: 40vw;"">
            <div style=""margin:0 auto; width: 20vw; top: 8vh; font-size: 1vw""> 
            <font color=""green""> Bonus : $0.95 </font>
            </div>
        </div>
    
            <div> Please press any button to continue to the next trial.</div>
        ","arrowleft","ITI","","","","",""
"","","","","","html-keyboard-response","161","147833","0.0-6.0-1.21","60fd225c4faaa264601c1792","6554bfa13ac4b6a0ab00b03a","6554bfeaa4c94267213f4f5e","null","
        
        <div style=""text-align: center; position: fixed; top: 5vh; left: 40vw;"">
            <div style=""margin:0 auto; width: 20vw; top: 8vh; font-size: 1vw""> 
            <font color=""green""> Bonus : $0.95 </font>
            </div>
        </div>
    
        <img class=""stim"" src=./stimuli//pack_shapes/cat_2/ex_2_32.png></img>
    ","null","stimulus","","","","",""
"","","","","","html-keyboard-response","162","148839","0.0-6.0-2.21","60fd225c4faaa264601c1792","6554bfa13ac4b6a0ab00b03a","6554bfeaa4c94267213f4f5e","null","
        <div style=""text-align: center; position: fixed; top: 5vh; left: 40vw;"">
            <div style=""margin:0 auto; width: 20vw; top: 8vh; font-size: 1vw""> 
            <font color=""green""> Bonus : $0.95 </font>
            </div>
        </div>
    ","null","","","","","",""
"","","","","","html-keyboard-response","163","149135","0.0-6.0-3.21","60fd225c4faaa264601c1792","6554bfa13ac4b6a0ab00b03a","6554bfeaa4c94267213f4f5e","295","./stimuli//pack_shapes/cat_2/ex_2_32.png","arrowright","response","ArrowRight","32","2","true",""
"","","","","","html-keyboard-response","164","150641","0.0-6.0-4.21","60fd225c4faaa264601c1792","6554bfa13ac4b6a0ab00b03a","6554bfeaa4c94267213f4f5e","null","<p> <font color=""green"" size=""4vw""> Correct category! </font> <br> <br> <font color=""green"" size=""7vw""> + $0.05 </font> </p>","null","feedback","","","","","1"
"","","","","","html-keyboard-response","165","150985","0.0-6.0-0.22","60fd225c4faaa264601c1792","6554bfa13ac4b6a0ab00b03a","6554bfeaa4c94267213f4f5e","343","
            
        <div style=""text-align: center; position: fixed; top: 5vh; left: 40vw;"">
            <div style=""margin:0 auto; width: 20vw; top: 8vh; font-size: 1vw""> 
            <font color=""green""> Bonus : $1 </font>
            </div>
        </div>
    
            <div> Please press any button to continue to the next trial.</div>
        ","arrowleft","ITI","","","","",""
"","","","","","html-keyboard-response","166","151592","0.0-6.0-1.22","60fd225c4faaa264601c1792","6554bfa13ac4b6a0ab00b03a","6554bfeaa4c94267213f4f5e","null","
        
        <div style=""text-align: center; position: fixed; top: 5vh; left: 40vw;"">
            <div style=""margin:0 auto; width: 20vw; top: 8vh; font-size: 1vw""> 
            <font color=""green""> Bonus : $1 </font>
            </div>
        </div>
    
        <img class=""stim"" src=./stimuli//pack_shapes/cat_1/ex_1_68.png></img>
    ","null","stimulus","","","","",""
"","","","","","html-keyboard-response","167","152598","0.0-6.0-2.22","60fd225c4faaa264601c1792","6554bfa13ac4b6a0ab00b03a","6554bfeaa4c94267213f4f5e","null","
        <div style=""text-align: center; position: fixed; top: 5vh; left: 40vw;"">
            <div style=""margin:0 auto; width: 20vw; top: 8vh; font-size: 1vw""> 
            <font color=""green""> Bonus : $1 </font>
            </div>
        </div>
    ","null","","","","","",""
"","","","","","html-keyboard-response","168","152880","0.0-6.0-3.22","60fd225c4faaa264601c1792","6554bfa13ac4b6a0ab00b03a","6554bfeaa4c94267213f4f5e","281","./stimuli//pack_shapes/cat_1/ex_1_68.png","arrowleft","response","ArrowLeft","68","1","true",""
"","","","","","html-keyboard-response","169","154386","0.0-6.0-4.22","60fd225c4faaa264601c1792","6554bfa13ac4b6a0ab00b03a","6554bfeaa4c94267213f4f5e","null","<p> <font color=""green"" size=""4vw""> Correct category! </font> <br> <br> <font color=""green"" size=""7vw""> + $0.05 </font> </p>","null","feedback","","","","","1.05"
"","","","","","html-keyboard-response","170","154730","0.0-6.0-0.23","60fd225c4faaa264601c1792","6554bfa13ac4b6a0ab00b03a","6554bfeaa4c94267213f4f5e","343","
            
        <div style=""text-align: center; position: fixed; top: 5vh; left: 40vw;"">
            <div style=""margin:0 auto; width: 20vw; top: 8vh; font-size: 1vw""> 
            <font color=""green""> Bonus : $1.05 </font>
            </div>
        </div>
    
            <div> Please press any button to continue to the next trial.</div>
        ","arrowleft","ITI","","","","",""
"","","","","","html-keyboard-response","171","155336","0.0-6.0-1.23","60fd225c4faaa264601c1792","6554bfa13ac4b6a0ab00b03a","6554bfeaa4c94267213f4f5e","null","
        
        <div style=""text-align: center; position: fixed; top: 5vh; left: 40vw;"">
            <div style=""margin:0 auto; width: 20vw; top: 8vh; font-size: 1vw""> 
            <font color=""green""> Bonus : $1.05 </font>
            </div>
        </div>
    
        <img class=""stim"" src=./stimuli//pack_shapes/cat_2/ex_2_54.png></img>
    ","null","stimulus","","","","",""
"","","","","","html-keyboard-response","172","156343","0.0-6.0-2.23","60fd225c4faaa264601c1792","6554bfa13ac4b6a0ab00b03a","6554bfeaa4c94267213f4f5e","null","
        <div style=""text-align: center; position: fixed; top: 5vh; left: 40vw;"">
            <div style=""margin:0 auto; width: 20vw; top: 8vh; font-size: 1vw""> 
            <font color=""green""> Bonus : $1.05 </font>
            </div>
        </div>
    ","null","","","","","",""
"","","","","","html-keyboard-response","173","156610","0.0-6.0-3.23","60fd225c4faaa264601c1792","6554bfa13ac4b6a0ab00b03a","6554bfeaa4c94267213f4f5e","265","./stimuli//pack_shapes/cat_2/ex_2_54.png","arrowright","response","ArrowRight","54","2","true",""
"","","","","","html-keyboard-response","174","158111","0.0-6.0-4.23","60fd225c4faaa264601c1792","6554bfa13ac4b6a0ab00b03a","6554bfeaa4c94267213f4f5e","null","<p> <font color=""green"" size=""4vw""> Correct category! </font> <br> <br> <font color=""green"" size=""7vw""> + $0.05 </font> </p>","null","feedback","","","","","1.1"
"","","","","","html-keyboard-response","175","158398","0.0-6.0-0.24","60fd225c4faaa264601c1792","6554bfa13ac4b6a0ab00b03a","6554bfeaa4c94267213f4f5e","286","
            
        <div style=""text-align: center; position: fixed; top: 5vh; left: 40vw;"">
            <div style=""margin:0 auto; width: 20vw; top: 8vh; font-size: 1vw""> 
            <font color=""green""> Bonus : $1.1 </font>
            </div>
        </div>
    
            <div> Please press any button to continue to the next trial.</div>
        ","arrowleft","ITI","","","","",""
"","","","","","html-keyboard-response","176","159003","0.0-6.0-1.24","60fd225c4faaa264601c1792","6554bfa13ac4b6a0ab00b03a","6554bfeaa4c94267213f4f5e","null","
        
        <div style=""text-align: center; position: fixed; top: 5vh; left: 40vw;"">
            <div style=""margin:0 auto; width: 20vw; top: 8vh; font-size: 1vw""> 
            <font color=""green""> Bonus : $1.1 </font>
            </div>
        </div>
    
        <img class=""stim"" src=./stimuli//pack_shapes/cat_1/ex_1_27.png></img>
    ","null","stimulus","","","","",""
"","","","","","html-keyboard-response","177","160004","0.0-6.0-2.24","60fd225c4faaa264601c1792","6554bfa13ac4b6a0ab00b03a","6554bfeaa4c94267213f4f5e","null","
        <div style=""text-align: center; position: fixed; top: 5vh; left: 40vw;"">
            <div style=""margin:0 auto; width: 20vw; top: 8vh; font-size: 1vw""> 
            <font color=""green""> Bonus : $1.1 </font>
            </div>
        </div>
    ","null","","","","","",""
"","","","","","html-keyboard-response","178","160291","0.0-6.0-3.24","60fd225c4faaa264601c1792","6554bfa13ac4b6a0ab00b03a","6554bfeaa4c94267213f4f5e","286","./stimuli//pack_shapes/cat_1/ex_1_27.png","arrowleft","response","ArrowLeft","27","1","true",""
"","","","","","html-keyboard-response","179","161799","0.0-6.0-4.24","60fd225c4faaa264601c1792","6554bfa13ac4b6a0ab00b03a","6554bfeaa4c94267213f4f5e","null","<p> <font color=""green"" size=""4vw""> Correct category! </font> <br> <br> <font color=""green"" size=""7vw""> + $0.05 </font> </p>","null","feedback","","","","","1.15"
"","","","","","html-keyboard-response","180","162124","0.0-6.0-0.25","60fd225c4faaa264601c1792","6554bfa13ac4b6a0ab00b03a","6554bfeaa4c94267213f4f5e","324","
            
        <div style=""text-align: center; position: fixed; top: 5vh; left: 40vw;"">
            <div style=""margin:0 auto; width: 20vw; top: 8vh; font-size: 1vw""> 
            <font color=""green""> Bonus : $1.15 </font>
            </div>
        </div>
    
            <div> Please press any button to continue to the next trial.</div>
        ","arrowleft","ITI","","","","",""
"","","","","","html-keyboard-response","181","162730","0.0-6.0-1.25","60fd225c4faaa264601c1792","6554bfa13ac4b6a0ab00b03a","6554bfeaa4c94267213f4f5e","null","
        
        <div style=""text-align: center; position: fixed; top: 5vh; left: 40vw;"">
            <div style=""margin:0 auto; width: 20vw; top: 8vh; font-size: 1vw""> 
            <font color=""green""> Bonus : $1.15 </font>
            </div>
        </div>
    
        <img class=""stim"" src=./stimuli//pack_shapes/cat_1/ex_1_47.png></img>
    ","null","stimulus","","","","",""
"","","","","","html-keyboard-response","182","163735","0.0-6.0-2.25","60fd225c4faaa264601c1792","6554bfa13ac4b6a0ab00b03a","6554bfeaa4c94267213f4f5e","null","
        <div style=""text-align: center; position: fixed; top: 5vh; left: 40vw;"">
            <div style=""margin:0 auto; width: 20vw; top: 8vh; font-size: 1vw""> 
            <font color=""green""> Bonus : $1.15 </font>
            </div>
        </div>
    ","null","","","","","",""
"","","","","","html-keyboard-response","183","163991","0.0-6.0-3.25","60fd225c4faaa264601c1792","6554bfa13ac4b6a0ab00b03a","6554bfeaa4c94267213f4f5e","254","./stimuli//pack_shapes/cat_1/ex_1_47.png","arrowleft","response","ArrowLeft","47","1","true",""
"","","","","","html-keyboard-response","184","165498","0.0-6.0-4.25","60fd225c4faaa264601c1792","6554bfa13ac4b6a0ab00b03a","6554bfeaa4c94267213f4f5e","null","<p> <font color=""green"" size=""4vw""> Correct category! </font> <br> <br> <font color=""green"" size=""7vw""> + $0.05 </font> </p>","null","feedback","","","","","1.2"
"","","","","","html-keyboard-response","185","165886","0.0-6.0-0.26","60fd225c4faaa264601c1792","6554bfa13ac4b6a0ab00b03a","6554bfeaa4c94267213f4f5e","387","
            
        <div style=""text-align: center; position: fixed; top: 5vh; left: 40vw;"">
            <div style=""margin:0 auto; width: 20vw; top: 8vh; font-size: 1vw""> 
            <font color=""green""> Bonus : $1.2 </font>
            </div>
        </div>
    
            <div> Please press any button to continue to the next trial.</div>
        ","arrowleft","ITI","","","","",""
"","","","","","html-keyboard-response","186","166491","0.0-6.0-1.26","60fd225c4faaa264601c1792","6554bfa13ac4b6a0ab00b03a","6554bfeaa4c94267213f4f5e","null","
        
        <div style=""text-align: center; position: fixed; top: 5vh; left: 40vw;"">
            <div style=""margin:0 auto; width: 20vw; top: 8vh; font-size: 1vw""> 
            <font color=""green""> Bonus : $1.2 </font>
            </div>
        </div>
    
        <img class=""stim"" src=./stimuli//pack_shapes/cat_2/ex_2_31.png></img>
    ","null","stimulus","","","","",""
"","","","","","html-keyboard-response","187","167498","0.0-6.0-2.26","60fd225c4faaa264601c1792","6554bfa13ac4b6a0ab00b03a","6554bfeaa4c94267213f4f5e","null","
        <div style=""text-align: center; position: fixed; top: 5vh; left: 40vw;"">
            <div style=""margin:0 auto; width: 20vw; top: 8vh; font-size: 1vw""> 
            <font color=""green""> Bonus : $1.2 </font>
            </div>
        </div>
    ","null","","","","","",""
"","","","","","html-keyboard-response","188","167731","0.0-6.0-3.26","60fd225c4faaa264601c1792","6554bfa13ac4b6a0ab00b03a","6554bfeaa4c94267213f4f5e","232","./stimuli//pack_shapes/cat_2/ex_2_31.png","arrowright","response","ArrowRight","31","2","true",""
"","","","","","html-keyboard-response","189","169238","0.0-6.0-4.26","60fd225c4faaa264601c1792","6554bfa13ac4b6a0ab00b03a","6554bfeaa4c94267213f4f5e","null","<p> <font color=""green"" size=""4vw""> Correct category! </font> <br> <br> <font color=""green"" size=""7vw""> + $0.05 </font> </p>","null","feedback","","","","","1.25"
"","","","","","html-keyboard-response","190","169510","0.0-6.0-0.27","60fd225c4faaa264601c1792","6554bfa13ac4b6a0ab00b03a","6554bfeaa4c94267213f4f5e","270","
            
        <div style=""text-align: center; position: fixed; top: 5vh; left: 40vw;"">
            <div style=""margin:0 auto; width: 20vw; top: 8vh; font-size: 1vw""> 
            <font color=""green""> Bonus : $1.25 </font>
            </div>
        </div>
    
            <div> Please press any button to continue to the next trial.</div>
        ","arrowleft","ITI","","","","",""
"","","","","","html-keyboard-response","191","170116","0.0-6.0-1.27","60fd225c4faaa264601c1792","6554bfa13ac4b6a0ab00b03a","6554bfeaa4c94267213f4f5e","null","
        
        <div style=""text-align: center; position: fixed; top: 5vh; left: 40vw;"">
            <div style=""margin:0 auto; width: 20vw; top: 8vh; font-size: 1vw""> 
            <font color=""green""> Bonus : $1.25 </font>
            </div>
        </div>
    
        <img class=""stim"" src=./stimuli//pack_shapes/cat_1/ex_1_26.png></img>
    ","null","stimulus","","","","",""
"","","","","","html-keyboard-response","192","171119","0.0-6.0-2.27","60fd225c4faaa264601c1792","6554bfa13ac4b6a0ab00b03a","6554bfeaa4c94267213f4f5e","null","
        <div style=""text-align: center; position: fixed; top: 5vh; left: 40vw;"">
            <div style=""margin:0 auto; width: 20vw; top: 8vh; font-size: 1vw""> 
            <font color=""green""> Bonus : $1.25 </font>
            </div>
        </div>
    ","null","","","","","",""
"","","","","","html-keyboard-response","193","171344","0.0-6.0-3.27","60fd225c4faaa264601c1792","6554bfa13ac4b6a0ab00b03a","6554bfeaa4c94267213f4f5e","223","./stimuli//pack_shapes/cat_1/ex_1_26.png","arrowleft","response","ArrowLeft","26","1","true",""
"","","","","","html-keyboard-response","194","172850","0.0-6.0-4.27","60fd225c4faaa264601c1792","6554bfa13ac4b6a0ab00b03a","6554bfeaa4c94267213f4f5e","null","<p> <font color=""green"" size=""4vw""> Correct category! </font> <br> <br> <font color=""green"" size=""7vw""> + $0.05 </font> </p>","null","feedback","","","","","1.3"
"","","","","","html-keyboard-response","195","173088","0.0-6.0-0.28","60fd225c4faaa264601c1792","6554bfa13ac4b6a0ab00b03a","6554bfeaa4c94267213f4f5e","236","
            
        <div style=""text-align: center; position: fixed; top: 5vh; left: 40vw;"">
            <div style=""margin:0 auto; width: 20vw; top: 8vh; font-size: 1vw""> 
            <font color=""green""> Bonus : $1.3 </font>
            </div>
        </div>
    
            <div> Please press any button to continue to the next trial.</div>
        ","arrowleft","ITI","","","","",""
"","","","","","html-keyboard-response","196","173694","0.0-6.0-1.28","60fd225c4faaa264601c1792","6554bfa13ac4b6a0ab00b03a","6554bfeaa4c94267213f4f5e","null","
        
        <div style=""text-align: center; position: fixed; top: 5vh; left: 40vw;"">
            <div style=""margin:0 auto; width: 20vw; top: 8vh; font-size: 1vw""> 
            <font color=""green""> Bonus : $1.3 </font>
            </div>
        </div>
    
        <img class=""stim"" src=./stimuli//pack_shapes/cat_1/ex_1_6.png></img>
    ","null","stimulus","","","","",""
"","","","","","html-keyboard-response","197","174701","0.0-6.0-2.28","60fd225c4faaa264601c1792","6554bfa13ac4b6a0ab00b03a","6554bfeaa4c94267213f4f5e","null","
        <div style=""text-align: center; position: fixed; top: 5vh; left: 40vw;"">
            <div style=""margin:0 auto; width: 20vw; top: 8vh; font-size: 1vw""> 
            <font color=""green""> Bonus : $1.3 </font>
            </div>
        </div>
    ","null","","","","","",""
"","","","","","html-keyboard-response","198","174933","0.0-6.0-3.28","60fd225c4faaa264601c1792","6554bfa13ac4b6a0ab00b03a","6554bfeaa4c94267213f4f5e","230","./stimuli//pack_shapes/cat_1/ex_1_6.png","arrowleft","response","ArrowLeft","6","1","true",""
"","","","","","html-keyboard-response","199","176440","0.0-6.0-4.28","60fd225c4faaa264601c1792","6554bfa13ac4b6a0ab00b03a","6554bfeaa4c94267213f4f5e","null","<p> <font color=""green"" size=""4vw""> Correct category! </font> <br> <br> <font color=""green"" size=""7vw""> + $0.05 </font> </p>","null","feedback","","","","","1.35"
"","","","","","html-keyboard-response","200","176737","0.0-6.0-0.29","60fd225c4faaa264601c1792","6554bfa13ac4b6a0ab00b03a","6554bfeaa4c94267213f4f5e","296","
            
        <div style=""text-align: center; position: fixed; top: 5vh; left: 40vw;"">
            <div style=""margin:0 auto; width: 20vw; top: 8vh; font-size: 1vw""> 
            <font color=""green""> Bonus : $1.35 </font>
            </div>
        </div>
    
            <div> Please press any button to continue to the next trial.</div>
        ","arrowleft","ITI","","","","",""
"","","","","","html-keyboard-response","201","177344","0.0-6.0-1.29","60fd225c4faaa264601c1792","6554bfa13ac4b6a0ab00b03a","6554bfeaa4c94267213f4f5e","null","
        
        <div style=""text-align: center; position: fixed; top: 5vh; left: 40vw;"">
            <div style=""margin:0 auto; width: 20vw; top: 8vh; font-size: 1vw""> 
            <font color=""green""> Bonus : $1.35 </font>
            </div>
        </div>
    
        <img class=""stim"" src=./stimuli//pack_shapes/cat_1/ex_1_77.png></img>
    ","null","stimulus","","","","",""
"","","","","","html-keyboard-response","202","178351","0.0-6.0-2.29","60fd225c4faaa264601c1792","6554bfa13ac4b6a0ab00b03a","6554bfeaa4c94267213f4f5e","null","
        <div style=""text-align: center; position: fixed; top: 5vh; left: 40vw;"">
            <div style=""margin:0 auto; width: 20vw; top: 8vh; font-size: 1vw""> 
            <font color=""green""> Bonus : $1.35 </font>
            </div>
        </div>
    ","null","","","","","",""
"","","","","","html-keyboard-response","203","178575","0.0-6.0-3.29","60fd225c4faaa264601c1792","6554bfa13ac4b6a0ab00b03a","6554bfeaa4c94267213f4f5e","223","./stimuli//pack_shapes/cat_1/ex_1_77.png","arrowleft","response","ArrowLeft","77","1","true",""
"","","","","","html-keyboard-response","204","180082","0.0-6.0-4.29","60fd225c4faaa264601c1792","6554bfa13ac4b6a0ab00b03a","6554bfeaa4c94267213f4f5e","null","<p> <font color=""green"" size=""4vw""> Correct category! </font> <br> <br> <font color=""green"" size=""7vw""> + $0.05 </font> </p>","null","feedback","","","","","1.4"
"","","","","","html-keyboard-response","205","180355","0.0-6.0-0.30","60fd225c4faaa264601c1792","6554bfa13ac4b6a0ab00b03a","6554bfeaa4c94267213f4f5e","272","
            
        <div style=""text-align: center; position: fixed; top: 5vh; left: 40vw;"">
            <div style=""margin:0 auto; width: 20vw; top: 8vh; font-size: 1vw""> 
            <font color=""green""> Bonus : $1.4 </font>
            </div>
        </div>
    
            <div> Please press any button to continue to the next trial.</div>
        ","arrowleft","ITI","","","","",""
"","","","","","html-keyboard-response","206","180957","0.0-6.0-1.30","60fd225c4faaa264601c1792","6554bfa13ac4b6a0ab00b03a","6554bfeaa4c94267213f4f5e","null","
        
        <div style=""text-align: center; position: fixed; top: 5vh; left: 40vw;"">
            <div style=""margin:0 auto; width: 20vw; top: 8vh; font-size: 1vw""> 
            <font color=""green""> Bonus : $1.4 </font>
            </div>
        </div>
    
        <img class=""stim"" src=./stimuli//pack_shapes/cat_2/ex_2_53.png></img>
    ","null","stimulus","","","","",""
"","","","","","html-keyboard-response","207","181964","0.0-6.0-2.30","60fd225c4faaa264601c1792","6554bfa13ac4b6a0ab00b03a","6554bfeaa4c94267213f4f5e","null","
        <div style=""text-align: center; position: fixed; top: 5vh; left: 40vw;"">
            <div style=""margin:0 auto; width: 20vw; top: 8vh; font-size: 1vw""> 
            <font color=""green""> Bonus : $1.4 </font>
            </div>
        </div>
    ","null","","","","","",""
"","","","","","html-keyboard-response","208","182190","0.0-6.0-3.30","60fd225c4faaa264601c1792","6554bfa13ac4b6a0ab00b03a","6554bfeaa4c94267213f4f5e","225","./stimuli//pack_shapes/cat_2/ex_2_53.png","arrowright","response","ArrowRight","53","2","true",""
"","","","","","html-keyboard-response","209","183696","0.0-6.0-4.30","60fd225c4faaa264601c1792","6554bfa13ac4b6a0ab00b03a","6554bfeaa4c94267213f4f5e","null","<p> <font color=""green"" size=""4vw""> Correct category! </font> <br> <br> <font color=""green"" size=""7vw""> + $0.05 </font> </p>","null","feedback","","","","","1.45"
"","","","","","html-keyboard-response","210","184006","0.0-6.0-0.31","60fd225c4faaa264601c1792","6554bfa13ac4b6a0ab00b03a","6554bfeaa4c94267213f4f5e","309","
            
        <div style=""text-align: center; position: fixed; top: 5vh; left: 40vw;"">
            <div style=""margin:0 auto; width: 20vw; top: 8vh; font-size: 1vw""> 
            <font color=""green""> Bonus : $1.45 </font>
            </div>
        </div>
    
            <div> Please press any button to continue to the next trial.</div>
        ","arrowright","ITI","","","","",""
"","","","","","html-keyboard-response","211","184613","0.0-6.0-1.31","60fd225c4faaa264601c1792","6554bfa13ac4b6a0ab00b03a","6554bfeaa4c94267213f4f5e","null","
        
        <div style=""text-align: center; position: fixed; top: 5vh; left: 40vw;"">
            <div style=""margin:0 auto; width: 20vw; top: 8vh; font-size: 1vw""> 
            <font color=""green""> Bonus : $1.45 </font>
            </div>
        </div>
    
        <img class=""stim"" src=./stimuli//pack_shapes/cat_1/ex_1_16.png></img>
    ","null","stimulus","","","","",""
"","","","","","html-keyboard-response","212","185617","0.0-6.0-2.31","60fd225c4faaa264601c1792","6554bfa13ac4b6a0ab00b03a","6554bfeaa4c94267213f4f5e","null","
        <div style=""text-align: center; position: fixed; top: 5vh; left: 40vw;"">
            <div style=""margin:0 auto; width: 20vw; top: 8vh; font-size: 1vw""> 
            <font color=""green""> Bonus : $1.45 </font>
            </div>
        </div>
    ","null","","","","","",""
"","","","","","html-keyboard-response","213","185866","0.0-6.0-3.31","60fd225c4faaa264601c1792","6554bfa13ac4b6a0ab00b03a","6554bfeaa4c94267213f4f5e","247","./stimuli//pack_shapes/cat_1/ex_1_16.png","arrowleft","response","ArrowLeft","16","1","true",""
"","","","","","html-keyboard-response","214","187370","0.0-6.0-4.31","60fd225c4faaa264601c1792","6554bfa13ac4b6a0ab00b03a","6554bfeaa4c94267213f4f5e","null","<p> <font color=""green"" size=""4vw""> Correct category! </font> <br> <br> <font color=""green"" size=""7vw""> + $0.05 </font> </p>","null","feedback","","","","","1.5"
"","","","","","html-keyboard-response","215","187672","0.0-6.0-0.32","60fd225c4faaa264601c1792","6554bfa13ac4b6a0ab00b03a","6554bfeaa4c94267213f4f5e","302","
            
        <div style=""text-align: center; position: fixed; top: 5vh; left: 40vw;"">
            <div style=""margin:0 auto; width: 20vw; top: 8vh; font-size: 1vw""> 
            <font color=""green""> Bonus : $1.5 </font>
            </div>
        </div>
    
            <div> Please press any button to continue to the next trial.</div>
        ","arrowleft","ITI","","","","",""
"","","","","","html-keyboard-response","216","188280","0.0-6.0-1.32","60fd225c4faaa264601c1792","6554bfa13ac4b6a0ab00b03a","6554bfeaa4c94267213f4f5e","null","
        
        <div style=""text-align: center; position: fixed; top: 5vh; left: 40vw;"">
            <div style=""margin:0 auto; width: 20vw; top: 8vh; font-size: 1vw""> 
            <font color=""green""> Bonus : $1.5 </font>
            </div>
        </div>
    
        <img class=""stim"" src=./stimuli//pack_shapes/cat_1/ex_1_67.png></img>
    ","null","stimulus","","","","",""
"","","","","","html-keyboard-response","217","189287","0.0-6.0-2.32","60fd225c4faaa264601c1792","6554bfa13ac4b6a0ab00b03a","6554bfeaa4c94267213f4f5e","null","
        <div style=""text-align: center; position: fixed; top: 5vh; left: 40vw;"">
            <div style=""margin:0 auto; width: 20vw; top: 8vh; font-size: 1vw""> 
            <font color=""green""> Bonus : $1.5 </font>
            </div>
        </div>
    ","null","","","","","",""
"","","","","","html-keyboard-response","218","189653","0.0-6.0-3.32","60fd225c4faaa264601c1792","6554bfa13ac4b6a0ab00b03a","6554bfeaa4c94267213f4f5e","365","./stimuli//pack_shapes/cat_1/ex_1_67.png","arrowleft","response","ArrowLeft","67","1","true",""
"","","","","","html-keyboard-response","219","191160","0.0-6.0-4.32","60fd225c4faaa264601c1792","6554bfa13ac4b6a0ab00b03a","6554bfeaa4c94267213f4f5e","null","<p> <font color=""green"" size=""4vw""> Correct category! </font> <br> <br> <font color=""green"" size=""7vw""> + $0.05 </font> </p>","null","feedback","","","","","1.55"
"","","","","","html-keyboard-response","220","191437","0.0-6.0-0.33","60fd225c4faaa264601c1792","6554bfa13ac4b6a0ab00b03a","6554bfeaa4c94267213f4f5e","277","
            
        <div style=""text-align: center; position: fixed; top: 5vh; left: 40vw;"">
            <div style=""margin:0 auto; width: 20vw; top: 8vh; font-size: 1vw""> 
            <font color=""green""> Bonus : $1.55 </font>
            </div>
        </div>
    
            <div> Please press any button to continue to the next trial.</div>
        ","arrowleft","ITI","","","","",""
"","","","","","html-keyboard-response","221","192044","0.0-6.0-1.33","60fd225c4faaa264601c1792","6554bfa13ac4b6a0ab00b03a","6554bfeaa4c94267213f4f5e","null","
        
        <div style=""text-align: center; position: fixed; top: 5vh; left: 40vw;"">
            <div style=""margin:0 auto; width: 20vw; top: 8vh; font-size: 1vw""> 
            <font color=""green""> Bonus : $1.55 </font>
            </div>
        </div>
    
        <img class=""stim"" src=./stimuli//pack_shapes/cat_1/ex_1_64.png></img>
    ","null","stimulus","","","","",""
"","","","","","html-keyboard-response","222","193051","0.0-6.0-2.33","60fd225c4faaa264601c1792","6554bfa13ac4b6a0ab00b03a","6554bfeaa4c94267213f4f5e","null","
        <div style=""text-align: center; position: fixed; top: 5vh; left: 40vw;"">
            <div style=""margin:0 auto; width: 20vw; top: 8vh; font-size: 1vw""> 
            <font color=""green""> Bonus : $1.55 </font>
            </div>
        </div>
    ","null","","","","","",""
"","","","","","html-keyboard-response","223","193305","0.0-6.0-3.33","60fd225c4faaa264601c1792","6554bfa13ac4b6a0ab00b03a","6554bfeaa4c94267213f4f5e","252","./stimuli//pack_shapes/cat_1/ex_1_64.png","arrowleft","response","ArrowLeft","64","1","true",""
"","","","","","html-keyboard-response","224","194811","0.0-6.0-4.33","60fd225c4faaa264601c1792","6554bfa13ac4b6a0ab00b03a","6554bfeaa4c94267213f4f5e","null","<p> <font color=""green"" size=""4vw""> Correct category! </font> <br> <br> <font color=""green"" size=""7vw""> + $0.05 </font> </p>","null","feedback","","","","","1.6"
"","","","","","html-keyboard-response","225","195105","0.0-6.0-0.34","60fd225c4faaa264601c1792","6554bfa13ac4b6a0ab00b03a","6554bfeaa4c94267213f4f5e","293","
            
        <div style=""text-align: center; position: fixed; top: 5vh; left: 40vw;"">
            <div style=""margin:0 auto; width: 20vw; top: 8vh; font-size: 1vw""> 
            <font color=""green""> Bonus : $1.6 </font>
            </div>
        </div>
    
            <div> Please press any button to continue to the next trial.</div>
        ","arrowleft","ITI","","","","",""
"","","","","","html-keyboard-response","226","195711","0.0-6.0-1.34","60fd225c4faaa264601c1792","6554bfa13ac4b6a0ab00b03a","6554bfeaa4c94267213f4f5e","null","
        
        <div style=""text-align: center; position: fixed; top: 5vh; left: 40vw;"">
            <div style=""margin:0 auto; width: 20vw; top: 8vh; font-size: 1vw""> 
            <font color=""green""> Bonus : $1.6 </font>
            </div>
        </div>
    
        <img class=""stim"" src=./stimuli//pack_shapes/cat_1/ex_1_66.png></img>
    ","null","stimulus","","","","",""
"","","","","","html-keyboard-response","227","196718","0.0-6.0-2.34","60fd225c4faaa264601c1792","6554bfa13ac4b6a0ab00b03a","6554bfeaa4c94267213f4f5e","null","
        <div style=""text-align: center; position: fixed; top: 5vh; left: 40vw;"">
            <div style=""margin:0 auto; width: 20vw; top: 8vh; font-size: 1vw""> 
            <font color=""green""> Bonus : $1.6 </font>
            </div>
        </div>
    ","null","","","","","",""
"","","","","","html-keyboard-response","228","196861","0.0-6.0-3.34","60fd225c4faaa264601c1792","6554bfa13ac4b6a0ab00b03a","6554bfeaa4c94267213f4f5e","142","./stimuli//pack_shapes/cat_1/ex_1_66.png","arrowleft","response","ArrowLeft","66","1","true",""
"","","","","","html-keyboard-response","229","198368","0.0-6.0-4.34","60fd225c4faaa264601c1792","6554bfa13ac4b6a0ab00b03a","6554bfeaa4c94267213f4f5e","null","<p> <font color=""green"" size=""4vw""> Correct category! </font> <br> <br> <font color=""green"" size=""7vw""> + $0.05 </font> </p>","null","feedback","","","","","1.65"
"","","","","","html-keyboard-response","230","198952","0.0-6.0-0.35","60fd225c4faaa264601c1792","6554bfa13ac4b6a0ab00b03a","6554bfeaa4c94267213f4f5e","583","
            
        <div style=""text-align: center; position: fixed; top: 5vh; left: 40vw;"">
            <div style=""margin:0 auto; width: 20vw; top: 8vh; font-size: 1vw""> 
            <font color=""green""> Bonus : $1.65 </font>
            </div>
        </div>
    
            <div> Please press any button to continue to the next trial.</div>
        ","arrowleft","ITI","","","","",""
"","","","","","html-keyboard-response","231","199559","0.0-6.0-1.35","60fd225c4faaa264601c1792","6554bfa13ac4b6a0ab00b03a","6554bfeaa4c94267213f4f5e","null","
        
        <div style=""text-align: center; position: fixed; top: 5vh; left: 40vw;"">
            <div style=""margin:0 auto; width: 20vw; top: 8vh; font-size: 1vw""> 
            <font color=""green""> Bonus : $1.65 </font>
            </div>
        </div>
    
        <img class=""stim"" src=./stimuli//pack_shapes/cat_1/ex_1_58.png></img>
    ","null","stimulus","","","","",""
"","","","","","html-keyboard-response","232","200563","0.0-6.0-2.35","60fd225c4faaa264601c1792","6554bfa13ac4b6a0ab00b03a","6554bfeaa4c94267213f4f5e","null","
        <div style=""text-align: center; position: fixed; top: 5vh; left: 40vw;"">
            <div style=""margin:0 auto; width: 20vw; top: 8vh; font-size: 1vw""> 
            <font color=""green""> Bonus : $1.65 </font>
            </div>
        </div>
    ","null","","","","","",""
"","","","","","html-keyboard-response","233","200810","0.0-6.0-3.35","60fd225c4faaa264601c1792","6554bfa13ac4b6a0ab00b03a","6554bfeaa4c94267213f4f5e","246","./stimuli//pack_shapes/cat_1/ex_1_58.png","arrowleft","response","ArrowLeft","58","1","true",""
"","","","","","html-keyboard-response","234","202312","0.0-6.0-4.35","60fd225c4faaa264601c1792","6554bfa13ac4b6a0ab00b03a","6554bfeaa4c94267213f4f5e","null","<p> <font color=""green"" size=""4vw""> Correct category! </font> <br> <br> <font color=""green"" size=""7vw""> + $0.05 </font> </p>","null","feedback","","","","","1.7"
"","","","","","html-keyboard-response","235","202609","0.0-6.0-0.36","60fd225c4faaa264601c1792","6554bfa13ac4b6a0ab00b03a","6554bfeaa4c94267213f4f5e","296","
            
        <div style=""text-align: center; position: fixed; top: 5vh; left: 40vw;"">
            <div style=""margin:0 auto; width: 20vw; top: 8vh; font-size: 1vw""> 
            <font color=""green""> Bonus : $1.7 </font>
            </div>
        </div>
    
            <div> Please press any button to continue to the next trial.</div>
