"success","timeout","failed_images","failed_audio","failed_video","trial_type","trial_index","time_elapsed","internal_node_id","subject_id","study_id","session_id","rt","stimulus","response","task","correct_response","exemplar_ID","category","correct","bonus"
"true","false","[]","[]","[]","preload","0","2","0.0-0.0","5c707693db12e3000146b16d","6554bfa13ac4b6a0ab00b03a","6554c011b3037682f403932b","","","","","","","","",""
"","","","","","html-keyboard-response","1","1535","0.0-1.0","5c707693db12e3000146b16d","6554bfa13ac4b6a0ab00b03a","6554c011b3037682f403932b","1532","Welcome to the Category Learning experiment! Press any key to continue."," ","welcome","","","","",""
"","","","","","html-keyboard-response","2","19070","0.0-2.0","5c707693db12e3000146b16d","6554bfa13ac4b6a0ab00b03a","6554c011b3037682f403932b","17534","
            <p>You will be shown images of black shapes.  Some are category A, some are category B.
            <br>You will not know in advance which category a specific shape belongs to.</p>
            <p>After you see an image, you will be asked to guess its category <b>(left arrow for category A, right arrow for category B)</b></p>
            <p>After you choose, the screen will show you whether you were correct or not.</p>
            <p><b>You will receive a bonus payment of $0.05 for each correct answer!</b></p>
            <p> So you can increase your bonus by guessing correctly, and by guessing as quickly as possible so you move on to the next image sooner.</p>
            <p>Press any key to continue.</p>
            "," ","introduction_1","","","","",""
"","","","","","html-keyboard-response","3","23741","0.0-3.0","5c707693db12e3000146b16d","6554bfa13ac4b6a0ab00b03a","6554c011b3037682f403932b","4670","
            <p> <b>The first 10 trials are a practice round that will not count towards your bonus payment.</b></p>
            <p> You will be notified when practice finishes and the test begins. </p>
            <p> Press any key to begin the practice round.</p>
            "," ","introduction_2","","","","",""
"","","","","","html-keyboard-response","4","25758","0.0-4.0-0.0","5c707693db12e3000146b16d","6554bfa13ac4b6a0ab00b03a","6554c011b3037682f403932b","2015","
            
        <div style=""text-align: center; position: fixed; top: 5vh; left: 40vw;"">
            <div style=""margin:0 auto; width: 20vw; top: 8vh; font-size: 1vw""> 
            <font color=""green""> Bonus : $0 </font>
            </div>
        </div>
    
            <div> Please press any button to continue to the next trial.</div>
        "," ","ITI","","","","",""
"","","","","","html-keyboard-response","5","26365","0.0-4.0-1.0","5c707693db12e3000146b16d","6554bfa13ac4b6a0ab00b03a","6554c011b3037682f403932b","null","
        
        <div style=""text-align: center; position: fixed; top: 5vh; left: 40vw;"">
            <div style=""margin:0 auto; width: 20vw; top: 8vh; font-size: 1vw""> 
            <font color=""green""> Bonus : $0 </font>
            </div>
        </div>
    
        <img class=""stim"" src=./stimuli//pack_shapes/cat_2/ex_2_80.png></img>
    ","null","stimulus","","","","",""
"","","","","","html-keyboard-response","6","27368","0.0-4.0-2.0","5c707693db12e3000146b16d","6554bfa13ac4b6a0ab00b03a","6554c011b3037682f403932b","null","
        <div style=""text-align: center; position: fixed; top: 5vh; left: 40vw;"">
            <div style=""margin:0 auto; width: 20vw; top: 8vh; font-size: 1vw""> 
            <font color=""green""> Bonus : $0 </font>
            </div>
        </div>
    ","null","","","","","",""
"","","","","","html-keyboard-response","7","28182","0.0-4.0-3.0","5c707693db12e3000146b16d","6554bfa13ac4b6a0ab00b03a","6554c011b3037682f403932b","812","./stimuli//pack_shapes/cat_2/ex_2_80.png","arrowleft","response","ArrowRight","80","2","false",""
"","","","","","html-keyboard-response","8","29689","0.0-4.0-4.0","5c707693db12e3000146b16d","6554bfa13ac4b6a0ab00b03a","6554c011b3037682f403932b","null","<p> <font color=""red"" size=""4vw""> Wrong category! </font> </p>","null","feedback","","","","","0"
"","","","","","html-keyboard-response","9","31254","0.0-4.0-0.1","5c707693db12e3000146b16d","6554bfa13ac4b6a0ab00b03a","6554c011b3037682f403932b","1563","
            
        <div style=""text-align: center; position: fixed; top: 5vh; left: 40vw;"">
            <div style=""margin:0 auto; width: 20vw; top: 8vh; font-size: 1vw""> 
            <font color=""green""> Bonus : $0 </font>
            </div>
        </div>
    
            <div> Please press any button to continue to the next trial.</div>
        ","arrowleft","ITI","","","","",""
"","","","","","html-keyboard-response","10","31860","0.0-4.0-1.1","5c707693db12e3000146b16d","6554bfa13ac4b6a0ab00b03a","6554c011b3037682f403932b","null","
        
        <div style=""text-align: center; position: fixed; top: 5vh; left: 40vw;"">
            <div style=""margin:0 auto; width: 20vw; top: 8vh; font-size: 1vw""> 
            <font color=""green""> Bonus : $0 </font>
            </div>
        </div>
    
        <img class=""stim"" src=./stimuli//pack_shapes/cat_1/ex_1_49.png></img>
    ","null","stimulus","","","","",""
"","","","","","html-keyboard-response","11","32861","0.0-4.0-2.1","5c707693db12e3000146b16d","6554bfa13ac4b6a0ab00b03a","6554c011b3037682f403932b","null","
        <div style=""text-align: center; position: fixed; top: 5vh; left: 40vw;"">
            <div style=""margin:0 auto; width: 20vw; top: 8vh; font-size: 1vw""> 
            <font color=""green""> Bonus : $0 </font>
            </div>
        </div>
    ","null","","","","","",""
"","","","","","html-keyboard-response","12","33622","0.0-4.0-3.1","5c707693db12e3000146b16d","6554bfa13ac4b6a0ab00b03a","6554c011b3037682f403932b","759","./stimuli//pack_shapes/cat_1/ex_1_49.png","arrowleft","response","ArrowLeft","49","1","true",""
"","","","","","html-keyboard-response","13","35137","0.0-4.0-4.1","5c707693db12e3000146b16d","6554bfa13ac4b6a0ab00b03a","6554c011b3037682f403932b","null","<p> <font color=""green"" size=""4vw""> Correct category! </font> </p>","null","feedback","","","","","0"
"","","","","","html-keyboard-response","14","35757","0.0-4.0-0.2","5c707693db12e3000146b16d","6554bfa13ac4b6a0ab00b03a","6554c011b3037682f403932b","619","
            
        <div style=""text-align: center; position: fixed; top: 5vh; left: 40vw;"">
            <div style=""margin:0 auto; width: 20vw; top: 8vh; font-size: 1vw""> 
            <font color=""green""> Bonus : $0 </font>
            </div>
        </div>
    
            <div> Please press any button to continue to the next trial.</div>
        ","arrowleft","ITI","","","","",""
"","","","","","html-keyboard-response","15","36371","0.0-4.0-1.2","5c707693db12e3000146b16d","6554bfa13ac4b6a0ab00b03a","6554c011b3037682f403932b","null","
        
        <div style=""text-align: center; position: fixed; top: 5vh; left: 40vw;"">
            <div style=""margin:0 auto; width: 20vw; top: 8vh; font-size: 1vw""> 
            <font color=""green""> Bonus : $0 </font>
            </div>
        </div>
    
        <img class=""stim"" src=./stimuli//pack_shapes/cat_1/ex_1_39.png></img>
    ","null","stimulus","","","","",""
"","","","","","html-keyboard-response","16","37374","0.0-4.0-2.2","5c707693db12e3000146b16d","6554bfa13ac4b6a0ab00b03a","6554c011b3037682f403932b","null","
        <div style=""text-align: center; position: fixed; top: 5vh; left: 40vw;"">
            <div style=""margin:0 auto; width: 20vw; top: 8vh; font-size: 1vw""> 
            <font color=""green""> Bonus : $0 </font>
            </div>
        </div>
    ","null","","","","","",""
"","","","","","html-keyboard-response","17","37390","0.0-4.0-3.2","5c707693db12e3000146b16d","6554bfa13ac4b6a0ab00b03a","6554c011b3037682f403932b","14","./stimuli//pack_shapes/cat_1/ex_1_39.png","arrowright","response","ArrowLeft","39","1","false",""
"","","","","","html-keyboard-response","18","38901","0.0-4.0-4.2","5c707693db12e3000146b16d","6554bfa13ac4b6a0ab00b03a","6554c011b3037682f403932b","null","<p> <font color=""red"" size=""4vw""> Wrong category! </font> </p>","null","feedback","","","","","0"
"","","","","","html-keyboard-response","19","39582","0.0-4.0-0.3","5c707693db12e3000146b16d","6554bfa13ac4b6a0ab00b03a","6554c011b3037682f403932b","680","
            
        <div style=""text-align: center; position: fixed; top: 5vh; left: 40vw;"">
            <div style=""margin:0 auto; width: 20vw; top: 8vh; font-size: 1vw""> 
            <font color=""green""> Bonus : $0 </font>
            </div>
        </div>
    
            <div> Please press any button to continue to the next trial.</div>
        ","arrowleft","ITI","","","","",""
"","","","","","html-keyboard-response","20","40184","0.0-4.0-1.3","5c707693db12e3000146b16d","6554bfa13ac4b6a0ab00b03a","6554c011b3037682f403932b","null","
        
        <div style=""text-align: center; position: fixed; top: 5vh; left: 40vw;"">
            <div style=""margin:0 auto; width: 20vw; top: 8vh; font-size: 1vw""> 
            <font color=""green""> Bonus : $0 </font>
            </div>
        </div>
    
        <img class=""stim"" src=./stimuli//pack_shapes/cat_1/ex_1_75.png></img>
    ","null","stimulus","","","","",""
"","","","","","html-keyboard-response","21","41187","0.0-4.0-2.3","5c707693db12e3000146b16d","6554bfa13ac4b6a0ab00b03a","6554c011b3037682f403932b","null","
        <div style=""text-align: center; position: fixed; top: 5vh; left: 40vw;"">
            <div style=""margin:0 auto; width: 20vw; top: 8vh; font-size: 1vw""> 
            <font color=""green""> Bonus : $0 </font>
            </div>
        </div>
    ","null","","","","","",""
"","","","","","html-keyboard-response","22","41455","0.0-4.0-3.3","5c707693db12e3000146b16d","6554bfa13ac4b6a0ab00b03a","6554c011b3037682f403932b","267","./stimuli//pack_shapes/cat_1/ex_1_75.png","arrowleft","response","ArrowLeft","75","1","true",""
"","","","","","html-keyboard-response","23","42959","0.0-4.0-4.3","5c707693db12e3000146b16d","6554bfa13ac4b6a0ab00b03a","6554c011b3037682f403932b","null","<p> <font color=""green"" size=""4vw""> Correct category! </font> </p>","null","feedback","","","","","0"
"","","","","","html-keyboard-response","24","43695","0.0-4.0-0.4","5c707693db12e3000146b16d","6554bfa13ac4b6a0ab00b03a","6554c011b3037682f403932b","735","
            
        <div style=""text-align: center; position: fixed; top: 5vh; left: 40vw;"">
            <div style=""margin:0 auto; width: 20vw; top: 8vh; font-size: 1vw""> 
            <font color=""green""> Bonus : $0 </font>
            </div>
        </div>
    
            <div> Please press any button to continue to the next trial.</div>
        ","arrowleft","ITI","","","","",""
"","","","","","html-keyboard-response","25","44317","0.0-4.0-1.4","5c707693db12e3000146b16d","6554bfa13ac4b6a0ab00b03a","6554c011b3037682f403932b","null","
        
        <div style=""text-align: center; position: fixed; top: 5vh; left: 40vw;"">
            <div style=""margin:0 auto; width: 20vw; top: 8vh; font-size: 1vw""> 
            <font color=""green""> Bonus : $0 </font>
            </div>
        </div>
    
        <img class=""stim"" src=./stimuli//pack_shapes/cat_2/ex_2_8.png></img>
    ","null","stimulus","","","","",""
"","","","","","html-keyboard-response","26","45320","0.0-4.0-2.4","5c707693db12e3000146b16d","6554bfa13ac4b6a0ab00b03a","6554c011b3037682f403932b","null","
        <div style=""text-align: center; position: fixed; top: 5vh; left: 40vw;"">
            <div style=""margin:0 auto; width: 20vw; top: 8vh; font-size: 1vw""> 
            <font color=""green""> Bonus : $0 </font>
            </div>
        </div>
    ","null","","","","","",""
"","","","","","html-keyboard-response","27","45575","0.0-4.0-3.4","5c707693db12e3000146b16d","6554bfa13ac4b6a0ab00b03a","6554c011b3037682f403932b","253","./stimuli//pack_shapes/cat_2/ex_2_8.png","arrowleft","response","ArrowRight","8","2","false",""
"","","","","","html-keyboard-response","28","47088","0.0-4.0-4.4","5c707693db12e3000146b16d","6554bfa13ac4b6a0ab00b03a","6554c011b3037682f403932b","null","<p> <font color=""red"" size=""4vw""> Wrong category! </font> </p>","null","feedback","","","","","0"
"","","","","","html-keyboard-response","29","48023","0.0-4.0-0.5","5c707693db12e3000146b16d","6554bfa13ac4b6a0ab00b03a","6554c011b3037682f403932b","934","
            
        <div style=""text-align: center; position: fixed; top: 5vh; left: 40vw;"">
            <div style=""margin:0 auto; width: 20vw; top: 8vh; font-size: 1vw""> 
            <font color=""green""> Bonus : $0 </font>
            </div>
        </div>
    
            <div> Please press any button to continue to the next trial.</div>
        ","arrowleft","ITI","","","","",""
"","","","","","html-keyboard-response","30","48630","0.0-4.0-1.5","5c707693db12e3000146b16d","6554bfa13ac4b6a0ab00b03a","6554c011b3037682f403932b","null","
        
        <div style=""text-align: center; position: fixed; top: 5vh; left: 40vw;"">
            <div style=""margin:0 auto; width: 20vw; top: 8vh; font-size: 1vw""> 
            <font color=""green""> Bonus : $0 </font>
            </div>
        </div>
    
        <img class=""stim"" src=./stimuli//pack_shapes/cat_1/ex_1_29.png></img>
    ","null","stimulus","","","","",""
"","","","","","html-keyboard-response","31","49631","0.0-4.0-2.5","5c707693db12e3000146b16d","6554bfa13ac4b6a0ab00b03a","6554c011b3037682f403932b","null","
        <div style=""text-align: center; position: fixed; top: 5vh; left: 40vw;"">
            <div style=""margin:0 auto; width: 20vw; top: 8vh; font-size: 1vw""> 
            <font color=""green""> Bonus : $0 </font>
            </div>
        </div>
    ","null","","","","","",""
"","","","","","html-keyboard-response","32","49943","0.0-4.0-3.5","5c707693db12e3000146b16d","6554bfa13ac4b6a0ab00b03a","6554c011b3037682f403932b","310","./stimuli//pack_shapes/cat_1/ex_1_29.png","arrowleft","response","ArrowLeft","29","1","true",""
"","","","","","html-keyboard-response","33","51453","0.0-4.0-4.5","5c707693db12e3000146b16d","6554bfa13ac4b6a0ab00b03a","6554c011b3037682f403932b","null","<p> <font color=""green"" size=""4vw""> Correct category! </font> </p>","null","feedback","","","","","0"
"","","","","","html-keyboard-response","34","51967","0.0-4.0-0.6","5c707693db12e3000146b16d","6554bfa13ac4b6a0ab00b03a","6554c011b3037682f403932b","514","
            
        <div style=""text-align: center; position: fixed; top: 5vh; left: 40vw;"">
            <div style=""margin:0 auto; width: 20vw; top: 8vh; font-size: 1vw""> 
            <font color=""green""> Bonus : $0 </font>
            </div>
        </div>
    
            <div> Please press any button to continue to the next trial.</div>
        ","arrowleft","ITI","","","","",""
"","","","","","html-keyboard-response","35","52572","0.0-4.0-1.6","5c707693db12e3000146b16d","6554bfa13ac4b6a0ab00b03a","6554c011b3037682f403932b","null","
        
        <div style=""text-align: center; position: fixed; top: 5vh; left: 40vw;"">
            <div style=""margin:0 auto; width: 20vw; top: 8vh; font-size: 1vw""> 
            <font color=""green""> Bonus : $0 </font>
            </div>
        </div>
    
        <img class=""stim"" src=./stimuli//pack_shapes/cat_2/ex_2_49.png></img>
    ","null","stimulus","","","","",""
"","","","","","html-keyboard-response","36","53575","0.0-4.0-2.6","5c707693db12e3000146b16d","6554bfa13ac4b6a0ab00b03a","6554c011b3037682f403932b","null","
        <div style=""text-align: center; position: fixed; top: 5vh; left: 40vw;"">
            <div style=""margin:0 auto; width: 20vw; top: 8vh; font-size: 1vw""> 
            <font color=""green""> Bonus : $0 </font>
            </div>
        </div>
    ","null","","","","","",""
"","","","","","html-keyboard-response","37","53615","0.0-4.0-3.6","5c707693db12e3000146b16d","6554bfa13ac4b6a0ab00b03a","6554c011b3037682f403932b","38","./stimuli//pack_shapes/cat_2/ex_2_49.png","arrowright","response","ArrowRight","49","2","true",""
"","","","","","html-keyboard-response","38","55128","0.0-4.0-4.6","5c707693db12e3000146b16d","6554bfa13ac4b6a0ab00b03a","6554c011b3037682f403932b","null","<p> <font color=""green"" size=""4vw""> Correct category! </font> </p>","null","feedback","","","","","0"
"","","","","","html-keyboard-response","39","55471","0.0-4.0-0.7","5c707693db12e3000146b16d","6554bfa13ac4b6a0ab00b03a","6554c011b3037682f403932b","342","
            
        <div style=""text-align: center; position: fixed; top: 5vh; left: 40vw;"">
            <div style=""margin:0 auto; width: 20vw; top: 8vh; font-size: 1vw""> 
            <font color=""green""> Bonus : $0 </font>
            </div>
        </div>
    
            <div> Please press any button to continue to the next trial.</div>
        ","arrowleft","ITI","","","","",""
"","","","","","html-keyboard-response","40","56084","0.0-4.0-1.7","5c707693db12e3000146b16d","6554bfa13ac4b6a0ab00b03a","6554c011b3037682f403932b","null","
        
        <div style=""text-align: center; position: fixed; top: 5vh; left: 40vw;"">
            <div style=""margin:0 auto; width: 20vw; top: 8vh; font-size: 1vw""> 
            <font color=""green""> Bonus : $0 </font>
            </div>
        </div>
    
        <img class=""stim"" src=./stimuli//pack_shapes/cat_1/ex_1_3.png></img>
    ","null","stimulus","","","","",""
"","","","","","html-keyboard-response","41","57097","0.0-4.0-2.7","5c707693db12e3000146b16d","6554bfa13ac4b6a0ab00b03a","6554c011b3037682f403932b","null","
        <div style=""text-align: center; position: fixed; top: 5vh; left: 40vw;"">
            <div style=""margin:0 auto; width: 20vw; top: 8vh; font-size: 1vw""> 
            <font color=""green""> Bonus : $0 </font>
            </div>
        </div>
    ","null","","","","","",""
"","","","","","html-keyboard-response","42","57191","0.0-4.0-3.7","5c707693db12e3000146b16d","6554bfa13ac4b6a0ab00b03a","6554c011b3037682f403932b","93","./stimuli//pack_shapes/cat_1/ex_1_3.png","arrowleft","response","ArrowLeft","3","1","true",""
"","","","","","html-keyboard-response","43","58693","0.0-4.0-4.7","5c707693db12e3000146b16d","6554bfa13ac4b6a0ab00b03a","6554c011b3037682f403932b","null","<p> <font color=""green"" size=""4vw""> Correct category! </font> </p>","null","feedback","","","","","0"
"","","","","","html-keyboard-response","44","59111","0.0-4.0-0.8","5c707693db12e3000146b16d","6554bfa13ac4b6a0ab00b03a","6554c011b3037682f403932b","417","
            
        <div style=""text-align: center; position: fixed; top: 5vh; left: 40vw;"">
            <div style=""margin:0 auto; width: 20vw; top: 8vh; font-size: 1vw""> 
            <font color=""green""> Bonus : $0 </font>
            </div>
        </div>
    
            <div> Please press any button to continue to the next trial.</div>
        ","arrowright","ITI","","","","",""
"","","","","","html-keyboard-response","45","59727","0.0-4.0-1.8","5c707693db12e3000146b16d","6554bfa13ac4b6a0ab00b03a","6554c011b3037682f403932b","null","
        
        <div style=""text-align: center; position: fixed; top: 5vh; left: 40vw;"">
            <div style=""margin:0 auto; width: 20vw; top: 8vh; font-size: 1vw""> 
            <font color=""green""> Bonus : $0 </font>
            </div>
        </div>
    
        <img class=""stim"" src=./stimuli//pack_shapes/cat_2/ex_2_39.png></img>
    ","null","stimulus","","","","",""
"","","","","","html-keyboard-response","46","60731","0.0-4.0-2.8","5c707693db12e3000146b16d","6554bfa13ac4b6a0ab00b03a","6554c011b3037682f403932b","null","
        <div style=""text-align: center; position: fixed; top: 5vh; left: 40vw;"">
            <div style=""margin:0 auto; width: 20vw; top: 8vh; font-size: 1vw""> 
            <font color=""green""> Bonus : $0 </font>
            </div>
        </div>
    ","null","","","","","",""
"","","","","","html-keyboard-response","47","61063","0.0-4.0-3.8","5c707693db12e3000146b16d","6554bfa13ac4b6a0ab00b03a","6554c011b3037682f403932b","331","./stimuli//pack_shapes/cat_2/ex_2_39.png","arrowright","response","ArrowRight","39","2","true",""
"","","","","","html-keyboard-response","48","62573","0.0-4.0-4.8","5c707693db12e3000146b16d","6554bfa13ac4b6a0ab00b03a","6554c011b3037682f403932b","null","<p> <font color=""green"" size=""4vw""> Correct category! </font> </p>","null","feedback","","","","","0"
"","","","","","html-keyboard-response","49","62951","0.0-4.0-0.9","5c707693db12e3000146b16d","6554bfa13ac4b6a0ab00b03a","6554c011b3037682f403932b","378","
            
        <div style=""text-align: center; position: fixed; top: 5vh; left: 40vw;"">
            <div style=""margin:0 auto; width: 20vw; top: 8vh; font-size: 1vw""> 
            <font color=""green""> Bonus : $0 </font>
            </div>
        </div>
    
            <div> Please press any button to continue to the next trial.</div>
        ","arrowleft","ITI","","","","",""
"","","","","","html-keyboard-response","50","63553","0.0-4.0-1.9","5c707693db12e3000146b16d","6554bfa13ac4b6a0ab00b03a","6554c011b3037682f403932b","null","
        
        <div style=""text-align: center; position: fixed; top: 5vh; left: 40vw;"">
            <div style=""margin:0 auto; width: 20vw; top: 8vh; font-size: 1vw""> 
            <font color=""green""> Bonus : $0 </font>
            </div>
        </div>
    
        <img class=""stim"" src=./stimuli//pack_shapes/cat_2/ex_2_29.png></img>
    ","null","stimulus","","","","",""
"","","","","","html-keyboard-response","51","64556","0.0-4.0-2.9","5c707693db12e3000146b16d","6554bfa13ac4b6a0ab00b03a","6554c011b3037682f403932b","null","
        <div style=""text-align: center; position: fixed; top: 5vh; left: 40vw;"">
            <div style=""margin:0 auto; width: 20vw; top: 8vh; font-size: 1vw""> 
            <font color=""green""> Bonus : $0 </font>
            </div>
        </div>
    ","null","","","","","",""
"","","","","","html-keyboard-response","52","64799","0.0-4.0-3.9","5c707693db12e3000146b16d","6554bfa13ac4b6a0ab00b03a","6554c011b3037682f403932b","241","./stimuli//pack_shapes/cat_2/ex_2_29.png","arrowright","response","ArrowRight","29","2","true",""
"","","","","","html-keyboard-response","53","66301","0.0-4.0-4.9","5c707693db12e3000146b16d","6554bfa13ac4b6a0ab00b03a","6554c011b3037682f403932b","null","<p> <font color=""green"" size=""4vw""> Correct category! </font> </p>","null","feedback","","","","","0"
"","","","","","html-keyboard-response","54","67591","0.0-5.0","5c707693db12e3000146b16d","6554bfa13ac4b6a0ab00b03a","6554c011b3037682f403932b","1289","
            <b> <p> The practice round has finished.</p>
            <b> For the rest of the experiment you will receive a $0.05 bonus for each correct answer!</b>
            <p> Press any key to begin the test. </p>
            "," ","intermission","","","","",""
"","","","","","html-keyboard-response","55","68063","0.0-6.0-0.0","5c707693db12e3000146b16d","6554bfa13ac4b6a0ab00b03a","6554c011b3037682f403932b","471","
            
        <div style=""text-align: center; position: fixed; top: 5vh; left: 40vw;"">
            <div style=""margin:0 auto; width: 20vw; top: 8vh; font-size: 1vw""> 
            <font color=""green""> Bonus : $0 </font>
            </div>
        </div>
    
            <div> Please press any button to continue to the next trial.</div>
        ","arrowleft","ITI","","","","",""
"","","","","","html-keyboard-response","56","68670","0.0-6.0-1.0","5c707693db12e3000146b16d","6554bfa13ac4b6a0ab00b03a","6554c011b3037682f403932b","null","
        
        <div style=""text-align: center; position: fixed; top: 5vh; left: 40vw;"">
            <div style=""margin:0 auto; width: 20vw; top: 8vh; font-size: 1vw""> 
            <font color=""green""> Bonus : $0 </font>
            </div>
        </div>
    
        <img class=""stim"" src=./stimuli//pack_shapes/cat_1/ex_1_64.png></img>
    ","null","stimulus","","","","",""
"","","","","","html-keyboard-response","57","69673","0.0-6.0-2.0","5c707693db12e3000146b16d","6554bfa13ac4b6a0ab00b03a","6554c011b3037682f403932b","null","
        <div style=""text-align: center; position: fixed; top: 5vh; left: 40vw;"">
            <div style=""margin:0 auto; width: 20vw; top: 8vh; font-size: 1vw""> 
            <font color=""green""> Bonus : $0 </font>
            </div>
        </div>
    ","null","","","","","",""
"","","","","","html-keyboard-response","58","69791","0.0-6.0-3.0","5c707693db12e3000146b16d","6554bfa13ac4b6a0ab00b03a","6554c011b3037682f403932b","116","./stimuli//pack_shapes/cat_1/ex_1_64.png","arrowleft","response","ArrowLeft","64","1","true",""
"","","","","","html-keyboard-response","59","71301","0.0-6.0-4.0","5c707693db12e3000146b16d","6554bfa13ac4b6a0ab00b03a","6554c011b3037682f403932b","null","<p> <font color=""green"" size=""4vw""> Correct category! </font> <br> <br> <font color=""green"" size=""7vw""> + $0.05 </font> </p>","null","feedback","","","","","0.05"
"","","","","","html-keyboard-response","60","71839","0.0-6.0-0.1","5c707693db12e3000146b16d","6554bfa13ac4b6a0ab00b03a","6554c011b3037682f403932b","537","
            
        <div style=""text-align: center; position: fixed; top: 5vh; left: 40vw;"">
            <div style=""margin:0 auto; width: 20vw; top: 8vh; font-size: 1vw""> 
            <font color=""green""> Bonus : $0.05 </font>
            </div>
        </div>
    
            <div> Please press any button to continue to the next trial.</div>
        ","arrowleft","ITI","","","","",""
"","","","","","html-keyboard-response","61","72451","0.0-6.0-1.1","5c707693db12e3000146b16d","6554bfa13ac4b6a0ab00b03a","6554c011b3037682f403932b","null","
        
        <div style=""text-align: center; position: fixed; top: 5vh; left: 40vw;"">
            <div style=""margin:0 auto; width: 20vw; top: 8vh; font-size: 1vw""> 
            <font color=""green""> Bonus : $0.05 </font>
            </div>
        </div>
    
        <img class=""stim"" src=./stimuli//pack_shapes/cat_1/ex_1_45.png></img>
    ","null","stimulus","","","","",""
"","","","","","html-keyboard-response","62","73455","0.0-6.0-2.1","5c707693db12e3000146b16d","6554bfa13ac4b6a0ab00b03a","6554c011b3037682f403932b","null","
        <div style=""text-align: center; position: fixed; top: 5vh; left: 40vw;"">
            <div style=""margin:0 auto; width: 20vw; top: 8vh; font-size: 1vw""> 
            <font color=""green""> Bonus : $0.05 </font>
            </div>
        </div>
    ","null","","","","","",""
"","","","","","html-keyboard-response","63","73711","0.0-6.0-3.1","5c707693db12e3000146b16d","6554bfa13ac4b6a0ab00b03a","6554c011b3037682f403932b","255","./stimuli//pack_shapes/cat_1/ex_1_45.png","arrowright","response","ArrowLeft","45","1","false",""
"","","","","","html-keyboard-response","64","75212","0.0-6.0-4.1","5c707693db12e3000146b16d","6554bfa13ac4b6a0ab00b03a","6554c011b3037682f403932b","null","<p> <font color=""red"" size=""4vw""> Wrong category! </font> </p>","null","feedback","","","","","0.05"
"","","","","","html-keyboard-response","65","75390","0.0-6.0-0.2","5c707693db12e3000146b16d","6554bfa13ac4b6a0ab00b03a","6554c011b3037682f403932b","177","
            
        <div style=""text-align: center; position: fixed; top: 5vh; left: 40vw;"">
            <div style=""margin:0 auto; width: 20vw; top: 8vh; font-size: 1vw""> 
            <font color=""green""> Bonus : $0.05 </font>
            </div>
        </div>
    
            <div> Please press any button to continue to the next trial.</div>
        ","arrowleft","ITI","","","","",""
"","","","","","html-keyboard-response","66","75992","0.0-6.0-1.2","5c707693db12e3000146b16d","6554bfa13ac4b6a0ab00b03a","6554c011b3037682f403932b","null","
        
        <div style=""text-align: center; position: fixed; top: 5vh; left: 40vw;"">
            <div style=""margin:0 auto; width: 20vw; top: 8vh; font-size: 1vw""> 
            <font color=""green""> Bonus : $0.05 </font>
            </div>
        </div>
    
        <img class=""stim"" src=./stimuli//pack_shapes/cat_2/ex_2_62.png></img>
    ","null","stimulus","","","","",""
"","","","","","html-keyboard-response","67","76996","0.0-6.0-2.2","5c707693db12e3000146b16d","6554bfa13ac4b6a0ab00b03a","6554c011b3037682f403932b","null","
        <div style=""text-align: center; position: fixed; top: 5vh; left: 40vw;"">
            <div style=""margin:0 auto; width: 20vw; top: 8vh; font-size: 1vw""> 
            <font color=""green""> Bonus : $0.05 </font>
            </div>
        </div>
    ","null","","","","","",""
"","","","","","html-keyboard-response","68","77254","0.0-6.0-3.2","5c707693db12e3000146b16d","6554bfa13ac4b6a0ab00b03a","6554c011b3037682f403932b","257","./stimuli//pack_shapes/cat_2/ex_2_62.png","arrowright","response","ArrowRight","62","2","true",""
"","","","","","html-keyboard-response","69","78755","0.0-6.0-4.2","5c707693db12e3000146b16d","6554bfa13ac4b6a0ab00b03a","6554c011b3037682f403932b","null","<p> <font color=""green"" size=""4vw""> Correct category! </font> <br> <br> <font color=""green"" size=""7vw""> + $0.05 </font> </p>","null","feedback","","","","","0.1"
"","","","","","html-keyboard-response","70","79126","0.0-6.0-0.3","5c707693db12e3000146b16d","6554bfa13ac4b6a0ab00b03a","6554c011b3037682f403932b","371","
            
        <div style=""text-align: center; position: fixed; top: 5vh; left: 40vw;"">
            <div style=""margin:0 auto; width: 20vw; top: 8vh; font-size: 1vw""> 
            <font color=""green""> Bonus : $0.1 </font>
            </div>
        </div>
    
            <div> Please press any button to continue to the next trial.</div>
        ","arrowright","ITI","","","","",""
"","","","","","html-keyboard-response","71","79727","0.0-6.0-1.3","5c707693db12e3000146b16d","6554bfa13ac4b6a0ab00b03a","6554c011b3037682f403932b","null","
        
        <div style=""text-align: center; position: fixed; top: 5vh; left: 40vw;"">
            <div style=""margin:0 auto; width: 20vw; top: 8vh; font-size: 1vw""> 
            <font color=""green""> Bonus : $0.1 </font>
            </div>
        </div>
    
        <img class=""stim"" src=./stimuli//pack_shapes/cat_1/ex_1_73.png></img>
    ","null","stimulus","","","","",""
"","","","","","html-keyboard-response","72","80730","0.0-6.0-2.3","5c707693db12e3000146b16d","6554bfa13ac4b6a0ab00b03a","6554c011b3037682f403932b","null","
        <div style=""text-align: center; position: fixed; top: 5vh; left: 40vw;"">
            <div style=""margin:0 auto; width: 20vw; top: 8vh; font-size: 1vw""> 
            <font color=""green""> Bonus : $0.1 </font>
            </div>
        </div>
    ","null","","","","","",""
"","","","","","html-keyboard-response","73","80783","0.0-6.0-3.3","5c707693db12e3000146b16d","6554bfa13ac4b6a0ab00b03a","6554c011b3037682f403932b","51","./stimuli//pack_shapes/cat_1/ex_1_73.png","arrowleft","response","ArrowLeft","73","1","true",""
"","","","","","html-keyboard-response","74","82295","0.0-6.0-4.3","5c707693db12e3000146b16d","6554bfa13ac4b6a0ab00b03a","6554c011b3037682f403932b","null","<p> <font color=""green"" size=""4vw""> Correct category! </font> <br> <br> <font color=""green"" size=""7vw""> + $0.05 </font> </p>","null","feedback","","","","","0.15"
"","","","","","html-keyboard-response","75","82749","0.0-6.0-0.4","5c707693db12e3000146b16d","6554bfa13ac4b6a0ab00b03a","6554c011b3037682f403932b","454","
            
        <div style=""text-align: center; position: fixed; top: 5vh; left: 40vw;"">
            <div style=""margin:0 auto; width: 20vw; top: 8vh; font-size: 1vw""> 
            <font color=""green""> Bonus : $0.15 </font>
            </div>
        </div>
    
            <div> Please press any button to continue to the next trial.</div>
        ","arrowleft","ITI","","","","",""
"","","","","","html-keyboard-response","76","83352","0.0-6.0-1.4","5c707693db12e3000146b16d","6554bfa13ac4b6a0ab00b03a","6554c011b3037682f403932b","null","
        
        <div style=""text-align: center; position: fixed; top: 5vh; left: 40vw;"">
            <div style=""margin:0 auto; width: 20vw; top: 8vh; font-size: 1vw""> 
            <font color=""green""> Bonus : $0.15 </font>
            </div>
        </div>
    
        <img class=""stim"" src=./stimuli//pack_shapes/cat_1/ex_1_4.png></img>
    ","null","stimulus","","","","",""
"","","","","","html-keyboard-response","77","84355","0.0-6.0-2.4","5c707693db12e3000146b16d","6554bfa13ac4b6a0ab00b03a","6554c011b3037682f403932b","null","
        <div style=""text-align: center; position: fixed; top: 5vh; left: 40vw;"">
            <div style=""margin:0 auto; width: 20vw; top: 8vh; font-size: 1vw""> 
            <font color=""green""> Bonus : $0.15 </font>
            </div>
        </div>
    ","null","","","","","",""
"","","","","","html-keyboard-response","78","84567","0.0-6.0-3.4","5c707693db12e3000146b16d","6554bfa13ac4b6a0ab00b03a","6554c011b3037682f403932b","211","./stimuli//pack_shapes/cat_1/ex_1_4.png","arrowleft","response","ArrowLeft","4","1","true",""
"","","","","","html-keyboard-response","79","86076","0.0-6.0-4.4","5c707693db12e3000146b16d","6554bfa13ac4b6a0ab00b03a","6554c011b3037682f403932b","null","<p> <font color=""green"" size=""4vw""> Correct category! </font> <br> <br> <font color=""green"" size=""7vw""> + $0.05 </font> </p>","null","feedback","","","","","0.2"
"","","","","","html-keyboard-response","80","86350","0.0-6.0-0.5","5c707693db12e3000146b16d","6554bfa13ac4b6a0ab00b03a","6554c011b3037682f403932b","273","
            
        <div style=""text-align: center; position: fixed; top: 5vh; left: 40vw;"">
            <div style=""margin:0 auto; width: 20vw; top: 8vh; font-size: 1vw""> 
            <font color=""green""> Bonus : $0.2 </font>
            </div>
        </div>
    
            <div> Please press any button to continue to the next trial.</div>
        ","arrowleft","ITI","","","","",""
"","","","","","html-keyboard-response","81","86963","0.0-6.0-1.5","5c707693db12e3000146b16d","6554bfa13ac4b6a0ab00b03a","6554c011b3037682f403932b","null","
        
        <div style=""text-align: center; position: fixed; top: 5vh; left: 40vw;"">
            <div style=""margin:0 auto; width: 20vw; top: 8vh; font-size: 1vw""> 
            <font color=""green""> Bonus : $0.2 </font>
            </div>
        </div>
    
        <img class=""stim"" src=./stimuli//pack_shapes/cat_1/ex_1_47.png></img>
    ","null","stimulus","","","","",""
"","","","","","html-keyboard-response","82","87966","0.0-6.0-2.5","5c707693db12e3000146b16d","6554bfa13ac4b6a0ab00b03a","6554c011b3037682f403932b","null","
        <div style=""text-align: center; position: fixed; top: 5vh; left: 40vw;"">
            <div style=""margin:0 auto; width: 20vw; top: 8vh; font-size: 1vw""> 
            <font color=""green""> Bonus : $0.2 </font>
            </div>
        </div>
    ","null","","","","","",""
"","","","","","html-keyboard-response","83","88446","0.0-6.0-3.5","5c707693db12e3000146b16d","6554bfa13ac4b6a0ab00b03a","6554c011b3037682f403932b","478","./stimuli//pack_shapes/cat_1/ex_1_47.png","arrowleft","response","ArrowLeft","47","1","true",""
"","","","","","html-keyboard-response","84","89639","0.0-6.0-4.5","5c707693db12e3000146b16d","6554bfa13ac4b6a0ab00b03a","6554c011b3037682f403932b","1192","<p> <font color=""green"" size=""4vw""> Correct category! </font> <br> <br> <font color=""green"" size=""7vw""> + $0.05 </font> </p>","arrowleft","feedback","","","","","0.25"
"","","","","","html-keyboard-response","85","90111","0.0-6.0-0.6","5c707693db12e3000146b16d","6554bfa13ac4b6a0ab00b03a","6554c011b3037682f403932b","471","
            
        <div style=""text-align: center; position: fixed; top: 5vh; left: 40vw;"">
            <div style=""margin:0 auto; width: 20vw; top: 8vh; font-size: 1vw""> 
            <font color=""green""> Bonus : $0.25 </font>
            </div>
        </div>
    
            <div> Please press any button to continue to the next trial.</div>
        ","arrowleft","ITI","","","","",""
"","","","","","html-keyboard-response","86","90724","0.0-6.0-1.6","5c707693db12e3000146b16d","6554bfa13ac4b6a0ab00b03a","6554c011b3037682f403932b","null","
        
        <div style=""text-align: center; position: fixed; top: 5vh; left: 40vw;"">
            <div style=""margin:0 auto; width: 20vw; top: 8vh; font-size: 1vw""> 
            <font color=""green""> Bonus : $0.25 </font>
            </div>
        </div>
    
        <img class=""stim"" src=./stimuli//pack_shapes/cat_2/ex_2_50.png></img>
    ","null","stimulus","","","","",""
"","","","","","html-keyboard-response","87","91727","0.0-6.0-2.6","5c707693db12e3000146b16d","6554bfa13ac4b6a0ab00b03a","6554c011b3037682f403932b","null","
        <div style=""text-align: center; position: fixed; top: 5vh; left: 40vw;"">
            <div style=""margin:0 auto; width: 20vw; top: 8vh; font-size: 1vw""> 
            <font color=""green""> Bonus : $0.25 </font>
            </div>
        </div>
    ","null","","","","","",""
"","","","","","html-keyboard-response","88","91870","0.0-6.0-3.6","5c707693db12e3000146b16d","6554bfa13ac4b6a0ab00b03a","6554c011b3037682f403932b","141","./stimuli//pack_shapes/cat_2/ex_2_50.png","arrowright","response","ArrowRight","50","2","true",""
"","","","","","html-keyboard-response","89","93385","0.0-6.0-4.6","5c707693db12e3000146b16d","6554bfa13ac4b6a0ab00b03a","6554c011b3037682f403932b","null","<p> <font color=""green"" size=""4vw""> Correct category! </font> <br> <br> <font color=""green"" size=""7vw""> + $0.05 </font> </p>","null","feedback","","","","","0.3"
"","","","","","html-keyboard-response","90","93727","0.0-6.0-0.7","5c707693db12e3000146b16d","6554bfa13ac4b6a0ab00b03a","6554c011b3037682f403932b","341","
            
        <div style=""text-align: center; position: fixed; top: 5vh; left: 40vw;"">
            <div style=""margin:0 auto; width: 20vw; top: 8vh; font-size: 1vw""> 
            <font color=""green""> Bonus : $0.3 </font>
            </div>
        </div>
    
            <div> Please press any button to continue to the next trial.</div>
        ","arrowleft","ITI","","","","",""
"","","","","","html-keyboard-response","91","94334","0.0-6.0-1.7","5c707693db12e3000146b16d","6554bfa13ac4b6a0ab00b03a","6554c011b3037682f403932b","null","
        
        <div style=""text-align: center; position: fixed; top: 5vh; left: 40vw;"">
            <div style=""margin:0 auto; width: 20vw; top: 8vh; font-size: 1vw""> 
            <font color=""green""> Bonus : $0.3 </font>
            </div>
        </div>
    
        <img class=""stim"" src=./stimuli//pack_shapes/cat_2/ex_2_12.png></img>
    ","null","stimulus","","","","",""
"","","","","","html-keyboard-response","92","95337","0.0-6.0-2.7","5c707693db12e3000146b16d","6554bfa13ac4b6a0ab00b03a","6554c011b3037682f403932b","null","
        <div style=""text-align: center; position: fixed; top: 5vh; left: 40vw;"">
            <div style=""margin:0 auto; width: 20vw; top: 8vh; font-size: 1vw""> 
            <font color=""green""> Bonus : $0.3 </font>
            </div>
        </div>
    ","null","","","","","",""
"","","","","","html-keyboard-response","93","95591","0.0-6.0-3.7","5c707693db12e3000146b16d","6554bfa13ac4b6a0ab00b03a","6554c011b3037682f403932b","253","./stimuli//pack_shapes/cat_2/ex_2_12.png","arrowleft","response","ArrowRight","12","2","false",""
"","","","","","html-keyboard-response","94","97096","0.0-6.0-4.7","5c707693db12e3000146b16d","6554bfa13ac4b6a0ab00b03a","6554c011b3037682f403932b","null","<p> <font color=""red"" size=""4vw""> Wrong category! </font> </p>","null","feedback","","","","","0.3"
"","","","","","html-keyboard-response","95","103889","0.0-6.0-0.8","5c707693db12e3000146b16d","6554bfa13ac4b6a0ab00b03a","6554c011b3037682f403932b","6790","
            
        <div style=""text-align: center; position: fixed; top: 5vh; left: 40vw;"">
            <div style=""margin:0 auto; width: 20vw; top: 8vh; font-size: 1vw""> 
            <font color=""green""> Bonus : $0.3 </font>
            </div>
        </div>
    
            <div> Please press any button to continue to the next trial.</div>
        ","arrowright","ITI","","","","",""
"","","","","","html-keyboard-response","96","104506","0.0-6.0-1.8","5c707693db12e3000146b16d","6554bfa13ac4b6a0ab00b03a","6554c011b3037682f403932b","null","
        
        <div style=""text-align: center; position: fixed; top: 5vh; left: 40vw;"">
            <div style=""margin:0 auto; width: 20vw; top: 8vh; font-size: 1vw""> 
            <font color=""green""> Bonus : $0.3 </font>
            </div>
        </div>
    
        <img class=""stim"" src=./stimuli//pack_shapes/cat_2/ex_2_51.png></img>
    ","null","stimulus","","","","",""
"","","","","","html-keyboard-response","97","105509","0.0-6.0-2.8","5c707693db12e3000146b16d","6554bfa13ac4b6a0ab00b03a","6554c011b3037682f403932b","null","
        <div style=""text-align: center; position: fixed; top: 5vh; left: 40vw;"">
            <div style=""margin:0 auto; width: 20vw; top: 8vh; font-size: 1vw""> 
            <font color=""green""> Bonus : $0.3 </font>
            </div>
        </div>
    ","null","","","","","",""
"","","","","","html-keyboard-response","98","106009","0.0-6.0-3.8","5c707693db12e3000146b16d","6554bfa13ac4b6a0ab00b03a","6554c011b3037682f403932b","498","./stimuli//pack_shapes/cat_2/ex_2_51.png","arrowright","response","ArrowRight","51","2","true",""
"","","","","","html-keyboard-response","99","107515","0.0-6.0-4.8","5c707693db12e3000146b16d","6554bfa13ac4b6a0ab00b03a","6554c011b3037682f403932b","null","<p> <font color=""green"" size=""4vw""> Correct category! </font> <br> <br> <font color=""green"" size=""7vw""> + $0.05 </font> </p>","null","feedback","","","","","0.35"
"","","","","","html-keyboard-response","100","108544","0.0-6.0-0.9","5c707693db12e3000146b16d","6554bfa13ac4b6a0ab00b03a","6554c011b3037682f403932b","1028","
            
        <div style=""text-align: center; position: fixed; top: 5vh; left: 40vw;"">
            <div style=""margin:0 auto; width: 20vw; top: 8vh; font-size: 1vw""> 
            <font color=""green""> Bonus : $0.35 </font>
            </div>
        </div>
    
            <div> Please press any button to continue to the next trial.</div>
        ","arrowleft","ITI","","","","",""
"","","","","","html-keyboard-response","101","109153","0.0-6.0-1.9","5c707693db12e3000146b16d","6554bfa13ac4b6a0ab00b03a","6554c011b3037682f403932b","null","
        
        <div style=""text-align: center; position: fixed; top: 5vh; left: 40vw;"">
            <div style=""margin:0 auto; width: 20vw; top: 8vh; font-size: 1vw""> 
            <font color=""green""> Bonus : $0.35 </font>
            </div>
        </div>
    
        <img class=""stim"" src=./stimuli//pack_shapes/cat_1/ex_1_71.png></img>
    ","null","stimulus","","","","",""
"","","","","","html-keyboard-response","102","110157","0.0-6.0-2.9","5c707693db12e3000146b16d","6554bfa13ac4b6a0ab00b03a","6554c011b3037682f403932b","null","
        <div style=""text-align: center; position: fixed; top: 5vh; left: 40vw;"">
            <div style=""margin:0 auto; width: 20vw; top: 8vh; font-size: 1vw""> 
            <font color=""green""> Bonus : $0.35 </font>
            </div>
        </div>
    ","null","","","","","",""
"","","","","","html-keyboard-response","103","110281","0.0-6.0-3.9","5c707693db12e3000146b16d","6554bfa13ac4b6a0ab00b03a","6554c011b3037682f403932b","122","./stimuli//pack_shapes/cat_1/ex_1_71.png","arrowleft","response","ArrowLeft","71","1","true",""
"","","","","","html-keyboard-response","104","111793","0.0-6.0-4.9","5c707693db12e3000146b16d","6554bfa13ac4b6a0ab00b03a","6554c011b3037682f403932b","null","<p> <font color=""green"" size=""4vw""> Correct category! </font> <br> <br> <font color=""green"" size=""7vw""> + $0.05 </font> </p>","null","feedback","","","","","0.4"
"","","","","","html-keyboard-response","105","116160","0.0-6.0-0.10","5c707693db12e3000146b16d","6554bfa13ac4b6a0ab00b03a","6554c011b3037682f403932b","4366","
            
        <div style=""text-align: center; position: fixed; top: 5vh; left: 40vw;"">
            <div style=""margin:0 auto; width: 20vw; top: 8vh; font-size: 1vw""> 
            <font color=""green""> Bonus : $0.4 </font>
            </div>
        </div>
    
            <div> Please press any button to continue to the next trial.</div>
        ","arrowleft","ITI","","","","",""
"","","","","","html-keyboard-response","106","116762","0.0-6.0-1.10","5c707693db12e3000146b16d","6554bfa13ac4b6a0ab00b03a","6554c011b3037682f403932b","null","
        
        <div style=""text-align: center; position: fixed; top: 5vh; left: 40vw;"">
            <div style=""margin:0 auto; width: 20vw; top: 8vh; font-size: 1vw""> 
            <font color=""green""> Bonus : $0.4 </font>
            </div>
        </div>
    
        <img class=""stim"" src=./stimuli//pack_shapes/cat_2/ex_2_36.png></img>
    ","null","stimulus","","","","",""
"","","","","","html-keyboard-response","107","117775","0.0-6.0-2.10","5c707693db12e3000146b16d","6554bfa13ac4b6a0ab00b03a","6554c011b3037682f403932b","null","
        <div style=""text-align: center; position: fixed; top: 5vh; left: 40vw;"">
            <div style=""margin:0 auto; width: 20vw; top: 8vh; font-size: 1vw""> 
            <font color=""green""> Bonus : $0.4 </font>
            </div>
        </div>
    ","null","","","","","",""
"","","","","","html-keyboard-response","108","118512","0.0-6.0-3.10","5c707693db12e3000146b16d","6554bfa13ac4b6a0ab00b03a","6554c011b3037682f403932b","737","./stimuli//pack_shapes/cat_2/ex_2_36.png","arrowleft","response","ArrowRight","36","2","false",""
"","","","","","html-keyboard-response","109","120013","0.0-6.0-4.10","5c707693db12e3000146b16d","6554bfa13ac4b6a0ab00b03a","6554c011b3037682f403932b","null","<p> <font color=""red"" size=""4vw""> Wrong category! </font> </p>","null","feedback","","","","","0.4"
"","","","","","html-keyboard-response","110","121384","0.0-6.0-0.11","5c707693db12e3000146b16d","6554bfa13ac4b6a0ab00b03a","6554c011b3037682f403932b","1370","
            
        <div style=""text-align: center; position: fixed; top: 5vh; left: 40vw;"">
            <div style=""margin:0 auto; width: 20vw; top: 8vh; font-size: 1vw""> 
            <font color=""green""> Bonus : $0.4 </font>
            </div>
        </div>
    
            <div> Please press any button to continue to the next trial.</div>
        ","arrowright","ITI","","","","",""
"","","","","","html-keyboard-response","111","121987","0.0-6.0-1.11","5c707693db12e3000146b16d","6554bfa13ac4b6a0ab00b03a","6554c011b3037682f403932b","null","
        
        <div style=""text-align: center; position: fixed; top: 5vh; left: 40vw;"">
            <div style=""margin:0 auto; width: 20vw; top: 8vh; font-size: 1vw""> 
            <font color=""green""> Bonus : $0.4 </font>
            </div>
        </div>
    
        <img class=""stim"" src=./stimuli//pack_shapes/cat_1/ex_1_20.png></img>
    ","null","stimulus","","","","",""
"","","","","","html-keyboard-response","112","122991","0.0-6.0-2.11","5c707693db12e3000146b16d","6554bfa13ac4b6a0ab00b03a","6554c011b3037682f403932b","null","
        <div style=""text-align: center; position: fixed; top: 5vh; left: 40vw;"">
            <div style=""margin:0 auto; width: 20vw; top: 8vh; font-size: 1vw""> 
            <font color=""green""> Bonus : $0.4 </font>
            </div>
        </div>
    ","null","","","","","",""
"","","","","","html-keyboard-response","113","123368","0.0-6.0-3.11","5c707693db12e3000146b16d","6554bfa13ac4b6a0ab00b03a","6554c011b3037682f403932b","376","./stimuli//pack_shapes/cat_1/ex_1_20.png","arrowright","response","ArrowLeft","20","1","false",""
"","","","","","html-keyboard-response","114","124886","0.0-6.0-4.11","5c707693db12e3000146b16d","6554bfa13ac4b6a0ab00b03a","6554c011b3037682f403932b","null","<p> <font color=""red"" size=""4vw""> Wrong category! </font> </p>","null","feedback","","","","","0.4"
"","","","","","html-keyboard-response","115","127513","0.0-6.0-0.12","5c707693db12e3000146b16d","6554bfa13ac4b6a0ab00b03a","6554c011b3037682f403932b","2627","
            
        <div style=""text-align: center; position: fixed; top: 5vh; left: 40vw;"">
            <div style=""margin:0 auto; width: 20vw; top: 8vh; font-size: 1vw""> 
            <font color=""green""> Bonus : $0.4 </font>
            </div>
        </div>
    
            <div> Please press any button to continue to the next trial.</div>
        ","arrowleft","ITI","","","","",""
"","","","","","html-keyboard-response","116","128130","0.0-6.0-1.12","5c707693db12e3000146b16d","6554bfa13ac4b6a0ab00b03a","6554c011b3037682f403932b","null","
        
        <div style=""text-align: center; position: fixed; top: 5vh; left: 40vw;"">
            <div style=""margin:0 auto; width: 20vw; top: 8vh; font-size: 1vw""> 
            <font color=""green""> Bonus : $0.4 </font>
            </div>
        </div>
    
        <img class=""stim"" src=./stimuli//pack_shapes/cat_2/ex_2_6.png></img>
    ","null","stimulus","","","","",""
"","","","","","html-keyboard-response","117","129135","0.0-6.0-2.12","5c707693db12e3000146b16d","6554bfa13ac4b6a0ab00b03a","6554c011b3037682f403932b","null","
        <div style=""text-align: center; position: fixed; top: 5vh; left: 40vw;"">
            <div style=""margin:0 auto; width: 20vw; top: 8vh; font-size: 1vw""> 
            <font color=""green""> Bonus : $0.4 </font>
            </div>
        </div>
    ","null","","","","","",""
"","","","","","html-keyboard-response","118","129695","0.0-6.0-3.12","5c707693db12e3000146b16d","6554bfa13ac4b6a0ab00b03a","6554c011b3037682f403932b","560","./stimuli//pack_shapes/cat_2/ex_2_6.png","arrowleft","response","ArrowRight","6","2","false",""
"","","","","","html-keyboard-response","119","131203","0.0-6.0-4.12","5c707693db12e3000146b16d","6554bfa13ac4b6a0ab00b03a","6554c011b3037682f403932b","null","<p> <font color=""red"" size=""4vw""> Wrong category! </font> </p>","null","feedback","","","","","0.4"
"","","","","","html-keyboard-response","120","133191","0.0-6.0-0.13","5c707693db12e3000146b16d","6554bfa13ac4b6a0ab00b03a","6554c011b3037682f403932b","1988","
            
        <div style=""text-align: center; position: fixed; top: 5vh; left: 40vw;"">
            <div style=""margin:0 auto; width: 20vw; top: 8vh; font-size: 1vw""> 
            <font color=""green""> Bonus : $0.4 </font>
            </div>
        </div>
    
            <div> Please press any button to continue to the next trial.</div>
        ","arrowleft","ITI","","","","",""
"","","","","","html-keyboard-response","121","133795","0.0-6.0-1.13","5c707693db12e3000146b16d","6554bfa13ac4b6a0ab00b03a","6554c011b3037682f403932b","null","
        
        <div style=""text-align: center; position: fixed; top: 5vh; left: 40vw;"">
            <div style=""margin:0 auto; width: 20vw; top: 8vh; font-size: 1vw""> 
            <font color=""green""> Bonus : $0.4 </font>
            </div>
        </div>
    
        <img class=""stim"" src=./stimuli//pack_shapes/cat_1/ex_1_59.png></img>
    ","null","stimulus","","","","",""
"","","","","","html-keyboard-response","122","134797","0.0-6.0-2.13","5c707693db12e3000146b16d","6554bfa13ac4b6a0ab00b03a","6554c011b3037682f403932b","null","
        <div style=""text-align: center; position: fixed; top: 5vh; left: 40vw;"">
            <div style=""margin:0 auto; width: 20vw; top: 8vh; font-size: 1vw""> 
            <font color=""green""> Bonus : $0.4 </font>
            </div>
        </div>
    ","null","","","","","",""
"","","","","","html-keyboard-response","123","135136","0.0-6.0-3.13","5c707693db12e3000146b16d","6554bfa13ac4b6a0ab00b03a","6554c011b3037682f403932b","338","./stimuli//pack_shapes/cat_1/ex_1_59.png","arrowleft","response","ArrowLeft","59","1","true",""
"","","","","","html-keyboard-response","124","136655","0.0-6.0-4.13","5c707693db12e3000146b16d","6554bfa13ac4b6a0ab00b03a","6554c011b3037682f403932b","null","<p> <font color=""green"" size=""4vw""> Correct category! </font> <br> <br> <font color=""green"" size=""7vw""> + $0.05 </font> </p>","null","feedback","","","","","0.45"
"","","","","","html-keyboard-response","125","141223","0.0-6.0-0.14","5c707693db12e3000146b16d","6554bfa13ac4b6a0ab00b03a","6554c011b3037682f403932b","4568","
            
        <div style=""text-align: center; position: fixed; top: 5vh; left: 40vw;"">
            <div style=""margin:0 auto; width: 20vw; top: 8vh; font-size: 1vw""> 
            <font color=""green""> Bonus : $0.45 </font>
            </div>
        </div>
    
            <div> Please press any button to continue to the next trial.</div>
        ","arrowleft","ITI","","","","",""
"","","","","","html-keyboard-response","126","141835","0.0-6.0-1.14","5c707693db12e3000146b16d","6554bfa13ac4b6a0ab00b03a","6554c011b3037682f403932b","null","
        
        <div style=""text-align: center; position: fixed; top: 5vh; left: 40vw;"">
            <div style=""margin:0 auto; width: 20vw; top: 8vh; font-size: 1vw""> 
            <font color=""green""> Bonus : $0.45 </font>
            </div>
        </div>
    
        <img class=""stim"" src=./stimuli//pack_shapes/cat_2/ex_2_20.png></img>
    ","null","stimulus","","","","",""
"","","","","","html-keyboard-response","127","142839","0.0-6.0-2.14","5c707693db12e3000146b16d","6554bfa13ac4b6a0ab00b03a","6554c011b3037682f403932b","null","
        <div style=""text-align: center; position: fixed; top: 5vh; left: 40vw;"">
            <div style=""margin:0 auto; width: 20vw; top: 8vh; font-size: 1vw""> 
            <font color=""green""> Bonus : $0.45 </font>
            </div>
        </div>
    ","null","","","","","",""
"","","","","","html-keyboard-response","128","143344","0.0-6.0-3.14","5c707693db12e3000146b16d","6554bfa13ac4b6a0ab00b03a","6554c011b3037682f403932b","504","./stimuli//pack_shapes/cat_2/ex_2_20.png","arrowright","response","ArrowRight","20","2","true",""
"","","","","","html-keyboard-response","129","144859","0.0-6.0-4.14","5c707693db12e3000146b16d","6554bfa13ac4b6a0ab00b03a","6554c011b3037682f403932b","null","<p> <font color=""green"" size=""4vw""> Correct category! </font> <br> <br> <font color=""green"" size=""7vw""> + $0.05 </font> </p>","null","feedback","","","","","0.5"
"","","","","","html-keyboard-response","130","145551","0.0-6.0-0.15","5c707693db12e3000146b16d","6554bfa13ac4b6a0ab00b03a","6554c011b3037682f403932b","691","
            
        <div style=""text-align: center; position: fixed; top: 5vh; left: 40vw;"">
            <div style=""margin:0 auto; width: 20vw; top: 8vh; font-size: 1vw""> 
            <font color=""green""> Bonus : $0.5 </font>
            </div>
        </div>
    
            <div> Please press any button to continue to the next trial.</div>
        ","arrowleft","ITI","","","","",""
"","","","","","html-keyboard-response","131","146163","0.0-6.0-1.15","5c707693db12e3000146b16d","6554bfa13ac4b6a0ab00b03a","6554c011b3037682f403932b","null","
        
        <div style=""text-align: center; position: fixed; top: 5vh; left: 40vw;"">
            <div style=""margin:0 auto; width: 20vw; top: 8vh; font-size: 1vw""> 
            <font color=""green""> Bonus : $0.5 </font>
            </div>
        </div>
    
        <img class=""stim"" src=./stimuli//pack_shapes/cat_2/ex_2_34.png></img>
    ","null","stimulus","","","","",""
"","","","","","html-keyboard-response","132","147164","0.0-6.0-2.15","5c707693db12e3000146b16d","6554bfa13ac4b6a0ab00b03a","6554c011b3037682f403932b","null","
        <div style=""text-align: center; position: fixed; top: 5vh; left: 40vw;"">
            <div style=""margin:0 auto; width: 20vw; top: 8vh; font-size: 1vw""> 
            <font color=""green""> Bonus : $0.5 </font>
            </div>
        </div>
    ","null","","","","","",""
"","","","","","html-keyboard-response","133","147648","0.0-6.0-3.15","5c707693db12e3000146b16d","6554bfa13ac4b6a0ab00b03a","6554c011b3037682f403932b","483","./stimuli//pack_shapes/cat_2/ex_2_34.png","arrowright","response","ArrowRight","34","2","true",""
"","","","","","html-keyboard-response","134","149157","0.0-6.0-4.15","5c707693db12e3000146b16d","6554bfa13ac4b6a0ab00b03a","6554c011b3037682f403932b","null","<p> <font color=""green"" size=""4vw""> Correct category! </font> <br> <br> <font color=""green"" size=""7vw""> + $0.05 </font> </p>","null","feedback","","","","","0.55"
"","","","","","html-keyboard-response","135","149832","0.0-6.0-0.16","5c707693db12e3000146b16d","6554bfa13ac4b6a0ab00b03a","6554c011b3037682f403932b","675","
            
        <div style=""text-align: center; position: fixed; top: 5vh; left: 40vw;"">
            <div style=""margin:0 auto; width: 20vw; top: 8vh; font-size: 1vw""> 
            <font color=""green""> Bonus : $0.55 </font>
            </div>
        </div>
    
            <div> Please press any button to continue to the next trial.</div>
        ","arrowleft","ITI","","","","",""
"","","","","","html-keyboard-response","136","150438","0.0-6.0-1.16","5c707693db12e3000146b16d","6554bfa13ac4b6a0ab00b03a","6554c011b3037682f403932b","null","
        
        <div style=""text-align: center; position: fixed; top: 5vh; left: 40vw;"">
            <div style=""margin:0 auto; width: 20vw; top: 8vh; font-size: 1vw""> 
            <font color=""green""> Bonus : $0.55 </font>
            </div>
        </div>
    
        <img class=""stim"" src=./stimuli//pack_shapes/cat_2/ex_2_21.png></img>
    ","null","stimulus","","","","",""
"","","","","","html-keyboard-response","137","151448","0.0-6.0-2.16","5c707693db12e3000146b16d","6554bfa13ac4b6a0ab00b03a","6554c011b3037682f403932b","null","
        <div style=""text-align: center; position: fixed; top: 5vh; left: 40vw;"">
            <div style=""margin:0 auto; width: 20vw; top: 8vh; font-size: 1vw""> 
            <font color=""green""> Bonus : $0.55 </font>
            </div>
        </div>
    ","null","","","","","",""
"","","","","","html-keyboard-response","138","151721","0.0-6.0-3.16","5c707693db12e3000146b16d","6554bfa13ac4b6a0ab00b03a","6554c011b3037682f403932b","271","./stimuli//pack_shapes/cat_2/ex_2_21.png","arrowright","response","ArrowRight","21","2","true",""
"","","","","","html-keyboard-response","139","153233","0.0-6.0-4.16","5c707693db12e3000146b16d","6554bfa13ac4b6a0ab00b03a","6554c011b3037682f403932b","null","<p> <font color=""green"" size=""4vw""> Correct category! </font> <br> <br> <font color=""green"" size=""7vw""> + $0.05 </font> </p>","null","feedback","","","","","0.6"
"","","","","","html-keyboard-response","140","153824","0.0-6.0-0.17","5c707693db12e3000146b16d","6554bfa13ac4b6a0ab00b03a","6554c011b3037682f403932b","591","
            
        <div style=""text-align: center; position: fixed; top: 5vh; left: 40vw;"">
            <div style=""margin:0 auto; width: 20vw; top: 8vh; font-size: 1vw""> 
            <font color=""green""> Bonus : $0.6 </font>
            </div>
        </div>
    
            <div> Please press any button to continue to the next trial.</div>
        ","arrowright","ITI","","","","",""
"","","","","","html-keyboard-response","141","154439","0.0-6.0-1.17","5c707693db12e3000146b16d","6554bfa13ac4b6a0ab00b03a","6554c011b3037682f403932b","null","
        
        <div style=""text-align: center; position: fixed; top: 5vh; left: 40vw;"">
            <div style=""margin:0 auto; width: 20vw; top: 8vh; font-size: 1vw""> 
            <font color=""green""> Bonus : $0.6 </font>
            </div>
        </div>
    
        <img class=""stim"" src=./stimuli//pack_shapes/cat_2/ex_2_61.png></img>
    ","null","stimulus","","","","",""
"","","","","","html-keyboard-response","142","155443","0.0-6.0-2.17","5c707693db12e3000146b16d","6554bfa13ac4b6a0ab00b03a","6554c011b3037682f403932b","null","
        <div style=""text-align: center; position: fixed; top: 5vh; left: 40vw;"">
            <div style=""margin:0 auto; width: 20vw; top: 8vh; font-size: 1vw""> 
            <font color=""green""> Bonus : $0.6 </font>
            </div>
        </div>
    ","null","","","","","",""
"","","","","","html-keyboard-response","143","155704","0.0-6.0-3.17","5c707693db12e3000146b16d","6554bfa13ac4b6a0ab00b03a","6554c011b3037682f403932b","260","./stimuli//pack_shapes/cat_2/ex_2_61.png","arrowright","response","ArrowRight","61","2","true",""
"","","","","","html-keyboard-response","144","157218","0.0-6.0-4.17","5c707693db12e3000146b16d","6554bfa13ac4b6a0ab00b03a","6554c011b3037682f403932b","null","<p> <font color=""green"" size=""4vw""> Correct category! </font> <br> <br> <font color=""green"" size=""7vw""> + $0.05 </font> </p>","null","feedback","","","","","0.65"
"","","","","","html-keyboard-response","145","157840","0.0-6.0-0.18","5c707693db12e3000146b16d","6554bfa13ac4b6a0ab00b03a","6554c011b3037682f403932b","621","
            
        <div style=""text-align: center; position: fixed; top: 5vh; left: 40vw;"">
            <div style=""margin:0 auto; width: 20vw; top: 8vh; font-size: 1vw""> 
            <font color=""green""> Bonus : $0.65 </font>
            </div>
        </div>
    
            <div> Please press any button to continue to the next trial.</div>
        ","arrowright","ITI","","","","",""
"","","","","","html-keyboard-response","146","158454","0.0-6.0-1.18","5c707693db12e3000146b16d","6554bfa13ac4b6a0ab00b03a","6554c011b3037682f403932b","null","
        
        <div style=""text-align: center; position: fixed; top: 5vh; left: 40vw;"">
            <div style=""margin:0 auto; width: 20vw; top: 8vh; font-size: 1vw""> 
            <font color=""green""> Bonus : $0.65 </font>
            </div>
        </div>
    
        <img class=""stim"" src=./stimuli//pack_shapes/cat_2/ex_2_9.png></img>
    ","null","stimulus","","","","",""
"","","","","","html-keyboard-response","147","159459","0.0-6.0-2.18","5c707693db12e3000146b16d","6554bfa13ac4b6a0ab00b03a","6554c011b3037682f403932b","null","
        <div style=""text-align: center; position: fixed; top: 5vh; left: 40vw;"">
            <div style=""margin:0 auto; width: 20vw; top: 8vh; font-size: 1vw""> 
            <font color=""green""> Bonus : $0.65 </font>
            </div>
        </div>
    ","null","","","","","",""
"","","","","","html-keyboard-response","148","159808","0.0-6.0-3.18","5c707693db12e3000146b16d","6554bfa13ac4b6a0ab00b03a","6554c011b3037682f403932b","348","./stimuli//pack_shapes/cat_2/ex_2_9.png","arrowright","response","ArrowRight","9","2","true",""
"","","","","","html-keyboard-response","149","161321","0.0-6.0-4.18","5c707693db12e3000146b16d","6554bfa13ac4b6a0ab00b03a","6554c011b3037682f403932b","null","<p> <font color=""green"" size=""4vw""> Correct category! </font> <br> <br> <font color=""green"" size=""7vw""> + $0.05 </font> </p>","null","feedback","","","","","0.7"
"","","","","","html-keyboard-response","150","161914","0.0-6.0-0.19","5c707693db12e3000146b16d","6554bfa13ac4b6a0ab00b03a","6554c011b3037682f403932b","593","
            
        <div style=""text-align: center; position: fixed; top: 5vh; left: 40vw;"">
            <div style=""margin:0 auto; width: 20vw; top: 8vh; font-size: 1vw""> 
            <font color=""green""> Bonus : $0.7 </font>
            </div>
        </div>
    
            <div> Please press any button to continue to the next trial.</div>
        ","arrowright","ITI","","","","",""
"","","","","","html-keyboard-response","151","162524","0.0-6.0-1.19","5c707693db12e3000146b16d","6554bfa13ac4b6a0ab00b03a","6554c011b3037682f403932b","null","
        
        <div style=""text-align: center; position: fixed; top: 5vh; left: 40vw;"">
            <div style=""margin:0 auto; width: 20vw; top: 8vh; font-size: 1vw""> 
            <font color=""green""> Bonus : $0.7 </font>
            </div>
        </div>
    
        <img class=""stim"" src=./stimuli//pack_shapes/cat_1/ex_1_38.png></img>
    ","null","stimulus","","","","",""
"","","","","","html-keyboard-response","152","163526","0.0-6.0-2.19","5c707693db12e3000146b16d","6554bfa13ac4b6a0ab00b03a","6554c011b3037682f403932b","null","
        <div style=""text-align: center; position: fixed; top: 5vh; left: 40vw;"">
            <div style=""margin:0 auto; width: 20vw; top: 8vh; font-size: 1vw""> 
            <font color=""green""> Bonus : $0.7 </font>
            </div>
        </div>
    ","null","","","","","",""
"","","","","","html-keyboard-response","153","163785","0.0-6.0-3.19","5c707693db12e3000146b16d","6554bfa13ac4b6a0ab00b03a","6554c011b3037682f403932b","258","./stimuli//pack_shapes/cat_1/ex_1_38.png","arrowright","response","ArrowLeft","38","1","false",""
"","","","","","html-keyboard-response","154","164825","0.0-6.0-4.19","5c707693db12e3000146b16d","6554bfa13ac4b6a0ab00b03a","6554c011b3037682f403932b","1040","<p> <font color=""red"" size=""4vw""> Wrong category! </font> </p>","arrowright","feedback","","","","","0.7"
"","","","","","html-keyboard-response","155","165754","0.0-6.0-0.20","5c707693db12e3000146b16d","6554bfa13ac4b6a0ab00b03a","6554c011b3037682f403932b","928","
            
        <div style=""text-align: center; position: fixed; top: 5vh; left: 40vw;"">
            <div style=""margin:0 auto; width: 20vw; top: 8vh; font-size: 1vw""> 
            <font color=""green""> Bonus : $0.7 </font>
            </div>
        </div>
    
            <div> Please press any button to continue to the next trial.</div>
        ","arrowright","ITI","","","","",""
"","","","","","html-keyboard-response","156","166374","0.0-6.0-1.20","5c707693db12e3000146b16d","6554bfa13ac4b6a0ab00b03a","6554c011b3037682f403932b","null","
        
        <div style=""text-align: center; position: fixed; top: 5vh; left: 40vw;"">
            <div style=""margin:0 auto; width: 20vw; top: 8vh; font-size: 1vw""> 
            <font color=""green""> Bonus : $0.7 </font>
            </div>
        </div>
    
        <img class=""stim"" src=./stimuli//pack_shapes/cat_2/ex_2_69.png></img>
    ","null","stimulus","","","","",""
"","","","","","html-keyboard-response","157","167377","0.0-6.0-2.20","5c707693db12e3000146b16d","6554bfa13ac4b6a0ab00b03a","6554c011b3037682f403932b","null","
        <div style=""text-align: center; position: fixed; top: 5vh; left: 40vw;"">
            <div style=""margin:0 auto; width: 20vw; top: 8vh; font-size: 1vw""> 
            <font color=""green""> Bonus : $0.7 </font>
            </div>
        </div>
    ","null","","","","","",""
"","","","","","html-keyboard-response","158","167633","0.0-6.0-3.20","5c707693db12e3000146b16d","6554bfa13ac4b6a0ab00b03a","6554c011b3037682f403932b","255","./stimuli//pack_shapes/cat_2/ex_2_69.png","arrowright","response","ArrowRight","69","2","true",""
"","","","","","html-keyboard-response","159","169146","0.0-6.0-4.20","5c707693db12e3000146b16d","6554bfa13ac4b6a0ab00b03a","6554c011b3037682f403932b","null","<p> <font color=""green"" size=""4vw""> Correct category! </font> <br> <br> <font color=""green"" size=""7vw""> + $0.05 </font> </p>","null","feedback","","","","","0.75"
"","","","","","html-keyboard-response","160","169594","0.0-6.0-0.21","5c707693db12e3000146b16d","6554bfa13ac4b6a0ab00b03a","6554c011b3037682f403932b","446","
            
        <div style=""text-align: center; position: fixed; top: 5vh; left: 40vw;"">
            <div style=""margin:0 auto; width: 20vw; top: 8vh; font-size: 1vw""> 
            <font color=""green""> Bonus : $0.75 </font>
            </div>
        </div>
    
            <div> Please press any button to continue to the next trial.</div>
        ","arrowright","ITI","","","","",""
"","","","","","html-keyboard-response","161","170204","0.0-6.0-1.21","5c707693db12e3000146b16d","6554bfa13ac4b6a0ab00b03a","6554c011b3037682f403932b","null","
        
        <div style=""text-align: center; position: fixed; top: 5vh; left: 40vw;"">
            <div style=""margin:0 auto; width: 20vw; top: 8vh; font-size: 1vw""> 
            <font color=""green""> Bonus : $0.75 </font>
            </div>
        </div>
    
        <img class=""stim"" src=./stimuli//pack_shapes/cat_1/ex_1_58.png></img>
    ","null","stimulus","","","","",""
"","","","","","html-keyboard-response","162","171208","0.0-6.0-2.21","5c707693db12e3000146b16d","6554bfa13ac4b6a0ab00b03a","6554c011b3037682f403932b","null","
        <div style=""text-align: center; position: fixed; top: 5vh; left: 40vw;"">
            <div style=""margin:0 auto; width: 20vw; top: 8vh; font-size: 1vw""> 
            <font color=""green""> Bonus : $0.75 </font>
            </div>
        </div>
    ","null","","","","","",""
"","","","","","html-keyboard-response","163","171506","0.0-6.0-3.21","5c707693db12e3000146b16d","6554bfa13ac4b6a0ab00b03a","6554c011b3037682f403932b","296","./stimuli//pack_shapes/cat_1/ex_1_58.png","arrowleft","response","ArrowLeft","58","1","true",""
"","","","","","html-keyboard-response","164","173013","0.0-6.0-4.21","5c707693db12e3000146b16d","6554bfa13ac4b6a0ab00b03a","6554c011b3037682f403932b","null","<p> <font color=""green"" size=""4vw""> Correct category! </font> <br> <br> <font color=""green"" size=""7vw""> + $0.05 </font> </p>","null","feedback","","","","","0.8"
"","","","","","html-keyboard-response","165","173514","0.0-6.0-0.22","5c707693db12e3000146b16d","6554bfa13ac4b6a0ab00b03a","6554c011b3037682f403932b","500","
            
        <div style=""text-align: center; position: fixed; top: 5vh; left: 40vw;"">
            <div style=""margin:0 auto; width: 20vw; top: 8vh; font-size: 1vw""> 
            <font color=""green""> Bonus : $0.8 </font>
            </div>
        </div>
    
            <div> Please press any button to continue to the next trial.</div>
        ","arrowleft","ITI","","","","",""
"","","","","","html-keyboard-response","166","174117","0.0-6.0-1.22","5c707693db12e3000146b16d","6554bfa13ac4b6a0ab00b03a","6554c011b3037682f403932b","null","
        
        <div style=""text-align: center; position: fixed; top: 5vh; left: 40vw;"">
            <div style=""margin:0 auto; width: 20vw; top: 8vh; font-size: 1vw""> 
            <font color=""green""> Bonus : $0.8 </font>
            </div>
        </div>
    
        <img class=""stim"" src=./stimuli//pack_shapes/cat_2/ex_2_67.png></img>
    ","null","stimulus","","","","",""
"","","","","","html-keyboard-response","167","175121","0.0-6.0-2.22","5c707693db12e3000146b16d","6554bfa13ac4b6a0ab00b03a","6554c011b3037682f403932b","null","
        <div style=""text-align: center; position: fixed; top: 5vh; left: 40vw;"">
            <div style=""margin:0 auto; width: 20vw; top: 8vh; font-size: 1vw""> 
            <font color=""green""> Bonus : $0.8 </font>
            </div>
        </div>
    ","null","","","","","",""
"","","","","","html-keyboard-response","168","175338","0.0-6.0-3.22","5c707693db12e3000146b16d","6554bfa13ac4b6a0ab00b03a","6554c011b3037682f403932b","216","./stimuli//pack_shapes/cat_2/ex_2_67.png","arrowright","response","ArrowRight","67","2","true",""
"","","","","","html-keyboard-response","169","176842","0.0-6.0-4.22","5c707693db12e3000146b16d","6554bfa13ac4b6a0ab00b03a","6554c011b3037682f403932b","null","<p> <font color=""green"" size=""4vw""> Correct category! </font> <br> <br> <font color=""green"" size=""7vw""> + $0.05 </font> </p>","null","feedback","","","","","0.85"
"","","","","","html-keyboard-response","170","177258","0.0-6.0-0.23","5c707693db12e3000146b16d","6554bfa13ac4b6a0ab00b03a","6554c011b3037682f403932b","415","
            
        <div style=""text-align: center; position: fixed; top: 5vh; left: 40vw;"">
            <div style=""margin:0 auto; width: 20vw; top: 8vh; font-size: 1vw""> 
            <font color=""green""> Bonus : $0.85 </font>
            </div>
        </div>
    
            <div> Please press any button to continue to the next trial.</div>
        ","arrowright","ITI","","","","",""
"","","","","","html-keyboard-response","171","177862","0.0-6.0-1.23","5c707693db12e3000146b16d","6554bfa13ac4b6a0ab00b03a","6554c011b3037682f403932b","null","
        
        <div style=""text-align: center; position: fixed; top: 5vh; left: 40vw;"">
            <div style=""margin:0 auto; width: 20vw; top: 8vh; font-size: 1vw""> 
            <font color=""green""> Bonus : $0.85 </font>
            </div>
        </div>
    
        <img class=""stim"" src=./stimuli//pack_shapes/cat_1/ex_1_53.png></img>
    ","null","stimulus","","","","",""
"","","","","","html-keyboard-response","172","178864","0.0-6.0-2.23","5c707693db12e3000146b16d","6554bfa13ac4b6a0ab00b03a","6554c011b3037682f403932b","null","
        <div style=""text-align: center; position: fixed; top: 5vh; left: 40vw;"">
            <div style=""margin:0 auto; width: 20vw; top: 8vh; font-size: 1vw""> 
            <font color=""green""> Bonus : $0.85 </font>
            </div>
        </div>
    ","null","","","","","",""
"","","","","","html-keyboard-response","173","179289","0.0-6.0-3.23","5c707693db12e3000146b16d","6554bfa13ac4b6a0ab00b03a","6554c011b3037682f403932b","424","./stimuli//pack_shapes/cat_1/ex_1_53.png","arrowleft","response","ArrowLeft","53","1","true",""
"","","","","","html-keyboard-response","174","180796","0.0-6.0-4.23","5c707693db12e3000146b16d","6554bfa13ac4b6a0ab00b03a","6554c011b3037682f403932b","null","<p> <font color=""green"" size=""4vw""> Correct category! </font> <br> <br> <font color=""green"" size=""7vw""> + $0.05 </font> </p>","null","feedback","","","","","0.9"
"","","","","","html-keyboard-response","175","181226","0.0-6.0-0.24","5c707693db12e3000146b16d","6554bfa13ac4b6a0ab00b03a","6554c011b3037682f403932b","429","
            
        <div style=""text-align: center; position: fixed; top: 5vh; left: 40vw;"">
            <div style=""margin:0 auto; width: 20vw; top: 8vh; font-size: 1vw""> 
            <font color=""green""> Bonus : $0.9 </font>
            </div>
        </div>
    
            <div> Please press any button to continue to the next trial.</div>
        ","arrowleft","ITI","","","","",""
"","","","","","html-keyboard-response","176","181829","0.0-6.0-1.24","5c707693db12e3000146b16d","6554bfa13ac4b6a0ab00b03a","6554c011b3037682f403932b","null","
        
        <div style=""text-align: center; position: fixed; top: 5vh; left: 40vw;"">
            <div style=""margin:0 auto; width: 20vw; top: 8vh; font-size: 1vw""> 
            <font color=""green""> Bonus : $0.9 </font>
            </div>
        </div>
    
        <img class=""stim"" src=./stimuli//pack_shapes/cat_1/ex_1_63.png></img>
    ","null","stimulus","","","","",""
"","","","","","html-keyboard-response","177","182833","0.0-6.0-2.24","5c707693db12e3000146b16d","6554bfa13ac4b6a0ab00b03a","6554c011b3037682f403932b","null","
        <div style=""text-align: center; position: fixed; top: 5vh; left: 40vw;"">
            <div style=""margin:0 auto; width: 20vw; top: 8vh; font-size: 1vw""> 
            <font color=""green""> Bonus : $0.9 </font>
            </div>
        </div>
    ","null","","","","","",""
"","","","","","html-keyboard-response","178","183121","0.0-6.0-3.24","5c707693db12e3000146b16d","6554bfa13ac4b6a0ab00b03a","6554c011b3037682f403932b","287","./stimuli//pack_shapes/cat_1/ex_1_63.png","arrowleft","response","ArrowLeft","63","1","true",""
"","","","","","html-keyboard-response","179","184637","0.0-6.0-4.24","5c707693db12e3000146b16d","6554bfa13ac4b6a0ab00b03a","6554c011b3037682f403932b","null","<p> <font color=""green"" size=""4vw""> Correct category! </font> <br> <br> <font color=""green"" size=""7vw""> + $0.05 </font> </p>","null","feedback","","","","","0.95"
"","","","","","html-keyboard-response","180","185098","0.0-6.0-0.25","5c707693db12e3000146b16d","6554bfa13ac4b6a0ab00b03a","6554c011b3037682f403932b","461","
            
        <div style=""text-align: center; position: fixed; top: 5vh; left: 40vw;"">
            <div style=""margin:0 auto; width: 20vw; top: 8vh; font-size: 1vw""> 
            <font color=""green""> Bonus : $0.95 </font>
            </div>
        </div>
    
            <div> Please press any button to continue to the next trial.</div>
        ","arrowleft","ITI","","","","",""
"","","","","","html-keyboard-response","181","185703","0.0-6.0-1.25","5c707693db12e3000146b16d","6554bfa13ac4b6a0ab00b03a","6554c011b3037682f403932b","null","
        
        <div style=""text-align: center; position: fixed; top: 5vh; left: 40vw;"">
            <div style=""margin:0 auto; width: 20vw; top: 8vh; font-size: 1vw""> 
            <font color=""green""> Bonus : $0.95 </font>
            </div>
        </div>
    
        <img class=""stim"" src=./stimuli//pack_shapes/cat_2/ex_2_82.png></img>
    ","null","stimulus","","","","",""
"","","","","","html-keyboard-response","182","186717","0.0-6.0-2.25","5c707693db12e3000146b16d","6554bfa13ac4b6a0ab00b03a","6554c011b3037682f403932b","null","
        <div style=""text-align: center; position: fixed; top: 5vh; left: 40vw;"">
            <div style=""margin:0 auto; width: 20vw; top: 8vh; font-size: 1vw""> 
            <font color=""green""> Bonus : $0.95 </font>
            </div>
        </div>
    ","null","","","","","",""
"","","","","","html-keyboard-response","183","187050","0.0-6.0-3.25","5c707693db12e3000146b16d","6554bfa13ac4b6a0ab00b03a","6554c011b3037682f403932b","331","./stimuli//pack_shapes/cat_2/ex_2_82.png","arrowright","response","ArrowRight","82","2","true",""
"","","","","","html-keyboard-response","184","188553","0.0-6.0-4.25","5c707693db12e3000146b16d","6554bfa13ac4b6a0ab00b03a","6554c011b3037682f403932b","null","<p> <font color=""green"" size=""4vw""> Correct category! </font> <br> <br> <font color=""green"" size=""7vw""> + $0.05 </font> </p>","null","feedback","","","","","1"
"","","","","","html-keyboard-response","185","188937","0.0-6.0-0.26","5c707693db12e3000146b16d","6554bfa13ac4b6a0ab00b03a","6554c011b3037682f403932b","384","
            
        <div style=""text-align: center; position: fixed; top: 5vh; left: 40vw;"">
            <div style=""margin:0 auto; width: 20vw; top: 8vh; font-size: 1vw""> 
            <font color=""green""> Bonus : $1 </font>
            </div>
        </div>
    
            <div> Please press any button to continue to the next trial.</div>
        ","arrowright","ITI","","","","",""
"","","","","","html-keyboard-response","186","189555","0.0-6.0-1.26","5c707693db12e3000146b16d","6554bfa13ac4b6a0ab00b03a","6554c011b3037682f403932b","null","
        
        <div style=""text-align: center; position: fixed; top: 5vh; left: 40vw;"">
            <div style=""margin:0 auto; width: 20vw; top: 8vh; font-size: 1vw""> 
            <font color=""green""> Bonus : $1 </font>
            </div>
        </div>
    
        <img class=""stim"" src=./stimuli//pack_shapes/cat_2/ex_2_57.png></img>
    ","null","stimulus","","","","",""
"","","","","","html-keyboard-response","187","190556","0.0-6.0-2.26","5c707693db12e3000146b16d","6554bfa13ac4b6a0ab00b03a","6554c011b3037682f403932b","null","
        <div style=""text-align: center; position: fixed; top: 5vh; left: 40vw;"">
            <div style=""margin:0 auto; width: 20vw; top: 8vh; font-size: 1vw""> 
            <font color=""green""> Bonus : $1 </font>
            </div>
        </div>
    ","null","","","","","",""
"","","","","","html-keyboard-response","188","190825","0.0-6.0-3.26","5c707693db12e3000146b16d","6554bfa13ac4b6a0ab00b03a","6554c011b3037682f403932b","267","./stimuli//pack_shapes/cat_2/ex_2_57.png","arrowright","response","ArrowRight","57","2","true",""
"","","","","","html-keyboard-response","189","192327","0.0-6.0-4.26","5c707693db12e3000146b16d","6554bfa13ac4b6a0ab00b03a","6554c011b3037682f403932b","null","<p> <font color=""green"" size=""4vw""> Correct category! </font> <br> <br> <font color=""green"" size=""7vw""> + $0.05 </font> </p>","null","feedback","","","","","1.05"
"","","","","","html-keyboard-response","190","192794","0.0-6.0-0.27","5c707693db12e3000146b16d","6554bfa13ac4b6a0ab00b03a","6554c011b3037682f403932b","466","
            
        <div style=""text-align: center; position: fixed; top: 5vh; left: 40vw;"">
            <div style=""margin:0 auto; width: 20vw; top: 8vh; font-size: 1vw""> 
            <font color=""green""> Bonus : $1.05 </font>
            </div>
        </div>
    
            <div> Please press any button to continue to the next trial.</div>
        ","arrowright","ITI","","","","",""
"","","","","","html-keyboard-response","191","193400","0.0-6.0-1.27","5c707693db12e3000146b16d","6554bfa13ac4b6a0ab00b03a","6554c011b3037682f403932b","null","
        
        <div style=""text-align: center; position: fixed; top: 5vh; left: 40vw;"">
            <div style=""margin:0 auto; width: 20vw; top: 8vh; font-size: 1vw""> 
            <font color=""green""> Bonus : $1.05 </font>
            </div>
        </div>
    
        <img class=""stim"" src=./stimuli//pack_shapes/cat_2/ex_2_22.png></img>
    ","null","stimulus","","","","",""
"","","","","","html-keyboard-response","192","194404","0.0-6.0-2.27","5c707693db12e3000146b16d","6554bfa13ac4b6a0ab00b03a","6554c011b3037682f403932b","null","
        <div style=""text-align: center; position: fixed; top: 5vh; left: 40vw;"">
            <div style=""margin:0 auto; width: 20vw; top: 8vh; font-size: 1vw""> 
            <font color=""green""> Bonus : $1.05 </font>
            </div>
        </div>
    ","null","","","","","",""
"","","","","","html-keyboard-response","193","194466","0.0-6.0-3.27","5c707693db12e3000146b16d","6554bfa13ac4b6a0ab00b03a","6554c011b3037682f403932b","60","./stimuli//pack_shapes/cat_2/ex_2_22.png","arrowright","response","ArrowRight","22","2","true",""
"","","","","","html-keyboard-response","194","195976","0.0-6.0-4.27","5c707693db12e3000146b16d","6554bfa13ac4b6a0ab00b03a","6554c011b3037682f403932b","null","<p> <font color=""green"" size=""4vw""> Correct category! </font> <br> <br> <font color=""green"" size=""7vw""> + $0.05 </font> </p>","null","feedback","","","","","1.1"
"","","","","","html-keyboard-response","195","196274","0.0-6.0-0.28","5c707693db12e3000146b16d","6554bfa13ac4b6a0ab00b03a","6554c011b3037682f403932b","297","
            
        <div style=""text-align: center; position: fixed; top: 5vh; left: 40vw;"">
            <div style=""margin:0 auto; width: 20vw; top: 8vh; font-size: 1vw""> 
            <font color=""green""> Bonus : $1.1 </font>
            </div>
        </div>
    
            <div> Please press any button to continue to the next trial.</div>
        ","arrowright","ITI","","","","",""
"","","","","","html-keyboard-response","196","196879","0.0-6.0-1.28","5c707693db12e3000146b16d","6554bfa13ac4b6a0ab00b03a","6554c011b3037682f403932b","null","
        
        <div style=""text-align: center; position: fixed; top: 5vh; left: 40vw;"">
            <div style=""margin:0 auto; width: 20vw; top: 8vh; font-size: 1vw""> 
            <font color=""green""> Bonus : $1.1 </font>
            </div>
        </div>
    
        <img class=""stim"" src=./stimuli//pack_shapes/cat_1/ex_1_12.png></img>
    ","null","stimulus","","","","",""
"","","","","","html-keyboard-response","197","197883","0.0-6.0-2.28","5c707693db12e3000146b16d","6554bfa13ac4b6a0ab00b03a","6554c011b3037682f403932b","null","
        <div style=""text-align: center; position: fixed; top: 5vh; left: 40vw;"">
            <div style=""margin:0 auto; width: 20vw; top: 8vh; font-size: 1vw""> 
            <font color=""green""> Bonus : $1.1 </font>
            </div>
        </div>
    ","null","","","","","",""
"","","","","","html-keyboard-response","198","198122","0.0-6.0-3.28","5c707693db12e3000146b16d","6554bfa13ac4b6a0ab00b03a","6554c011b3037682f403932b","237","./stimuli//pack_shapes/cat_1/ex_1_12.png","arrowleft","response","ArrowLeft","12","1","true",""
"","","","","","html-keyboard-response","199","199637","0.0-6.0-4.28","5c707693db12e3000146b16d","6554bfa13ac4b6a0ab00b03a","6554c011b3037682f403932b","null","<p> <font color=""green"" size=""4vw""> Correct category! </font> <br> <br> <font color=""green"" size=""7vw""> + $0.05 </font> </p>","null","feedback","","","","","1.15"
"","","","","","html-keyboard-response","200","200025","0.0-6.0-0.29","5c707693db12e3000146b16d","6554bfa13ac4b6a0ab00b03a","6554c011b3037682f403932b","388","
            
        <div style=""text-align: center; position: fixed; top: 5vh; left: 40vw;"">
            <div style=""margin:0 auto; width: 20vw; top: 8vh; font-size: 1vw""> 
            <font color=""green""> Bonus : $1.15 </font>
            </div>
        </div>
    
            <div> Please press any button to continue to the next trial.</div>
        ","arrowleft","ITI","","","","",""
"","","","","","html-keyboard-response","201","200641","0.0-6.0-1.29","5c707693db12e3000146b16d","6554bfa13ac4b6a0ab00b03a","6554c011b3037682f403932b","null","
        
        <div style=""text-align: center; position: fixed; top: 5vh; left: 40vw;"">
            <div style=""margin:0 auto; width: 20vw; top: 8vh; font-size: 1vw""> 
            <font color=""green""> Bonus : $1.15 </font>
            </div>
        </div>
    
        <img class=""stim"" src=./stimuli//pack_shapes/cat_2/ex_2_60.png></img>
    ","null","stimulus","","","","",""
"","","","","","html-keyboard-response","202","201644","0.0-6.0-2.29","5c707693db12e3000146b16d","6554bfa13ac4b6a0ab00b03a","6554c011b3037682f403932b","null","
        <div style=""text-align: center; position: fixed; top: 5vh; left: 40vw;"">
            <div style=""margin:0 auto; width: 20vw; top: 8vh; font-size: 1vw""> 
            <font color=""green""> Bonus : $1.15 </font>
            </div>
        </div>
    ","null","","","","","",""
"","","","","","html-keyboard-response","203","201785","0.0-6.0-3.29","5c707693db12e3000146b16d","6554bfa13ac4b6a0ab00b03a","6554c011b3037682f403932b","139","./stimuli//pack_shapes/cat_2/ex_2_60.png","arrowright","response","ArrowRight","60","2","true",""
"","","","","","html-keyboard-response","204","203302","0.0-6.0-4.29","5c707693db12e3000146b16d","6554bfa13ac4b6a0ab00b03a","6554c011b3037682f403932b","null","<p> <font color=""green"" size=""4vw""> Correct category! </font> <br> <br> <font color=""green"" size=""7vw""> + $0.05 </font> </p>","null","feedback","","","","","1.2"
"","","","","","html-keyboard-response","205","203729","0.0-6.0-0.30","5c707693db12e3000146b16d","6554bfa13ac4b6a0ab00b03a","6554c011b3037682f403932b","426","
            
        <div style=""text-align: center; position: fixed; top: 5vh; left: 40vw;"">
            <div style=""margin:0 auto; width: 20vw; top: 8vh; font-size: 1vw""> 
            <font color=""green""> Bonus : $1.2 </font>
            </div>
        </div>
    
            <div> Please press any button to continue to the next trial.</div>
        ","arrowleft","ITI","","","","",""
"","","","","","html-keyboard-response","206","204338","0.0-6.0-1.30","5c707693db12e3000146b16d","6554bfa13ac4b6a0ab00b03a","6554c011b3037682f403932b","null","
        
        <div style=""text-align: center; position: fixed; top: 5vh; left: 40vw;"">
            <div style=""margin:0 auto; width: 20vw; top: 8vh; font-size: 1vw""> 
            <font color=""green""> Bonus : $1.2 </font>
            </div>
        </div>
    
        <img class=""stim"" src=./stimuli//pack_shapes/cat_2/ex_2_55.png></img>
    ","null","stimulus","","","","",""
"","","","","","html-keyboard-response","207","205342","0.0-6.0-2.30","5c707693db12e3000146b16d","6554bfa13ac4b6a0ab00b03a","6554c011b3037682f403932b","null","
        <div style=""text-align: center; position: fixed; top: 5vh; left: 40vw;"">
            <div style=""margin:0 auto; width: 20vw; top: 8vh; font-size: 1vw""> 
            <font color=""green""> Bonus : $1.2 </font>
            </div>
        </div>
    ","null","","","","","",""
"","","","","","html-keyboard-response","208","205554","0.0-6.0-3.30","5c707693db12e3000146b16d","6554bfa13ac4b6a0ab00b03a","6554c011b3037682f403932b","210","./stimuli//pack_shapes/cat_2/ex_2_55.png","arrowright","response","ArrowRight","55","2","true",""
"","","","","","html-keyboard-response","209","207062","0.0-6.0-4.30","5c707693db12e3000146b16d","6554bfa13ac4b6a0ab00b03a","6554c011b3037682f403932b","null","<p> <font color=""green"" size=""4vw""> Correct category! </font> <br> <br> <font color=""green"" size=""7vw""> + $0.05 </font> </p>","null","feedback","","","","","1.25"
"","","","","","html-keyboard-response","210","207417","0.0-6.0-0.31","5c707693db12e3000146b16d","6554bfa13ac4b6a0ab00b03a","6554c011b3037682f403932b","354","
            
        <div style=""text-align: center; position: fixed; top: 5vh; left: 40vw;"">
            <div style=""margin:0 auto; width: 20vw; top: 8vh; font-size: 1vw""> 
            <font color=""green""> Bonus : $1.25 </font>
            </div>
        </div>
    
            <div> Please press any button to continue to the next trial.</div>
        ","arrowright","ITI","","","","",""
"","","","","","html-keyboard-response","211","208019","0.0-6.0-1.31","5c707693db12e3000146b16d","6554bfa13ac4b6a0ab00b03a","6554c011b3037682f403932b","null","
        
        <div style=""text-align: center; position: fixed; top: 5vh; left: 40vw;"">
            <div style=""margin:0 auto; width: 20vw; top: 8vh; font-size: 1vw""> 
            <font color=""green""> Bonus : $1.25 </font>
            </div>
        </div>
    
        <img class=""stim"" src=./stimuli//pack_shapes/cat_1/ex_1_25.png></img>
    ","null","stimulus","","","","",""
"","","","","","html-keyboard-response","212","209023","0.0-6.0-2.31","5c707693db12e3000146b16d","6554bfa13ac4b6a0ab00b03a","6554c011b3037682f403932b","null","
        <div style=""text-align: center; position: fixed; top: 5vh; left: 40vw;"">
            <div style=""margin:0 auto; width: 20vw; top: 8vh; font-size: 1vw""> 
            <font color=""green""> Bonus : $1.25 </font>
            </div>
        </div>
    ","null","","","","","",""
"","","","","","html-keyboard-response","213","209329","0.0-6.0-3.31","5c707693db12e3000146b16d","6554bfa13ac4b6a0ab00b03a","6554c011b3037682f403932b","306","./stimuli//pack_shapes/cat_1/ex_1_25.png","arrowright","response","ArrowLeft","25","1","false",""
"","","","","","html-keyboard-response","214","210845","0.0-6.0-4.31","5c707693db12e3000146b16d","6554bfa13ac4b6a0ab00b03a","6554c011b3037682f403932b","null","<p> <font color=""red"" size=""4vw""> Wrong category! </font> </p>","null","feedback","","","","","1.25"
"","","","","","html-keyboard-response","215","211113","0.0-6.0-0.32","5c707693db12e3000146b16d","6554bfa13ac4b6a0ab00b03a","6554c011b3037682f403932b","267","
            
        <div style=""text-align: center; position: fixed; top: 5vh; left: 40vw;"">
            <div style=""margin:0 auto; width: 20vw; top: 8vh; font-size: 1vw""> 
            <font color=""green""> Bonus : $1.25 </font>
            </div>
        </div>
    
            <div> Please press any button to continue to the next trial.</div>
        ","arrowright","ITI","","","","",""
"","","","","","html-keyboard-response","216","211733","0.0-6.0-1.32","5c707693db12e3000146b16d","6554bfa13ac4b6a0ab00b03a","6554c011b3037682f403932b","null","
        
        <div style=""text-align: center; position: fixed; top: 5vh; left: 40vw;"">
            <div style=""margin:0 auto; width: 20vw; top: 8vh; font-size: 1vw""> 
            <font color=""green""> Bonus : $1.25 </font>
            </div>
        </div>
    
        <img class=""stim"" src=./stimuli//pack_shapes/cat_1/ex_1_15.png></img>
    ","null","stimulus","","","","",""
"","","","","","html-keyboard-response","217","212750","0.0-6.0-2.32","5c707693db12e3000146b16d","6554bfa13ac4b6a0ab00b03a","6554c011b3037682f403932b","null","
        <div style=""text-align: center; position: fixed; top: 5vh; left: 40vw;"">
            <div style=""margin:0 auto; width: 20vw; top: 8vh; font-size: 1vw""> 
            <font color=""green""> Bonus : $1.25 </font>
            </div>
        </div>
    ","null","","","","","",""
"","","","","","html-keyboard-response","218","213034","0.0-6.0-3.32","5c707693db12e3000146b16d","6554bfa13ac4b6a0ab00b03a","6554c011b3037682f403932b","283","./stimuli//pack_shapes/cat_1/ex_1_15.png","arrowleft","response","ArrowLeft","15","1","true",""
"","","","","","html-keyboard-response","219","214539","0.0-6.0-4.32","5c707693db12e3000146b16d","6554bfa13ac4b6a0ab00b03a","6554c011b3037682f403932b","null","<p> <font color=""green"" size=""4vw""> Correct category! </font> <br> <br> <font color=""green"" size=""7vw""> + $0.05 </font> </p>","null","feedback","","","","","1.3"
"","","","","","html-keyboard-response","220","215289","0.0-6.0-0.33","5c707693db12e3000146b16d","6554bfa13ac4b6a0ab00b03a","6554c011b3037682f403932b","749","
            
        <div style=""text-align: center; position: fixed; top: 5vh; left: 40vw;"">
            <div style=""margin:0 auto; width: 20vw; top: 8vh; font-size: 1vw""> 
            <font color=""green""> Bonus : $1.3 </font>
            </div>
        </div>
    
            <div> Please press any button to continue to the next trial.</div>
        ","arrowleft","ITI","","","","",""
"","","","","","html-keyboard-response","221","215891","0.0-6.0-1.33","5c707693db12e3000146b16d","6554bfa13ac4b6a0ab00b03a","6554c011b3037682f403932b","null","
        
        <div style=""text-align: center; position: fixed; top: 5vh; left: 40vw;"">
            <div style=""margin:0 auto; width: 20vw; top: 8vh; font-size: 1vw""> 
            <font color=""green""> Bonus : $1.3 </font>
            </div>
        </div>
    
        <img class=""stim"" src=./stimuli//pack_shapes/cat_2/ex_2_32.png></img>
    ","null","stimulus","","","","",""
"","","","","","html-keyboard-response","222","216895","0.0-6.0-2.33","5c707693db12e3000146b16d","6554bfa13ac4b6a0ab00b03a","6554c011b3037682f403932b","null","
        <div style=""text-align: center; position: fixed; top: 5vh; left: 40vw;"">
            <div style=""margin:0 auto; width: 20vw; top: 8vh; font-size: 1vw""> 
            <font color=""green""> Bonus : $1.3 </font>
            </div>
        </div>
    ","null","","","","","",""
"","","","","","html-keyboard-response","223","217009","0.0-6.0-3.33","5c707693db12e3000146b16d","6554bfa13ac4b6a0ab00b03a","6554c011b3037682f403932b","113","./stimuli//pack_shapes/cat_2/ex_2_32.png","arrowright","response","ArrowRight","32","2","true",""
"","","","","","html-keyboard-response","224","218516","0.0-6.0-4.33","5c707693db12e3000146b16d","6554bfa13ac4b6a0ab00b03a","6554c011b3037682f403932b","null","<p> <font color=""green"" size=""4vw""> Correct category! </font> <br> <br> <font color=""green"" size=""7vw""> + $0.05 </font> </p>","null","feedback","","","","","1.35"
"","","","","","html-keyboard-response","225","218986","0.0-6.0-0.34","5c707693db12e3000146b16d","6554bfa13ac4b6a0ab00b03a","6554c011b3037682f403932b","470","
            
        <div style=""text-align: center; position: fixed; top: 5vh; left: 40vw;"">
            <div style=""margin:0 auto; width: 20vw; top: 8vh; font-size: 1vw""> 
            <font color=""green""> Bonus : $1.35 </font>
            </div>
        </div>
    
            <div> Please press any button to continue to the next trial.</div>
        ","arrowleft","ITI","","","","",""
"","","","","","html-keyboard-response","226","219588","0.0-6.0-1.34","5c707693db12e3000146b16d","6554bfa13ac4b6a0ab00b03a","6554c011b3037682f403932b","null","
        
        <div style=""text-align: center; position: fixed; top: 5vh; left: 40vw;"">
            <div style=""margin:0 auto; width: 20vw; top: 8vh; font-size: 1vw""> 
            <font color=""green""> Bonus : $1.35 </font>
            </div>
        </div>
    
        <img class=""stim"" src=./stimuli//pack_shapes/cat_2/ex_2_71.png></img>
    ","null","stimulus","","","","",""
"","","","","","html-keyboard-response","227","220591","0.0-6.0-2.34","5c707693db12e3000146b16d","6554bfa13ac4b6a0ab00b03a","6554c011b3037682f403932b","null","
        <div style=""text-align: center; position: fixed; top: 5vh; left: 40vw;"">
            <div style=""margin:0 auto; width: 20vw; top: 8vh; font-size: 1vw""> 
            <font color=""green""> Bonus : $1.35 </font>
            </div>
        </div>
    ","null","","","","","",""
"","","","","","html-keyboard-response","228","220601","0.0-6.0-3.34","5c707693db12e3000146b16d","6554bfa13ac4b6a0ab00b03a","6554c011b3037682f403932b","8","./stimuli//pack_shapes/cat_2/ex_2_71.png","arrowright","response","ArrowRight","71","2","true",""
"","","","","","html-keyboard-response","229","222114","0.0-6.0-4.34","5c707693db12e3000146b16d","6554bfa13ac4b6a0ab00b03a","6554c011b3037682f403932b","null","<p> <font color=""green"" size=""4vw""> Correct category! </font> <br> <br> <font color=""green"" size=""7vw""> + $0.05 </font> </p>","null","feedback","","","","","1.4"
"","","","","","html-keyboard-response","230","222419","0.0-6.0-0.35","5c707693db12e3000146b16d","6554bfa13ac4b6a0ab00b03a","6554c011b3037682f403932b","304","
            
        <div style=""text-align: center; position: fixed; top: 5vh; left: 40vw;"">
            <div style=""margin:0 auto; width: 20vw; top: 8vh; font-size: 1vw""> 
            <font color=""green""> Bonus : $1.4 </font>
            </div>
        </div>
    
            <div> Please press any button to continue to the next trial.</div>
        ","arrowright","ITI","","","","",""
"","","","","","html-keyboard-response","231","223032","0.0-6.0-1.35","5c707693db12e3000146b16d","6554bfa13ac4b6a0ab00b03a","6554c011b3037682f403932b","null","
        
        <div style=""text-align: center; position: fixed; top: 5vh; left: 40vw;"">
            <div style=""margin:0 auto; width: 20vw; top: 8vh; font-size: 1vw""> 
            <font color=""green""> Bonus : $1.4 </font>
            </div>
        </div>
    
        <img class=""stim"" src=./stimuli//pack_shapes/cat_2/ex_2_11.png></img>
    ","null","stimulus","","","","",""
"","","","","","html-keyboard-response","232","224036","0.0-6.0-2.35","5c707693db12e3000146b16d","6554bfa13ac4b6a0ab00b03a","6554c011b3037682f403932b","null","
        <div style=""text-align: center; position: fixed; top: 5vh; left: 40vw;"">
            <div style=""margin:0 auto; width: 20vw; top: 8vh; font-size: 1vw""> 
            <font color=""green""> Bonus : $1.4 </font>
            </div>
        </div>
    ","null","","","","","",""
"","","","","","html-keyboard-response","233","224267","0.0-6.0-3.35","5c707693db12e3000146b16d","6554bfa13ac4b6a0ab00b03a","6554c011b3037682f403932b","230","./stimuli//pack_shapes/cat_2/ex_2_11.png","arrowleft","response","ArrowRight","11","2","false",""
"","","","","","html-keyboard-response","234","225651","0.0-6.0-4.35","5c707693db12e3000146b16d","6554bfa13ac4b6a0ab00b03a","6554c011b3037682f403932b","1383","<p> <font color=""red"" size=""4vw""> Wrong category! </font> </p>","arrowleft","feedback","","","","","1.4"
"","","","","","html-keyboard-response","235","226443","0.0-6.0-0.36","5c707693db12e3000146b16d","6554bfa13ac4b6a0ab00b03a","6554c011b3037682f403932b","791","
            
        <div style=""text-align: center; position: fixed; top: 5vh; left: 40vw;"">
            <div style=""margin:0 auto; width: 20vw; top: 8vh; font-size: 1vw""> 
            <font color=""green""> Bonus : $1.4 </font>
            </div>
        </div>
    
            <div> Please press any button to continue to the next trial.</div>
        ","arrowleft","ITI","","","","",""
"","","","","","html-keyboard-response","236","227045","0.0-6.0-1.36","5c707693db12e3000146b16d","6554bfa13ac4b6a0ab00b03a","6554c011b3037682f403932b","null","
        
        <div style=""text-align: center; position: fixed; top: 5vh; left: 40vw;"">
            <div style=""margin:0 auto; width: 20vw; top: 8vh; font-size: 1vw""> 
