"success","timeout","failed_images","failed_audio","failed_video","trial_type","trial_index","time_elapsed","internal_node_id","subject_id","study_id","session_id","rt","stimulus","response","task","correct_response","exemplar_ID","category","correct","bonus"
"true","false","[]","[]","[]","preload","0","4","0.0-0.0","65200df074f7b4deaf7ff9fe","6554bfa13ac4b6a0ab00b03a","6554c67c9d97aaebd51fe9ec","","","","","","","","",""
"","","","","","html-keyboard-response","1","27593","0.0-1.0","65200df074f7b4deaf7ff9fe","6554bfa13ac4b6a0ab00b03a","6554c67c9d97aaebd51fe9ec","27588","Welcome to the Category Learning experiment! Press any key to continue."," ","welcome","","","","",""
"","","","","","html-keyboard-response","2","58635","0.0-2.0","65200df074f7b4deaf7ff9fe","6554bfa13ac4b6a0ab00b03a","6554c67c9d97aaebd51fe9ec","31041","
            <p>You will be shown images of black shapes.  Some are category A, some are category B.
            <br>You will not know in advance which category a specific shape belongs to.</p>
            <p>After you see an image, you will be asked to guess its category <b>(left arrow for category A, right arrow for category B)</b></p>
            <p>After you choose, the screen will show you whether you were correct or not.</p>
            <p><b>You will receive a bonus payment of $0.05 for each correct answer!</b></p>
            <p> So you can increase your bonus by guessing correctly, and by guessing as quickly as possible so you move on to the next image sooner.</p>
            <p>Press any key to continue.</p>
            "," ","introduction_1","","","","",""
"","","","","","html-keyboard-response","3","67136","0.0-3.0","65200df074f7b4deaf7ff9fe","6554bfa13ac4b6a0ab00b03a","6554c67c9d97aaebd51fe9ec","8500","
            <p> <b>The first 10 trials are a practice round that will not count towards your bonus payment.</b></p>
            <p> You will be notified when practice finishes and the test begins. </p>
            <p> Press any key to begin the practice round.</p>
            "," ","introduction_2","","","","",""
"","","","","","html-keyboard-response","4","71385","0.0-4.0-0.0","65200df074f7b4deaf7ff9fe","6554bfa13ac4b6a0ab00b03a","6554c67c9d97aaebd51fe9ec","4248","
            
        <div style=""text-align: center; position: fixed; top: 5vh; left: 40vw;"">
            <div style=""margin:0 auto; width: 20vw; top: 8vh; font-size: 1vw""> 
            <font color=""green""> Bonus : $0 </font>
            </div>
        </div>
    
            <div> Please press any button to continue to the next trial.</div>
        "," ","ITI","","","","",""
"","","","","","html-keyboard-response","5","71995","0.0-4.0-1.0","65200df074f7b4deaf7ff9fe","6554bfa13ac4b6a0ab00b03a","6554c67c9d97aaebd51fe9ec","null","
        
        <div style=""text-align: center; position: fixed; top: 5vh; left: 40vw;"">
            <div style=""margin:0 auto; width: 20vw; top: 8vh; font-size: 1vw""> 
            <font color=""green""> Bonus : $0 </font>
            </div>
        </div>
    
        <img class=""stim"" src=./stimuli//pack_shapes/cat_1/ex_1_39.png></img>
    ","null","stimulus","","","","",""
"","","","","","html-keyboard-response","6","73012","0.0-4.0-2.0","65200df074f7b4deaf7ff9fe","6554bfa13ac4b6a0ab00b03a","6554c67c9d97aaebd51fe9ec","null","
        <div style=""text-align: center; position: fixed; top: 5vh; left: 40vw;"">
            <div style=""margin:0 auto; width: 20vw; top: 8vh; font-size: 1vw""> 
            <font color=""green""> Bonus : $0 </font>
            </div>
        </div>
    ","null","","","","","",""
"","","","","","html-keyboard-response","7","74230","0.0-4.0-3.0","65200df074f7b4deaf7ff9fe","6554bfa13ac4b6a0ab00b03a","6554c67c9d97aaebd51fe9ec","1217","./stimuli//pack_shapes/cat_1/ex_1_39.png","arrowright","response","ArrowLeft","39","1","false",""
"","","","","","html-keyboard-response","8","75736","0.0-4.0-4.0","65200df074f7b4deaf7ff9fe","6554bfa13ac4b6a0ab00b03a","6554c67c9d97aaebd51fe9ec","null","<p> <font color=""red"" size=""4vw""> Wrong category! </font> </p>","null","feedback","","","","","0"
"","","","","","html-keyboard-response","9","77214","0.0-4.0-0.1","65200df074f7b4deaf7ff9fe","6554bfa13ac4b6a0ab00b03a","6554c67c9d97aaebd51fe9ec","1478","
            
        <div style=""text-align: center; position: fixed; top: 5vh; left: 40vw;"">
            <div style=""margin:0 auto; width: 20vw; top: 8vh; font-size: 1vw""> 
            <font color=""green""> Bonus : $0 </font>
            </div>
        </div>
    
            <div> Please press any button to continue to the next trial.</div>
        "," ","ITI","","","","",""
"","","","","","html-keyboard-response","10","77824","0.0-4.0-1.1","65200df074f7b4deaf7ff9fe","6554bfa13ac4b6a0ab00b03a","6554c67c9d97aaebd51fe9ec","null","
        
        <div style=""text-align: center; position: fixed; top: 5vh; left: 40vw;"">
            <div style=""margin:0 auto; width: 20vw; top: 8vh; font-size: 1vw""> 
            <font color=""green""> Bonus : $0 </font>
            </div>
        </div>
    
        <img class=""stim"" src=./stimuli//pack_shapes/cat_2/ex_2_49.png></img>
    ","null","stimulus","","","","",""
"","","","","","html-keyboard-response","11","78829","0.0-4.0-2.1","65200df074f7b4deaf7ff9fe","6554bfa13ac4b6a0ab00b03a","6554c67c9d97aaebd51fe9ec","null","
        <div style=""text-align: center; position: fixed; top: 5vh; left: 40vw;"">
            <div style=""margin:0 auto; width: 20vw; top: 8vh; font-size: 1vw""> 
            <font color=""green""> Bonus : $0 </font>
            </div>
        </div>
    ","null","","","","","",""
"","","","","","html-keyboard-response","12","79702","0.0-4.0-3.1","65200df074f7b4deaf7ff9fe","6554bfa13ac4b6a0ab00b03a","6554c67c9d97aaebd51fe9ec","872","./stimuli//pack_shapes/cat_2/ex_2_49.png","arrowright","response","ArrowRight","49","2","true",""
"","","","","","html-keyboard-response","13","81220","0.0-4.0-4.1","65200df074f7b4deaf7ff9fe","6554bfa13ac4b6a0ab00b03a","6554c67c9d97aaebd51fe9ec","null","<p> <font color=""green"" size=""4vw""> Correct category! </font> </p>","null","feedback","","","","","0"
"","","","","","html-keyboard-response","14","83864","0.0-4.0-0.2","65200df074f7b4deaf7ff9fe","6554bfa13ac4b6a0ab00b03a","6554c67c9d97aaebd51fe9ec","2643","
            
        <div style=""text-align: center; position: fixed; top: 5vh; left: 40vw;"">
            <div style=""margin:0 auto; width: 20vw; top: 8vh; font-size: 1vw""> 
            <font color=""green""> Bonus : $0 </font>
            </div>
        </div>
    
            <div> Please press any button to continue to the next trial.</div>
        "," ","ITI","","","","",""
"","","","","","html-keyboard-response","15","84475","0.0-4.0-1.2","65200df074f7b4deaf7ff9fe","6554bfa13ac4b6a0ab00b03a","6554c67c9d97aaebd51fe9ec","null","
        
        <div style=""text-align: center; position: fixed; top: 5vh; left: 40vw;"">
            <div style=""margin:0 auto; width: 20vw; top: 8vh; font-size: 1vw""> 
            <font color=""green""> Bonus : $0 </font>
            </div>
        </div>
    
        <img class=""stim"" src=./stimuli//pack_shapes/cat_2/ex_2_29.png></img>
    ","null","stimulus","","","","",""
"","","","","","html-keyboard-response","16","85479","0.0-4.0-2.2","65200df074f7b4deaf7ff9fe","6554bfa13ac4b6a0ab00b03a","6554c67c9d97aaebd51fe9ec","null","
        <div style=""text-align: center; position: fixed; top: 5vh; left: 40vw;"">
            <div style=""margin:0 auto; width: 20vw; top: 8vh; font-size: 1vw""> 
            <font color=""green""> Bonus : $0 </font>
            </div>
        </div>
    ","null","","","","","",""
"","","","","","html-keyboard-response","17","86303","0.0-4.0-3.2","65200df074f7b4deaf7ff9fe","6554bfa13ac4b6a0ab00b03a","6554c67c9d97aaebd51fe9ec","823","./stimuli//pack_shapes/cat_2/ex_2_29.png","arrowright","response","ArrowRight","29","2","true",""
"","","","","","html-keyboard-response","18","87819","0.0-4.0-4.2","65200df074f7b4deaf7ff9fe","6554bfa13ac4b6a0ab00b03a","6554c67c9d97aaebd51fe9ec","null","<p> <font color=""green"" size=""4vw""> Correct category! </font> </p>","null","feedback","","","","","0"
"","","","","","html-keyboard-response","19","89415","0.0-4.0-0.3","65200df074f7b4deaf7ff9fe","6554bfa13ac4b6a0ab00b03a","6554c67c9d97aaebd51fe9ec","1594","
            
        <div style=""text-align: center; position: fixed; top: 5vh; left: 40vw;"">
            <div style=""margin:0 auto; width: 20vw; top: 8vh; font-size: 1vw""> 
            <font color=""green""> Bonus : $0 </font>
            </div>
        </div>
    
            <div> Please press any button to continue to the next trial.</div>
        "," ","ITI","","","","",""
"","","","","","html-keyboard-response","20","90027","0.0-4.0-1.3","65200df074f7b4deaf7ff9fe","6554bfa13ac4b6a0ab00b03a","6554c67c9d97aaebd51fe9ec","null","
        
        <div style=""text-align: center; position: fixed; top: 5vh; left: 40vw;"">
            <div style=""margin:0 auto; width: 20vw; top: 8vh; font-size: 1vw""> 
            <font color=""green""> Bonus : $0 </font>
            </div>
        </div>
    
        <img class=""stim"" src=./stimuli//pack_shapes/cat_2/ex_2_8.png></img>
    ","null","stimulus","","","","",""
"","","","","","html-keyboard-response","21","91043","0.0-4.0-2.3","65200df074f7b4deaf7ff9fe","6554bfa13ac4b6a0ab00b03a","6554c67c9d97aaebd51fe9ec","null","
        <div style=""text-align: center; position: fixed; top: 5vh; left: 40vw;"">
            <div style=""margin:0 auto; width: 20vw; top: 8vh; font-size: 1vw""> 
            <font color=""green""> Bonus : $0 </font>
            </div>
        </div>
    ","null","","","","","",""
"","","","","","html-keyboard-response","22","91389","0.0-4.0-3.3","65200df074f7b4deaf7ff9fe","6554bfa13ac4b6a0ab00b03a","6554c67c9d97aaebd51fe9ec","345","./stimuli//pack_shapes/cat_2/ex_2_8.png","arrowleft","response","ArrowRight","8","2","false",""
"","","","","","html-keyboard-response","23","92904","0.0-4.0-4.3","65200df074f7b4deaf7ff9fe","6554bfa13ac4b6a0ab00b03a","6554c67c9d97aaebd51fe9ec","null","<p> <font color=""red"" size=""4vw""> Wrong category! </font> </p>","null","feedback","","","","","0"
"","","","","","html-keyboard-response","24","93855","0.0-4.0-0.4","65200df074f7b4deaf7ff9fe","6554bfa13ac4b6a0ab00b03a","6554c67c9d97aaebd51fe9ec","951","
            
        <div style=""text-align: center; position: fixed; top: 5vh; left: 40vw;"">
            <div style=""margin:0 auto; width: 20vw; top: 8vh; font-size: 1vw""> 
            <font color=""green""> Bonus : $0 </font>
            </div>
        </div>
    
            <div> Please press any button to continue to the next trial.</div>
        "," ","ITI","","","","",""
"","","","","","html-keyboard-response","25","94460","0.0-4.0-1.4","65200df074f7b4deaf7ff9fe","6554bfa13ac4b6a0ab00b03a","6554c67c9d97aaebd51fe9ec","null","
        
        <div style=""text-align: center; position: fixed; top: 5vh; left: 40vw;"">
            <div style=""margin:0 auto; width: 20vw; top: 8vh; font-size: 1vw""> 
            <font color=""green""> Bonus : $0 </font>
            </div>
        </div>
    
        <img class=""stim"" src=./stimuli//pack_shapes/cat_2/ex_2_39.png></img>
    ","null","stimulus","","","","",""
"","","","","","html-keyboard-response","26","95463","0.0-4.0-2.4","65200df074f7b4deaf7ff9fe","6554bfa13ac4b6a0ab00b03a","6554c67c9d97aaebd51fe9ec","null","
        <div style=""text-align: center; position: fixed; top: 5vh; left: 40vw;"">
            <div style=""margin:0 auto; width: 20vw; top: 8vh; font-size: 1vw""> 
            <font color=""green""> Bonus : $0 </font>
            </div>
        </div>
    ","null","","","","","",""
"","","","","","html-keyboard-response","27","95881","0.0-4.0-3.4","65200df074f7b4deaf7ff9fe","6554bfa13ac4b6a0ab00b03a","6554c67c9d97aaebd51fe9ec","417","./stimuli//pack_shapes/cat_2/ex_2_39.png","arrowright","response","ArrowRight","39","2","true",""
"","","","","","html-keyboard-response","28","97384","0.0-4.0-4.4","65200df074f7b4deaf7ff9fe","6554bfa13ac4b6a0ab00b03a","6554c67c9d97aaebd51fe9ec","null","<p> <font color=""green"" size=""4vw""> Correct category! </font> </p>","null","feedback","","","","","0"
"","","","","","html-keyboard-response","29","98325","0.0-4.0-0.5","65200df074f7b4deaf7ff9fe","6554bfa13ac4b6a0ab00b03a","6554c67c9d97aaebd51fe9ec","940","
            
        <div style=""text-align: center; position: fixed; top: 5vh; left: 40vw;"">
            <div style=""margin:0 auto; width: 20vw; top: 8vh; font-size: 1vw""> 
            <font color=""green""> Bonus : $0 </font>
            </div>
        </div>
    
            <div> Please press any button to continue to the next trial.</div>
        "," ","ITI","","","","",""
"","","","","","html-keyboard-response","30","98933","0.0-4.0-1.5","65200df074f7b4deaf7ff9fe","6554bfa13ac4b6a0ab00b03a","6554c67c9d97aaebd51fe9ec","null","
        
        <div style=""text-align: center; position: fixed; top: 5vh; left: 40vw;"">
            <div style=""margin:0 auto; width: 20vw; top: 8vh; font-size: 1vw""> 
            <font color=""green""> Bonus : $0 </font>
            </div>
        </div>
    
        <img class=""stim"" src=./stimuli//pack_shapes/cat_1/ex_1_29.png></img>
    ","null","stimulus","","","","",""
"","","","","","html-keyboard-response","31","99937","0.0-4.0-2.5","65200df074f7b4deaf7ff9fe","6554bfa13ac4b6a0ab00b03a","6554c67c9d97aaebd51fe9ec","null","
        <div style=""text-align: center; position: fixed; top: 5vh; left: 40vw;"">
            <div style=""margin:0 auto; width: 20vw; top: 8vh; font-size: 1vw""> 
            <font color=""green""> Bonus : $0 </font>
            </div>
        </div>
    ","null","","","","","",""
"","","","","","html-keyboard-response","32","100591","0.0-4.0-3.5","65200df074f7b4deaf7ff9fe","6554bfa13ac4b6a0ab00b03a","6554c67c9d97aaebd51fe9ec","652","./stimuli//pack_shapes/cat_1/ex_1_29.png","arrowright","response","ArrowLeft","29","1","false",""
"","","","","","html-keyboard-response","33","102096","0.0-4.0-4.5","65200df074f7b4deaf7ff9fe","6554bfa13ac4b6a0ab00b03a","6554c67c9d97aaebd51fe9ec","null","<p> <font color=""red"" size=""4vw""> Wrong category! </font> </p>","null","feedback","","","","","0"
"","","","","","html-keyboard-response","34","103048","0.0-4.0-0.6","65200df074f7b4deaf7ff9fe","6554bfa13ac4b6a0ab00b03a","6554c67c9d97aaebd51fe9ec","950","
            
        <div style=""text-align: center; position: fixed; top: 5vh; left: 40vw;"">
            <div style=""margin:0 auto; width: 20vw; top: 8vh; font-size: 1vw""> 
            <font color=""green""> Bonus : $0 </font>
            </div>
        </div>
    
            <div> Please press any button to continue to the next trial.</div>
        "," ","ITI","","","","",""
"","","","","","html-keyboard-response","35","103662","0.0-4.0-1.6","65200df074f7b4deaf7ff9fe","6554bfa13ac4b6a0ab00b03a","6554c67c9d97aaebd51fe9ec","null","
        
        <div style=""text-align: center; position: fixed; top: 5vh; left: 40vw;"">
            <div style=""margin:0 auto; width: 20vw; top: 8vh; font-size: 1vw""> 
            <font color=""green""> Bonus : $0 </font>
            </div>
        </div>
    
        <img class=""stim"" src=./stimuli//pack_shapes/cat_1/ex_1_3.png></img>
    ","null","stimulus","","","","",""
"","","","","","html-keyboard-response","36","104685","0.0-4.0-2.6","65200df074f7b4deaf7ff9fe","6554bfa13ac4b6a0ab00b03a","6554c67c9d97aaebd51fe9ec","null","
        <div style=""text-align: center; position: fixed; top: 5vh; left: 40vw;"">
            <div style=""margin:0 auto; width: 20vw; top: 8vh; font-size: 1vw""> 
            <font color=""green""> Bonus : $0 </font>
            </div>
        </div>
    ","null","","","","","",""
"","","","","","html-keyboard-response","37","105102","0.0-4.0-3.6","65200df074f7b4deaf7ff9fe","6554bfa13ac4b6a0ab00b03a","6554c67c9d97aaebd51fe9ec","416","./stimuli//pack_shapes/cat_1/ex_1_3.png","arrowright","response","ArrowLeft","3","1","false",""
"","","","","","html-keyboard-response","38","106619","0.0-4.0-4.6","65200df074f7b4deaf7ff9fe","6554bfa13ac4b6a0ab00b03a","6554c67c9d97aaebd51fe9ec","null","<p> <font color=""red"" size=""4vw""> Wrong category! </font> </p>","null","feedback","","","","","0"
"","","","","","html-keyboard-response","39","107466","0.0-4.0-0.7","65200df074f7b4deaf7ff9fe","6554bfa13ac4b6a0ab00b03a","6554c67c9d97aaebd51fe9ec","847","
            
        <div style=""text-align: center; position: fixed; top: 5vh; left: 40vw;"">
            <div style=""margin:0 auto; width: 20vw; top: 8vh; font-size: 1vw""> 
            <font color=""green""> Bonus : $0 </font>
            </div>
        </div>
    
            <div> Please press any button to continue to the next trial.</div>
        "," ","ITI","","","","",""
"","","","","","html-keyboard-response","40","108069","0.0-4.0-1.7","65200df074f7b4deaf7ff9fe","6554bfa13ac4b6a0ab00b03a","6554c67c9d97aaebd51fe9ec","null","
        
        <div style=""text-align: center; position: fixed; top: 5vh; left: 40vw;"">
            <div style=""margin:0 auto; width: 20vw; top: 8vh; font-size: 1vw""> 
            <font color=""green""> Bonus : $0 </font>
            </div>
        </div>
    
        <img class=""stim"" src=./stimuli//pack_shapes/cat_1/ex_1_49.png></img>
    ","null","stimulus","","","","",""
"","","","","","html-keyboard-response","41","109074","0.0-4.0-2.7","65200df074f7b4deaf7ff9fe","6554bfa13ac4b6a0ab00b03a","6554c67c9d97aaebd51fe9ec","null","
        <div style=""text-align: center; position: fixed; top: 5vh; left: 40vw;"">
            <div style=""margin:0 auto; width: 20vw; top: 8vh; font-size: 1vw""> 
            <font color=""green""> Bonus : $0 </font>
            </div>
        </div>
    ","null","","","","","",""
"","","","","","html-keyboard-response","42","109480","0.0-4.0-3.7","65200df074f7b4deaf7ff9fe","6554bfa13ac4b6a0ab00b03a","6554c67c9d97aaebd51fe9ec","404","./stimuli//pack_shapes/cat_1/ex_1_49.png","arrowleft","response","ArrowLeft","49","1","true",""
"","","","","","html-keyboard-response","43","110997","0.0-4.0-4.7","65200df074f7b4deaf7ff9fe","6554bfa13ac4b6a0ab00b03a","6554c67c9d97aaebd51fe9ec","null","<p> <font color=""green"" size=""4vw""> Correct category! </font> </p>","null","feedback","","","","","0"
"","","","","","html-keyboard-response","44","112305","0.0-4.0-0.8","65200df074f7b4deaf7ff9fe","6554bfa13ac4b6a0ab00b03a","6554c67c9d97aaebd51fe9ec","1307","
            
        <div style=""text-align: center; position: fixed; top: 5vh; left: 40vw;"">
            <div style=""margin:0 auto; width: 20vw; top: 8vh; font-size: 1vw""> 
            <font color=""green""> Bonus : $0 </font>
            </div>
        </div>
    
            <div> Please press any button to continue to the next trial.</div>
        "," ","ITI","","","","",""
"","","","","","html-keyboard-response","45","112920","0.0-4.0-1.8","65200df074f7b4deaf7ff9fe","6554bfa13ac4b6a0ab00b03a","6554c67c9d97aaebd51fe9ec","null","
        
        <div style=""text-align: center; position: fixed; top: 5vh; left: 40vw;"">
            <div style=""margin:0 auto; width: 20vw; top: 8vh; font-size: 1vw""> 
            <font color=""green""> Bonus : $0 </font>
            </div>
        </div>
    
        <img class=""stim"" src=./stimuli//pack_shapes/cat_1/ex_1_75.png></img>
    ","null","stimulus","","","","",""
"","","","","","html-keyboard-response","46","113936","0.0-4.0-2.8","65200df074f7b4deaf7ff9fe","6554bfa13ac4b6a0ab00b03a","6554c67c9d97aaebd51fe9ec","null","
        <div style=""text-align: center; position: fixed; top: 5vh; left: 40vw;"">
            <div style=""margin:0 auto; width: 20vw; top: 8vh; font-size: 1vw""> 
            <font color=""green""> Bonus : $0 </font>
            </div>
        </div>
    ","null","","","","","",""
"","","","","","html-keyboard-response","47","114327","0.0-4.0-3.8","65200df074f7b4deaf7ff9fe","6554bfa13ac4b6a0ab00b03a","6554c67c9d97aaebd51fe9ec","391","./stimuli//pack_shapes/cat_1/ex_1_75.png","arrowleft","response","ArrowLeft","75","1","true",""
"","","","","","html-keyboard-response","48","115844","0.0-4.0-4.8","65200df074f7b4deaf7ff9fe","6554bfa13ac4b6a0ab00b03a","6554c67c9d97aaebd51fe9ec","null","<p> <font color=""green"" size=""4vw""> Correct category! </font> </p>","null","feedback","","","","","0"
"","","","","","html-keyboard-response","49","116880","0.0-4.0-0.9","65200df074f7b4deaf7ff9fe","6554bfa13ac4b6a0ab00b03a","6554c67c9d97aaebd51fe9ec","1035","
            
        <div style=""text-align: center; position: fixed; top: 5vh; left: 40vw;"">
            <div style=""margin:0 auto; width: 20vw; top: 8vh; font-size: 1vw""> 
            <font color=""green""> Bonus : $0 </font>
            </div>
        </div>
    
            <div> Please press any button to continue to the next trial.</div>
        "," ","ITI","","","","",""
"","","","","","html-keyboard-response","50","117493","0.0-4.0-1.9","65200df074f7b4deaf7ff9fe","6554bfa13ac4b6a0ab00b03a","6554c67c9d97aaebd51fe9ec","null","
        
        <div style=""text-align: center; position: fixed; top: 5vh; left: 40vw;"">
            <div style=""margin:0 auto; width: 20vw; top: 8vh; font-size: 1vw""> 
            <font color=""green""> Bonus : $0 </font>
            </div>
        </div>
    
        <img class=""stim"" src=./stimuli//pack_shapes/cat_2/ex_2_80.png></img>
    ","null","stimulus","","","","",""
"","","","","","html-keyboard-response","51","118515","0.0-4.0-2.9","65200df074f7b4deaf7ff9fe","6554bfa13ac4b6a0ab00b03a","6554c67c9d97aaebd51fe9ec","null","
        <div style=""text-align: center; position: fixed; top: 5vh; left: 40vw;"">
            <div style=""margin:0 auto; width: 20vw; top: 8vh; font-size: 1vw""> 
            <font color=""green""> Bonus : $0 </font>
            </div>
        </div>
    ","null","","","","","",""
"","","","","","html-keyboard-response","52","119212","0.0-4.0-3.9","65200df074f7b4deaf7ff9fe","6554bfa13ac4b6a0ab00b03a","6554c67c9d97aaebd51fe9ec","696","./stimuli//pack_shapes/cat_2/ex_2_80.png","arrowleft","response","ArrowRight","80","2","false",""
"","","","","","html-keyboard-response","53","120722","0.0-4.0-4.9","65200df074f7b4deaf7ff9fe","6554bfa13ac4b6a0ab00b03a","6554c67c9d97aaebd51fe9ec","null","<p> <font color=""red"" size=""4vw""> Wrong category! </font> </p>","null","feedback","","","","","0"
"","","","","","html-keyboard-response","54","126322","0.0-5.0","65200df074f7b4deaf7ff9fe","6554bfa13ac4b6a0ab00b03a","6554c67c9d97aaebd51fe9ec","5599","
            <b> <p> The practice round has finished.</p>
            <b> For the rest of the experiment you will receive a $0.05 bonus for each correct answer!</b>
            <p> Press any key to begin the test. </p>
            "," ","intermission","","","","",""
"","","","","","html-keyboard-response","55","127779","0.0-6.0-0.0","65200df074f7b4deaf7ff9fe","6554bfa13ac4b6a0ab00b03a","6554c67c9d97aaebd51fe9ec","1455","
            
        <div style=""text-align: center; position: fixed; top: 5vh; left: 40vw;"">
            <div style=""margin:0 auto; width: 20vw; top: 8vh; font-size: 1vw""> 
            <font color=""green""> Bonus : $0 </font>
            </div>
        </div>
    
            <div> Please press any button to continue to the next trial.</div>
        "," ","ITI","","","","",""
"","","","","","html-keyboard-response","56","128391","0.0-6.0-1.0","65200df074f7b4deaf7ff9fe","6554bfa13ac4b6a0ab00b03a","6554c67c9d97aaebd51fe9ec","null","
        
        <div style=""text-align: center; position: fixed; top: 5vh; left: 40vw;"">
            <div style=""margin:0 auto; width: 20vw; top: 8vh; font-size: 1vw""> 
            <font color=""green""> Bonus : $0 </font>
            </div>
        </div>
    
        <img class=""stim"" src=./stimuli//pack_shapes/cat_1/ex_1_8.png></img>
    ","null","stimulus","","","","",""
"","","","","","html-keyboard-response","57","129395","0.0-6.0-2.0","65200df074f7b4deaf7ff9fe","6554bfa13ac4b6a0ab00b03a","6554c67c9d97aaebd51fe9ec","null","
        <div style=""text-align: center; position: fixed; top: 5vh; left: 40vw;"">
            <div style=""margin:0 auto; width: 20vw; top: 8vh; font-size: 1vw""> 
            <font color=""green""> Bonus : $0 </font>
            </div>
        </div>
    ","null","","","","","",""
"","","","","","html-keyboard-response","58","129922","0.0-6.0-3.0","65200df074f7b4deaf7ff9fe","6554bfa13ac4b6a0ab00b03a","6554c67c9d97aaebd51fe9ec","525","./stimuli//pack_shapes/cat_1/ex_1_8.png","arrowleft","response","ArrowLeft","8","1","true",""
"","","","","","html-keyboard-response","59","131429","0.0-6.0-4.0","65200df074f7b4deaf7ff9fe","6554bfa13ac4b6a0ab00b03a","6554c67c9d97aaebd51fe9ec","null","<p> <font color=""green"" size=""4vw""> Correct category! </font> <br> <br> <font color=""green"" size=""7vw""> + $0.05 </font> </p>","null","feedback","","","","","0.05"
"","","","","","html-keyboard-response","60","133744","0.0-6.0-0.1","65200df074f7b4deaf7ff9fe","6554bfa13ac4b6a0ab00b03a","6554c67c9d97aaebd51fe9ec","2314","
            
        <div style=""text-align: center; position: fixed; top: 5vh; left: 40vw;"">
            <div style=""margin:0 auto; width: 20vw; top: 8vh; font-size: 1vw""> 
            <font color=""green""> Bonus : $0.05 </font>
            </div>
        </div>
    
            <div> Please press any button to continue to the next trial.</div>
        "," ","ITI","","","","",""
"","","","","","html-keyboard-response","61","134364","0.0-6.0-1.1","65200df074f7b4deaf7ff9fe","6554bfa13ac4b6a0ab00b03a","6554c67c9d97aaebd51fe9ec","null","
        
        <div style=""text-align: center; position: fixed; top: 5vh; left: 40vw;"">
            <div style=""margin:0 auto; width: 20vw; top: 8vh; font-size: 1vw""> 
            <font color=""green""> Bonus : $0.05 </font>
            </div>
        </div>
    
        <img class=""stim"" src=./stimuli//pack_shapes/cat_2/ex_2_6.png></img>
    ","null","stimulus","","","","",""
"","","","","","html-keyboard-response","62","135381","0.0-6.0-2.1","65200df074f7b4deaf7ff9fe","6554bfa13ac4b6a0ab00b03a","6554c67c9d97aaebd51fe9ec","null","
        <div style=""text-align: center; position: fixed; top: 5vh; left: 40vw;"">
            <div style=""margin:0 auto; width: 20vw; top: 8vh; font-size: 1vw""> 
            <font color=""green""> Bonus : $0.05 </font>
            </div>
        </div>
    ","null","","","","","",""
"","","","","","html-keyboard-response","63","136467","0.0-6.0-3.1","65200df074f7b4deaf7ff9fe","6554bfa13ac4b6a0ab00b03a","6554c67c9d97aaebd51fe9ec","1086","./stimuli//pack_shapes/cat_2/ex_2_6.png","arrowleft","response","ArrowRight","6","2","false",""
"","","","","","html-keyboard-response","64","137976","0.0-6.0-4.1","65200df074f7b4deaf7ff9fe","6554bfa13ac4b6a0ab00b03a","6554c67c9d97aaebd51fe9ec","null","<p> <font color=""red"" size=""4vw""> Wrong category! </font> </p>","null","feedback","","","","","0.05"
"","","","","","html-keyboard-response","65","139825","0.0-6.0-0.2","65200df074f7b4deaf7ff9fe","6554bfa13ac4b6a0ab00b03a","6554c67c9d97aaebd51fe9ec","1848","
            
        <div style=""text-align: center; position: fixed; top: 5vh; left: 40vw;"">
            <div style=""margin:0 auto; width: 20vw; top: 8vh; font-size: 1vw""> 
            <font color=""green""> Bonus : $0.05 </font>
            </div>
        </div>
    
            <div> Please press any button to continue to the next trial.</div>
        "," ","ITI","","","","",""
"","","","","","html-keyboard-response","66","140441","0.0-6.0-1.2","65200df074f7b4deaf7ff9fe","6554bfa13ac4b6a0ab00b03a","6554c67c9d97aaebd51fe9ec","null","
        
        <div style=""text-align: center; position: fixed; top: 5vh; left: 40vw;"">
            <div style=""margin:0 auto; width: 20vw; top: 8vh; font-size: 1vw""> 
            <font color=""green""> Bonus : $0.05 </font>
            </div>
        </div>
    
        <img class=""stim"" src=./stimuli//pack_shapes/cat_1/ex_1_19.png></img>
    ","null","stimulus","","","","",""
"","","","","","html-keyboard-response","67","141443","0.0-6.0-2.2","65200df074f7b4deaf7ff9fe","6554bfa13ac4b6a0ab00b03a","6554c67c9d97aaebd51fe9ec","null","
        <div style=""text-align: center; position: fixed; top: 5vh; left: 40vw;"">
            <div style=""margin:0 auto; width: 20vw; top: 8vh; font-size: 1vw""> 
            <font color=""green""> Bonus : $0.05 </font>
            </div>
        </div>
    ","null","","","","","",""
"","","","","","html-keyboard-response","68","142024","0.0-6.0-3.2","65200df074f7b4deaf7ff9fe","6554bfa13ac4b6a0ab00b03a","6554c67c9d97aaebd51fe9ec","579","./stimuli//pack_shapes/cat_1/ex_1_19.png","arrowright","response","ArrowLeft","19","1","false",""
"","","","","","html-keyboard-response","69","143539","0.0-6.0-4.2","65200df074f7b4deaf7ff9fe","6554bfa13ac4b6a0ab00b03a","6554c67c9d97aaebd51fe9ec","null","<p> <font color=""red"" size=""4vw""> Wrong category! </font> </p>","null","feedback","","","","","0.05"
"","","","","","html-keyboard-response","70","145309","0.0-6.0-0.3","65200df074f7b4deaf7ff9fe","6554bfa13ac4b6a0ab00b03a","6554c67c9d97aaebd51fe9ec","1769","
            
        <div style=""text-align: center; position: fixed; top: 5vh; left: 40vw;"">
            <div style=""margin:0 auto; width: 20vw; top: 8vh; font-size: 1vw""> 
            <font color=""green""> Bonus : $0.05 </font>
            </div>
        </div>
    
            <div> Please press any button to continue to the next trial.</div>
        "," ","ITI","","","","",""
"","","","","","html-keyboard-response","71","145922","0.0-6.0-1.3","65200df074f7b4deaf7ff9fe","6554bfa13ac4b6a0ab00b03a","6554c67c9d97aaebd51fe9ec","null","
        
        <div style=""text-align: center; position: fixed; top: 5vh; left: 40vw;"">
            <div style=""margin:0 auto; width: 20vw; top: 8vh; font-size: 1vw""> 
            <font color=""green""> Bonus : $0.05 </font>
            </div>
        </div>
    
        <img class=""stim"" src=./stimuli//pack_shapes/cat_1/ex_1_55.png></img>
    ","null","stimulus","","","","",""
"","","","","","html-keyboard-response","72","146926","0.0-6.0-2.3","65200df074f7b4deaf7ff9fe","6554bfa13ac4b6a0ab00b03a","6554c67c9d97aaebd51fe9ec","null","
        <div style=""text-align: center; position: fixed; top: 5vh; left: 40vw;"">
            <div style=""margin:0 auto; width: 20vw; top: 8vh; font-size: 1vw""> 
            <font color=""green""> Bonus : $0.05 </font>
            </div>
        </div>
    ","null","","","","","",""
"","","","","","html-keyboard-response","73","147409","0.0-6.0-3.3","65200df074f7b4deaf7ff9fe","6554bfa13ac4b6a0ab00b03a","6554c67c9d97aaebd51fe9ec","481","./stimuli//pack_shapes/cat_1/ex_1_55.png","arrowright","response","ArrowLeft","55","1","false",""
"","","","","","html-keyboard-response","74","148915","0.0-6.0-4.3","65200df074f7b4deaf7ff9fe","6554bfa13ac4b6a0ab00b03a","6554c67c9d97aaebd51fe9ec","null","<p> <font color=""red"" size=""4vw""> Wrong category! </font> </p>","null","feedback","","","","","0.05"
"","","","","","html-keyboard-response","75","152098","0.0-6.0-0.4","65200df074f7b4deaf7ff9fe","6554bfa13ac4b6a0ab00b03a","6554c67c9d97aaebd51fe9ec","3182","
            
        <div style=""text-align: center; position: fixed; top: 5vh; left: 40vw;"">
            <div style=""margin:0 auto; width: 20vw; top: 8vh; font-size: 1vw""> 
            <font color=""green""> Bonus : $0.05 </font>
            </div>
        </div>
    
            <div> Please press any button to continue to the next trial.</div>
        "," ","ITI","","","","",""
"","","","","","html-keyboard-response","76","152709","0.0-6.0-1.4","65200df074f7b4deaf7ff9fe","6554bfa13ac4b6a0ab00b03a","6554c67c9d97aaebd51fe9ec","null","
        
        <div style=""text-align: center; position: fixed; top: 5vh; left: 40vw;"">
            <div style=""margin:0 auto; width: 20vw; top: 8vh; font-size: 1vw""> 
            <font color=""green""> Bonus : $0.05 </font>
            </div>
        </div>
    
        <img class=""stim"" src=./stimuli//pack_shapes/cat_1/ex_1_46.png></img>
    ","null","stimulus","","","","",""
"","","","","","html-keyboard-response","77","153725","0.0-6.0-2.4","65200df074f7b4deaf7ff9fe","6554bfa13ac4b6a0ab00b03a","6554c67c9d97aaebd51fe9ec","null","
        <div style=""text-align: center; position: fixed; top: 5vh; left: 40vw;"">
            <div style=""margin:0 auto; width: 20vw; top: 8vh; font-size: 1vw""> 
            <font color=""green""> Bonus : $0.05 </font>
            </div>
        </div>
    ","null","","","","","",""
"","","","","","html-keyboard-response","78","154296","0.0-6.0-3.4","65200df074f7b4deaf7ff9fe","6554bfa13ac4b6a0ab00b03a","6554c67c9d97aaebd51fe9ec","570","./stimuli//pack_shapes/cat_1/ex_1_46.png","arrowright","response","ArrowLeft","46","1","false",""
"","","","","","html-keyboard-response","79","155817","0.0-6.0-4.4","65200df074f7b4deaf7ff9fe","6554bfa13ac4b6a0ab00b03a","6554c67c9d97aaebd51fe9ec","null","<p> <font color=""red"" size=""4vw""> Wrong category! </font> </p>","null","feedback","","","","","0.05"
"","","","","","html-keyboard-response","80","156569","0.0-6.0-0.5","65200df074f7b4deaf7ff9fe","6554bfa13ac4b6a0ab00b03a","6554c67c9d97aaebd51fe9ec","751","
            
        <div style=""text-align: center; position: fixed; top: 5vh; left: 40vw;"">
            <div style=""margin:0 auto; width: 20vw; top: 8vh; font-size: 1vw""> 
            <font color=""green""> Bonus : $0.05 </font>
            </div>
        </div>
    
            <div> Please press any button to continue to the next trial.</div>
        "," ","ITI","","","","",""
"","","","","","html-keyboard-response","81","157182","0.0-6.0-1.5","65200df074f7b4deaf7ff9fe","6554bfa13ac4b6a0ab00b03a","6554c67c9d97aaebd51fe9ec","null","
        
        <div style=""text-align: center; position: fixed; top: 5vh; left: 40vw;"">
            <div style=""margin:0 auto; width: 20vw; top: 8vh; font-size: 1vw""> 
            <font color=""green""> Bonus : $0.05 </font>
            </div>
        </div>
    
        <img class=""stim"" src=./stimuli//pack_shapes/cat_1/ex_1_44.png></img>
    ","null","stimulus","","","","",""
"","","","","","html-keyboard-response","82","158186","0.0-6.0-2.5","65200df074f7b4deaf7ff9fe","6554bfa13ac4b6a0ab00b03a","6554c67c9d97aaebd51fe9ec","null","
        <div style=""text-align: center; position: fixed; top: 5vh; left: 40vw;"">
            <div style=""margin:0 auto; width: 20vw; top: 8vh; font-size: 1vw""> 
            <font color=""green""> Bonus : $0.05 </font>
            </div>
        </div>
    ","null","","","","","",""
"","","","","","html-keyboard-response","83","158650","0.0-6.0-3.5","65200df074f7b4deaf7ff9fe","6554bfa13ac4b6a0ab00b03a","6554c67c9d97aaebd51fe9ec","462","./stimuli//pack_shapes/cat_1/ex_1_44.png","arrowright","response","ArrowLeft","44","1","false",""
"","","","","","html-keyboard-response","84","160162","0.0-6.0-4.5","65200df074f7b4deaf7ff9fe","6554bfa13ac4b6a0ab00b03a","6554c67c9d97aaebd51fe9ec","null","<p> <font color=""red"" size=""4vw""> Wrong category! </font> </p>","null","feedback","","","","","0.05"
"","","","","","html-keyboard-response","85","160964","0.0-6.0-0.6","65200df074f7b4deaf7ff9fe","6554bfa13ac4b6a0ab00b03a","6554c67c9d97aaebd51fe9ec","802","
            
        <div style=""text-align: center; position: fixed; top: 5vh; left: 40vw;"">
            <div style=""margin:0 auto; width: 20vw; top: 8vh; font-size: 1vw""> 
            <font color=""green""> Bonus : $0.05 </font>
            </div>
        </div>
    
            <div> Please press any button to continue to the next trial.</div>
        "," ","ITI","","","","",""
"","","","","","html-keyboard-response","86","161567","0.0-6.0-1.6","65200df074f7b4deaf7ff9fe","6554bfa13ac4b6a0ab00b03a","6554c67c9d97aaebd51fe9ec","null","
        
        <div style=""text-align: center; position: fixed; top: 5vh; left: 40vw;"">
            <div style=""margin:0 auto; width: 20vw; top: 8vh; font-size: 1vw""> 
            <font color=""green""> Bonus : $0.05 </font>
            </div>
        </div>
    
        <img class=""stim"" src=./stimuli//pack_shapes/cat_2/ex_2_50.png></img>
    ","null","stimulus","","","","",""
"","","","","","html-keyboard-response","87","162571","0.0-6.0-2.6","65200df074f7b4deaf7ff9fe","6554bfa13ac4b6a0ab00b03a","6554c67c9d97aaebd51fe9ec","null","
        <div style=""text-align: center; position: fixed; top: 5vh; left: 40vw;"">
            <div style=""margin:0 auto; width: 20vw; top: 8vh; font-size: 1vw""> 
            <font color=""green""> Bonus : $0.05 </font>
            </div>
        </div>
    ","null","","","","","",""
"","","","","","html-keyboard-response","88","163579","0.0-6.0-3.6","65200df074f7b4deaf7ff9fe","6554bfa13ac4b6a0ab00b03a","6554c67c9d97aaebd51fe9ec","1007","./stimuli//pack_shapes/cat_2/ex_2_50.png","arrowright","response","ArrowRight","50","2","true",""
"","","","","","html-keyboard-response","89","165092","0.0-6.0-4.6","65200df074f7b4deaf7ff9fe","6554bfa13ac4b6a0ab00b03a","6554c67c9d97aaebd51fe9ec","null","<p> <font color=""green"" size=""4vw""> Correct category! </font> <br> <br> <font color=""green"" size=""7vw""> + $0.05 </font> </p>","null","feedback","","","","","0.1"
"","","","","","html-keyboard-response","90","166235","0.0-6.0-0.7","65200df074f7b4deaf7ff9fe","6554bfa13ac4b6a0ab00b03a","6554c67c9d97aaebd51fe9ec","1142","
            
        <div style=""text-align: center; position: fixed; top: 5vh; left: 40vw;"">
            <div style=""margin:0 auto; width: 20vw; top: 8vh; font-size: 1vw""> 
            <font color=""green""> Bonus : $0.1 </font>
            </div>
        </div>
    
            <div> Please press any button to continue to the next trial.</div>
        "," ","ITI","","","","",""
"","","","","","html-keyboard-response","91","166848","0.0-6.0-1.7","65200df074f7b4deaf7ff9fe","6554bfa13ac4b6a0ab00b03a","6554c67c9d97aaebd51fe9ec","null","
        
        <div style=""text-align: center; position: fixed; top: 5vh; left: 40vw;"">
            <div style=""margin:0 auto; width: 20vw; top: 8vh; font-size: 1vw""> 
            <font color=""green""> Bonus : $0.1 </font>
            </div>
        </div>
    
        <img class=""stim"" src=./stimuli//pack_shapes/cat_2/ex_2_38.png></img>
    ","null","stimulus","","","","",""
"","","","","","html-keyboard-response","92","167852","0.0-6.0-2.7","65200df074f7b4deaf7ff9fe","6554bfa13ac4b6a0ab00b03a","6554c67c9d97aaebd51fe9ec","null","
        <div style=""text-align: center; position: fixed; top: 5vh; left: 40vw;"">
            <div style=""margin:0 auto; width: 20vw; top: 8vh; font-size: 1vw""> 
            <font color=""green""> Bonus : $0.1 </font>
            </div>
        </div>
    ","null","","","","","",""
"","","","","","html-keyboard-response","93","169228","0.0-6.0-3.7","65200df074f7b4deaf7ff9fe","6554bfa13ac4b6a0ab00b03a","6554c67c9d97aaebd51fe9ec","1375","./stimuli//pack_shapes/cat_2/ex_2_38.png","arrowright","response","ArrowRight","38","2","true",""
"","","","","","html-keyboard-response","94","170742","0.0-6.0-4.7","65200df074f7b4deaf7ff9fe","6554bfa13ac4b6a0ab00b03a","6554c67c9d97aaebd51fe9ec","null","<p> <font color=""green"" size=""4vw""> Correct category! </font> <br> <br> <font color=""green"" size=""7vw""> + $0.05 </font> </p>","null","feedback","","","","","0.15"
"","","","","","html-keyboard-response","95","172931","0.0-6.0-0.8","65200df074f7b4deaf7ff9fe","6554bfa13ac4b6a0ab00b03a","6554c67c9d97aaebd51fe9ec","2188","
            
        <div style=""text-align: center; position: fixed; top: 5vh; left: 40vw;"">
            <div style=""margin:0 auto; width: 20vw; top: 8vh; font-size: 1vw""> 
            <font color=""green""> Bonus : $0.15 </font>
            </div>
        </div>
    
            <div> Please press any button to continue to the next trial.</div>
        "," ","ITI","","","","",""
"","","","","","html-keyboard-response","96","173544","0.0-6.0-1.8","65200df074f7b4deaf7ff9fe","6554bfa13ac4b6a0ab00b03a","6554c67c9d97aaebd51fe9ec","null","
        
        <div style=""text-align: center; position: fixed; top: 5vh; left: 40vw;"">
            <div style=""margin:0 auto; width: 20vw; top: 8vh; font-size: 1vw""> 
            <font color=""green""> Bonus : $0.15 </font>
            </div>
        </div>
    
        <img class=""stim"" src=./stimuli//pack_shapes/cat_1/ex_1_23.png></img>
    ","null","stimulus","","","","",""
"","","","","","html-keyboard-response","97","174567","0.0-6.0-2.8","65200df074f7b4deaf7ff9fe","6554bfa13ac4b6a0ab00b03a","6554c67c9d97aaebd51fe9ec","null","
        <div style=""text-align: center; position: fixed; top: 5vh; left: 40vw;"">
            <div style=""margin:0 auto; width: 20vw; top: 8vh; font-size: 1vw""> 
            <font color=""green""> Bonus : $0.15 </font>
            </div>
        </div>
    ","null","","","","","",""
"","","","","","html-keyboard-response","98","175083","0.0-6.0-3.8","65200df074f7b4deaf7ff9fe","6554bfa13ac4b6a0ab00b03a","6554c67c9d97aaebd51fe9ec","514","./stimuli//pack_shapes/cat_1/ex_1_23.png","arrowright","response","ArrowLeft","23","1","false",""
"","","","","","html-keyboard-response","99","176589","0.0-6.0-4.8","65200df074f7b4deaf7ff9fe","6554bfa13ac4b6a0ab00b03a","6554c67c9d97aaebd51fe9ec","null","<p> <font color=""red"" size=""4vw""> Wrong category! </font> </p>","null","feedback","","","","","0.15"
"","","","","","html-keyboard-response","100","177444","0.0-6.0-0.9","65200df074f7b4deaf7ff9fe","6554bfa13ac4b6a0ab00b03a","6554c67c9d97aaebd51fe9ec","854","
            
        <div style=""text-align: center; position: fixed; top: 5vh; left: 40vw;"">
            <div style=""margin:0 auto; width: 20vw; top: 8vh; font-size: 1vw""> 
            <font color=""green""> Bonus : $0.15 </font>
            </div>
        </div>
    
            <div> Please press any button to continue to the next trial.</div>
        "," ","ITI","","","","",""
"","","","","","html-keyboard-response","101","178055","0.0-6.0-1.9","65200df074f7b4deaf7ff9fe","6554bfa13ac4b6a0ab00b03a","6554c67c9d97aaebd51fe9ec","null","
        
        <div style=""text-align: center; position: fixed; top: 5vh; left: 40vw;"">
            <div style=""margin:0 auto; width: 20vw; top: 8vh; font-size: 1vw""> 
            <font color=""green""> Bonus : $0.15 </font>
            </div>
        </div>
    
        <img class=""stim"" src=./stimuli//pack_shapes/cat_1/ex_1_7.png></img>
    ","null","stimulus","","","","",""
"","","","","","html-keyboard-response","102","179078","0.0-6.0-2.9","65200df074f7b4deaf7ff9fe","6554bfa13ac4b6a0ab00b03a","6554c67c9d97aaebd51fe9ec","null","
        <div style=""text-align: center; position: fixed; top: 5vh; left: 40vw;"">
            <div style=""margin:0 auto; width: 20vw; top: 8vh; font-size: 1vw""> 
            <font color=""green""> Bonus : $0.15 </font>
            </div>
        </div>
    ","null","","","","","",""
"","","","","","html-keyboard-response","103","179662","0.0-6.0-3.9","65200df074f7b4deaf7ff9fe","6554bfa13ac4b6a0ab00b03a","6554c67c9d97aaebd51fe9ec","582","./stimuli//pack_shapes/cat_1/ex_1_7.png","arrowleft","response","ArrowLeft","7","1","true",""
"","","","","","html-keyboard-response","104","181184","0.0-6.0-4.9","65200df074f7b4deaf7ff9fe","6554bfa13ac4b6a0ab00b03a","6554c67c9d97aaebd51fe9ec","null","<p> <font color=""green"" size=""4vw""> Correct category! </font> <br> <br> <font color=""green"" size=""7vw""> + $0.05 </font> </p>","null","feedback","","","","","0.2"
"","","","","","html-keyboard-response","105","183563","0.0-6.0-0.10","65200df074f7b4deaf7ff9fe","6554bfa13ac4b6a0ab00b03a","6554c67c9d97aaebd51fe9ec","2378","
            
        <div style=""text-align: center; position: fixed; top: 5vh; left: 40vw;"">
            <div style=""margin:0 auto; width: 20vw; top: 8vh; font-size: 1vw""> 
            <font color=""green""> Bonus : $0.2 </font>
            </div>
        </div>
    
            <div> Please press any button to continue to the next trial.</div>
        "," ","ITI","","","","",""
"","","","","","html-keyboard-response","106","184174","0.0-6.0-1.10","65200df074f7b4deaf7ff9fe","6554bfa13ac4b6a0ab00b03a","6554c67c9d97aaebd51fe9ec","null","
        
        <div style=""text-align: center; position: fixed; top: 5vh; left: 40vw;"">
            <div style=""margin:0 auto; width: 20vw; top: 8vh; font-size: 1vw""> 
            <font color=""green""> Bonus : $0.2 </font>
            </div>
        </div>
    
        <img class=""stim"" src=./stimuli//pack_shapes/cat_1/ex_1_47.png></img>
    ","null","stimulus","","","","",""
"","","","","","html-keyboard-response","107","185175","0.0-6.0-2.10","65200df074f7b4deaf7ff9fe","6554bfa13ac4b6a0ab00b03a","6554c67c9d97aaebd51fe9ec","null","
        <div style=""text-align: center; position: fixed; top: 5vh; left: 40vw;"">
            <div style=""margin:0 auto; width: 20vw; top: 8vh; font-size: 1vw""> 
            <font color=""green""> Bonus : $0.2 </font>
            </div>
        </div>
    ","null","","","","","",""
"","","","","","html-keyboard-response","108","185897","0.0-6.0-3.10","65200df074f7b4deaf7ff9fe","6554bfa13ac4b6a0ab00b03a","6554c67c9d97aaebd51fe9ec","721","./stimuli//pack_shapes/cat_1/ex_1_47.png","arrowleft","response","ArrowLeft","47","1","true",""
"","","","","","html-keyboard-response","109","187405","0.0-6.0-4.10","65200df074f7b4deaf7ff9fe","6554bfa13ac4b6a0ab00b03a","6554c67c9d97aaebd51fe9ec","null","<p> <font color=""green"" size=""4vw""> Correct category! </font> <br> <br> <font color=""green"" size=""7vw""> + $0.05 </font> </p>","null","feedback","","","","","0.25"
"","","","","","html-keyboard-response","110","189079","0.0-6.0-0.11","65200df074f7b4deaf7ff9fe","6554bfa13ac4b6a0ab00b03a","6554c67c9d97aaebd51fe9ec","1673","
            
        <div style=""text-align: center; position: fixed; top: 5vh; left: 40vw;"">
            <div style=""margin:0 auto; width: 20vw; top: 8vh; font-size: 1vw""> 
            <font color=""green""> Bonus : $0.25 </font>
            </div>
        </div>
    
            <div> Please press any button to continue to the next trial.</div>
        "," ","ITI","","","","",""
"","","","","","html-keyboard-response","111","189690","0.0-6.0-1.11","65200df074f7b4deaf7ff9fe","6554bfa13ac4b6a0ab00b03a","6554c67c9d97aaebd51fe9ec","null","
        
        <div style=""text-align: center; position: fixed; top: 5vh; left: 40vw;"">
            <div style=""margin:0 auto; width: 20vw; top: 8vh; font-size: 1vw""> 
            <font color=""green""> Bonus : $0.25 </font>
            </div>
        </div>
    
        <img class=""stim"" src=./stimuli//pack_shapes/cat_1/ex_1_33.png></img>
    ","null","stimulus","","","","",""
"","","","","","html-keyboard-response","112","190698","0.0-6.0-2.11","65200df074f7b4deaf7ff9fe","6554bfa13ac4b6a0ab00b03a","6554c67c9d97aaebd51fe9ec","null","
        <div style=""text-align: center; position: fixed; top: 5vh; left: 40vw;"">
            <div style=""margin:0 auto; width: 20vw; top: 8vh; font-size: 1vw""> 
            <font color=""green""> Bonus : $0.25 </font>
            </div>
        </div>
    ","null","","","","","",""
"","","","","","html-keyboard-response","113","191040","0.0-6.0-3.11","65200df074f7b4deaf7ff9fe","6554bfa13ac4b6a0ab00b03a","6554c67c9d97aaebd51fe9ec","340","./stimuli//pack_shapes/cat_1/ex_1_33.png","arrowright","response","ArrowLeft","33","1","false",""
"","","","","","html-keyboard-response","114","192552","0.0-6.0-4.11","65200df074f7b4deaf7ff9fe","6554bfa13ac4b6a0ab00b03a","6554c67c9d97aaebd51fe9ec","null","<p> <font color=""red"" size=""4vw""> Wrong category! </font> </p>","null","feedback","","","","","0.25"
"","","","","","html-keyboard-response","115","193589","0.0-6.0-0.12","65200df074f7b4deaf7ff9fe","6554bfa13ac4b6a0ab00b03a","6554c67c9d97aaebd51fe9ec","1036","
            
        <div style=""text-align: center; position: fixed; top: 5vh; left: 40vw;"">
            <div style=""margin:0 auto; width: 20vw; top: 8vh; font-size: 1vw""> 
            <font color=""green""> Bonus : $0.25 </font>
            </div>
        </div>
    
            <div> Please press any button to continue to the next trial.</div>
        "," ","ITI","","","","",""
"","","","","","html-keyboard-response","116","194203","0.0-6.0-1.12","65200df074f7b4deaf7ff9fe","6554bfa13ac4b6a0ab00b03a","6554c67c9d97aaebd51fe9ec","null","
        
        <div style=""text-align: center; position: fixed; top: 5vh; left: 40vw;"">
            <div style=""margin:0 auto; width: 20vw; top: 8vh; font-size: 1vw""> 
            <font color=""green""> Bonus : $0.25 </font>
            </div>
        </div>
    
        <img class=""stim"" src=./stimuli//pack_shapes/cat_1/ex_1_41.png></img>
    ","null","stimulus","","","","",""
"","","","","","html-keyboard-response","117","195225","0.0-6.0-2.12","65200df074f7b4deaf7ff9fe","6554bfa13ac4b6a0ab00b03a","6554c67c9d97aaebd51fe9ec","null","
        <div style=""text-align: center; position: fixed; top: 5vh; left: 40vw;"">
            <div style=""margin:0 auto; width: 20vw; top: 8vh; font-size: 1vw""> 
            <font color=""green""> Bonus : $0.25 </font>
            </div>
        </div>
    ","null","","","","","",""
"","","","","","html-keyboard-response","118","196178","0.0-6.0-3.12","65200df074f7b4deaf7ff9fe","6554bfa13ac4b6a0ab00b03a","6554c67c9d97aaebd51fe9ec","951","./stimuli//pack_shapes/cat_1/ex_1_41.png","arrowleft","response","ArrowLeft","41","1","true",""
"","","","","","html-keyboard-response","119","197693","0.0-6.0-4.12","65200df074f7b4deaf7ff9fe","6554bfa13ac4b6a0ab00b03a","6554c67c9d97aaebd51fe9ec","null","<p> <font color=""green"" size=""4vw""> Correct category! </font> <br> <br> <font color=""green"" size=""7vw""> + $0.05 </font> </p>","null","feedback","","","","","0.3"
"","","","","","html-keyboard-response","120","199996","0.0-6.0-0.13","65200df074f7b4deaf7ff9fe","6554bfa13ac4b6a0ab00b03a","6554c67c9d97aaebd51fe9ec","2302","
            
        <div style=""text-align: center; position: fixed; top: 5vh; left: 40vw;"">
            <div style=""margin:0 auto; width: 20vw; top: 8vh; font-size: 1vw""> 
            <font color=""green""> Bonus : $0.3 </font>
            </div>
        </div>
    
            <div> Please press any button to continue to the next trial.</div>
        "," ","ITI","","","","",""
"","","","","","html-keyboard-response","121","200602","0.0-6.0-1.13","65200df074f7b4deaf7ff9fe","6554bfa13ac4b6a0ab00b03a","6554c67c9d97aaebd51fe9ec","null","
        
        <div style=""text-align: center; position: fixed; top: 5vh; left: 40vw;"">
            <div style=""margin:0 auto; width: 20vw; top: 8vh; font-size: 1vw""> 
            <font color=""green""> Bonus : $0.3 </font>
            </div>
        </div>
    
        <img class=""stim"" src=./stimuli//pack_shapes/cat_2/ex_2_71.png></img>
    ","null","stimulus","","","","",""
"","","","","","html-keyboard-response","122","201606","0.0-6.0-2.13","65200df074f7b4deaf7ff9fe","6554bfa13ac4b6a0ab00b03a","6554c67c9d97aaebd51fe9ec","null","
        <div style=""text-align: center; position: fixed; top: 5vh; left: 40vw;"">
            <div style=""margin:0 auto; width: 20vw; top: 8vh; font-size: 1vw""> 
            <font color=""green""> Bonus : $0.3 </font>
            </div>
        </div>
    ","null","","","","","",""
"","","","","","html-keyboard-response","123","202255","0.0-6.0-3.13","65200df074f7b4deaf7ff9fe","6554bfa13ac4b6a0ab00b03a","6554c67c9d97aaebd51fe9ec","647","./stimuli//pack_shapes/cat_2/ex_2_71.png","arrowright","response","ArrowRight","71","2","true",""
"","","","","","html-keyboard-response","124","203765","0.0-6.0-4.13","65200df074f7b4deaf7ff9fe","6554bfa13ac4b6a0ab00b03a","6554c67c9d97aaebd51fe9ec","null","<p> <font color=""green"" size=""4vw""> Correct category! </font> <br> <br> <font color=""green"" size=""7vw""> + $0.05 </font> </p>","null","feedback","","","","","0.35"
"","","","","","html-keyboard-response","125","205278","0.0-6.0-0.14","65200df074f7b4deaf7ff9fe","6554bfa13ac4b6a0ab00b03a","6554c67c9d97aaebd51fe9ec","1512","
            
        <div style=""text-align: center; position: fixed; top: 5vh; left: 40vw;"">
            <div style=""margin:0 auto; width: 20vw; top: 8vh; font-size: 1vw""> 
            <font color=""green""> Bonus : $0.35 </font>
            </div>
        </div>
    
            <div> Please press any button to continue to the next trial.</div>
        "," ","ITI","","","","",""
"","","","","","html-keyboard-response","126","205888","0.0-6.0-1.14","65200df074f7b4deaf7ff9fe","6554bfa13ac4b6a0ab00b03a","6554c67c9d97aaebd51fe9ec","null","
        
        <div style=""text-align: center; position: fixed; top: 5vh; left: 40vw;"">
            <div style=""margin:0 auto; width: 20vw; top: 8vh; font-size: 1vw""> 
            <font color=""green""> Bonus : $0.35 </font>
            </div>
        </div>
    
        <img class=""stim"" src=./stimuli//pack_shapes/cat_1/ex_1_5.png></img>
    ","null","stimulus","","","","",""
"","","","","","html-keyboard-response","127","206891","0.0-6.0-2.14","65200df074f7b4deaf7ff9fe","6554bfa13ac4b6a0ab00b03a","6554c67c9d97aaebd51fe9ec","null","
        <div style=""text-align: center; position: fixed; top: 5vh; left: 40vw;"">
            <div style=""margin:0 auto; width: 20vw; top: 8vh; font-size: 1vw""> 
            <font color=""green""> Bonus : $0.35 </font>
            </div>
        </div>
    ","null","","","","","",""
"","","","","","html-keyboard-response","128","207280","0.0-6.0-3.14","65200df074f7b4deaf7ff9fe","6554bfa13ac4b6a0ab00b03a","6554c67c9d97aaebd51fe9ec","387","./stimuli//pack_shapes/cat_1/ex_1_5.png","arrowright","response","ArrowLeft","5","1","false",""
"","","","","","html-keyboard-response","129","208795","0.0-6.0-4.14","65200df074f7b4deaf7ff9fe","6554bfa13ac4b6a0ab00b03a","6554c67c9d97aaebd51fe9ec","null","<p> <font color=""red"" size=""4vw""> Wrong category! </font> </p>","null","feedback","","","","","0.35"
"","","","","","html-keyboard-response","130","209520","0.0-6.0-0.15","65200df074f7b4deaf7ff9fe","6554bfa13ac4b6a0ab00b03a","6554c67c9d97aaebd51fe9ec","723","
            
        <div style=""text-align: center; position: fixed; top: 5vh; left: 40vw;"">
            <div style=""margin:0 auto; width: 20vw; top: 8vh; font-size: 1vw""> 
            <font color=""green""> Bonus : $0.35 </font>
            </div>
        </div>
    
            <div> Please press any button to continue to the next trial.</div>
        "," ","ITI","","","","",""
"","","","","","html-keyboard-response","131","210129","0.0-6.0-1.15","65200df074f7b4deaf7ff9fe","6554bfa13ac4b6a0ab00b03a","6554c67c9d97aaebd51fe9ec","null","
        
        <div style=""text-align: center; position: fixed; top: 5vh; left: 40vw;"">
            <div style=""margin:0 auto; width: 20vw; top: 8vh; font-size: 1vw""> 
            <font color=""green""> Bonus : $0.35 </font>
            </div>
        </div>
    
        <img class=""stim"" src=./stimuli//pack_shapes/cat_1/ex_1_37.png></img>
    ","null","stimulus","","","","",""
"","","","","","html-keyboard-response","132","211132","0.0-6.0-2.15","65200df074f7b4deaf7ff9fe","6554bfa13ac4b6a0ab00b03a","6554c67c9d97aaebd51fe9ec","null","
        <div style=""text-align: center; position: fixed; top: 5vh; left: 40vw;"">
            <div style=""margin:0 auto; width: 20vw; top: 8vh; font-size: 1vw""> 
            <font color=""green""> Bonus : $0.35 </font>
            </div>
        </div>
    ","null","","","","","",""
"","","","","","html-keyboard-response","133","211658","0.0-6.0-3.15","65200df074f7b4deaf7ff9fe","6554bfa13ac4b6a0ab00b03a","6554c67c9d97aaebd51fe9ec","524","./stimuli//pack_shapes/cat_1/ex_1_37.png","arrowleft","response","ArrowLeft","37","1","true",""
"","","","","","html-keyboard-response","134","213178","0.0-6.0-4.15","65200df074f7b4deaf7ff9fe","6554bfa13ac4b6a0ab00b03a","6554c67c9d97aaebd51fe9ec","null","<p> <font color=""green"" size=""4vw""> Correct category! </font> <br> <br> <font color=""green"" size=""7vw""> + $0.05 </font> </p>","null","feedback","","","","","0.4"
"","","","","","html-keyboard-response","135","215306","0.0-6.0-0.16","65200df074f7b4deaf7ff9fe","6554bfa13ac4b6a0ab00b03a","6554c67c9d97aaebd51fe9ec","2127","
            
        <div style=""text-align: center; position: fixed; top: 5vh; left: 40vw;"">
            <div style=""margin:0 auto; width: 20vw; top: 8vh; font-size: 1vw""> 
            <font color=""green""> Bonus : $0.4 </font>
            </div>
        </div>
    
            <div> Please press any button to continue to the next trial.</div>
        "," ","ITI","","","","",""
"","","","","","html-keyboard-response","136","215913","0.0-6.0-1.16","65200df074f7b4deaf7ff9fe","6554bfa13ac4b6a0ab00b03a","6554c67c9d97aaebd51fe9ec","null","
        
        <div style=""text-align: center; position: fixed; top: 5vh; left: 40vw;"">
            <div style=""margin:0 auto; width: 20vw; top: 8vh; font-size: 1vw""> 
            <font color=""green""> Bonus : $0.4 </font>
            </div>
        </div>
    
        <img class=""stim"" src=./stimuli//pack_shapes/cat_2/ex_2_53.png></img>
    ","null","stimulus","","","","",""
"","","","","","html-keyboard-response","137","216917","0.0-6.0-2.16","65200df074f7b4deaf7ff9fe","6554bfa13ac4b6a0ab00b03a","6554c67c9d97aaebd51fe9ec","null","
        <div style=""text-align: center; position: fixed; top: 5vh; left: 40vw;"">
            <div style=""margin:0 auto; width: 20vw; top: 8vh; font-size: 1vw""> 
            <font color=""green""> Bonus : $0.4 </font>
            </div>
        </div>
    ","null","","","","","",""
"","","","","","html-keyboard-response","138","217756","0.0-6.0-3.16","65200df074f7b4deaf7ff9fe","6554bfa13ac4b6a0ab00b03a","6554c67c9d97aaebd51fe9ec","838","./stimuli//pack_shapes/cat_2/ex_2_53.png","arrowleft","response","ArrowRight","53","2","false",""
"","","","","","html-keyboard-response","139","219267","0.0-6.0-4.16","65200df074f7b4deaf7ff9fe","6554bfa13ac4b6a0ab00b03a","6554c67c9d97aaebd51fe9ec","null","<p> <font color=""red"" size=""4vw""> Wrong category! </font> </p>","null","feedback","","","","","0.4"
"","","","","","html-keyboard-response","140","219970","0.0-6.0-0.17","65200df074f7b4deaf7ff9fe","6554bfa13ac4b6a0ab00b03a","6554c67c9d97aaebd51fe9ec","702","
            
        <div style=""text-align: center; position: fixed; top: 5vh; left: 40vw;"">
            <div style=""margin:0 auto; width: 20vw; top: 8vh; font-size: 1vw""> 
            <font color=""green""> Bonus : $0.4 </font>
            </div>
        </div>
    
            <div> Please press any button to continue to the next trial.</div>
        "," ","ITI","","","","",""
"","","","","","html-keyboard-response","141","220572","0.0-6.0-1.17","65200df074f7b4deaf7ff9fe","6554bfa13ac4b6a0ab00b03a","6554c67c9d97aaebd51fe9ec","null","
        
        <div style=""text-align: center; position: fixed; top: 5vh; left: 40vw;"">
            <div style=""margin:0 auto; width: 20vw; top: 8vh; font-size: 1vw""> 
            <font color=""green""> Bonus : $0.4 </font>
            </div>
        </div>
    
        <img class=""stim"" src=./stimuli//pack_shapes/cat_1/ex_1_56.png></img>
    ","null","stimulus","","","","",""
"","","","","","html-keyboard-response","142","221576","0.0-6.0-2.17","65200df074f7b4deaf7ff9fe","6554bfa13ac4b6a0ab00b03a","6554c67c9d97aaebd51fe9ec","null","
        <div style=""text-align: center; position: fixed; top: 5vh; left: 40vw;"">
            <div style=""margin:0 auto; width: 20vw; top: 8vh; font-size: 1vw""> 
            <font color=""green""> Bonus : $0.4 </font>
            </div>
        </div>
    ","null","","","","","",""
"","","","","","html-keyboard-response","143","223028","0.0-6.0-3.17","65200df074f7b4deaf7ff9fe","6554bfa13ac4b6a0ab00b03a","6554c67c9d97aaebd51fe9ec","1451","./stimuli//pack_shapes/cat_1/ex_1_56.png","arrowleft","response","ArrowLeft","56","1","true",""
"","","","","","html-keyboard-response","144","224542","0.0-6.0-4.17","65200df074f7b4deaf7ff9fe","6554bfa13ac4b6a0ab00b03a","6554c67c9d97aaebd51fe9ec","null","<p> <font color=""green"" size=""4vw""> Correct category! </font> <br> <br> <font color=""green"" size=""7vw""> + $0.05 </font> </p>","null","feedback","","","","","0.45"
"","","","","","html-keyboard-response","145","225562","0.0-6.0-0.18","65200df074f7b4deaf7ff9fe","6554bfa13ac4b6a0ab00b03a","6554c67c9d97aaebd51fe9ec","1020","
            
        <div style=""text-align: center; position: fixed; top: 5vh; left: 40vw;"">
            <div style=""margin:0 auto; width: 20vw; top: 8vh; font-size: 1vw""> 
            <font color=""green""> Bonus : $0.45 </font>
            </div>
        </div>
    
            <div> Please press any button to continue to the next trial.</div>
        "," ","ITI","","","","",""
"","","","","","html-keyboard-response","146","226179","0.0-6.0-1.18","65200df074f7b4deaf7ff9fe","6554bfa13ac4b6a0ab00b03a","6554c67c9d97aaebd51fe9ec","null","
        
        <div style=""text-align: center; position: fixed; top: 5vh; left: 40vw;"">
            <div style=""margin:0 auto; width: 20vw; top: 8vh; font-size: 1vw""> 
            <font color=""green""> Bonus : $0.45 </font>
            </div>
        </div>
    
        <img class=""stim"" src=./stimuli//pack_shapes/cat_2/ex_2_14.png></img>
    ","null","stimulus","","","","",""
"","","","","","html-keyboard-response","147","227182","0.0-6.0-2.18","65200df074f7b4deaf7ff9fe","6554bfa13ac4b6a0ab00b03a","6554c67c9d97aaebd51fe9ec","null","
        <div style=""text-align: center; position: fixed; top: 5vh; left: 40vw;"">
            <div style=""margin:0 auto; width: 20vw; top: 8vh; font-size: 1vw""> 
            <font color=""green""> Bonus : $0.45 </font>
            </div>
        </div>
    ","null","","","","","",""
"","","","","","html-keyboard-response","148","227589","0.0-6.0-3.18","65200df074f7b4deaf7ff9fe","6554bfa13ac4b6a0ab00b03a","6554c67c9d97aaebd51fe9ec","406","./stimuli//pack_shapes/cat_2/ex_2_14.png","arrowright","response","ArrowRight","14","2","true",""
"","","","","","html-keyboard-response","149","229102","0.0-6.0-4.18","65200df074f7b4deaf7ff9fe","6554bfa13ac4b6a0ab00b03a","6554c67c9d97aaebd51fe9ec","null","<p> <font color=""green"" size=""4vw""> Correct category! </font> <br> <br> <font color=""green"" size=""7vw""> + $0.05 </font> </p>","null","feedback","","","","","0.5"
"","","","","","html-keyboard-response","150","230710","0.0-6.0-0.19","65200df074f7b4deaf7ff9fe","6554bfa13ac4b6a0ab00b03a","6554c67c9d97aaebd51fe9ec","1607","
            
        <div style=""text-align: center; position: fixed; top: 5vh; left: 40vw;"">
            <div style=""margin:0 auto; width: 20vw; top: 8vh; font-size: 1vw""> 
            <font color=""green""> Bonus : $0.5 </font>
            </div>
        </div>
    
            <div> Please press any button to continue to the next trial.</div>
        "," ","ITI","","","","",""
"","","","","","html-keyboard-response","151","231330","0.0-6.0-1.19","65200df074f7b4deaf7ff9fe","6554bfa13ac4b6a0ab00b03a","6554c67c9d97aaebd51fe9ec","null","
        
        <div style=""text-align: center; position: fixed; top: 5vh; left: 40vw;"">
            <div style=""margin:0 auto; width: 20vw; top: 8vh; font-size: 1vw""> 
            <font color=""green""> Bonus : $0.5 </font>
            </div>
        </div>
    
        <img class=""stim"" src=./stimuli//pack_shapes/cat_2/ex_2_57.png></img>
    ","null","stimulus","","","","",""
"","","","","","html-keyboard-response","152","232338","0.0-6.0-2.19","65200df074f7b4deaf7ff9fe","6554bfa13ac4b6a0ab00b03a","6554c67c9d97aaebd51fe9ec","null","
        <div style=""text-align: center; position: fixed; top: 5vh; left: 40vw;"">
            <div style=""margin:0 auto; width: 20vw; top: 8vh; font-size: 1vw""> 
            <font color=""green""> Bonus : $0.5 </font>
            </div>
        </div>
    ","null","","","","","",""
"","","","","","html-keyboard-response","153","233358","0.0-6.0-3.19","65200df074f7b4deaf7ff9fe","6554bfa13ac4b6a0ab00b03a","6554c67c9d97aaebd51fe9ec","1018","./stimuli//pack_shapes/cat_2/ex_2_57.png","arrowleft","response","ArrowRight","57","2","false",""
"","","","","","html-keyboard-response","154","234867","0.0-6.0-4.19","65200df074f7b4deaf7ff9fe","6554bfa13ac4b6a0ab00b03a","6554c67c9d97aaebd51fe9ec","null","<p> <font color=""red"" size=""4vw""> Wrong category! </font> </p>","null","feedback","","","","","0.5"
"","","","","","html-keyboard-response","155","235472","0.0-6.0-0.20","65200df074f7b4deaf7ff9fe","6554bfa13ac4b6a0ab00b03a","6554c67c9d97aaebd51fe9ec","604","
            
        <div style=""text-align: center; position: fixed; top: 5vh; left: 40vw;"">
            <div style=""margin:0 auto; width: 20vw; top: 8vh; font-size: 1vw""> 
            <font color=""green""> Bonus : $0.5 </font>
            </div>
        </div>
    
            <div> Please press any button to continue to the next trial.</div>
        "," ","ITI","","","","",""
"","","","","","html-keyboard-response","156","236087","0.0-6.0-1.20","65200df074f7b4deaf7ff9fe","6554bfa13ac4b6a0ab00b03a","6554c67c9d97aaebd51fe9ec","null","
        
        <div style=""text-align: center; position: fixed; top: 5vh; left: 40vw;"">
            <div style=""margin:0 auto; width: 20vw; top: 8vh; font-size: 1vw""> 
            <font color=""green""> Bonus : $0.5 </font>
            </div>
        </div>
    
        <img class=""stim"" src=./stimuli//pack_shapes/cat_1/ex_1_58.png></img>
    ","null","stimulus","","","","",""
"","","","","","html-keyboard-response","157","237091","0.0-6.0-2.20","65200df074f7b4deaf7ff9fe","6554bfa13ac4b6a0ab00b03a","6554c67c9d97aaebd51fe9ec","null","
        <div style=""text-align: center; position: fixed; top: 5vh; left: 40vw;"">
            <div style=""margin:0 auto; width: 20vw; top: 8vh; font-size: 1vw""> 
            <font color=""green""> Bonus : $0.5 </font>
            </div>
        </div>
    ","null","","","","","",""
"","","","","","html-keyboard-response","158","237523","0.0-6.0-3.20","65200df074f7b4deaf7ff9fe","6554bfa13ac4b6a0ab00b03a","6554c67c9d97aaebd51fe9ec","429","./stimuli//pack_shapes/cat_1/ex_1_58.png","arrowleft","response","ArrowLeft","58","1","true",""
"","","","","","html-keyboard-response","159","239030","0.0-6.0-4.20","65200df074f7b4deaf7ff9fe","6554bfa13ac4b6a0ab00b03a","6554c67c9d97aaebd51fe9ec","null","<p> <font color=""green"" size=""4vw""> Correct category! </font> <br> <br> <font color=""green"" size=""7vw""> + $0.05 </font> </p>","null","feedback","","","","","0.55"
"","","","","","html-keyboard-response","160","239871","0.0-6.0-0.21","65200df074f7b4deaf7ff9fe","6554bfa13ac4b6a0ab00b03a","6554c67c9d97aaebd51fe9ec","848","
            
        <div style=""text-align: center; position: fixed; top: 5vh; left: 40vw;"">
            <div style=""margin:0 auto; width: 20vw; top: 8vh; font-size: 1vw""> 
            <font color=""green""> Bonus : $0.55 </font>
            </div>
        </div>
    
            <div> Please press any button to continue to the next trial.</div>
        "," ","ITI","","","","",""
"","","","","","html-keyboard-response","161","240482","0.0-6.0-1.21","65200df074f7b4deaf7ff9fe","6554bfa13ac4b6a0ab00b03a","6554c67c9d97aaebd51fe9ec","null","
        
        <div style=""text-align: center; position: fixed; top: 5vh; left: 40vw;"">
            <div style=""margin:0 auto; width: 20vw; top: 8vh; font-size: 1vw""> 
            <font color=""green""> Bonus : $0.55 </font>
            </div>
        </div>
    
        <img class=""stim"" src=./stimuli//pack_shapes/cat_2/ex_2_60.png></img>
    ","null","stimulus","","","","",""
"","","","","","html-keyboard-response","162","241485","0.0-6.0-2.21","65200df074f7b4deaf7ff9fe","6554bfa13ac4b6a0ab00b03a","6554c67c9d97aaebd51fe9ec","null","
        <div style=""text-align: center; position: fixed; top: 5vh; left: 40vw;"">
            <div style=""margin:0 auto; width: 20vw; top: 8vh; font-size: 1vw""> 
            <font color=""green""> Bonus : $0.55 </font>
            </div>
        </div>
    ","null","","","","","",""
"","","","","","html-keyboard-response","163","241974","0.0-6.0-3.21","65200df074f7b4deaf7ff9fe","6554bfa13ac4b6a0ab00b03a","6554c67c9d97aaebd51fe9ec","488","./stimuli//pack_shapes/cat_2/ex_2_60.png","arrowright","response","ArrowRight","60","2","true",""
"","","","","","html-keyboard-response","164","243489","0.0-6.0-4.21","65200df074f7b4deaf7ff9fe","6554bfa13ac4b6a0ab00b03a","6554c67c9d97aaebd51fe9ec","null","<p> <font color=""green"" size=""4vw""> Correct category! </font> <br> <br> <font color=""green"" size=""7vw""> + $0.05 </font> </p>","null","feedback","","","","","0.6"
"","","","","","html-keyboard-response","165","244300","0.0-6.0-0.22","65200df074f7b4deaf7ff9fe","6554bfa13ac4b6a0ab00b03a","6554c67c9d97aaebd51fe9ec","810","
            
        <div style=""text-align: center; position: fixed; top: 5vh; left: 40vw;"">
            <div style=""margin:0 auto; width: 20vw; top: 8vh; font-size: 1vw""> 
            <font color=""green""> Bonus : $0.6 </font>
            </div>
        </div>
    
            <div> Please press any button to continue to the next trial.</div>
        "," ","ITI","","","","",""
"","","","","","html-keyboard-response","166","244907","0.0-6.0-1.22","65200df074f7b4deaf7ff9fe","6554bfa13ac4b6a0ab00b03a","6554c67c9d97aaebd51fe9ec","null","
        
        <div style=""text-align: center; position: fixed; top: 5vh; left: 40vw;"">
            <div style=""margin:0 auto; width: 20vw; top: 8vh; font-size: 1vw""> 
            <font color=""green""> Bonus : $0.6 </font>
            </div>
        </div>
    
        <img class=""stim"" src=./stimuli//pack_shapes/cat_2/ex_2_31.png></img>
    ","null","stimulus","","","","",""
"","","","","","html-keyboard-response","167","245922","0.0-6.0-2.22","65200df074f7b4deaf7ff9fe","6554bfa13ac4b6a0ab00b03a","6554c67c9d97aaebd51fe9ec","null","
        <div style=""text-align: center; position: fixed; top: 5vh; left: 40vw;"">
            <div style=""margin:0 auto; width: 20vw; top: 8vh; font-size: 1vw""> 
            <font color=""green""> Bonus : $0.6 </font>
            </div>
        </div>
    ","null","","","","","",""
"","","","","","html-keyboard-response","168","247953","0.0-6.0-3.22","65200df074f7b4deaf7ff9fe","6554bfa13ac4b6a0ab00b03a","6554c67c9d97aaebd51fe9ec","2030","./stimuli//pack_shapes/cat_2/ex_2_31.png","arrowright","response","ArrowRight","31","2","true",""
"","","","","","html-keyboard-response","169","249473","0.0-6.0-4.22","65200df074f7b4deaf7ff9fe","6554bfa13ac4b6a0ab00b03a","6554c67c9d97aaebd51fe9ec","null","<p> <font color=""green"" size=""4vw""> Correct category! </font> <br> <br> <font color=""green"" size=""7vw""> + $0.05 </font> </p>","null","feedback","","","","","0.65"
"","","","","","html-keyboard-response","170","250054","0.0-6.0-0.23","65200df074f7b4deaf7ff9fe","6554bfa13ac4b6a0ab00b03a","6554c67c9d97aaebd51fe9ec","580","
            
        <div style=""text-align: center; position: fixed; top: 5vh; left: 40vw;"">
            <div style=""margin:0 auto; width: 20vw; top: 8vh; font-size: 1vw""> 
            <font color=""green""> Bonus : $0.65 </font>
            </div>
        </div>
    
            <div> Please press any button to continue to the next trial.</div>
        "," ","ITI","","","","",""
"","","","","","html-keyboard-response","171","250677","0.0-6.0-1.23","65200df074f7b4deaf7ff9fe","6554bfa13ac4b6a0ab00b03a","6554c67c9d97aaebd51fe9ec","null","
        
        <div style=""text-align: center; position: fixed; top: 5vh; left: 40vw;"">
            <div style=""margin:0 auto; width: 20vw; top: 8vh; font-size: 1vw""> 
            <font color=""green""> Bonus : $0.65 </font>
            </div>
        </div>
    
        <img class=""stim"" src=./stimuli//pack_shapes/cat_2/ex_2_55.png></img>
    ","null","stimulus","","","","",""
"","","","","","html-keyboard-response","172","251693","0.0-6.0-2.23","65200df074f7b4deaf7ff9fe","6554bfa13ac4b6a0ab00b03a","6554c67c9d97aaebd51fe9ec","null","
        <div style=""text-align: center; position: fixed; top: 5vh; left: 40vw;"">
            <div style=""margin:0 auto; width: 20vw; top: 8vh; font-size: 1vw""> 
            <font color=""green""> Bonus : $0.65 </font>
            </div>
        </div>
    ","null","","","","","",""
"","","","","","html-keyboard-response","173","252083","0.0-6.0-3.23","65200df074f7b4deaf7ff9fe","6554bfa13ac4b6a0ab00b03a","6554c67c9d97aaebd51fe9ec","389","./stimuli//pack_shapes/cat_2/ex_2_55.png","arrowleft","response","ArrowRight","55","2","false",""
"","","","","","html-keyboard-response","174","253600","0.0-6.0-4.23","65200df074f7b4deaf7ff9fe","6554bfa13ac4b6a0ab00b03a","6554c67c9d97aaebd51fe9ec","null","<p> <font color=""red"" size=""4vw""> Wrong category! </font> </p>","null","feedback","","","","","0.65"
"","","","","","html-keyboard-response","175","254327","0.0-6.0-0.24","65200df074f7b4deaf7ff9fe","6554bfa13ac4b6a0ab00b03a","6554c67c9d97aaebd51fe9ec","726","
            
        <div style=""text-align: center; position: fixed; top: 5vh; left: 40vw;"">
            <div style=""margin:0 auto; width: 20vw; top: 8vh; font-size: 1vw""> 
            <font color=""green""> Bonus : $0.65 </font>
            </div>
        </div>
    
            <div> Please press any button to continue to the next trial.</div>
        "," ","ITI","","","","",""
"","","","","","html-keyboard-response","176","254934","0.0-6.0-1.24","65200df074f7b4deaf7ff9fe","6554bfa13ac4b6a0ab00b03a","6554c67c9d97aaebd51fe9ec","null","
        
        <div style=""text-align: center; position: fixed; top: 5vh; left: 40vw;"">
            <div style=""margin:0 auto; width: 20vw; top: 8vh; font-size: 1vw""> 
            <font color=""green""> Bonus : $0.65 </font>
            </div>
        </div>
    
        <img class=""stim"" src=./stimuli//pack_shapes/cat_1/ex_1_59.png></img>
    ","null","stimulus","","","","",""
"","","","","","html-keyboard-response","177","255950","0.0-6.0-2.24","65200df074f7b4deaf7ff9fe","6554bfa13ac4b6a0ab00b03a","6554c67c9d97aaebd51fe9ec","null","
        <div style=""text-align: center; position: fixed; top: 5vh; left: 40vw;"">
            <div style=""margin:0 auto; width: 20vw; top: 8vh; font-size: 1vw""> 
            <font color=""green""> Bonus : $0.65 </font>
            </div>
        </div>
    ","null","","","","","",""
"","","","","","html-keyboard-response","178","256346","0.0-6.0-3.24","65200df074f7b4deaf7ff9fe","6554bfa13ac4b6a0ab00b03a","6554c67c9d97aaebd51fe9ec","395","./stimuli//pack_shapes/cat_1/ex_1_59.png","arrowleft","response","ArrowLeft","59","1","true",""
"","","","","","html-keyboard-response","179","257857","0.0-6.0-4.24","65200df074f7b4deaf7ff9fe","6554bfa13ac4b6a0ab00b03a","6554c67c9d97aaebd51fe9ec","null","<p> <font color=""green"" size=""4vw""> Correct category! </font> <br> <br> <font color=""green"" size=""7vw""> + $0.05 </font> </p>","null","feedback","","","","","0.7"
"","","","","","html-keyboard-response","180","258568","0.0-6.0-0.25","65200df074f7b4deaf7ff9fe","6554bfa13ac4b6a0ab00b03a","6554c67c9d97aaebd51fe9ec","710","
            
        <div style=""text-align: center; position: fixed; top: 5vh; left: 40vw;"">
            <div style=""margin:0 auto; width: 20vw; top: 8vh; font-size: 1vw""> 
            <font color=""green""> Bonus : $0.7 </font>
            </div>
        </div>
    
            <div> Please press any button to continue to the next trial.</div>
        "," ","ITI","","","","",""
"","","","","","html-keyboard-response","181","259176","0.0-6.0-1.25","65200df074f7b4deaf7ff9fe","6554bfa13ac4b6a0ab00b03a","6554c67c9d97aaebd51fe9ec","null","
        
        <div style=""text-align: center; position: fixed; top: 5vh; left: 40vw;"">
            <div style=""margin:0 auto; width: 20vw; top: 8vh; font-size: 1vw""> 
            <font color=""green""> Bonus : $0.7 </font>
            </div>
        </div>
    
        <img class=""stim"" src=./stimuli//pack_shapes/cat_2/ex_2_7.png></img>
    ","null","stimulus","","","","",""
"","","","","","html-keyboard-response","182","260198","0.0-6.0-2.25","65200df074f7b4deaf7ff9fe","6554bfa13ac4b6a0ab00b03a","6554c67c9d97aaebd51fe9ec","null","
        <div style=""text-align: center; position: fixed; top: 5vh; left: 40vw;"">
            <div style=""margin:0 auto; width: 20vw; top: 8vh; font-size: 1vw""> 
            <font color=""green""> Bonus : $0.7 </font>
            </div>
        </div>
    ","null","","","","","",""
"","","","","","html-keyboard-response","183","260632","0.0-6.0-3.25","65200df074f7b4deaf7ff9fe","6554bfa13ac4b6a0ab00b03a","6554c67c9d97aaebd51fe9ec","432","./stimuli//pack_shapes/cat_2/ex_2_7.png","arrowleft","response","ArrowRight","7","2","false",""
"","","","","","html-keyboard-response","184","262137","0.0-6.0-4.25","65200df074f7b4deaf7ff9fe","6554bfa13ac4b6a0ab00b03a","6554c67c9d97aaebd51fe9ec","null","<p> <font color=""red"" size=""4vw""> Wrong category! </font> </p>","null","feedback","","","","","0.7"
"","","","","","html-keyboard-response","185","262825","0.0-6.0-0.26","65200df074f7b4deaf7ff9fe","6554bfa13ac4b6a0ab00b03a","6554c67c9d97aaebd51fe9ec","687","
            
        <div style=""text-align: center; position: fixed; top: 5vh; left: 40vw;"">
            <div style=""margin:0 auto; width: 20vw; top: 8vh; font-size: 1vw""> 
            <font color=""green""> Bonus : $0.7 </font>
            </div>
        </div>
    
            <div> Please press any button to continue to the next trial.</div>
        "," ","ITI","","","","",""
"","","","","","html-keyboard-response","186","263440","0.0-6.0-1.26","65200df074f7b4deaf7ff9fe","6554bfa13ac4b6a0ab00b03a","6554c67c9d97aaebd51fe9ec","null","
        
        <div style=""text-align: center; position: fixed; top: 5vh; left: 40vw;"">
            <div style=""margin:0 auto; width: 20vw; top: 8vh; font-size: 1vw""> 
            <font color=""green""> Bonus : $0.7 </font>
            </div>
        </div>
    
        <img class=""stim"" src=./stimuli//pack_shapes/cat_2/ex_2_26.png></img>
    ","null","stimulus","","","","",""
"","","","","","html-keyboard-response","187","264445","0.0-6.0-2.26","65200df074f7b4deaf7ff9fe","6554bfa13ac4b6a0ab00b03a","6554c67c9d97aaebd51fe9ec","null","
        <div style=""text-align: center; position: fixed; top: 5vh; left: 40vw;"">
            <div style=""margin:0 auto; width: 20vw; top: 8vh; font-size: 1vw""> 
            <font color=""green""> Bonus : $0.7 </font>
            </div>
        </div>
    ","null","","","","","",""
"","","","","","html-keyboard-response","188","265491","0.0-6.0-3.26","65200df074f7b4deaf7ff9fe","6554bfa13ac4b6a0ab00b03a","6554c67c9d97aaebd51fe9ec","1045","./stimuli//pack_shapes/cat_2/ex_2_26.png","arrowleft","response","ArrowRight","26","2","false",""
"","","","","","html-keyboard-response","189","267001","0.0-6.0-4.26","65200df074f7b4deaf7ff9fe","6554bfa13ac4b6a0ab00b03a","6554c67c9d97aaebd51fe9ec","null","<p> <font color=""red"" size=""4vw""> Wrong category! </font> </p>","null","feedback","","","","","0.7"
"","","","","","html-keyboard-response","190","267819","0.0-6.0-0.27","65200df074f7b4deaf7ff9fe","6554bfa13ac4b6a0ab00b03a","6554c67c9d97aaebd51fe9ec","817","
            
        <div style=""text-align: center; position: fixed; top: 5vh; left: 40vw;"">
            <div style=""margin:0 auto; width: 20vw; top: 8vh; font-size: 1vw""> 
            <font color=""green""> Bonus : $0.7 </font>
            </div>
        </div>
    
            <div> Please press any button to continue to the next trial.</div>
        "," ","ITI","","","","",""
"","","","","","html-keyboard-response","191","268426","0.0-6.0-1.27","65200df074f7b4deaf7ff9fe","6554bfa13ac4b6a0ab00b03a","6554c67c9d97aaebd51fe9ec","null","
        
        <div style=""text-align: center; position: fixed; top: 5vh; left: 40vw;"">
            <div style=""margin:0 auto; width: 20vw; top: 8vh; font-size: 1vw""> 
            <font color=""green""> Bonus : $0.7 </font>
            </div>
        </div>
    
        <img class=""stim"" src=./stimuli//pack_shapes/cat_1/ex_1_36.png></img>
    ","null","stimulus","","","","",""
"","","","","","html-keyboard-response","192","269430","0.0-6.0-2.27","65200df074f7b4deaf7ff9fe","6554bfa13ac4b6a0ab00b03a","6554c67c9d97aaebd51fe9ec","null","
        <div style=""text-align: center; position: fixed; top: 5vh; left: 40vw;"">
            <div style=""margin:0 auto; width: 20vw; top: 8vh; font-size: 1vw""> 
            <font color=""green""> Bonus : $0.7 </font>
            </div>
        </div>
    ","null","","","","","",""
"","","","","","html-keyboard-response","193","269833","0.0-6.0-3.27","65200df074f7b4deaf7ff9fe","6554bfa13ac4b6a0ab00b03a","6554c67c9d97aaebd51fe9ec","402","./stimuli//pack_shapes/cat_1/ex_1_36.png","arrowleft","response","ArrowLeft","36","1","true",""
"","","","","","html-keyboard-response","194","271349","0.0-6.0-4.27","65200df074f7b4deaf7ff9fe","6554bfa13ac4b6a0ab00b03a","6554c67c9d97aaebd51fe9ec","null","<p> <font color=""green"" size=""4vw""> Correct category! </font> <br> <br> <font color=""green"" size=""7vw""> + $0.05 </font> </p>","null","feedback","","","","","0.75"
"","","","","","html-keyboard-response","195","272139","0.0-6.0-0.28","65200df074f7b4deaf7ff9fe","6554bfa13ac4b6a0ab00b03a","6554c67c9d97aaebd51fe9ec","790","
            
        <div style=""text-align: center; position: fixed; top: 5vh; left: 40vw;"">
            <div style=""margin:0 auto; width: 20vw; top: 8vh; font-size: 1vw""> 
            <font color=""green""> Bonus : $0.75 </font>
            </div>
        </div>
    
            <div> Please press any button to continue to the next trial.</div>
        "," ","ITI","","","","",""
"","","","","","html-keyboard-response","196","272766","0.0-6.0-1.28","65200df074f7b4deaf7ff9fe","6554bfa13ac4b6a0ab00b03a","6554c67c9d97aaebd51fe9ec","null","
        
        <div style=""text-align: center; position: fixed; top: 5vh; left: 40vw;"">
            <div style=""margin:0 auto; width: 20vw; top: 8vh; font-size: 1vw""> 
            <font color=""green""> Bonus : $0.75 </font>
            </div>
        </div>
    
        <img class=""stim"" src=./stimuli//pack_shapes/cat_1/ex_1_72.png></img>
    ","null","stimulus","","","","",""
"","","","","","html-keyboard-response","197","273782","0.0-6.0-2.28","65200df074f7b4deaf7ff9fe","6554bfa13ac4b6a0ab00b03a","6554c67c9d97aaebd51fe9ec","null","
        <div style=""text-align: center; position: fixed; top: 5vh; left: 40vw;"">
            <div style=""margin:0 auto; width: 20vw; top: 8vh; font-size: 1vw""> 
            <font color=""green""> Bonus : $0.75 </font>
            </div>
        </div>
    ","null","","","","","",""
"","","","","","html-keyboard-response","198","274406","0.0-6.0-3.28","65200df074f7b4deaf7ff9fe","6554bfa13ac4b6a0ab00b03a","6554c67c9d97aaebd51fe9ec","623","./stimuli//pack_shapes/cat_1/ex_1_72.png","arrowright","response","ArrowLeft","72","1","false",""
"","","","","","html-keyboard-response","199","275919","0.0-6.0-4.28","65200df074f7b4deaf7ff9fe","6554bfa13ac4b6a0ab00b03a","6554c67c9d97aaebd51fe9ec","null","<p> <font color=""red"" size=""4vw""> Wrong category! </font> </p>","null","feedback","","","","","0.75"
"","","","","","html-keyboard-response","200","276466","0.0-6.0-0.29","65200df074f7b4deaf7ff9fe","6554bfa13ac4b6a0ab00b03a","6554c67c9d97aaebd51fe9ec","546","
            
        <div style=""text-align: center; position: fixed; top: 5vh; left: 40vw;"">
            <div style=""margin:0 auto; width: 20vw; top: 8vh; font-size: 1vw""> 
            <font color=""green""> Bonus : $0.75 </font>
            </div>
        </div>
    
            <div> Please press any button to continue to the next trial.</div>
        "," ","ITI","","","","",""
"","","","","","html-keyboard-response","201","277075","0.0-6.0-1.29","65200df074f7b4deaf7ff9fe","6554bfa13ac4b6a0ab00b03a","6554c67c9d97aaebd51fe9ec","null","
        
        <div style=""text-align: center; position: fixed; top: 5vh; left: 40vw;"">
            <div style=""margin:0 auto; width: 20vw; top: 8vh; font-size: 1vw""> 
            <font color=""green""> Bonus : $0.75 </font>
            </div>
        </div>
    
        <img class=""stim"" src=./stimuli//pack_shapes/cat_1/ex_1_18.png></img>
    ","null","stimulus","","","","",""
"","","","","","html-keyboard-response","202","278080","0.0-6.0-2.29","65200df074f7b4deaf7ff9fe","6554bfa13ac4b6a0ab00b03a","6554c67c9d97aaebd51fe9ec","null","
        <div style=""text-align: center; position: fixed; top: 5vh; left: 40vw;"">
            <div style=""margin:0 auto; width: 20vw; top: 8vh; font-size: 1vw""> 
            <font color=""green""> Bonus : $0.75 </font>
            </div>
        </div>
    ","null","","","","","",""
"","","","","","html-keyboard-response","203","278629","0.0-6.0-3.29","65200df074f7b4deaf7ff9fe","6554bfa13ac4b6a0ab00b03a","6554c67c9d97aaebd51fe9ec","547","./stimuli//pack_shapes/cat_1/ex_1_18.png","arrowleft","response","ArrowLeft","18","1","true",""
"","","","","","html-keyboard-response","204","280134","0.0-6.0-4.29","65200df074f7b4deaf7ff9fe","6554bfa13ac4b6a0ab00b03a","6554c67c9d97aaebd51fe9ec","null","<p> <font color=""green"" size=""4vw""> Correct category! </font> <br> <br> <font color=""green"" size=""7vw""> + $0.05 </font> </p>","null","feedback","","","","","0.8"
"","","","","","html-keyboard-response","205","281831","0.0-6.0-0.30","65200df074f7b4deaf7ff9fe","6554bfa13ac4b6a0ab00b03a","6554c67c9d97aaebd51fe9ec","1696","
            
        <div style=""text-align: center; position: fixed; top: 5vh; left: 40vw;"">
            <div style=""margin:0 auto; width: 20vw; top: 8vh; font-size: 1vw""> 
            <font color=""green""> Bonus : $0.8 </font>
            </div>
        </div>
    
            <div> Please press any button to continue to the next trial.</div>
        "," ","ITI","","","","",""
"","","","","","html-keyboard-response","206","282441","0.0-6.0-1.30","65200df074f7b4deaf7ff9fe","6554bfa13ac4b6a0ab00b03a","6554c67c9d97aaebd51fe9ec","null","
        
        <div style=""text-align: center; position: fixed; top: 5vh; left: 40vw;"">
            <div style=""margin:0 auto; width: 20vw; top: 8vh; font-size: 1vw""> 
            <font color=""green""> Bonus : $0.8 </font>
            </div>
        </div>
    
        <img class=""stim"" src=./stimuli//pack_shapes/cat_1/ex_1_48.png></img>
    ","null","stimulus","","","","",""
"","","","","","html-keyboard-response","207","283444","0.0-6.0-2.30","65200df074f7b4deaf7ff9fe","6554bfa13ac4b6a0ab00b03a","6554c67c9d97aaebd51fe9ec","null","
        <div style=""text-align: center; position: fixed; top: 5vh; left: 40vw;"">
            <div style=""margin:0 auto; width: 20vw; top: 8vh; font-size: 1vw""> 
            <font color=""green""> Bonus : $0.8 </font>
            </div>
        </div>
    ","null","","","","","",""
"","","","","","html-keyboard-response","208","284064","0.0-6.0-3.30","65200df074f7b4deaf7ff9fe","6554bfa13ac4b6a0ab00b03a","6554c67c9d97aaebd51fe9ec","619","./stimuli//pack_shapes/cat_1/ex_1_48.png","arrowright","response","ArrowLeft","48","1","false",""
"","","","","","html-keyboard-response","209","285572","0.0-6.0-4.30","65200df074f7b4deaf7ff9fe","6554bfa13ac4b6a0ab00b03a","6554c67c9d97aaebd51fe9ec","null","<p> <font color=""red"" size=""4vw""> Wrong category! </font> </p>","null","feedback","","","","","0.8"
"","","","","","html-keyboard-response","210","286103","0.0-6.0-0.31","65200df074f7b4deaf7ff9fe","6554bfa13ac4b6a0ab00b03a","6554c67c9d97aaebd51fe9ec","529","
            
        <div style=""text-align: center; position: fixed; top: 5vh; left: 40vw;"">
            <div style=""margin:0 auto; width: 20vw; top: 8vh; font-size: 1vw""> 
            <font color=""green""> Bonus : $0.8 </font>
            </div>
        </div>
    
            <div> Please press any button to continue to the next trial.</div>
        "," ","ITI","","","","",""
"","","","","","html-keyboard-response","211","286706","0.0-6.0-1.31","65200df074f7b4deaf7ff9fe","6554bfa13ac4b6a0ab00b03a","6554c67c9d97aaebd51fe9ec","null","
        
        <div style=""text-align: center; position: fixed; top: 5vh; left: 40vw;"">
            <div style=""margin:0 auto; width: 20vw; top: 8vh; font-size: 1vw""> 
            <font color=""green""> Bonus : $0.8 </font>
            </div>
        </div>
    
        <img class=""stim"" src=./stimuli//pack_shapes/cat_1/ex_1_60.png></img>
    ","null","stimulus","","","","",""
"","","","","","html-keyboard-response","212","287721","0.0-6.0-2.31","65200df074f7b4deaf7ff9fe","6554bfa13ac4b6a0ab00b03a","6554c67c9d97aaebd51fe9ec","null","
        <div style=""text-align: center; position: fixed; top: 5vh; left: 40vw;"">
            <div style=""margin:0 auto; width: 20vw; top: 8vh; font-size: 1vw""> 
            <font color=""green""> Bonus : $0.8 </font>
            </div>
        </div>
    ","null","","","","","",""
"","","","","","html-keyboard-response","213","288202","0.0-6.0-3.31","65200df074f7b4deaf7ff9fe","6554bfa13ac4b6a0ab00b03a","6554c67c9d97aaebd51fe9ec","480","./stimuli//pack_shapes/cat_1/ex_1_60.png","arrowright","response","ArrowLeft","60","1","false",""
"","","","","","html-keyboard-response","214","289711","0.0-6.0-4.31","65200df074f7b4deaf7ff9fe","6554bfa13ac4b6a0ab00b03a","6554c67c9d97aaebd51fe9ec","null","<p> <font color=""red"" size=""4vw""> Wrong category! </font> </p>","null","feedback","","","","","0.8"
"","","","","","html-keyboard-response","215","290405","0.0-6.0-0.32","65200df074f7b4deaf7ff9fe","6554bfa13ac4b6a0ab00b03a","6554c67c9d97aaebd51fe9ec","693","
            
        <div style=""text-align: center; position: fixed; top: 5vh; left: 40vw;"">
            <div style=""margin:0 auto; width: 20vw; top: 8vh; font-size: 1vw""> 
            <font color=""green""> Bonus : $0.8 </font>
            </div>
        </div>
    
            <div> Please press any button to continue to the next trial.</div>
        "," ","ITI","","","","",""
"","","","","","html-keyboard-response","216","291016","0.0-6.0-1.32","65200df074f7b4deaf7ff9fe","6554bfa13ac4b6a0ab00b03a","6554c67c9d97aaebd51fe9ec","null","
        
        <div style=""text-align: center; position: fixed; top: 5vh; left: 40vw;"">
            <div style=""margin:0 auto; width: 20vw; top: 8vh; font-size: 1vw""> 
            <font color=""green""> Bonus : $0.8 </font>
            </div>
        </div>
    
        <img class=""stim"" src=./stimuli//pack_shapes/cat_1/ex_1_24.png></img>
    ","null","stimulus","","","","",""
"","","","","","html-keyboard-response","217","292020","0.0-6.0-2.32","65200df074f7b4deaf7ff9fe","6554bfa13ac4b6a0ab00b03a","6554c67c9d97aaebd51fe9ec","null","
        <div style=""text-align: center; position: fixed; top: 5vh; left: 40vw;"">
            <div style=""margin:0 auto; width: 20vw; top: 8vh; font-size: 1vw""> 
            <font color=""green""> Bonus : $0.8 </font>
            </div>
        </div>
    ","null","","","","","",""
"","","","","","html-keyboard-response","218","292331","0.0-6.0-3.32","65200df074f7b4deaf7ff9fe","6554bfa13ac4b6a0ab00b03a","6554c67c9d97aaebd51fe9ec","309","./stimuli//pack_shapes/cat_1/ex_1_24.png","arrowleft","response","ArrowLeft","24","1","true",""
"","","","","","html-keyboard-response","219","293844","0.0-6.0-4.32","65200df074f7b4deaf7ff9fe","6554bfa13ac4b6a0ab00b03a","6554c67c9d97aaebd51fe9ec","null","<p> <font color=""green"" size=""4vw""> Correct category! </font> <br> <br> <font color=""green"" size=""7vw""> + $0.05 </font> </p>","null","feedback","","","","","0.85"
"","","","","","html-keyboard-response","220","294706","0.0-6.0-0.33","65200df074f7b4deaf7ff9fe","6554bfa13ac4b6a0ab00b03a","6554c67c9d97aaebd51fe9ec","860","
            
        <div style=""text-align: center; position: fixed; top: 5vh; left: 40vw;"">
            <div style=""margin:0 auto; width: 20vw; top: 8vh; font-size: 1vw""> 
            <font color=""green""> Bonus : $0.85 </font>
            </div>
        </div>
    
            <div> Please press any button to continue to the next trial.</div>
        "," ","ITI","","","","",""
"","","","","","html-keyboard-response","221","295316","0.0-6.0-1.33","65200df074f7b4deaf7ff9fe","6554bfa13ac4b6a0ab00b03a","6554c67c9d97aaebd51fe9ec","null","
        
        <div style=""text-align: center; position: fixed; top: 5vh; left: 40vw;"">
            <div style=""margin:0 auto; width: 20vw; top: 8vh; font-size: 1vw""> 
            <font color=""green""> Bonus : $0.85 </font>
            </div>
        </div>
    
        <img class=""stim"" src=./stimuli//pack_shapes/cat_2/ex_2_59.png></img>
    ","null","stimulus","","","","",""
"","","","","","html-keyboard-response","222","296321","0.0-6.0-2.33","65200df074f7b4deaf7ff9fe","6554bfa13ac4b6a0ab00b03a","6554c67c9d97aaebd51fe9ec","null","
        <div style=""text-align: center; position: fixed; top: 5vh; left: 40vw;"">
            <div style=""margin:0 auto; width: 20vw; top: 8vh; font-size: 1vw""> 
            <font color=""green""> Bonus : $0.85 </font>
            </div>
        </div>
    ","null","","","","","",""
"","","","","","html-keyboard-response","223","296711","0.0-6.0-3.33","65200df074f7b4deaf7ff9fe","6554bfa13ac4b6a0ab00b03a","6554c67c9d97aaebd51fe9ec","388","./stimuli//pack_shapes/cat_2/ex_2_59.png","arrowleft","response","ArrowRight","59","2","false",""
"","","","","","html-keyboard-response","224","298212","0.0-6.0-4.33","65200df074f7b4deaf7ff9fe","6554bfa13ac4b6a0ab00b03a","6554c67c9d97aaebd51fe9ec","null","<p> <font color=""red"" size=""4vw""> Wrong category! </font> </p>","null","feedback","","","","","0.85"
"","","","","","html-keyboard-response","225","298781","0.0-6.0-0.34","65200df074f7b4deaf7ff9fe","6554bfa13ac4b6a0ab00b03a","6554c67c9d97aaebd51fe9ec","568","
            
        <div style=""text-align: center; position: fixed; top: 5vh; left: 40vw;"">
            <div style=""margin:0 auto; width: 20vw; top: 8vh; font-size: 1vw""> 
            <font color=""green""> Bonus : $0.85 </font>
            </div>
        </div>
    
            <div> Please press any button to continue to the next trial.</div>
        "," ","ITI","","","","",""
"","","","","","html-keyboard-response","226","299392","0.0-6.0-1.34","65200df074f7b4deaf7ff9fe","6554bfa13ac4b6a0ab00b03a","6554c67c9d97aaebd51fe9ec","null","
        
        <div style=""text-align: center; position: fixed; top: 5vh; left: 40vw;"">
            <div style=""margin:0 auto; width: 20vw; top: 8vh; font-size: 1vw""> 
            <font color=""green""> Bonus : $0.85 </font>
            </div>
        </div>
    
        <img class=""stim"" src=./stimuli//pack_shapes/cat_1/ex_1_12.png></img>
    ","null","stimulus","","","","",""
"","","","","","html-keyboard-response","227","300404","0.0-6.0-2.34","65200df074f7b4deaf7ff9fe","6554bfa13ac4b6a0ab00b03a","6554c67c9d97aaebd51fe9ec","null","
        <div style=""text-align: center; position: fixed; top: 5vh; left: 40vw;"">
            <div style=""margin:0 auto; width: 20vw; top: 8vh; font-size: 1vw""> 
            <font color=""green""> Bonus : $0.85 </font>
            </div>
        </div>
    ","null","","","","","",""
"","","","","","html-keyboard-response","228","301565","0.0-6.0-3.34","65200df074f7b4deaf7ff9fe","6554bfa13ac4b6a0ab00b03a","6554c67c9d97aaebd51fe9ec","1159","./stimuli//pack_shapes/cat_1/ex_1_12.png","arrowright","response","ArrowLeft","12","1","false",""
"","","","","","html-keyboard-response","229","303078","0.0-6.0-4.34","65200df074f7b4deaf7ff9fe","6554bfa13ac4b6a0ab00b03a","6554c67c9d97aaebd51fe9ec","null","<p> <font color=""red"" size=""4vw""> Wrong category! </font> </p>","null","feedback","","","","","0.85"
"","","","","","html-keyboard-response","230","303671","0.0-6.0-0.35","65200df074f7b4deaf7ff9fe","6554bfa13ac4b6a0ab00b03a","6554c67c9d97aaebd51fe9ec","591","
            
        <div style=""text-align: center; position: fixed; top: 5vh; left: 40vw;"">
            <div style=""margin:0 auto; width: 20vw; top: 8vh; font-size: 1vw""> 
            <font color=""green""> Bonus : $0.85 </font>
            </div>
        </div>
    
            <div> Please press any button to continue to the next trial.</div>
        "," ","ITI","","","","",""
"","","","","","html-keyboard-response","231","304282","0.0-6.0-1.35","65200df074f7b4deaf7ff9fe","6554bfa13ac4b6a0ab00b03a","6554c67c9d97aaebd51fe9ec","null","
        
        <div style=""text-align: center; position: fixed; top: 5vh; left: 40vw;"">
            <div style=""margin:0 auto; width: 20vw; top: 8vh; font-size: 1vw""> 
            <font color=""green""> Bonus : $0.85 </font>
            </div>
        </div>
    
        <img class=""stim"" src=./stimuli//pack_shapes/cat_2/ex_2_67.png></img>
    ","null","stimulus","","","","",""
"","","","","","html-keyboard-response","232","305285","0.0-6.0-2.35","65200df074f7b4deaf7ff9fe","6554bfa13ac4b6a0ab00b03a","6554c67c9d97aaebd51fe9ec","null","
        <div style=""text-align: center; position: fixed; top: 5vh; left: 40vw;"">
            <div style=""margin:0 auto; width: 20vw; top: 8vh; font-size: 1vw""> 
            <font color=""green""> Bonus : $0.85 </font>
            </div>
        </div>
    ","null","","","","","",""
"","","","","","html-keyboard-response","233","305664","0.0-6.0-3.35","65200df074f7b4deaf7ff9fe","6554bfa13ac4b6a0ab00b03a","6554c67c9d97aaebd51fe9ec","377","./stimuli//pack_shapes/cat_2/ex_2_67.png","arrowright","response","ArrowRight","67","2","true",""
"","","","","","html-keyboard-response","234","307172","0.0-6.0-4.35","65200df074f7b4deaf7ff9fe","6554bfa13ac4b6a0ab00b03a","6554c67c9d97aaebd51fe9ec","null","<p> <font color=""green"" size=""4vw""> Correct category! </font> <br> <br> <font color=""green"" size=""7vw""> + $0.05 </font> </p>","null","feedback","","","","","0.9"
"","","","","","html-keyboard-response","235","307730","0.0-6.0-0.36","65200df074f7b4deaf7ff9fe","6554bfa13ac4b6a0ab00b03a","6554c67c9d97aaebd51fe9ec","556","
            
        <div style=""text-align: center; position: fixed; top: 5vh; left: 40vw;"">
            <div style=""margin:0 auto; width: 20vw; top: 8vh; font-size: 1vw""> 
            <font color=""green""> Bonus : $0.9 </font>
            </div>
        </div>
    
            <div> Please press any button to continue to the next trial.</div>
        "," ","ITI","","","","",""
"","","","","","html-keyboard-response","236","308346","0.0-6.0-1.36","65200df074f7b4deaf7ff9fe","6554bfa13ac4b6a0ab00b03a","6554c67c9d97aaebd51fe9ec","null","
        
        <div style=""text-align: center; position: fixed; top: 5vh; left: 40vw;"">
            <div style=""margin:0 auto; width: 20vw; top: 8vh; font-size: 1vw""> 
            <font color=""green""> Bonus : $0.9 </font>
            </div>
        </div>
    
        <img class=""stim"" src=./stimuli//pack_shapes/cat_1/ex_1_15.png></img>
    ","null","stimulus","","","","",""
"","","","","","html-keyboard-response","237","309349","0.0-6.0-2.36","65200df074f7b4deaf7ff9fe","6554bfa13ac4b6a0ab00b03a","6554c67c9d97aaebd51fe9ec","null","
        <div style=""text-align: center; position: fixed; top: 5vh; left: 40vw;"">
            <div style=""margin:0 auto; width: 20vw; top: 8vh; font-size: 1vw""> 
            <font color=""green""> Bonus : $0.9 </font>
            </div>
        </div>
    ","null","","","","","",""
"","","","","","html-keyboard-response","238","309755","0.0-6.0-3.36","65200df074f7b4deaf7ff9fe","6554bfa13ac4b6a0ab00b03a","6554c67c9d97aaebd51fe9ec","405","./stimuli//pack_shapes/cat_1/ex_1_15.png","arrowleft","response","ArrowLeft","15","1","true",""
