"success","timeout","failed_images","failed_audio","failed_video","trial_type","trial_index","time_elapsed","internal_node_id","subject_id","study_id","session_id","rt","stimulus","response","task","correct_response","exemplar_ID","category","difficulty","phase","correct","bonus","trial_bonus"
"true","false","[]","[]","[]","preload","0","3","0.0-0.0","611117d79c57e6744e059bc4","657afcd119a11bb15c4315fb","657b01b39707045ed6696178","","","","","","","","","","","",""
"","","","","","html-keyboard-response","1","2989","0.0-1.0","611117d79c57e6744e059bc4","657afcd119a11bb15c4315fb","657b01b39707045ed6696178","2985","Welcome to the Category Learning experiment! Press any key to continue."," ","welcome","","","","","","","",""
"","","","","","html-keyboard-response","2","25248","0.0-2.0","611117d79c57e6744e059bc4","657afcd119a11bb15c4315fb","657b01b39707045ed6696178","22258","
            <p>You will be shown movies. Each movie contains a shape that initially is hidden and is gradually revealed. 
            <br> Some shapes are category A, some are category B.
            <br> You will not know in advance which category each shape belongs to.</p>
            <p> While you watch a movie, you have to guess the category that the shape you see belongs to <b>(left arrow for category A, right arrow for category B)</b></p>
            <p> After you choose, the screen will show you whether you were correct or not.</p>
            <p>Press any key to continue.</p>
            ","arrowleft","introduction_1","","","","","","","",""
"","","","","","html-keyboard-response","3","41808","0.0-3.0","611117d79c57e6744e059bc4","657afcd119a11bb15c4315fb","657b01b39707045ed6696178","16560","
              <p><b>You will receive a bonus payment for each correct answer! The faster you answer the higher the bonus will be!</b></p>
              <p> So you can increase your bonus by guessing as quickly and accurately as possible.</p>
              <p><b>You will lose $0.05 from your bonus payment for each incorrect answer! The bonus can not become less than $0.</b> </p>
              <p>Press any key to continue.</p>
              ","arrowright","introduction_2","","","","","","","",""
"","","","","","html-keyboard-response","4","45696","0.0-4.0","611117d79c57e6744e059bc4","657afcd119a11bb15c4315fb","657b01b39707045ed6696178","3888","
            <p> <b>The first 10 movies are a practice round that will not count towards your bonus payment.</b></p>
            <p> You will be notified when practice finishes and the test begins. </p>
            <p> Press any key to begin the practice round.</p>
            ","arrowleft","introduction_3","","","","","","","",""
"","","","","","html-keyboard-response","5","47541","0.0-5.0-0.0","611117d79c57e6744e059bc4","657afcd119a11bb15c4315fb","657b01b39707045ed6696178","1844","
            
        <div style=""text-align: center; position: fixed; top: 5vh; left: 40vw;"">
            <div style=""margin:0 auto; width: 20vw; top: 8vh; font-size: 2vw""> 
            <font color=""green""> Bonus : $0 </font>
            </div>
        </div>
    
            <div> Please press any key to continue to the next movie.</div>
        ","arrowleft","ITI","","","","","","","",""
"","","","","","html-keyboard-response","6","53052","0.0-5.0-1.0","611117d79c57e6744e059bc4","657afcd119a11bb15c4315fb","657b01b39707045ed6696178","null","./stimuli//pack_morph_shapes_1/cat_1/diff_2/ex_1_2_1.mp4","null","response","ArrowLeft","1","1","2","train","false","",""
"","","","","","html-keyboard-response","7","58054","0.0-5.0-2.0","611117d79c57e6744e059bc4","657afcd119a11bb15c4315fb","657b01b39707045ed6696178","null","<p> <font color=""red"" size=""5vw""> Time out! </font> <br> Please try to respond as quickly as possible. </p>","null","feedback","","","","","","","0","0"
"","","","","","html-keyboard-response","8","60958","0.0-5.0-0.1","611117d79c57e6744e059bc4","657afcd119a11bb15c4315fb","657b01b39707045ed6696178","2902","
            
        <div style=""text-align: center; position: fixed; top: 5vh; left: 40vw;"">
            <div style=""margin:0 auto; width: 20vw; top: 8vh; font-size: 2vw""> 
            <font color=""green""> Bonus : $0 </font>
            </div>
        </div>
    
            <div> Please press any key to continue to the next movie.</div>
        ","arrowleft","ITI","","","","","","","",""
"","","","","","html-keyboard-response","9","65103","0.0-5.0-1.1","611117d79c57e6744e059bc4","657afcd119a11bb15c4315fb","657b01b39707045ed6696178","4143","./stimuli//pack_morph_shapes_1/cat_1/diff_1/ex_1_1_1.mp4","arrowleft","response","ArrowLeft","1","1","1","train","true","",""
"","","","","","html-keyboard-response","10","66608","0.0-5.0-2.1","611117d79c57e6744e059bc4","657afcd119a11bb15c4315fb","657b01b39707045ed6696178","null","<p> <font color=""green"" size=""5vw""> Correct category! </font> </p>","null","feedback","","","","","","","0","0"
"","","","","","html-keyboard-response","11","67713","0.0-5.0-0.2","611117d79c57e6744e059bc4","657afcd119a11bb15c4315fb","657b01b39707045ed6696178","1105","
            
        <div style=""text-align: center; position: fixed; top: 5vh; left: 40vw;"">
            <div style=""margin:0 auto; width: 20vw; top: 8vh; font-size: 2vw""> 
            <font color=""green""> Bonus : $0 </font>
            </div>
        </div>
    
            <div> Please press any key to continue to the next movie.</div>
        ","arrowleft","ITI","","","","","","","",""
"","","","","","html-keyboard-response","12","71908","0.0-5.0-1.2","611117d79c57e6744e059bc4","657afcd119a11bb15c4315fb","657b01b39707045ed6696178","4194","./stimuli//pack_morph_shapes_1/cat_1/diff_1/ex_1_1_10.mp4","arrowleft","response","ArrowLeft","10","1","1","train","true","",""
"","","","","","html-keyboard-response","13","73421","0.0-5.0-2.2","611117d79c57e6744e059bc4","657afcd119a11bb15c4315fb","657b01b39707045ed6696178","null","<p> <font color=""green"" size=""5vw""> Correct category! </font> </p>","null","feedback","","","","","","","0","0"
"","","","","","html-keyboard-response","14","74173","0.0-5.0-0.3","611117d79c57e6744e059bc4","657afcd119a11bb15c4315fb","657b01b39707045ed6696178","751","
            
        <div style=""text-align: center; position: fixed; top: 5vh; left: 40vw;"">
            <div style=""margin:0 auto; width: 20vw; top: 8vh; font-size: 2vw""> 
            <font color=""green""> Bonus : $0 </font>
            </div>
        </div>
    
            <div> Please press any key to continue to the next movie.</div>
        ","arrowleft","ITI","","","","","","","",""
"","","","","","html-keyboard-response","15","78189","0.0-5.0-1.3","611117d79c57e6744e059bc4","657afcd119a11bb15c4315fb","657b01b39707045ed6696178","4015","./stimuli//pack_morph_shapes_1/cat_2/diff_2/ex_2_2_12.mp4","arrowright","response","ArrowRight","12","2","2","train","true","",""
"","","","","","html-keyboard-response","16","79691","0.0-5.0-2.3","611117d79c57e6744e059bc4","657afcd119a11bb15c4315fb","657b01b39707045ed6696178","null","<p> <font color=""green"" size=""5vw""> Correct category! </font> </p>","null","feedback","","","","","","","0","0"
"","","","","","html-keyboard-response","17","80264","0.0-5.0-0.4","611117d79c57e6744e059bc4","657afcd119a11bb15c4315fb","657b01b39707045ed6696178","573","
            
        <div style=""text-align: center; position: fixed; top: 5vh; left: 40vw;"">
            <div style=""margin:0 auto; width: 20vw; top: 8vh; font-size: 2vw""> 
            <font color=""green""> Bonus : $0 </font>
            </div>
        </div>
    
            <div> Please press any key to continue to the next movie.</div>
        ","arrowleft","ITI","","","","","","","",""
"","","","","","html-keyboard-response","18","84137","0.0-5.0-1.4","611117d79c57e6744e059bc4","657afcd119a11bb15c4315fb","657b01b39707045ed6696178","3872","./stimuli//pack_morph_shapes_1/cat_1/diff_1/ex_1_1_13.mp4","arrowright","response","ArrowLeft","13","1","1","train","false","",""
"","","","","","html-keyboard-response","19","89144","0.0-5.0-2.4","611117d79c57e6744e059bc4","657afcd119a11bb15c4315fb","657b01b39707045ed6696178","null","<p> <font color=""red"" size=""5vw""> Wrong category! </font> </p>","null","feedback","","","","","","","0","0"
"","","","","","html-keyboard-response","20","89878","0.0-5.0-0.5","611117d79c57e6744e059bc4","657afcd119a11bb15c4315fb","657b01b39707045ed6696178","733","
            
        <div style=""text-align: center; position: fixed; top: 5vh; left: 40vw;"">
            <div style=""margin:0 auto; width: 20vw; top: 8vh; font-size: 2vw""> 
            <font color=""green""> Bonus : $0 </font>
            </div>
        </div>
    
            <div> Please press any key to continue to the next movie.</div>
        ","arrowleft","ITI","","","","","","","",""
"","","","","","html-keyboard-response","21","94083","0.0-5.0-1.5","611117d79c57e6744e059bc4","657afcd119a11bb15c4315fb","657b01b39707045ed6696178","4205","./stimuli//pack_morph_shapes_1/cat_2/diff_1/ex_2_1_5.mp4","arrowleft","response","ArrowRight","5","2","1","train","false","",""
"","","","","","html-keyboard-response","22","99096","0.0-5.0-2.5","611117d79c57e6744e059bc4","657afcd119a11bb15c4315fb","657b01b39707045ed6696178","null","<p> <font color=""red"" size=""5vw""> Wrong category! </font> </p>","null","feedback","","","","","","","0","0"
"","","","","","html-keyboard-response","23","99796","0.0-5.0-0.6","611117d79c57e6744e059bc4","657afcd119a11bb15c4315fb","657b01b39707045ed6696178","698","
            
        <div style=""text-align: center; position: fixed; top: 5vh; left: 40vw;"">
            <div style=""margin:0 auto; width: 20vw; top: 8vh; font-size: 2vw""> 
            <font color=""green""> Bonus : $0 </font>
            </div>
        </div>
    
            <div> Please press any key to continue to the next movie.</div>
        ","arrowright","ITI","","","","","","","",""
"","","","","","html-keyboard-response","24","103775","0.0-5.0-1.6","611117d79c57e6744e059bc4","657afcd119a11bb15c4315fb","657b01b39707045ed6696178","3978","./stimuli//pack_morph_shapes_1/cat_1/diff_2/ex_1_2_8.mp4","arrowleft","response","ArrowLeft","8","1","2","train","true","",""
"","","","","","html-keyboard-response","25","105287","0.0-5.0-2.6","611117d79c57e6744e059bc4","657afcd119a11bb15c4315fb","657b01b39707045ed6696178","null","<p> <font color=""green"" size=""5vw""> Correct category! </font> </p>","null","feedback","","","","","","","0","0"
"","","","","","html-keyboard-response","26","106467","0.0-5.0-0.7","611117d79c57e6744e059bc4","657afcd119a11bb15c4315fb","657b01b39707045ed6696178","1179","
            
        <div style=""text-align: center; position: fixed; top: 5vh; left: 40vw;"">
            <div style=""margin:0 auto; width: 20vw; top: 8vh; font-size: 2vw""> 
            <font color=""green""> Bonus : $0 </font>
            </div>
        </div>
    
            <div> Please press any key to continue to the next movie.</div>
        ","arrowleft","ITI","","","","","","","",""
"","","","","","html-keyboard-response","27","110525","0.0-5.0-1.7","611117d79c57e6744e059bc4","657afcd119a11bb15c4315fb","657b01b39707045ed6696178","4057","./stimuli//pack_morph_shapes_1/cat_2/diff_1/ex_2_1_3.mp4","arrowright","response","ArrowRight","3","2","1","train","true","",""
"","","","","","html-keyboard-response","28","112037","0.0-5.0-2.7","611117d79c57e6744e059bc4","657afcd119a11bb15c4315fb","657b01b39707045ed6696178","null","<p> <font color=""green"" size=""5vw""> Correct category! </font> </p>","null","feedback","","","","","","","0","0"
"","","","","","html-keyboard-response","29","112649","0.0-5.0-0.8","611117d79c57e6744e059bc4","657afcd119a11bb15c4315fb","657b01b39707045ed6696178","611","
            
        <div style=""text-align: center; position: fixed; top: 5vh; left: 40vw;"">
            <div style=""margin:0 auto; width: 20vw; top: 8vh; font-size: 2vw""> 
            <font color=""green""> Bonus : $0 </font>
            </div>
        </div>
    
            <div> Please press any key to continue to the next movie.</div>
        ","arrowleft","ITI","","","","","","","",""
"","","","","","html-keyboard-response","30","116774","0.0-5.0-1.8","611117d79c57e6744e059bc4","657afcd119a11bb15c4315fb","657b01b39707045ed6696178","4124","./stimuli//pack_morph_shapes_1/cat_2/diff_2/ex_2_2_15.mp4","arrowright","response","ArrowRight","15","2","2","train","true","",""
"","","","","","html-keyboard-response","31","118280","0.0-5.0-2.8","611117d79c57e6744e059bc4","657afcd119a11bb15c4315fb","657b01b39707045ed6696178","null","<p> <font color=""green"" size=""5vw""> Correct category! </font> </p>","null","feedback","","","","","","","0","0"
"","","","","","html-keyboard-response","32","118800","0.0-5.0-0.9","611117d79c57e6744e059bc4","657afcd119a11bb15c4315fb","657b01b39707045ed6696178","519","
            
        <div style=""text-align: center; position: fixed; top: 5vh; left: 40vw;"">
            <div style=""margin:0 auto; width: 20vw; top: 8vh; font-size: 2vw""> 
            <font color=""green""> Bonus : $0 </font>
            </div>
        </div>
    
            <div> Please press any key to continue to the next movie.</div>
        ","arrowleft","ITI","","","","","","","",""
"","","","","","html-keyboard-response","33","122996","0.0-5.0-1.9","611117d79c57e6744e059bc4","657afcd119a11bb15c4315fb","657b01b39707045ed6696178","4195","./stimuli//pack_morph_shapes_1/cat_2/diff_1/ex_2_1_15.mp4","arrowright","response","ArrowRight","15","2","1","train","true","",""
"","","","","","html-keyboard-response","34","124508","0.0-5.0-2.9","611117d79c57e6744e059bc4","657afcd119a11bb15c4315fb","657b01b39707045ed6696178","null","<p> <font color=""green"" size=""5vw""> Correct category! </font> </p>","null","feedback","","","","","","","0","0"
"","","","","","html-keyboard-response","35","128187","0.0-6.0","611117d79c57e6744e059bc4","657afcd119a11bb15c4315fb","657b01b39707045ed6696178","3678","
            <b> <p> The practice round has finished.</p>
            <b> <p> For the rest of the experiment you will receive a bonus payment for each correct answer, which will be higher the faster you answer!</b></p>
            <b> <p> Also you will lose $0.05 from your bonus payment for each incorrect answer!</p>
            <p> Press any key to begin the test. </p>
            ","arrowright","intermission","","","","","","","",""
"","","","","","html-keyboard-response","36","129242","0.0-7.0-0.0","611117d79c57e6744e059bc4","657afcd119a11bb15c4315fb","657b01b39707045ed6696178","1054","
            
        <div style=""text-align: center; position: fixed; top: 5vh; left: 40vw;"">
            <div style=""margin:0 auto; width: 20vw; top: 8vh; font-size: 2vw""> 
            <font color=""green""> Bonus : $0 </font>
            </div>
        </div>
    
            <div> Please press any key to continue to the next movie.</div>
        ","arrowright","ITI","","","","","","","",""
"","","","","","html-keyboard-response","37","133182","0.0-7.0-1.0","611117d79c57e6744e059bc4","657afcd119a11bb15c4315fb","657b01b39707045ed6696178","3938","./stimuli//pack_morph_shapes_1/cat_2/diff_1/ex_2_1_4.mp4","arrowright","response","ArrowRight","4","2","1","test","true","",""
"","","","","","html-keyboard-response","38","134687","0.0-7.0-2.0","611117d79c57e6744e059bc4","657afcd119a11bb15c4315fb","657b01b39707045ed6696178","null","<p> <font color=""green"" size=""5vw""> Correct category! </font> <br> <br> <font color=""green"" size=""8vw""> + $0.05 </font> </p>","null","feedback","","","","","","","0.05","0.05"
"","","","","","html-keyboard-response","39","135317","0.0-7.1-0.1","611117d79c57e6744e059bc4","657afcd119a11bb15c4315fb","657b01b39707045ed6696178","629","
            
        <div style=""text-align: center; position: fixed; top: 5vh; left: 40vw;"">
            <div style=""margin:0 auto; width: 20vw; top: 8vh; font-size: 2vw""> 
            <font color=""green""> Bonus : $0.05 </font>
            </div>
        </div>
    
            <div> Please press any key to continue to the next movie.</div>
        ","arrowright","ITI","","","","","","","",""
"","","","","","html-keyboard-response","40","139457","0.0-7.1-1.1","611117d79c57e6744e059bc4","657afcd119a11bb15c4315fb","657b01b39707045ed6696178","4138","./stimuli//pack_morph_shapes_1/cat_1/diff_1/ex_1_1_5.mp4","arrowleft","response","ArrowLeft","5","1","1","test","true","",""
"","","","","","html-keyboard-response","41","140961","0.0-7.1-2.1","611117d79c57e6744e059bc4","657afcd119a11bb15c4315fb","657b01b39707045ed6696178","null","<p> <font color=""green"" size=""5vw""> Correct category! </font> <br> <br> <font color=""green"" size=""8vw""> + $0.04 </font> </p>","null","feedback","","","","","","","0.09","0.04"
"","","","","","html-keyboard-response","42","141867","0.0-7.2-0.2","611117d79c57e6744e059bc4","657afcd119a11bb15c4315fb","657b01b39707045ed6696178","904","
            
        <div style=""text-align: center; position: fixed; top: 5vh; left: 40vw;"">
            <div style=""margin:0 auto; width: 20vw; top: 8vh; font-size: 2vw""> 
            <font color=""green""> Bonus : $0.09 </font>
            </div>
        </div>
    
            <div> Please press any key to continue to the next movie.</div>
        ","arrowright","ITI","","","","","","","",""
"","","","","","html-keyboard-response","43","145246","0.0-7.2-1.2","611117d79c57e6744e059bc4","657afcd119a11bb15c4315fb","657b01b39707045ed6696178","3378","./stimuli//pack_morph_shapes_1/cat_2/diff_1/ex_2_1_8.mp4","arrowright","response","ArrowRight","8","2","1","test","true","",""
"","","","","","html-keyboard-response","44","146756","0.0-7.2-2.2","611117d79c57e6744e059bc4","657afcd119a11bb15c4315fb","657b01b39707045ed6696178","null","<p> <font color=""green"" size=""5vw""> Correct category! </font> <br> <br> <font color=""green"" size=""8vw""> + $0.05 </font> </p>","null","feedback","","","","","","","0.14","0.05"
"","","","","","html-keyboard-response","45","147382","0.0-7.3-0.3","611117d79c57e6744e059bc4","657afcd119a11bb15c4315fb","657b01b39707045ed6696178","625","
            
        <div style=""text-align: center; position: fixed; top: 5vh; left: 40vw;"">
            <div style=""margin:0 auto; width: 20vw; top: 8vh; font-size: 2vw""> 
            <font color=""green""> Bonus : $0.14 </font>
            </div>
        </div>
    
            <div> Please press any key to continue to the next movie.</div>
        ","arrowleft","ITI","","","","","","","",""
"","","","","","html-keyboard-response","46","151230","0.0-7.3-1.3","611117d79c57e6744e059bc4","657afcd119a11bb15c4315fb","657b01b39707045ed6696178","3846","./stimuli//pack_morph_shapes_1/cat_2/diff_1/ex_2_1_16.mp4","arrowright","response","ArrowRight","16","2","1","test","true","",""
"","","","","","html-keyboard-response","47","152731","0.0-7.3-2.3","611117d79c57e6744e059bc4","657afcd119a11bb15c4315fb","657b01b39707045ed6696178","null","<p> <font color=""green"" size=""5vw""> Correct category! </font> <br> <br> <font color=""green"" size=""8vw""> + $0.05 </font> </p>","null","feedback","","","","","","","0.19","0.05"
"","","","","","html-keyboard-response","48","153211","0.0-7.4-0.4","611117d79c57e6744e059bc4","657afcd119a11bb15c4315fb","657b01b39707045ed6696178","479","
            
        <div style=""text-align: center; position: fixed; top: 5vh; left: 40vw;"">
            <div style=""margin:0 auto; width: 20vw; top: 8vh; font-size: 2vw""> 
            <font color=""green""> Bonus : $0.19 </font>
            </div>
        </div>
    
            <div> Please press any key to continue to the next movie.</div>
        ","arrowright","ITI","","","","","","","",""
"","","","","","html-keyboard-response","49","156011","0.0-7.4-1.4","611117d79c57e6744e059bc4","657afcd119a11bb15c4315fb","657b01b39707045ed6696178","2798","./stimuli//pack_morph_shapes_1/cat_2/diff_1/ex_2_1_1.mp4","arrowright","response","ArrowRight","1","2","1","test","true","",""
"","","","","","html-keyboard-response","50","157520","0.0-7.4-2.4","611117d79c57e6744e059bc4","657afcd119a11bb15c4315fb","657b01b39707045ed6696178","null","<p> <font color=""green"" size=""5vw""> Correct category! </font> <br> <br> <font color=""green"" size=""8vw""> + $0.06 </font> </p>","null","feedback","","","","","","","0.25","0.06"
"","","","","","html-keyboard-response","51","157883","0.0-7.5-0.5","611117d79c57e6744e059bc4","657afcd119a11bb15c4315fb","657b01b39707045ed6696178","363","
            
        <div style=""text-align: center; position: fixed; top: 5vh; left: 40vw;"">
            <div style=""margin:0 auto; width: 20vw; top: 8vh; font-size: 2vw""> 
            <font color=""green""> Bonus : $0.25 </font>
            </div>
        </div>
    
            <div> Please press any key to continue to the next movie.</div>
        ","arrowright","ITI","","","","","","","",""
"","","","","","html-keyboard-response","52","161553","0.0-7.5-1.5","611117d79c57e6744e059bc4","657afcd119a11bb15c4315fb","657b01b39707045ed6696178","3669","./stimuli//pack_morph_shapes_1/cat_2/diff_2/ex_2_2_13.mp4","arrowright","response","ArrowRight","13","2","2","test","true","",""
"","","","","","html-keyboard-response","53","163060","0.0-7.5-2.5","611117d79c57e6744e059bc4","657afcd119a11bb15c4315fb","657b01b39707045ed6696178","null","<p> <font color=""green"" size=""5vw""> Correct category! </font> <br> <br> <font color=""green"" size=""8vw""> + $0.05 </font> </p>","null","feedback","","","","","","","0.3","0.05"
"","","","","","html-keyboard-response","54","163736","0.0-7.6-0.6","611117d79c57e6744e059bc4","657afcd119a11bb15c4315fb","657b01b39707045ed6696178","676","
            
        <div style=""text-align: center; position: fixed; top: 5vh; left: 40vw;"">
            <div style=""margin:0 auto; width: 20vw; top: 8vh; font-size: 2vw""> 
            <font color=""green""> Bonus : $0.3 </font>
            </div>
        </div>
    
            <div> Please press any key to continue to the next movie.</div>
        ","arrowright","ITI","","","","","","","",""
"","","","","","html-keyboard-response","55","167407","0.0-7.6-1.6","611117d79c57e6744e059bc4","657afcd119a11bb15c4315fb","657b01b39707045ed6696178","3670","./stimuli//pack_morph_shapes_1/cat_1/diff_2/ex_1_2_11.mp4","arrowleft","response","ArrowLeft","11","1","2","test","true","",""
"","","","","","html-keyboard-response","56","168919","0.0-7.6-2.6","611117d79c57e6744e059bc4","657afcd119a11bb15c4315fb","657b01b39707045ed6696178","null","<p> <font color=""green"" size=""5vw""> Correct category! </font> <br> <br> <font color=""green"" size=""8vw""> + $0.05 </font> </p>","null","feedback","","","","","","","0.35","0.05"
"","","","","","html-keyboard-response","57","169683","0.0-7.7-0.7","611117d79c57e6744e059bc4","657afcd119a11bb15c4315fb","657b01b39707045ed6696178","765","
            
        <div style=""text-align: center; position: fixed; top: 5vh; left: 40vw;"">
            <div style=""margin:0 auto; width: 20vw; top: 8vh; font-size: 2vw""> 
            <font color=""green""> Bonus : $0.35 </font>
            </div>
        </div>
    
            <div> Please press any key to continue to the next movie.</div>
        ","arrowleft","ITI","","","","","","","",""
"","","","","","html-keyboard-response","58","173359","0.0-7.7-1.7","611117d79c57e6744e059bc4","657afcd119a11bb15c4315fb","657b01b39707045ed6696178","3675","./stimuli//pack_morph_shapes_1/cat_1/diff_2/ex_1_2_17.mp4","arrowleft","response","ArrowLeft","17","1","2","test","true","",""
"","","","","","html-keyboard-response","59","174870","0.0-7.7-2.7","611117d79c57e6744e059bc4","657afcd119a11bb15c4315fb","657b01b39707045ed6696178","null","<p> <font color=""green"" size=""5vw""> Correct category! </font> <br> <br> <font color=""green"" size=""8vw""> + $0.05 </font> </p>","null","feedback","","","","","","","0.4","0.05"
"","","","","","html-keyboard-response","60","175559","0.0-7.8-0.8","611117d79c57e6744e059bc4","657afcd119a11bb15c4315fb","657b01b39707045ed6696178","690","
            
        <div style=""text-align: center; position: fixed; top: 5vh; left: 40vw;"">
            <div style=""margin:0 auto; width: 20vw; top: 8vh; font-size: 2vw""> 
            <font color=""green""> Bonus : $0.4 </font>
            </div>
        </div>
    
            <div> Please press any key to continue to the next movie.</div>
        ","arrowleft","ITI","","","","","","","",""
"","","","","","html-keyboard-response","61","179316","0.0-7.8-1.8","611117d79c57e6744e059bc4","657afcd119a11bb15c4315fb","657b01b39707045ed6696178","3756","./stimuli//pack_morph_shapes_1/cat_1/diff_2/ex_1_2_12.mp4","arrowleft","response","ArrowLeft","12","1","2","test","true","",""
"","","","","","html-keyboard-response","62","180831","0.0-7.8-2.8","611117d79c57e6744e059bc4","657afcd119a11bb15c4315fb","657b01b39707045ed6696178","null","<p> <font color=""green"" size=""5vw""> Correct category! </font> <br> <br> <font color=""green"" size=""8vw""> + $0.1 </font> </p>","null","feedback","","","","","","","0.5","0.1"
"","","","","","html-keyboard-response","63","181402","0.0-7.9-0.9","611117d79c57e6744e059bc4","657afcd119a11bb15c4315fb","657b01b39707045ed6696178","570","
            
        <div style=""text-align: center; position: fixed; top: 5vh; left: 40vw;"">
            <div style=""margin:0 auto; width: 20vw; top: 8vh; font-size: 2vw""> 
            <font color=""green""> Bonus : $0.5 </font>
            </div>
        </div>
    
            <div> Please press any key to continue to the next movie.</div>
        ","arrowleft","ITI","","","","","","","",""
"","","","","","html-keyboard-response","64","185441","0.0-7.9-1.9","611117d79c57e6744e059bc4","657afcd119a11bb15c4315fb","657b01b39707045ed6696178","4039","./stimuli//pack_morph_shapes_1/cat_2/diff_2/ex_2_2_6.mp4","arrowright","response","ArrowRight","6","2","2","test","true","",""
"","","","","","html-keyboard-response","65","186949","0.0-7.9-2.9","611117d79c57e6744e059bc4","657afcd119a11bb15c4315fb","657b01b39707045ed6696178","null","<p> <font color=""green"" size=""5vw""> Correct category! </font> <br> <br> <font color=""green"" size=""8vw""> + $0.09 </font> </p>","null","feedback","","","","","","","0.59","0.09"
"","","","","","html-keyboard-response","66","187394","0.0-7.10-0.10","611117d79c57e6744e059bc4","657afcd119a11bb15c4315fb","657b01b39707045ed6696178","445","
            
        <div style=""text-align: center; position: fixed; top: 5vh; left: 40vw;"">
            <div style=""margin:0 auto; width: 20vw; top: 8vh; font-size: 2vw""> 
            <font color=""green""> Bonus : $0.59 </font>
            </div>
        </div>
    
            <div> Please press any key to continue to the next movie.</div>
        ","arrowleft","ITI","","","","","","","",""
"","","","","","html-keyboard-response","67","190737","0.0-7.10-1.10","611117d79c57e6744e059bc4","657afcd119a11bb15c4315fb","657b01b39707045ed6696178","3342","./stimuli//pack_morph_shapes_1/cat_1/diff_3/ex_1_3_17.mp4","arrowleft","response","ArrowLeft","17","1","3","test","true","",""
"","","","","","html-keyboard-response","68","192251","0.0-7.10-2.10","611117d79c57e6744e059bc4","657afcd119a11bb15c4315fb","657b01b39707045ed6696178","null","<p> <font color=""green"" size=""5vw""> Correct category! </font> <br> <br> <font color=""green"" size=""8vw""> + $0.1 </font> </p>","null","feedback","","","","","","","0.69","0.1"
"","","","","","html-keyboard-response","69","193268","0.0-7.11-0.11","611117d79c57e6744e059bc4","657afcd119a11bb15c4315fb","657b01b39707045ed6696178","1016","
            
        <div style=""text-align: center; position: fixed; top: 5vh; left: 40vw;"">
            <div style=""margin:0 auto; width: 20vw; top: 8vh; font-size: 2vw""> 
            <font color=""green""> Bonus : $0.69 </font>
            </div>
        </div>
    
            <div> Please press any key to continue to the next movie.</div>
        ","arrowleft","ITI","","","","","","","",""
"","","","","","html-keyboard-response","70","196706","0.0-7.11-1.11","611117d79c57e6744e059bc4","657afcd119a11bb15c4315fb","657b01b39707045ed6696178","3437","./stimuli//pack_morph_shapes_1/cat_1/diff_3/ex_1_3_3.mp4","arrowleft","response","ArrowLeft","3","1","3","test","true","",""
"","","","","","html-keyboard-response","71","198221","0.0-7.11-2.11","611117d79c57e6744e059bc4","657afcd119a11bb15c4315fb","657b01b39707045ed6696178","null","<p> <font color=""green"" size=""5vw""> Correct category! </font> <br> <br> <font color=""green"" size=""8vw""> + $0.1 </font> </p>","null","feedback","","","","","","","0.79","0.1"
"","","","","","html-keyboard-response","72","199336","0.0-7.12-0.12","611117d79c57e6744e059bc4","657afcd119a11bb15c4315fb","657b01b39707045ed6696178","1116","
            
        <div style=""text-align: center; position: fixed; top: 5vh; left: 40vw;"">
            <div style=""margin:0 auto; width: 20vw; top: 8vh; font-size: 2vw""> 
            <font color=""green""> Bonus : $0.79 </font>
            </div>
        </div>
    
            <div> Please press any key to continue to the next movie.</div>
        ","arrowleft","ITI","","","","","","","",""
"","","","","","html-keyboard-response","73","202885","0.0-7.12-1.12","611117d79c57e6744e059bc4","657afcd119a11bb15c4315fb","657b01b39707045ed6696178","3549","./stimuli//pack_morph_shapes_1/cat_2/diff_3/ex_2_3_14.mp4","arrowright","response","ArrowRight","14","2","3","test","true","",""
"","","","","","html-keyboard-response","74","204386","0.0-7.12-2.12","611117d79c57e6744e059bc4","657afcd119a11bb15c4315fb","657b01b39707045ed6696178","null","<p> <font color=""green"" size=""5vw""> Correct category! </font> <br> <br> <font color=""green"" size=""8vw""> + $0.1 </font> </p>","null","feedback","","","","","","","0.89","0.1"
"","","","","","html-keyboard-response","75","205029","0.0-7.13-0.13","611117d79c57e6744e059bc4","657afcd119a11bb15c4315fb","657b01b39707045ed6696178","643","
            
        <div style=""text-align: center; position: fixed; top: 5vh; left: 40vw;"">
            <div style=""margin:0 auto; width: 20vw; top: 8vh; font-size: 2vw""> 
            <font color=""green""> Bonus : $0.89 </font>
            </div>
        </div>
    
            <div> Please press any key to continue to the next movie.</div>
        ","arrowleft","ITI","","","","","","","",""
"","","","","","html-keyboard-response","76","208609","0.0-7.13-1.13","611117d79c57e6744e059bc4","657afcd119a11bb15c4315fb","657b01b39707045ed6696178","3580","./stimuli//pack_morph_shapes_1/cat_2/diff_3/ex_2_3_11.mp4","arrowright","response","ArrowRight","11","2","3","test","true","",""
"","","","","","html-keyboard-response","77","210124","0.0-7.13-2.13","611117d79c57e6744e059bc4","657afcd119a11bb15c4315fb","657b01b39707045ed6696178","null","<p> <font color=""green"" size=""5vw""> Correct category! </font> <br> <br> <font color=""green"" size=""8vw""> + $0.1 </font> </p>","null","feedback","","","","","","","0.99","0.1"
"","","","","","html-keyboard-response","78","210920","0.0-7.14-0.14","611117d79c57e6744e059bc4","657afcd119a11bb15c4315fb","657b01b39707045ed6696178","797","
            
        <div style=""text-align: center; position: fixed; top: 5vh; left: 40vw;"">
            <div style=""margin:0 auto; width: 20vw; top: 8vh; font-size: 2vw""> 
            <font color=""green""> Bonus : $0.99 </font>
            </div>
        </div>
    
            <div> Please press any key to continue to the next movie.</div>
        ","arrowright","ITI","","","","","","","",""
"","","","","","html-keyboard-response","79","214489","0.0-7.14-1.14","611117d79c57e6744e059bc4","657afcd119a11bb15c4315fb","657b01b39707045ed6696178","3568","./stimuli//pack_morph_shapes_1/cat_2/diff_3/ex_2_3_10.mp4","arrowright","response","ArrowRight","10","2","3","test","true","",""
"","","","","","html-keyboard-response","80","216003","0.0-7.14-2.14","611117d79c57e6744e059bc4","657afcd119a11bb15c4315fb","657b01b39707045ed6696178","null","<p> <font color=""green"" size=""5vw""> Correct category! </font> <br> <br> <font color=""green"" size=""8vw""> + $0.1 </font> </p>","null","feedback","","","","","","","1.09","0.1"
"","","","","","html-keyboard-response","81","216500","0.0-7.15-0.15","611117d79c57e6744e059bc4","657afcd119a11bb15c4315fb","657b01b39707045ed6696178","497","
            
        <div style=""text-align: center; position: fixed; top: 5vh; left: 40vw;"">
            <div style=""margin:0 auto; width: 20vw; top: 8vh; font-size: 2vw""> 
            <font color=""green""> Bonus : $1.09 </font>
            </div>
        </div>
    
            <div> Please press any key to continue to the next movie.</div>
        ","arrowright","ITI","","","","","","","",""
"","","","","","html-keyboard-response","82","219888","0.0-7.15-1.15","611117d79c57e6744e059bc4","657afcd119a11bb15c4315fb","657b01b39707045ed6696178","3387","./stimuli//pack_morph_shapes_1/cat_2/diff_4/ex_2_4_15.mp4","arrowright","response","ArrowRight","15","2","4","test","true","",""
"","","","","","html-keyboard-response","83","221403","0.0-7.15-2.15","611117d79c57e6744e059bc4","657afcd119a11bb15c4315fb","657b01b39707045ed6696178","null","<p> <font color=""green"" size=""5vw""> Correct category! </font> <br> <br> <font color=""green"" size=""8vw""> + $0.1 </font> </p>","null","feedback","","","","","","","1.19","0.1"
"","","","","","html-keyboard-response","84","221819","0.0-7.16-0.16","611117d79c57e6744e059bc4","657afcd119a11bb15c4315fb","657b01b39707045ed6696178","415","
            
        <div style=""text-align: center; position: fixed; top: 5vh; left: 40vw;"">
            <div style=""margin:0 auto; width: 20vw; top: 8vh; font-size: 2vw""> 
            <font color=""green""> Bonus : $1.19 </font>
            </div>
        </div>
    
            <div> Please press any key to continue to the next movie.</div>
        ","arrowright","ITI","","","","","","","",""
"","","","","","html-keyboard-response","85","225591","0.0-7.16-1.16","611117d79c57e6744e059bc4","657afcd119a11bb15c4315fb","657b01b39707045ed6696178","3772","./stimuli//pack_morph_shapes_1/cat_1/diff_4/ex_1_4_6.mp4","arrowleft","response","ArrowLeft","6","1","4","test","true","",""
"","","","","","html-keyboard-response","86","227105","0.0-7.16-2.16","611117d79c57e6744e059bc4","657afcd119a11bb15c4315fb","657b01b39707045ed6696178","null","<p> <font color=""green"" size=""5vw""> Correct category! </font> <br> <br> <font color=""green"" size=""8vw""> + $0.1 </font> </p>","null","feedback","","","","","","","1.29","0.1"
"","","","","","html-keyboard-response","87","227482","0.0-7.17-0.17","611117d79c57e6744e059bc4","657afcd119a11bb15c4315fb","657b01b39707045ed6696178","376","
            
        <div style=""text-align: center; position: fixed; top: 5vh; left: 40vw;"">
            <div style=""margin:0 auto; width: 20vw; top: 8vh; font-size: 2vw""> 
            <font color=""green""> Bonus : $1.29 </font>
            </div>
        </div>
    
            <div> Please press any key to continue to the next movie.</div>
        ","arrowleft","ITI","","","","","","","",""
"","","","","","html-keyboard-response","88","230920","0.0-7.17-1.17","611117d79c57e6744e059bc4","657afcd119a11bb15c4315fb","657b01b39707045ed6696178","3436","./stimuli//pack_morph_shapes_1/cat_1/diff_4/ex_1_4_10.mp4","arrowleft","response","ArrowLeft","10","1","4","test","true","",""
"","","","","","html-keyboard-response","89","232432","0.0-7.17-2.17","611117d79c57e6744e059bc4","657afcd119a11bb15c4315fb","657b01b39707045ed6696178","null","<p> <font color=""green"" size=""5vw""> Correct category! </font> <br> <br> <font color=""green"" size=""8vw""> + $0.1 </font> </p>","null","feedback","","","","","","","1.39","0.1"
"","","","","","html-keyboard-response","90","232800","0.0-7.18-0.18","611117d79c57e6744e059bc4","657afcd119a11bb15c4315fb","657b01b39707045ed6696178","367","
            
        <div style=""text-align: center; position: fixed; top: 5vh; left: 40vw;"">
            <div style=""margin:0 auto; width: 20vw; top: 8vh; font-size: 2vw""> 
            <font color=""green""> Bonus : $1.39 </font>
            </div>
        </div>
    
            <div> Please press any key to continue to the next movie.</div>
        ","arrowleft","ITI","","","","","","","",""
"","","","","","html-keyboard-response","91","236254","0.0-7.18-1.18","611117d79c57e6744e059bc4","657afcd119a11bb15c4315fb","657b01b39707045ed6696178","3453","./stimuli//pack_morph_shapes_1/cat_1/diff_4/ex_1_4_4.mp4","arrowleft","response","ArrowLeft","4","1","4","test","true","",""
"","","","","","html-keyboard-response","92","237759","0.0-7.18-2.18","611117d79c57e6744e059bc4","657afcd119a11bb15c4315fb","657b01b39707045ed6696178","null","<p> <font color=""green"" size=""5vw""> Correct category! </font> <br> <br> <font color=""green"" size=""8vw""> + $0.1 </font> </p>","null","feedback","","","","","","","1.49","0.1"
"","","","","","html-keyboard-response","93","238128","0.0-7.19-0.19","611117d79c57e6744e059bc4","657afcd119a11bb15c4315fb","657b01b39707045ed6696178","369","
            
        <div style=""text-align: center; position: fixed; top: 5vh; left: 40vw;"">
            <div style=""margin:0 auto; width: 20vw; top: 8vh; font-size: 2vw""> 
            <font color=""green""> Bonus : $1.49 </font>
            </div>
        </div>
    
            <div> Please press any key to continue to the next movie.</div>
        ","arrowleft","ITI","","","","","","","",""
"","","","","","html-keyboard-response","94","241729","0.0-7.19-1.19","611117d79c57e6744e059bc4","657afcd119a11bb15c4315fb","657b01b39707045ed6696178","3600","./stimuli//pack_morph_shapes_1/cat_2/diff_4/ex_2_4_4.mp4","arrowright","response","ArrowRight","4","2","4","test","true","",""
"","","","","","html-keyboard-response","95","243243","0.0-7.19-2.19","611117d79c57e6744e059bc4","657afcd119a11bb15c4315fb","657b01b39707045ed6696178","null","<p> <font color=""green"" size=""5vw""> Correct category! </font> <br> <br> <font color=""green"" size=""8vw""> + $0.1 </font> </p>","null","feedback","","","","","","","1.59","0.1"
"","","","","","html-keyboard-response","96","243631","0.0-7.20-0.20","611117d79c57e6744e059bc4","657afcd119a11bb15c4315fb","657b01b39707045ed6696178","388","
            
        <div style=""text-align: center; position: fixed; top: 5vh; left: 40vw;"">
            <div style=""margin:0 auto; width: 20vw; top: 8vh; font-size: 2vw""> 
            <font color=""green""> Bonus : $1.59 </font>
            </div>
        </div>
    
            <div> Please press any key to continue to the next movie.</div>
        ","arrowleft","ITI","","","","","","","",""
"","","","","","html-keyboard-response","97","246522","0.0-7.20-1.20","611117d79c57e6744e059bc4","657afcd119a11bb15c4315fb","657b01b39707045ed6696178","2890","./stimuli//pack_morph_shapes_1/cat_2/diff_5/ex_2_5_2.mp4","arrowleft","response","ArrowRight","2","2","5","test","false","",""
"","","","","","html-keyboard-response","98","251526","0.0-7.20-2.20","611117d79c57e6744e059bc4","657afcd119a11bb15c4315fb","657b01b39707045ed6696178","null","<p> <font color=""red"" size=""5vw""> Wrong category! </font> <br> <br> <font color=""red"" size=""8vw""> - $0.05 </font> </p>","null","feedback","","","","","","","1.54","-0.05"
"","","","","","html-keyboard-response","99","252156","0.0-7.21-0.21","611117d79c57e6744e059bc4","657afcd119a11bb15c4315fb","657b01b39707045ed6696178","629","
            
        <div style=""text-align: center; position: fixed; top: 5vh; left: 40vw;"">
            <div style=""margin:0 auto; width: 20vw; top: 8vh; font-size: 2vw""> 
            <font color=""green""> Bonus : $1.54 </font>
            </div>
        </div>
    
            <div> Please press any key to continue to the next movie.</div>
        ","arrowright","ITI","","","","","","","",""
"","","","","","html-keyboard-response","100","255760","0.0-7.21-1.21","611117d79c57e6744e059bc4","657afcd119a11bb15c4315fb","657b01b39707045ed6696178","3603","./stimuli//pack_morph_shapes_1/cat_1/diff_5/ex_1_5_10.mp4","arrowleft","response","ArrowLeft","10","1","5","test","true","",""
"","","","","","html-keyboard-response","101","257272","0.0-7.21-2.21","611117d79c57e6744e059bc4","657afcd119a11bb15c4315fb","657b01b39707045ed6696178","null","<p> <font color=""green"" size=""5vw""> Correct category! </font> <br> <br> <font color=""green"" size=""8vw""> + $0.1 </font> </p>","null","feedback","","","","","","","1.64","0.1"
"","","","","","html-keyboard-response","102","257912","0.0-7.22-0.22","611117d79c57e6744e059bc4","657afcd119a11bb15c4315fb","657b01b39707045ed6696178","640","
            
        <div style=""text-align: center; position: fixed; top: 5vh; left: 40vw;"">
            <div style=""margin:0 auto; width: 20vw; top: 8vh; font-size: 2vw""> 
            <font color=""green""> Bonus : $1.64 </font>
            </div>
        </div>
    
            <div> Please press any key to continue to the next movie.</div>
        ","arrowleft","ITI","","","","","","","",""
"","","","","","html-keyboard-response","103","261795","0.0-7.22-1.22","611117d79c57e6744e059bc4","657afcd119a11bb15c4315fb","657b01b39707045ed6696178","3882","./stimuli//pack_morph_shapes_1/cat_2/diff_5/ex_2_5_7.mp4","arrowright","response","ArrowRight","7","2","5","test","true","",""
"","","","","","html-keyboard-response","104","263302","0.0-7.22-2.22","611117d79c57e6744e059bc4","657afcd119a11bb15c4315fb","657b01b39707045ed6696178","null","<p> <font color=""green"" size=""5vw""> Correct category! </font> <br> <br> <font color=""green"" size=""8vw""> + $0.1 </font> </p>","null","feedback","","","","","","","1.74","0.1"
"","","","","","html-keyboard-response","105","263874","0.0-7.23-0.23","611117d79c57e6744e059bc4","657afcd119a11bb15c4315fb","657b01b39707045ed6696178","570","
            
        <div style=""text-align: center; position: fixed; top: 5vh; left: 40vw;"">
            <div style=""margin:0 auto; width: 20vw; top: 8vh; font-size: 2vw""> 
            <font color=""green""> Bonus : $1.74 </font>
            </div>
        </div>
    
            <div> Please press any key to continue to the next movie.</div>
        ","arrowright","ITI","","","","","","","",""
"","","","","","html-keyboard-response","106","267851","0.0-7.23-1.23","611117d79c57e6744e059bc4","657afcd119a11bb15c4315fb","657b01b39707045ed6696178","3975","./stimuli//pack_morph_shapes_1/cat_1/diff_5/ex_1_5_5.mp4","arrowleft","response","ArrowLeft","5","1","5","test","true","",""
"","","","","","html-keyboard-response","107","269357","0.0-7.23-2.23","611117d79c57e6744e059bc4","657afcd119a11bb15c4315fb","657b01b39707045ed6696178","null","<p> <font color=""green"" size=""5vw""> Correct category! </font> <br> <br> <font color=""green"" size=""8vw""> + $0.1 </font> </p>","null","feedback","","","","","","","1.84","0.1"
"","","","","","html-keyboard-response","108","269882","0.0-7.24-0.24","611117d79c57e6744e059bc4","657afcd119a11bb15c4315fb","657b01b39707045ed6696178","524","
            
        <div style=""text-align: center; position: fixed; top: 5vh; left: 40vw;"">
            <div style=""margin:0 auto; width: 20vw; top: 8vh; font-size: 2vw""> 
            <font color=""green""> Bonus : $1.84 </font>
            </div>
        </div>
    
            <div> Please press any key to continue to the next movie.</div>
        ","arrowleft","ITI","","","","","","","",""
"","","","","","html-keyboard-response","109","273802","0.0-7.24-1.24","611117d79c57e6744e059bc4","657afcd119a11bb15c4315fb","657b01b39707045ed6696178","3918","./stimuli//pack_morph_shapes_1/cat_1/diff_5/ex_1_5_17.mp4","arrowright","response","ArrowLeft","17","1","5","test","false","",""
"","","","","","html-keyboard-response","110","278815","0.0-7.24-2.24","611117d79c57e6744e059bc4","657afcd119a11bb15c4315fb","657b01b39707045ed6696178","null","<p> <font color=""red"" size=""5vw""> Wrong category! </font> <br> <br> <font color=""red"" size=""8vw""> - $0.05 </font> </p>","null","feedback","","","","","","","1.79","-0.05"
"","","","","","html-keyboard-response","111","279699","0.0-7.25-0.25","611117d79c57e6744e059bc4","657afcd119a11bb15c4315fb","657b01b39707045ed6696178","883","
            
        <div style=""text-align: center; position: fixed; top: 5vh; left: 40vw;"">
            <div style=""margin:0 auto; width: 20vw; top: 8vh; font-size: 2vw""> 
            <font color=""green""> Bonus : $1.79 </font>
            </div>
        </div>
    
            <div> Please press any key to continue to the next movie.</div>
        ","arrowleft","ITI","","","","","","","",""
"","","","","","html-keyboard-response","112","283291","0.0-7.25-1.25","611117d79c57e6744e059bc4","657afcd119a11bb15c4315fb","657b01b39707045ed6696178","3590","./stimuli//pack_morph_shapes_1/cat_1/diff_4/ex_1_4_11.mp4","arrowleft","response","ArrowLeft","11","1","4","test","true","",""
"","","","","","html-keyboard-response","113","284794","0.0-7.25-2.25","611117d79c57e6744e059bc4","657afcd119a11bb15c4315fb","657b01b39707045ed6696178","null","<p> <font color=""green"" size=""5vw""> Correct category! </font> <br> <br> <font color=""green"" size=""8vw""> + $0.1 </font> </p>","null","feedback","","","","","","","1.89","0.1"
"","","","","","html-keyboard-response","114","285817","0.0-7.26-0.26","611117d79c57e6744e059bc4","657afcd119a11bb15c4315fb","657b01b39707045ed6696178","1023","
            
        <div style=""text-align: center; position: fixed; top: 5vh; left: 40vw;"">
            <div style=""margin:0 auto; width: 20vw; top: 8vh; font-size: 2vw""> 
            <font color=""green""> Bonus : $1.89 </font>
            </div>
        </div>
    
            <div> Please press any key to continue to the next movie.</div>
        ","arrowleft","ITI","","","","","","","",""
"","","","","","html-keyboard-response","115","289635","0.0-7.26-1.26","611117d79c57e6744e059bc4","657afcd119a11bb15c4315fb","657b01b39707045ed6696178","3816","./stimuli//pack_morph_shapes_1/cat_1/diff_4/ex_1_4_6.mp4","arrowleft","response","ArrowLeft","6","1","4","test","true","",""
"","","","","","html-keyboard-response","116","291137","0.0-7.26-2.26","611117d79c57e6744e059bc4","657afcd119a11bb15c4315fb","657b01b39707045ed6696178","null","<p> <font color=""green"" size=""5vw""> Correct category! </font> <br> <br> <font color=""green"" size=""8vw""> + $0.1 </font> </p>","null","feedback","","","","","","","1.99","0.1"
"","","","","","html-keyboard-response","117","291683","0.0-7.27-0.27","611117d79c57e6744e059bc4","657afcd119a11bb15c4315fb","657b01b39707045ed6696178","546","
            
        <div style=""text-align: center; position: fixed; top: 5vh; left: 40vw;"">
            <div style=""margin:0 auto; width: 20vw; top: 8vh; font-size: 2vw""> 
            <font color=""green""> Bonus : $1.99 </font>
            </div>
        </div>
    
            <div> Please press any key to continue to the next movie.</div>
        ","arrowleft","ITI","","","","","","","",""
"","","","","","html-keyboard-response","118","295687","0.0-7.27-1.27","611117d79c57e6744e059bc4","657afcd119a11bb15c4315fb","657b01b39707045ed6696178","4004","./stimuli//pack_morph_shapes_1/cat_1/diff_4/ex_1_4_5.mp4","arrowleft","response","ArrowLeft","5","1","4","test","true","",""
"","","","","","html-keyboard-response","119","297201","0.0-7.27-2.27","611117d79c57e6744e059bc4","657afcd119a11bb15c4315fb","657b01b39707045ed6696178","null","<p> <font color=""green"" size=""5vw""> Correct category! </font> <br> <br> <font color=""green"" size=""8vw""> + $0.09 </font> </p>","null","feedback","","","","","","","2.08","0.09"
"","","","","","html-keyboard-response","120","297601","0.0-7.28-0.28","611117d79c57e6744e059bc4","657afcd119a11bb15c4315fb","657b01b39707045ed6696178","399","
            
        <div style=""text-align: center; position: fixed; top: 5vh; left: 40vw;"">
            <div style=""margin:0 auto; width: 20vw; top: 8vh; font-size: 2vw""> 
            <font color=""green""> Bonus : $2.08 </font>
            </div>
        </div>
    
            <div> Please press any key to continue to the next movie.</div>
        ","arrowleft","ITI","","","","","","","",""
"","","","","","html-keyboard-response","121","301316","0.0-7.28-1.28","611117d79c57e6744e059bc4","657afcd119a11bb15c4315fb","657b01b39707045ed6696178","3715","./stimuli//pack_morph_shapes_1/cat_2/diff_4/ex_2_4_11.mp4","arrowright","response","ArrowRight","11","2","4","test","true","",""
"","","","","","html-keyboard-response","122","302829","0.0-7.28-2.28","611117d79c57e6744e059bc4","657afcd119a11bb15c4315fb","657b01b39707045ed6696178","null","<p> <font color=""green"" size=""5vw""> Correct category! </font> <br> <br> <font color=""green"" size=""8vw""> + $0.1 </font> </p>","null","feedback","","","","","","","2.18","0.1"
"","","","","","html-keyboard-response","123","303292","0.0-7.29-0.29","611117d79c57e6744e059bc4","657afcd119a11bb15c4315fb","657b01b39707045ed6696178","462","
            
        <div style=""text-align: center; position: fixed; top: 5vh; left: 40vw;"">
            <div style=""margin:0 auto; width: 20vw; top: 8vh; font-size: 2vw""> 
            <font color=""green""> Bonus : $2.18 </font>
            </div>
        </div>
    
            <div> Please press any key to continue to the next movie.</div>
        ","arrowleft","ITI","","","","","","","",""
"","","","","","html-keyboard-response","124","306825","0.0-7.29-1.29","611117d79c57e6744e059bc4","657afcd119a11bb15c4315fb","657b01b39707045ed6696178","3532","./stimuli//pack_morph_shapes_1/cat_1/diff_4/ex_1_4_14.mp4","arrowleft","response","ArrowLeft","14","1","4","test","true","",""
"","","","","","html-keyboard-response","125","308327","0.0-7.29-2.29","611117d79c57e6744e059bc4","657afcd119a11bb15c4315fb","657b01b39707045ed6696178","null","<p> <font color=""green"" size=""5vw""> Correct category! </font> <br> <br> <font color=""green"" size=""8vw""> + $0.1 </font> </p>","null","feedback","","","","","","","2.28","0.1"
"","","","","","html-keyboard-response","126","308921","0.0-7.30-0.30","611117d79c57e6744e059bc4","657afcd119a11bb15c4315fb","657b01b39707045ed6696178","593","
            
        <div style=""text-align: center; position: fixed; top: 5vh; left: 40vw;"">
            <div style=""margin:0 auto; width: 20vw; top: 8vh; font-size: 2vw""> 
            <font color=""green""> Bonus : $2.28 </font>
            </div>
        </div>
    
            <div> Please press any key to continue to the next movie.</div>
        ","arrowleft","ITI","","","","","","","",""
"","","","","","html-keyboard-response","127","312829","0.0-7.30-1.30","611117d79c57e6744e059bc4","657afcd119a11bb15c4315fb","657b01b39707045ed6696178","3907","./stimuli//pack_morph_shapes_1/cat_1/diff_5/ex_1_5_17.mp4","arrowleft","response","ArrowLeft","17","1","5","test","true","",""
"","","","","","html-keyboard-response","128","314334","0.0-7.30-2.30","611117d79c57e6744e059bc4","657afcd119a11bb15c4315fb","657b01b39707045ed6696178","null","<p> <font color=""green"" size=""5vw""> Correct category! </font> <br> <br> <font color=""green"" size=""8vw""> + $0.1 </font> </p>","null","feedback","","","","","","","2.38","0.1"
"","","","","","html-keyboard-response","129","314794","0.0-7.31-0.31","611117d79c57e6744e059bc4","657afcd119a11bb15c4315fb","657b01b39707045ed6696178","459","
            
        <div style=""text-align: center; position: fixed; top: 5vh; left: 40vw;"">
            <div style=""margin:0 auto; width: 20vw; top: 8vh; font-size: 2vw""> 
            <font color=""green""> Bonus : $2.38 </font>
            </div>
        </div>
    
            <div> Please press any key to continue to the next movie.</div>
        ","arrowleft","ITI","","","","","","","",""
"","","","","","html-keyboard-response","130","318753","0.0-7.31-1.31","611117d79c57e6744e059bc4","657afcd119a11bb15c4315fb","657b01b39707045ed6696178","3958","./stimuli//pack_morph_shapes_1/cat_2/diff_5/ex_2_5_2.mp4","arrowleft","response","ArrowRight","2","2","5","test","false","",""
"","","","","","html-keyboard-response","131","323755","0.0-7.31-2.31","611117d79c57e6744e059bc4","657afcd119a11bb15c4315fb","657b01b39707045ed6696178","null","<p> <font color=""red"" size=""5vw""> Wrong category! </font> <br> <br> <font color=""red"" size=""8vw""> - $0.05 </font> </p>","null","feedback","","","","","","","2.33","-0.05"
"","","","","","html-keyboard-response","132","324794","0.0-7.32-0.32","611117d79c57e6744e059bc4","657afcd119a11bb15c4315fb","657b01b39707045ed6696178","1038","
            
        <div style=""text-align: center; position: fixed; top: 5vh; left: 40vw;"">
            <div style=""margin:0 auto; width: 20vw; top: 8vh; font-size: 2vw""> 
            <font color=""green""> Bonus : $2.33 </font>
            </div>
        </div>
    
            <div> Please press any key to continue to the next movie.</div>
        ","arrowleft","ITI","","","","","","","",""
"","","","","","html-keyboard-response","133","328619","0.0-7.32-1.32","611117d79c57e6744e059bc4","657afcd119a11bb15c4315fb","657b01b39707045ed6696178","3825","./stimuli//pack_morph_shapes_1/cat_1/diff_5/ex_1_5_4.mp4","arrowleft","response","ArrowLeft","4","1","5","test","true","",""
"","","","","","html-keyboard-response","134","330125","0.0-7.32-2.32","611117d79c57e6744e059bc4","657afcd119a11bb15c4315fb","657b01b39707045ed6696178","null","<p> <font color=""green"" size=""5vw""> Correct category! </font> <br> <br> <font color=""green"" size=""8vw""> + $0.1 </font> </p>","null","feedback","","","","","","","2.43","0.1"
"","","","","","html-keyboard-response","135","330572","0.0-7.33-0.33","611117d79c57e6744e059bc4","657afcd119a11bb15c4315fb","657b01b39707045ed6696178","447","
            
        <div style=""text-align: center; position: fixed; top: 5vh; left: 40vw;"">
            <div style=""margin:0 auto; width: 20vw; top: 8vh; font-size: 2vw""> 
            <font color=""green""> Bonus : $2.43 </font>
            </div>
        </div>
    
            <div> Please press any key to continue to the next movie.</div>
        ","arrowleft","ITI","","","","","","","",""
"","","","","","html-keyboard-response","136","334351","0.0-7.33-1.33","611117d79c57e6744e059bc4","657afcd119a11bb15c4315fb","657b01b39707045ed6696178","3778","./stimuli//pack_morph_shapes_1/cat_2/diff_5/ex_2_5_15.mp4","arrowleft","response","ArrowRight","15","2","5","test","false","",""
"","","","","","html-keyboard-response","137","339365","0.0-7.33-2.33","611117d79c57e6744e059bc4","657afcd119a11bb15c4315fb","657b01b39707045ed6696178","null","<p> <font color=""red"" size=""5vw""> Wrong category! </font> <br> <br> <font color=""red"" size=""8vw""> - $0.05 </font> </p>","null","feedback","","","","","","","2.38","-0.05"
"","","","","","html-keyboard-response","138","340069","0.0-7.34-0.34","611117d79c57e6744e059bc4","657afcd119a11bb15c4315fb","657b01b39707045ed6696178","704","
            
        <div style=""text-align: center; position: fixed; top: 5vh; left: 40vw;"">
            <div style=""margin:0 auto; width: 20vw; top: 8vh; font-size: 2vw""> 
            <font color=""green""> Bonus : $2.38 </font>
            </div>
        </div>
    
            <div> Please press any key to continue to the next movie.</div>
        ","arrowright","ITI","","","","","","","",""
"","","","","","html-keyboard-response","139","341758","0.0-7.34-1.34","611117d79c57e6744e059bc4","657afcd119a11bb15c4315fb","657b01b39707045ed6696178","1688","./stimuli//pack_morph_shapes_1/cat_1/diff_5/ex_1_5_4.mp4","arrowleft","response","ArrowLeft","4","1","5","test","true","",""
"","","","","","html-keyboard-response","140","343262","0.0-7.34-2.34","611117d79c57e6744e059bc4","657afcd119a11bb15c4315fb","657b01b39707045ed6696178","null","<p> <font color=""green"" size=""5vw""> Correct category! </font> <br> <br> <font color=""green"" size=""8vw""> + $0.12 </font> </p>","null","feedback","","","","","","","2.5","0.12"
"","","","","","html-keyboard-response","141","343743","0.0-7.35-0.35","611117d79c57e6744e059bc4","657afcd119a11bb15c4315fb","657b01b39707045ed6696178","482","
            
        <div style=""text-align: center; position: fixed; top: 5vh; left: 40vw;"">
            <div style=""margin:0 auto; width: 20vw; top: 8vh; font-size: 2vw""> 
            <font color=""green""> Bonus : $2.5 </font>
            </div>
        </div>
    
            <div> Please press any key to continue to the next movie.</div>
        ","arrowleft","ITI","","","","","","","",""
"","","","","","html-keyboard-response","142","347709","0.0-7.35-1.35","611117d79c57e6744e059bc4","657afcd119a11bb15c4315fb","657b01b39707045ed6696178","3965","./stimuli//pack_morph_shapes_1/cat_1/diff_4/ex_1_4_4.mp4","arrowleft","response","ArrowLeft","4","1","4","test","true","",""
"","","","","","html-keyboard-response","143","349217","0.0-7.35-2.35","611117d79c57e6744e059bc4","657afcd119a11bb15c4315fb","657b01b39707045ed6696178","null","<p> <font color=""green"" size=""5vw""> Correct category! </font> <br> <br> <font color=""green"" size=""8vw""> + $0.1 </font> </p>","null","feedback","","","","","","","2.6","0.1"
"","","","","","html-keyboard-response","144","350421","0.0-7.36-0.36","611117d79c57e6744e059bc4","657afcd119a11bb15c4315fb","657b01b39707045ed6696178","1203","
            
        <div style=""text-align: center; position: fixed; top: 5vh; left: 40vw;"">
            <div style=""margin:0 auto; width: 20vw; top: 8vh; font-size: 2vw""> 
            <font color=""green""> Bonus : $2.6 </font>
            </div>
        </div>
    
            <div> Please press any key to continue to the next movie.</div>
        ","arrowleft","ITI","","","","","","","",""
"","","","","","html-keyboard-response","145","353832","0.0-7.36-1.36","611117d79c57e6744e059bc4","657afcd119a11bb15c4315fb","657b01b39707045ed6696178","3409","./stimuli//pack_morph_shapes_1/cat_1/diff_4/ex_1_4_15.mp4","arrowright","response","ArrowLeft","15","1","4","test","false","",""
"","","","","","html-keyboard-response","146","358842","0.0-7.36-2.36","611117d79c57e6744e059bc4","657afcd119a11bb15c4315fb","657b01b39707045ed6696178","null","<p> <font color=""red"" size=""5vw""> Wrong category! </font> <br> <br> <font color=""red"" size=""8vw""> - $0.05 </font> </p>","null","feedback","","","","","","","2.55","-0.05"
"","","","","","html-keyboard-response","147","359430","0.0-7.37-0.37","611117d79c57e6744e059bc4","657afcd119a11bb15c4315fb","657b01b39707045ed6696178","587","
            
        <div style=""text-align: center; position: fixed; top: 5vh; left: 40vw;"">
            <div style=""margin:0 auto; width: 20vw; top: 8vh; font-size: 2vw""> 
            <font color=""green""> Bonus : $2.55 </font>
            </div>
        </div>
    
            <div> Please press any key to continue to the next movie.</div>
        ","arrowleft","ITI","","","","","","","",""
"","","","","","html-keyboard-response","148","363946","0.0-7.37-1.37","611117d79c57e6744e059bc4","657afcd119a11bb15c4315fb","657b01b39707045ed6696178","4516","./stimuli//pack_morph_shapes_1/cat_2/diff_4/ex_2_4_13.mp4","arrowleft","response","ArrowRight","13","2","4","test","false","",""
"","","","","","html-keyboard-response","149","368959","0.0-7.37-2.37","611117d79c57e6744e059bc4","657afcd119a11bb15c4315fb","657b01b39707045ed6696178","null","<p> <font color=""red"" size=""5vw""> Wrong category! </font> <br> <br> <font color=""red"" size=""8vw""> - $0.05 </font> </p>","null","feedback","","","","","","","2.5","-0.05"
"","","","","","html-keyboard-response","150","370076","0.0-7.38-0.38","611117d79c57e6744e059bc4","657afcd119a11bb15c4315fb","657b01b39707045ed6696178","1117","
            
        <div style=""text-align: center; position: fixed; top: 5vh; left: 40vw;"">
            <div style=""margin:0 auto; width: 20vw; top: 8vh; font-size: 2vw""> 
            <font color=""green""> Bonus : $2.5 </font>
            </div>
        </div>
    
            <div> Please press any key to continue to the next movie.</div>
        ","arrowright","ITI","","","","","","","",""
"","","","","","html-keyboard-response","151","373449","0.0-7.38-1.38","611117d79c57e6744e059bc4","657afcd119a11bb15c4315fb","657b01b39707045ed6696178","3372","./stimuli//pack_morph_shapes_1/cat_1/diff_4/ex_1_4_2.mp4","arrowleft","response","ArrowLeft","2","1","4","test","true","",""
"","","","","","html-keyboard-response","152","374965","0.0-7.38-2.38","611117d79c57e6744e059bc4","657afcd119a11bb15c4315fb","657b01b39707045ed6696178","null","<p> <font color=""green"" size=""5vw""> Correct category! </font> <br> <br> <font color=""green"" size=""8vw""> + $0.15 </font> </p>","null","feedback","","","","","","","2.65","0.15"
"","","","","","html-keyboard-response","153","375967","0.0-7.39-0.39","611117d79c57e6744e059bc4","657afcd119a11bb15c4315fb","657b01b39707045ed6696178","1002","
            
        <div style=""text-align: center; position: fixed; top: 5vh; left: 40vw;"">
            <div style=""margin:0 auto; width: 20vw; top: 8vh; font-size: 2vw""> 
            <font color=""green""> Bonus : $2.65 </font>
            </div>
        </div>
    
            <div> Please press any key to continue to the next movie.</div>
        ","arrowleft","ITI","","","","","","","",""
"","","","","","html-keyboard-response","154","380044","0.0-7.39-1.39","611117d79c57e6744e059bc4","657afcd119a11bb15c4315fb","657b01b39707045ed6696178","4075","./stimuli//pack_morph_shapes_1/cat_2/diff_4/ex_2_4_6.mp4","arrowright","response","ArrowRight","6","2","4","test","true","",""
"","","","","","html-keyboard-response","155","381559","0.0-7.39-2.39","611117d79c57e6744e059bc4","657afcd119a11bb15c4315fb","657b01b39707045ed6696178","null","<p> <font color=""green"" size=""5vw""> Correct category! </font> <br> <br> <font color=""green"" size=""8vw""> + $0.14 </font> </p>","null","feedback","","","","","","","2.79","0.14"
"","","","","","html-keyboard-response","156","382321","0.0-7.40-0.40","611117d79c57e6744e059bc4","657afcd119a11bb15c4315fb","657b01b39707045ed6696178","762","
            
        <div style=""text-align: center; position: fixed; top: 5vh; left: 40vw;"">
            <div style=""margin:0 auto; width: 20vw; top: 8vh; font-size: 2vw""> 
            <font color=""green""> Bonus : $2.79 </font>
            </div>
        </div>
    
            <div> Please press any key to continue to the next movie.</div>
        ","arrowleft","ITI","","","","","","","",""
"","","","","","html-keyboard-response","157","386109","0.0-7.40-1.40","611117d79c57e6744e059bc4","657afcd119a11bb15c4315fb","657b01b39707045ed6696178","3786","./stimuli//pack_morph_shapes_1/cat_1/diff_3/ex_1_3_13.mp4","arrowleft","response","ArrowLeft","13","1","3","test","true","",""
"","","","","","html-keyboard-response","158","387610","0.0-7.40-2.40","611117d79c57e6744e059bc4","657afcd119a11bb15c4315fb","657b01b39707045ed6696178","null","<p> <font color=""green"" size=""5vw""> Correct category! </font> <br> <br> <font color=""green"" size=""8vw""> + $0.15 </font> </p>","null","feedback","","","","","","","2.94","0.15"
"","","","","","html-keyboard-response","159","388210","0.0-7.41-0.41","611117d79c57e6744e059bc4","657afcd119a11bb15c4315fb","657b01b39707045ed6696178","600","
            
        <div style=""text-align: center; position: fixed; top: 5vh; left: 40vw;"">
            <div style=""margin:0 auto; width: 20vw; top: 8vh; font-size: 2vw""> 
            <font color=""green""> Bonus : $2.94 </font>
            </div>
        </div>
    
            <div> Please press any key to continue to the next movie.</div>
        ","arrowleft","ITI","","","","","","","",""
"","","","","","html-keyboard-response","160","391996","0.0-7.41-1.41","611117d79c57e6744e059bc4","657afcd119a11bb15c4315fb","657b01b39707045ed6696178","3785","./stimuli//pack_morph_shapes_1/cat_1/diff_3/ex_1_3_12.mp4","arrowleft","response","ArrowLeft","12","1","3","test","true","",""
"","","","","","html-keyboard-response","161","393499","0.0-7.41-2.41","611117d79c57e6744e059bc4","657afcd119a11bb15c4315fb","657b01b39707045ed6696178","null","<p> <font color=""green"" size=""5vw""> Correct category! </font> <br> <br> <font color=""green"" size=""8vw""> + $0.15 </font> </p>","null","feedback","","","","","","","3.09","0.15"
"","","","","","html-keyboard-response","162","394115","0.0-7.42-0.42","611117d79c57e6744e059bc4","657afcd119a11bb15c4315fb","657b01b39707045ed6696178","615","
            
        <div style=""text-align: center; position: fixed; top: 5vh; left: 40vw;"">
            <div style=""margin:0 auto; width: 20vw; top: 8vh; font-size: 2vw""> 
            <font color=""green""> Bonus : $3.09 </font>
            </div>
        </div>
    
            <div> Please press any key to continue to the next movie.</div>
        ","arrowleft","ITI","","","","","","","",""
"","","","","","html-keyboard-response","163","398085","0.0-7.42-1.42","611117d79c57e6744e059bc4","657afcd119a11bb15c4315fb","657b01b39707045ed6696178","3969","./stimuli//pack_morph_shapes_1/cat_1/diff_3/ex_1_3_11.mp4","arrowleft","response","ArrowLeft","11","1","3","test","true","",""
"","","","","","html-keyboard-response","164","399587","0.0-7.42-2.42","611117d79c57e6744e059bc4","657afcd119a11bb15c4315fb","657b01b39707045ed6696178","null","<p> <font color=""green"" size=""5vw""> Correct category! </font> <br> <br> <font color=""green"" size=""8vw""> + $0.15 </font> </p>","null","feedback","","","","","","","3.24","0.15"
"","","","","","html-keyboard-response","165","400152","0.0-7.43-0.43","611117d79c57e6744e059bc4","657afcd119a11bb15c4315fb","657b01b39707045ed6696178","564","
            
        <div style=""text-align: center; position: fixed; top: 5vh; left: 40vw;"">
            <div style=""margin:0 auto; width: 20vw; top: 8vh; font-size: 2vw""> 
            <font color=""green""> Bonus : $3.24 </font>
            </div>
        </div>
    
            <div> Please press any key to continue to the next movie.</div>
        ","arrowleft","ITI","","","","","","","",""
"","","","","","html-keyboard-response","166","401567","0.0-7.43-1.43","611117d79c57e6744e059bc4","657afcd119a11bb15c4315fb","657b01b39707045ed6696178","1414","./stimuli//pack_morph_shapes_1/cat_1/diff_3/ex_1_3_12.mp4","arrowleft","response","ArrowLeft","12","1","3","test","true","",""
"","","","","","html-keyboard-response","167","403078","0.0-7.43-2.43","611117d79c57e6744e059bc4","657afcd119a11bb15c4315fb","657b01b39707045ed6696178","null","<p> <font color=""green"" size=""5vw""> Correct category! </font> <br> <br> <font color=""green"" size=""8vw""> + $0.18 </font> </p>","null","feedback","","","","","","","3.42","0.18"
"","","","","","html-keyboard-response","168","403599","0.0-7.44-0.44","611117d79c57e6744e059bc4","657afcd119a11bb15c4315fb","657b01b39707045ed6696178","520","
            
        <div style=""text-align: center; position: fixed; top: 5vh; left: 40vw;"">
            <div style=""margin:0 auto; width: 20vw; top: 8vh; font-size: 2vw""> 
            <font color=""green""> Bonus : $3.42 </font>
            </div>
        </div>
    
            <div> Please press any key to continue to the next movie.</div>
        ","arrowleft","ITI","","","","","","","",""
"","","","","","html-keyboard-response","169","406883","0.0-7.44-1.44","611117d79c57e6744e059bc4","657afcd119a11bb15c4315fb","657b01b39707045ed6696178","3282","./stimuli//pack_morph_shapes_1/cat_1/diff_3/ex_1_3_14.mp4","arrowleft","response","ArrowLeft","14","1","3","test","true","",""
"","","","","","html-keyboard-response","170","408388","0.0-7.44-2.44","611117d79c57e6744e059bc4","657afcd119a11bb15c4315fb","657b01b39707045ed6696178","null","<p> <font color=""green"" size=""5vw""> Correct category! </font> <br> <br> <font color=""green"" size=""8vw""> + $0.15 </font> </p>","null","feedback","","","","","","","3.57","0.15"
"","","","","","html-keyboard-response","171","408888","0.0-7.45-0.45","611117d79c57e6744e059bc4","657afcd119a11bb15c4315fb","657b01b39707045ed6696178","500","
            
        <div style=""text-align: center; position: fixed; top: 5vh; left: 40vw;"">
            <div style=""margin:0 auto; width: 20vw; top: 8vh; font-size: 2vw""> 
            <font color=""green""> Bonus : $3.57 </font>
            </div>
        </div>
    
            <div> Please press any key to continue to the next movie.</div>
        ","arrowleft","ITI","","","","","","","",""
"","","","","","html-keyboard-response","172","412293","0.0-7.45-1.45","611117d79c57e6744e059bc4","657afcd119a11bb15c4315fb","657b01b39707045ed6696178","3403","./stimuli//pack_morph_shapes_1/cat_1/diff_4/ex_1_4_2.mp4","arrowleft","response","ArrowLeft","2","1","4","test","true","",""
"","","","","","html-keyboard-response","173","413806","0.0-7.45-2.45","611117d79c57e6744e059bc4","657afcd119a11bb15c4315fb","657b01b39707045ed6696178","null","<p> <font color=""green"" size=""5vw""> Correct category! </font> <br> <br> <font color=""green"" size=""8vw""> + $0.15 </font> </p>","null","feedback","","","","","","","3.72","0.15"
"","","","","","html-keyboard-response","174","414248","0.0-7.46-0.46","611117d79c57e6744e059bc4","657afcd119a11bb15c4315fb","657b01b39707045ed6696178","441","
            
        <div style=""text-align: center; position: fixed; top: 5vh; left: 40vw;"">
            <div style=""margin:0 auto; width: 20vw; top: 8vh; font-size: 2vw""> 
            <font color=""green""> Bonus : $3.72 </font>
            </div>
        </div>
    
            <div> Please press any key to continue to the next movie.</div>
        ","arrowleft","ITI","","","","","","","",""
"","","","","","html-keyboard-response","175","417983","0.0-7.46-1.46","611117d79c57e6744e059bc4","657afcd119a11bb15c4315fb","657b01b39707045ed6696178","3734","./stimuli//pack_morph_shapes_1/cat_2/diff_4/ex_2_4_17.mp4","arrowright","response","ArrowRight","17","2","4","test","true","",""
"","","","","","html-keyboard-response","176","419499","0.0-7.46-2.46","611117d79c57e6744e059bc4","657afcd119a11bb15c4315fb","657b01b39707045ed6696178","null","<p> <font color=""green"" size=""5vw""> Correct category! </font> <br> <br> <font color=""green"" size=""8vw""> + $0.15 </font> </p>","null","feedback","","","","","","","3.87","0.15"
"","","","","","html-keyboard-response","177","419947","0.0-7.47-0.47","611117d79c57e6744e059bc4","657afcd119a11bb15c4315fb","657b01b39707045ed6696178","447","
            
        <div style=""text-align: center; position: fixed; top: 5vh; left: 40vw;"">
            <div style=""margin:0 auto; width: 20vw; top: 8vh; font-size: 2vw""> 
            <font color=""green""> Bonus : $3.87 </font>
            </div>
        </div>
    
            <div> Please press any key to continue to the next movie.</div>
        ","arrowleft","ITI","","","","","","","",""
"","","","","","html-keyboard-response","178","423993","0.0-7.47-1.47","611117d79c57e6744e059bc4","657afcd119a11bb15c4315fb","657b01b39707045ed6696178","4045","./stimuli//pack_morph_shapes_1/cat_2/diff_4/ex_2_4_1.mp4","arrowright","response","ArrowRight","1","2","4","test","true","",""
"","","","","","html-keyboard-response","179","425506","0.0-7.47-2.47","611117d79c57e6744e059bc4","657afcd119a11bb15c4315fb","657b01b39707045ed6696178","null","<p> <font color=""green"" size=""5vw""> Correct category! </font> <br> <br> <font color=""green"" size=""8vw""> + $0.14 </font> </p>","null","feedback","","","","","","","4.01","0.14"
"","","","","","html-keyboard-response","180","425923","0.0-7.48-0.48","611117d79c57e6744e059bc4","657afcd119a11bb15c4315fb","657b01b39707045ed6696178","417","
            
        <div style=""text-align: center; position: fixed; top: 5vh; left: 40vw;"">
            <div style=""margin:0 auto; width: 20vw; top: 8vh; font-size: 2vw""> 
            <font color=""green""> Bonus : $4.01 </font>
            </div>
        </div>
    
            <div> Please press any key to continue to the next movie.</div>
        ","arrowleft","ITI","","","","","","","",""
"","","","","","html-keyboard-response","181","430015","0.0-7.48-1.48","611117d79c57e6744e059bc4","657afcd119a11bb15c4315fb","657b01b39707045ed6696178","4090","./stimuli//pack_morph_shapes_1/cat_1/diff_4/ex_1_4_9.mp4","arrowright","response","ArrowLeft","9","1","4","test","false","",""
"","","","","","html-keyboard-response","182","435016","0.0-7.48-2.48","611117d79c57e6744e059bc4","657afcd119a11bb15c4315fb","657b01b39707045ed6696178","null","<p> <font color=""red"" size=""5vw""> Wrong category! </font> <br> <br> <font color=""red"" size=""8vw""> - $0.05 </font> </p>","null","feedback","","","","","","","3.96","-0.05"
"","","","","","html-keyboard-response","183","435949","0.0-7.49-0.49","611117d79c57e6744e059bc4","657afcd119a11bb15c4315fb","657b01b39707045ed6696178","933","
            
        <div style=""text-align: center; position: fixed; top: 5vh; left: 40vw;"">
            <div style=""margin:0 auto; width: 20vw; top: 8vh; font-size: 2vw""> 
            <font color=""green""> Bonus : $3.96 </font>
            </div>
        </div>
    
            <div> Please press any key to continue to the next movie.</div>
        ","arrowleft","ITI","","","","","","","",""
"","","","","","html-keyboard-response","184","439400","0.0-7.49-1.49","611117d79c57e6744e059bc4","657afcd119a11bb15c4315fb","657b01b39707045ed6696178","3450","./stimuli//pack_morph_shapes_1/cat_1/diff_4/ex_1_4_17.mp4","arrowleft","response","ArrowLeft","17","1","4","test","true","",""
"","","","","","html-keyboard-response","185","440913","0.0-7.49-2.49","611117d79c57e6744e059bc4","657afcd119a11bb15c4315fb","657b01b39707045ed6696178","null","<p> <font color=""green"" size=""5vw""> Correct category! </font> <br> <br> <font color=""green"" size=""8vw""> + $0.15 </font> </p>","null","feedback","","","","","","","4.11","0.15"
"","","","","","html-keyboard-response","186","441549","0.0-7.50-0.50","611117d79c57e6744e059bc4","657afcd119a11bb15c4315fb","657b01b39707045ed6696178","635","
            
        <div style=""text-align: center; position: fixed; top: 5vh; left: 40vw;"">
            <div style=""margin:0 auto; width: 20vw; top: 8vh; font-size: 2vw""> 
            <font color=""green""> Bonus : $4.11 </font>
            </div>
        </div>
    
            <div> Please press any key to continue to the next movie.</div>
        ","arrowleft","ITI","","","","","","","",""
"","","","","","html-keyboard-response","187","445907","0.0-7.50-1.50","611117d79c57e6744e059bc4","657afcd119a11bb15c4315fb","657b01b39707045ed6696178","4357","./stimuli//pack_morph_shapes_1/cat_2/diff_5/ex_2_5_7.mp4","arrowright","response","ArrowRight","7","2","5","test","true","",""
"","","","","","html-keyboard-response","188","447421","0.0-7.50-2.50","611117d79c57e6744e059bc4","657afcd119a11bb15c4315fb","657b01b39707045ed6696178","null","<p> <font color=""green"" size=""5vw""> Correct category! </font> <br> <br> <font color=""green"" size=""8vw""> + $0.14 </font> </p>","null","feedback","","","","","","","4.25","0.14"
"","","","","","html-keyboard-response","189","447873","0.0-7.51-0.51","611117d79c57e6744e059bc4","657afcd119a11bb15c4315fb","657b01b39707045ed6696178","451","
            
        <div style=""text-align: center; position: fixed; top: 5vh; left: 40vw;"">
            <div style=""margin:0 auto; width: 20vw; top: 8vh; font-size: 2vw""> 
            <font color=""green""> Bonus : $4.25 </font>
            </div>
        </div>
    
            <div> Please press any key to continue to the next movie.</div>
        ","arrowleft","ITI","","","","","","","",""
"","","","","","html-keyboard-response","190","452507","0.0-7.51-1.51","611117d79c57e6744e059bc4","657afcd119a11bb15c4315fb","657b01b39707045ed6696178","4633","./stimuli//pack_morph_shapes_1/cat_2/diff_5/ex_2_5_17.mp4","arrowright","response","ArrowRight","17","2","5","test","true","",""
"","","","","","html-keyboard-response","191","454013","0.0-7.51-2.51","611117d79c57e6744e059bc4","657afcd119a11bb15c4315fb","657b01b39707045ed6696178","null","<p> <font color=""green"" size=""5vw""> Correct category! </font> <br> <br> <font color=""green"" size=""8vw""> + $0.14 </font> </p>","null","feedback","","","","","","","4.39","0.14"
"","","","","","html-keyboard-response","192","454537","0.0-7.52-0.52","611117d79c57e6744e059bc4","657afcd119a11bb15c4315fb","657b01b39707045ed6696178","523","
            
        <div style=""text-align: center; position: fixed; top: 5vh; left: 40vw;"">
            <div style=""margin:0 auto; width: 20vw; top: 8vh; font-size: 2vw""> 
            <font color=""green""> Bonus : $4.39 </font>
            </div>
        </div>
    
            <div> Please press any key to continue to the next movie.</div>
        ","arrowright","ITI","","","","","","","",""
"","","","","","html-keyboard-response","193","458721","0.0-7.52-1.52","611117d79c57e6744e059bc4","657afcd119a11bb15c4315fb","657b01b39707045ed6696178","4183","./stimuli//pack_morph_shapes_1/cat_1/diff_5/ex_1_5_1.mp4","arrowleft","response","ArrowLeft","1","1","5","test","true","",""
"","","","","","html-keyboard-response","194","460236","0.0-7.52-2.52","611117d79c57e6744e059bc4","657afcd119a11bb15c4315fb","657b01b39707045ed6696178","null","<p> <font color=""green"" size=""5vw""> Correct category! </font> <br> <br> <font color=""green"" size=""8vw""> + $0.14 </font> </p>","null","feedback","","","","","","","4.53","0.14"
"","","","","","html-keyboard-response","195","460701","0.0-7.53-0.53","611117d79c57e6744e059bc4","657afcd119a11bb15c4315fb","657b01b39707045ed6696178","463","
            
        <div style=""text-align: center; position: fixed; top: 5vh; left: 40vw;"">
            <div style=""margin:0 auto; width: 20vw; top: 8vh; font-size: 2vw""> 
            <font color=""green""> Bonus : $4.53 </font>
            </div>
        </div>
    
            <div> Please press any key to continue to the next movie.</div>
        ","arrowleft","ITI","","","","","","","",""
"","","","","","html-keyboard-response","196","464794","0.0-7.53-1.53","611117d79c57e6744e059bc4","657afcd119a11bb15c4315fb","657b01b39707045ed6696178","4092","./stimuli//pack_morph_shapes_1/cat_2/diff_5/ex_2_5_10.mp4","arrowright","response","ArrowRight","10","2","5","test","true","",""
"","","","","","html-keyboard-response","197","466297","0.0-7.53-2.53","611117d79c57e6744e059bc4","657afcd119a11bb15c4315fb","657b01b39707045ed6696178","null","<p> <font color=""green"" size=""5vw""> Correct category! </font> <br> <br> <font color=""green"" size=""8vw""> + $0.14 </font> </p>","null","feedback","","","","","","","4.67","0.14"
"","","","","","html-keyboard-response","198","467012","0.0-7.54-0.54","611117d79c57e6744e059bc4","657afcd119a11bb15c4315fb","657b01b39707045ed6696178","713","
            
        <div style=""text-align: center; position: fixed; top: 5vh; left: 40vw;"">
            <div style=""margin:0 auto; width: 20vw; top: 8vh; font-size: 2vw""> 
            <font color=""green""> Bonus : $4.67 </font>
            </div>
        </div>
    
            <div> Please press any key to continue to the next movie.</div>
        ","arrowleft","ITI","","","","","","","",""
"","","","","","html-keyboard-response","199","470904","0.0-7.54-1.54","611117d79c57e6744e059bc4","657afcd119a11bb15c4315fb","657b01b39707045ed6696178","3892","./stimuli//pack_morph_shapes_1/cat_1/diff_5/ex_1_5_6.mp4","arrowleft","response","ArrowLeft","6","1","5","test","true","",""
"","","","","","html-keyboard-response","200","472416","0.0-7.54-2.54","611117d79c57e6744e059bc4","657afcd119a11bb15c4315fb","657b01b39707045ed6696178","null","<p> <font color=""green"" size=""5vw""> Correct category! </font> <br> <br> <font color=""green"" size=""8vw""> + $0.15 </font> </p>","null","feedback","","","","","","","4.82","0.15"
"","","","","","html-keyboard-response","201","472920","0.0-7.55-0.55","611117d79c57e6744e059bc4","657afcd119a11bb15c4315fb","657b01b39707045ed6696178","502","
            
        <div style=""text-align: center; position: fixed; top: 5vh; left: 40vw;"">
            <div style=""margin:0 auto; width: 20vw; top: 8vh; font-size: 2vw""> 
            <font color=""green""> Bonus : $4.82 </font>
            </div>
        </div>
    
            <div> Please press any key to continue to the next movie.</div>
        ","arrowleft","ITI","","","","","","","",""
"","","","","","html-keyboard-response","202","476320","0.0-7.55-1.55","611117d79c57e6744e059bc4","657afcd119a11bb15c4315fb","657b01b39707045ed6696178","3399","./stimuli//pack_morph_shapes_1/cat_2/diff_5/ex_2_5_17.mp4","arrowleft","response","ArrowRight","17","2","5","test","false","",""
"","","","","","html-keyboard-response","203","481328","0.0-7.55-2.55","611117d79c57e6744e059bc4","657afcd119a11bb15c4315fb","657b01b39707045ed6696178","null","<p> <font color=""red"" size=""5vw""> Wrong category! </font> <br> <br> <font color=""red"" size=""8vw""> - $0.05 </font> </p>","null","feedback","","","","","","","4.77","-0.05"
"","","","","","html-keyboard-response","204","482025","0.0-7.56-0.56","611117d79c57e6744e059bc4","657afcd119a11bb15c4315fb","657b01b39707045ed6696178","697","
            
        <div style=""text-align: center; position: fixed; top: 5vh; left: 40vw;"">
            <div style=""margin:0 auto; width: 20vw; top: 8vh; font-size: 2vw""> 
            <font color=""green""> Bonus : $4.77 </font>
            </div>
        </div>
    
            <div> Please press any key to continue to the next movie.</div>
        ","arrowleft","ITI","","","","","","","",""
"","","","","","html-keyboard-response","205","485256","0.0-7.56-1.56","611117d79c57e6744e059bc4","657afcd119a11bb15c4315fb","657b01b39707045ed6696178","3229","./stimuli//pack_morph_shapes_1/cat_2/diff_5/ex_2_5_15.mp4","arrowright","response","ArrowRight","15","2","5","test","true","",""
"","","","","","html-keyboard-response","206","486760","0.0-7.56-2.56","611117d79c57e6744e059bc4","657afcd119a11bb15c4315fb","657b01b39707045ed6696178","null","<p> <font color=""green"" size=""5vw""> Correct category! </font> <br> <br> <font color=""green"" size=""8vw""> + $0.15 </font> </p>","null","feedback","","","","","","","4.92","0.15"
"","","","","","html-keyboard-response","207","487218","0.0-7.57-0.57","611117d79c57e6744e059bc4","657afcd119a11bb15c4315fb","657b01b39707045ed6696178","459","
            
        <div style=""text-align: center; position: fixed; top: 5vh; left: 40vw;"">
            <div style=""margin:0 auto; width: 20vw; top: 8vh; font-size: 2vw""> 
            <font color=""green""> Bonus : $4.92 </font>
            </div>
        </div>
    
            <div> Please press any key to continue to the next movie.</div>
        ","arrowleft","ITI","","","","","","","",""
"","","","","","html-keyboard-response","208","488534","0.0-7.57-1.57","611117d79c57e6744e059bc4","657afcd119a11bb15c4315fb","657b01b39707045ed6696178","1315","./stimuli//pack_morph_shapes_1/cat_2/diff_5/ex_2_5_17.mp4","arrowright","response","ArrowRight","17","2","5","test","true","",""
"","","","","","html-keyboard-response","209","490036","0.0-7.57-2.57","611117d79c57e6744e059bc4","657afcd119a11bb15c4315fb","657b01b39707045ed6696178","null","<p> <font color=""green"" size=""5vw""> Correct category! </font> <br> <br> <font color=""green"" size=""8vw""> + $0.18 </font> </p>","null","feedback","","","","","","","5.1","0.18"
"","","","","","html-keyboard-response","210","490579","0.0-7.58-0.58","611117d79c57e6744e059bc4","657afcd119a11bb15c4315fb","657b01b39707045ed6696178","543","
            
        <div style=""text-align: center; position: fixed; top: 5vh; left: 40vw;"">
            <div style=""margin:0 auto; width: 20vw; top: 8vh; font-size: 2vw""> 
            <font color=""green""> Bonus : $5.1 </font>
            </div>
        </div>
    
            <div> Please press any key to continue to the next movie.</div>
        ","arrowleft","ITI","","","","","","","",""
"","","","","","html-keyboard-response","211","494215","0.0-7.58-1.58","611117d79c57e6744e059bc4","657afcd119a11bb15c4315fb","657b01b39707045ed6696178","3635","./stimuli//pack_morph_shapes_1/cat_2/diff_5/ex_2_5_9.mp4","arrowright","response","ArrowRight","9","2","5","test","true","",""
"","","","","","html-keyboard-response","212","495725","0.0-7.58-2.58","611117d79c57e6744e059bc4","657afcd119a11bb15c4315fb","657b01b39707045ed6696178","null","<p> <font color=""green"" size=""5vw""> Correct category! </font> <br> <br> <font color=""green"" size=""8vw""> + $0.15 </font> </p>","null","feedback","","","","","","","5.25","0.15"
"","","","","","html-keyboard-response","213","496251","0.0-7.59-0.59","611117d79c57e6744e059bc4","657afcd119a11bb15c4315fb","657b01b39707045ed6696178","526","
            
        <div style=""text-align: center; position: fixed; top: 5vh; left: 40vw;"">
            <div style=""margin:0 auto; width: 20vw; top: 8vh; font-size: 2vw""> 
            <font color=""green""> Bonus : $5.25 </font>
            </div>
        </div>
    
            <div> Please press any key to continue to the next movie.</div>
        ","arrowright","ITI","","","","","","","",""
"","","","","","html-keyboard-response","214","499851","0.0-7.59-1.59","611117d79c57e6744e059bc4","657afcd119a11bb15c4315fb","657b01b39707045ed6696178","3598","./stimuli//pack_morph_shapes_1/cat_1/diff_5/ex_1_5_15.mp4","arrowright","response","ArrowLeft","15","1","5","test","false","",""
"","","","","","html-keyboard-response","215","504862","0.0-7.59-2.59","611117d79c57e6744e059bc4","657afcd119a11bb15c4315fb","657b01b39707045ed6696178","null","<p> <font color=""red"" size=""5vw""> Wrong category! </font> <br> <br> <font color=""red"" size=""8vw""> - $0.05 </font> </p>","null","feedback","","","","","","","5.2","-0.05"
"","","","","","html-keyboard-response","216","505335","0.0-7.60-0.60","611117d79c57e6744e059bc4","657afcd119a11bb15c4315fb","657b01b39707045ed6696178","473","
            
        <div style=""text-align: center; position: fixed; top: 5vh; left: 40vw;"">
            <div style=""margin:0 auto; width: 20vw; top: 8vh; font-size: 2vw""> 
            <font color=""green""> Bonus : $5.2 </font>
            </div>
        </div>
    
            <div> Please press any key to continue to the next movie.</div>
        ","arrowleft","ITI","","","","","","","",""
"","","","","","html-keyboard-response","217","509238","0.0-7.60-1.60","611117d79c57e6744e059bc4","657afcd119a11bb15c4315fb","657b01b39707045ed6696178","3901","./stimuli//pack_morph_shapes_1/cat_1/diff_4/ex_1_4_10.mp4","arrowleft","response","ArrowLeft","10","1","4","test","true","",""
"","","","","","html-keyboard-response","218","510751","0.0-7.60-2.60","611117d79c57e6744e059bc4","657afcd119a11bb15c4315fb","657b01b39707045ed6696178","null","<p> <font color=""green"" size=""5vw""> Correct category! </font> <br> <br> <font color=""green"" size=""8vw""> + $0.15 </font> </p>","null","feedback","","","","","","","5.35","0.15"
"","","","","","html-keyboard-response","219","511625","0.0-7.61-0.61","611117d79c57e6744e059bc4","657afcd119a11bb15c4315fb","657b01b39707045ed6696178","873","
            
        <div style=""text-align: center; position: fixed; top: 5vh; left: 40vw;"">
            <div style=""margin:0 auto; width: 20vw; top: 8vh; font-size: 2vw""> 
            <font color=""green""> Bonus : $5.35 </font>
            </div>
        </div>
    
            <div> Please press any key to continue to the next movie.</div>
        ","arrowleft","ITI","","","","","","","",""
"","","","","","html-keyboard-response","220","515317","0.0-7.61-1.61","611117d79c57e6744e059bc4","657afcd119a11bb15c4315fb","657b01b39707045ed6696178","3691","./stimuli//pack_morph_shapes_1/cat_1/diff_4/ex_1_4_7.mp4","arrowleft","response","ArrowLeft","7","1","4","test","true","",""
"","","","","","html-keyboard-response","221","516819","0.0-7.61-2.61","611117d79c57e6744e059bc4","657afcd119a11bb15c4315fb","657b01b39707045ed6696178","null","<p> <font color=""green"" size=""5vw""> Correct category! </font> <br> <br> <font color=""green"" size=""8vw""> + $0.15 </font> </p>","null","feedback","","","","","","","5.5","0.15"
"","","","","","html-keyboard-response","222","517283","0.0-7.62-0.62","611117d79c57e6744e059bc4","657afcd119a11bb15c4315fb","657b01b39707045ed6696178","464","
            
        <div style=""text-align: center; position: fixed; top: 5vh; left: 40vw;"">
            <div style=""margin:0 auto; width: 20vw; top: 8vh; font-size: 2vw""> 
            <font color=""green""> Bonus : $5.5 </font>
            </div>
        </div>
    
            <div> Please press any key to continue to the next movie.</div>
        ","arrowleft","ITI","","","","","","","",""
"","","","","","html-keyboard-response","223","518696","0.0-7.62-1.62","611117d79c57e6744e059bc4","657afcd119a11bb15c4315fb","657b01b39707045ed6696178","1411","./stimuli//pack_morph_shapes_1/cat_1/diff_4/ex_1_4_10.mp4","arrowright","response","ArrowLeft","10","1","4","test","false","",""
"","","","","","html-keyboard-response","224","523705","0.0-7.62-2.62","611117d79c57e6744e059bc4","657afcd119a11bb15c4315fb","657b01b39707045ed6696178","null","<p> <font color=""red"" size=""5vw""> Wrong category! </font> <br> <br> <font color=""red"" size=""8vw""> - $0.05 </font> </p>","null","feedback","","","","","","","5.45","-0.05"
"","","","","","html-keyboard-response","225","524048","0.0-7.63-0.63","611117d79c57e6744e059bc4","657afcd119a11bb15c4315fb","657b01b39707045ed6696178","342","
            
        <div style=""text-align: center; position: fixed; top: 5vh; left: 40vw;"">
            <div style=""margin:0 auto; width: 20vw; top: 8vh; font-size: 2vw""> 
            <font color=""green""> Bonus : $5.45 </font>
            </div>
        </div>
    
            <div> Please press any key to continue to the next movie.</div>
        ","arrowleft","ITI","","","","","","","",""
"","","","","","html-keyboard-response","226","527970","0.0-7.63-1.63","611117d79c57e6744e059bc4","657afcd119a11bb15c4315fb","657b01b39707045ed6696178","3922","./stimuli//pack_morph_shapes_1/cat_2/diff_4/ex_2_4_9.mp4","arrowright","response","ArrowRight","9","2","4","test","true","",""
"","","","","","html-keyboard-response","227","529473","0.0-7.63-2.63","611117d79c57e6744e059bc4","657afcd119a11bb15c4315fb","657b01b39707045ed6696178","null","<p> <font color=""green"" size=""5vw""> Correct category! </font> <br> <br> <font color=""green"" size=""8vw""> + $0.15 </font> </p>","null","feedback","","","","","","","5.6","0.15"
"","","","","","html-keyboard-response","228","529989","0.0-7.64-0.64","611117d79c57e6744e059bc4","657afcd119a11bb15c4315fb","657b01b39707045ed6696178","515","
            
        <div style=""text-align: center; position: fixed; top: 5vh; left: 40vw;"">
            <div style=""margin:0 auto; width: 20vw; top: 8vh; font-size: 2vw""> 
            <font color=""green""> Bonus : $5.6 </font>
            </div>
        </div>
    
            <div> Please press any key to continue to the next movie.</div>
        ","arrowleft","ITI","","","","","","","",""
"","","","","","html-keyboard-response","229","533596","0.0-7.64-1.64","611117d79c57e6744e059bc4","657afcd119a11bb15c4315fb","657b01b39707045ed6696178","3606","./stimuli//pack_morph_shapes_1/cat_1/diff_4/ex_1_4_13.mp4","arrowleft","response","ArrowLeft","13","1","4","test","true","",""
"","","","","","html-keyboard-response","230","535104","0.0-7.64-2.64","611117d79c57e6744e059bc4","657afcd119a11bb15c4315fb","657b01b39707045ed6696178","null","<p> <font color=""green"" size=""5vw""> Correct category! </font> <br> <br> <font color=""green"" size=""8vw""> + $0.15 </font> </p>","null","feedback","","","","","","","5.75","0.15"
"","","","","","html-keyboard-response","231","535561","0.0-7.65-0.65","611117d79c57e6744e059bc4","657afcd119a11bb15c4315fb","657b01b39707045ed6696178","455","
            
        <div style=""text-align: center; position: fixed; top: 5vh; left: 40vw;"">
            <div style=""margin:0 auto; width: 20vw; top: 8vh; font-size: 2vw""> 
            <font color=""green""> Bonus : $5.75 </font>
            </div>
        </div>
    
            <div> Please press any key to continue to the next movie.</div>
        ","arrowleft","ITI","","","","","","","",""
"","","","","","html-keyboard-response","232","538925","0.0-7.65-1.65","611117d79c57e6744e059bc4","657afcd119a11bb15c4315fb","657b01b39707045ed6696178","3364","./stimuli//pack_morph_shapes_1/cat_1/diff_5/ex_1_5_7.mp4","arrowleft","response","ArrowLeft","7","1","5","test","true","",""
"","","","","","html-keyboard-response","233","540440","0.0-7.65-2.65","611117d79c57e6744e059bc4","657afcd119a11bb15c4315fb","657b01b39707045ed6696178","null","<p> <font color=""green"" size=""5vw""> Correct category! </font> <br> <br> <font color=""green"" size=""8vw""> + $0.15 </font> </p>","null","feedback","","","","","","","5.9","0.15"
"","","","","","html-keyboard-response","234","540878","0.0-7.66-0.66","611117d79c57e6744e059bc4","657afcd119a11bb15c4315fb","657b01b39707045ed6696178","438","
            
        <div style=""text-align: center; position: fixed; top: 5vh; left: 40vw;"">
            <div style=""margin:0 auto; width: 20vw; top: 8vh; font-size: 2vw""> 
            <font color=""green""> Bonus : $5.9 </font>
            </div>
        </div>
    
            <div> Please press any key to continue to the next movie.</div>
        ","arrowleft","ITI","","","","","","","",""
"","","","","","html-keyboard-response","235","544281","0.0-7.66-1.66","611117d79c57e6744e059bc4","657afcd119a11bb15c4315fb","657b01b39707045ed6696178","3401","./stimuli//pack_morph_shapes_1/cat_1/diff_5/ex_1_5_2.mp4","arrowleft","response","ArrowLeft","2","1","5","test","true","",""
"","","","","","html-keyboard-response","236","545794","0.0-7.66-2.66","611117d79c57e6744e059bc4","657afcd119a11bb15c4315fb","657b01b39707045ed6696178","null","<p> <font color=""green"" size=""5vw""> Correct category! </font> <br> <br> <font color=""green"" size=""8vw""> + $0.15 </font> </p>","null","feedback","","","","","","","6.05","0.15"
"","","","","","html-keyboard-response","237","546262","0.0-7.67-0.67","611117d79c57e6744e059bc4","657afcd119a11bb15c4315fb","657b01b39707045ed6696178","468","
            
        <div style=""text-align: center; position: fixed; top: 5vh; left: 40vw;"">
            <div style=""margin:0 auto; width: 20vw; top: 8vh; font-size: 2vw""> 
            <font color=""green""> Bonus : $6.05 </font>
            </div>
        </div>
    
            <div> Please press any key to continue to the next movie.</div>
        ","arrowleft","ITI","","","","","","","",""
"","","","","","html-keyboard-response","238","549682","0.0-7.67-1.67","611117d79c57e6744e059bc4","657afcd119a11bb15c4315fb","657b01b39707045ed6696178","3418","./stimuli//pack_morph_shapes_1/cat_2/diff_5/ex_2_5_3.mp4","arrowright","response","ArrowRight","3","2","5","test","true","",""
"","","","","","html-keyboard-response","239","551186","0.0-7.67-2.67","611117d79c57e6744e059bc4","657afcd119a11bb15c4315fb","657b01b39707045ed6696178","null","<p> <font color=""green"" size=""5vw""> Correct category! </font> <br> <br> <font color=""green"" size=""8vw""> + $0.15 </font> </p>","null","feedback","","","","","","","6.2","0.15"
"","","","","","html-keyboard-response","240","551721","0.0-7.68-0.68","611117d79c57e6744e059bc4","657afcd119a11bb15c4315fb","657b01b39707045ed6696178","535","
            
        <div style=""text-align: center; position: fixed; top: 5vh; left: 40vw;"">
            <div style=""margin:0 auto; width: 20vw; top: 8vh; font-size: 2vw""> 
            <font color=""green""> Bonus : $6.2 </font>
            </div>
        </div>
    
            <div> Please press any key to continue to the next movie.</div>
        ","arrowleft","ITI","","","","","","","",""
"","","","","","html-keyboard-response","241","557222","0.0-7.68-1.68","611117d79c57e6744e059bc4","657afcd119a11bb15c4315fb","657b01b39707045ed6696178","null","./stimuli//pack_morph_shapes_1/cat_2/diff_5/ex_2_5_9.mp4","null","response","ArrowRight","9","2","5","test","false","",""
"","","","","","html-keyboard-response","242","562224","0.0-7.68-2.68","611117d79c57e6744e059bc4","657afcd119a11bb15c4315fb","657b01b39707045ed6696178","null","<p> <font color=""red"" size=""5vw""> Time out! </font> <br> <br> <font color=""red"" size=""8vw""> - $0.05 </font> <br> <br> Please try to respond as quickly as possible. </p>","null","feedback","","","","","","","6.15","-0.05"
"","","","","","html-keyboard-response","243","562766","0.0-7.69-0.69","611117d79c57e6744e059bc4","657afcd119a11bb15c4315fb","657b01b39707045ed6696178","542","
            
        <div style=""text-align: center; position: fixed; top: 5vh; left: 40vw;"">
            <div style=""margin:0 auto; width: 20vw; top: 8vh; font-size: 2vw""> 
            <font color=""green""> Bonus : $6.15 </font>
            </div>
        </div>
    
            <div> Please press any key to continue to the next movie.</div>
        ","arrowleft","ITI","","","","","","","",""
"","","","","","html-keyboard-response","244","566652","0.0-7.69-1.69","611117d79c57e6744e059bc4","657afcd119a11bb15c4315fb","657b01b39707045ed6696178","3884","./stimuli//pack_morph_shapes_1/cat_2/diff_5/ex_2_5_10.mp4","arrowright","response","ArrowRight","10","2","5","test","true","",""
"","","","","","html-keyboard-response","245","568168","0.0-7.69-2.69","611117d79c57e6744e059bc4","657afcd119a11bb15c4315fb","657b01b39707045ed6696178","null","<p> <font color=""green"" size=""5vw""> Correct category! </font> <br> <br> <font color=""green"" size=""8vw""> + $0.15 </font> </p>","null","feedback","","","","","","","6.3","0.15"
"","","","","","html-keyboard-response","246","568733","0.0-7.70-0.70","611117d79c57e6744e059bc4","657afcd119a11bb15c4315fb","657b01b39707045ed6696178","565","
            
        <div style=""text-align: center; position: fixed; top: 5vh; left: 40vw;"">
            <div style=""margin:0 auto; width: 20vw; top: 8vh; font-size: 2vw""> 
            <font color=""green""> Bonus : $6.3 </font>
            </div>
        </div>
    
            <div> Please press any key to continue to the next movie.</div>
        ","arrowleft","ITI","","","","","","","",""
"","","","","","html-keyboard-response","247","572456","0.0-7.70-1.70","611117d79c57e6744e059bc4","657afcd119a11bb15c4315fb","657b01b39707045ed6696178","3722","./stimuli//pack_morph_shapes_1/cat_1/diff_5/ex_1_5_5.mp4","arrowleft","response","ArrowLeft","5","1","5","test","true","",""
"","","","","","html-keyboard-response","248","573965","0.0-7.70-2.70","611117d79c57e6744e059bc4","657afcd119a11bb15c4315fb","657b01b39707045ed6696178","null","<p> <font color=""green"" size=""5vw""> Correct category! </font> <br> <br> <font color=""green"" size=""8vw""> + $0.15 </font> </p>","null","feedback","","","","","","","6.45","0.15"
"","","","","","html-keyboard-response","249","574280","0.0-7.71-0.71","611117d79c57e6744e059bc4","657afcd119a11bb15c4315fb","657b01b39707045ed6696178","315","
            
        <div style=""text-align: center; position: fixed; top: 5vh; left: 40vw;"">
            <div style=""margin:0 auto; width: 20vw; top: 8vh; font-size: 2vw""> 
            <font color=""green""> Bonus : $6.45 </font>
            </div>
        </div>
    
            <div> Please press any key to continue to the next movie.</div>
        ","arrowleft","ITI","","","","","","","",""
"","","","","","html-keyboard-response","250","577740","0.0-7.71-1.71","611117d79c57e6744e059bc4","657afcd119a11bb15c4315fb","657b01b39707045ed6696178","3458","./stimuli//pack_morph_shapes_1/cat_1/diff_5/ex_1_5_1.mp4","arrowleft","response","ArrowLeft","1","1","5","test","true","",""
