"success","timeout","failed_images","failed_audio","failed_video","trial_type","trial_index","time_elapsed","internal_node_id","subject_id","study_id","session_id","rt","stimulus","response","task","correct_response","exemplar_ID","category","difficulty","phase","correct","bonus"
"true","false","[]","[]","[]","preload","0","4","0.0-0.0","61253c280188c5503a64af66","655cb802637e0dbe2941dbc4","655cb8b84a2134892250356a","","","","","","","","","","",""
"","","","","","html-keyboard-response","1","2451","0.0-1.0","61253c280188c5503a64af66","655cb802637e0dbe2941dbc4","655cb8b84a2134892250356a","2446","Welcome to the Category Learning experiment! Press any key to continue."," ","welcome","","","","","","",""
"","","","","","html-keyboard-response","2","20336","0.0-2.0","61253c280188c5503a64af66","655cb802637e0dbe2941dbc4","655cb8b84a2134892250356a","17883","
            <p>You will be shown images of black shapes. Some are category A, some are category B.
            <br>You will not know in advance which category a specific shape belongs to.</p>
            <p>After you see an image, you will be asked to guess its category <b>(left arrow for category A, right arrow for category B)</b></p>
            <p>After you choose, the screen will show you whether you were correct or not.</p>
            <p>Please try to respond as quickly and accurately as possible every time.</p>
            <p>Press any key to continue.</p>
            "," ","introduction_1","","","","","","",""
"","","","","","html-keyboard-response","3","33403","0.0-3.0","61253c280188c5503a64af66","655cb802637e0dbe2941dbc4","655cb8b84a2134892250356a","13066","
              <p><b>You will receive a bonus payment depending on your performance!</b></p>
              <p><b>You start with a $10 bonus and each time you guess a shape's category incorrectly $0.05 will be subtracted from the bonus. <br> After the end of the experiment you will receive the remaining bonus as payment.</b></p>
              <p>Press any key to continue.</p>
              "," ","introduction_1","","","","","","",""
"","","","","","html-keyboard-response","4","39526","0.0-4.0","61253c280188c5503a64af66","655cb802637e0dbe2941dbc4","655cb8b84a2134892250356a","6122","
            <p> <b>The first 10 trials are a practice round that will not count towards your bonus payment.</b></p>
            <p> You will be notified when practice finishes and the test begins. </p>
            <p> Press any key to begin the practice round.</p>
            "," ","introduction_2","","","","","","",""
"","","","","","html-keyboard-response","5","42193","0.0-5.0-0.0","61253c280188c5503a64af66","655cb802637e0dbe2941dbc4","655cb8b84a2134892250356a","2666","
            
        <div style=""text-align: center; position: fixed; top: 5vh; left: 40vw;"">
            <div style=""margin:0 auto; width: 20vw; top: 8vh; font-size: 2vw""> 
            <font color=""green""> Bonus : $10 </font>
            </div>
        </div>
    
            <div> Please press any key to continue to the next image.</div>
        "," ","ITI","","","","","","",""
"","","","","","html-keyboard-response","6","42800","0.0-5.0-1.0","61253c280188c5503a64af66","655cb802637e0dbe2941dbc4","655cb8b84a2134892250356a","null","
        
        <div style=""text-align: center; position: fixed; top: 5vh; left: 40vw;"">
            <div style=""margin:0 auto; width: 20vw; top: 8vh; font-size: 2vw""> 
            <font color=""green""> Bonus : $10 </font>
            </div>
        </div>
    
        <img class=""stim"" src=./stimuli//pack_shapes_diff/cat_1/diff_2/ex_1_2_12.png></img>
    ","null","stimulus","","","","","","",""
"","","","","","html-keyboard-response","7","43806","0.0-5.0-2.0","61253c280188c5503a64af66","655cb802637e0dbe2941dbc4","655cb8b84a2134892250356a","null","
        <div style=""text-align: center; position: fixed; top: 5vh; left: 40vw;"">
            <div style=""margin:0 auto; width: 20vw; top: 8vh; font-size: 2vw""> 
            <font color=""green""> Bonus : $10 </font>
            </div>
        </div>
    ","null","","","","","","","",""
"","","","","","html-keyboard-response","8","44655","0.0-5.0-3.0","61253c280188c5503a64af66","655cb802637e0dbe2941dbc4","655cb8b84a2134892250356a","848","./stimuli//pack_shapes_diff/cat_1/diff_2/ex_1_2_12.png","arrowright","response","ArrowLeft","12","1","2","train","false",""
"","","","","","html-keyboard-response","9","46161","0.0-5.0-4.0","61253c280188c5503a64af66","655cb802637e0dbe2941dbc4","655cb8b84a2134892250356a","null","<p> <font color=""red"" size=""5vw""> Wrong category! </font> </p>","null","feedback","","","","","","","10"
"","","","","","html-keyboard-response","10","47835","0.0-5.0-0.1","61253c280188c5503a64af66","655cb802637e0dbe2941dbc4","655cb8b84a2134892250356a","1672","
            
        <div style=""text-align: center; position: fixed; top: 5vh; left: 40vw;"">
            <div style=""margin:0 auto; width: 20vw; top: 8vh; font-size: 2vw""> 
            <font color=""green""> Bonus : $10 </font>
            </div>
        </div>
    
            <div> Please press any key to continue to the next image.</div>
        "," ","ITI","","","","","","",""
"","","","","","html-keyboard-response","11","48438","0.0-5.0-1.1","61253c280188c5503a64af66","655cb802637e0dbe2941dbc4","655cb8b84a2134892250356a","null","
        
        <div style=""text-align: center; position: fixed; top: 5vh; left: 40vw;"">
            <div style=""margin:0 auto; width: 20vw; top: 8vh; font-size: 2vw""> 
            <font color=""green""> Bonus : $10 </font>
            </div>
        </div>
    
        <img class=""stim"" src=./stimuli//pack_shapes_diff/cat_2/diff_1/ex_2_1_15.png></img>
    ","null","stimulus","","","","","","",""
"","","","","","html-keyboard-response","12","49444","0.0-5.0-2.1","61253c280188c5503a64af66","655cb802637e0dbe2941dbc4","655cb8b84a2134892250356a","null","
        <div style=""text-align: center; position: fixed; top: 5vh; left: 40vw;"">
            <div style=""margin:0 auto; width: 20vw; top: 8vh; font-size: 2vw""> 
            <font color=""green""> Bonus : $10 </font>
            </div>
        </div>
    ","null","","","","","","","",""
"","","","","","html-keyboard-response","13","49875","0.0-5.0-3.1","61253c280188c5503a64af66","655cb802637e0dbe2941dbc4","655cb8b84a2134892250356a","430","./stimuli//pack_shapes_diff/cat_2/diff_1/ex_2_1_15.png","arrowleft","response","ArrowRight","15","2","1","train","false",""
"","","","","","html-keyboard-response","14","51381","0.0-5.0-4.1","61253c280188c5503a64af66","655cb802637e0dbe2941dbc4","655cb8b84a2134892250356a","null","<p> <font color=""red"" size=""5vw""> Wrong category! </font> </p>","null","feedback","","","","","","","10"
"","","","","","html-keyboard-response","15","52213","0.0-5.0-0.2","61253c280188c5503a64af66","655cb802637e0dbe2941dbc4","655cb8b84a2134892250356a","831","
            
        <div style=""text-align: center; position: fixed; top: 5vh; left: 40vw;"">
            <div style=""margin:0 auto; width: 20vw; top: 8vh; font-size: 2vw""> 
            <font color=""green""> Bonus : $10 </font>
            </div>
        </div>
    
            <div> Please press any key to continue to the next image.</div>
        "," ","ITI","","","","","","",""
"","","","","","html-keyboard-response","16","52817","0.0-5.0-1.2","61253c280188c5503a64af66","655cb802637e0dbe2941dbc4","655cb8b84a2134892250356a","null","
        
        <div style=""text-align: center; position: fixed; top: 5vh; left: 40vw;"">
            <div style=""margin:0 auto; width: 20vw; top: 8vh; font-size: 2vw""> 
            <font color=""green""> Bonus : $10 </font>
            </div>
        </div>
    
        <img class=""stim"" src=./stimuli//pack_shapes_diff/cat_1/diff_1/ex_1_1_15.png></img>
    ","null","stimulus","","","","","","",""
"","","","","","html-keyboard-response","17","53820","0.0-5.0-2.2","61253c280188c5503a64af66","655cb802637e0dbe2941dbc4","655cb8b84a2134892250356a","null","
        <div style=""text-align: center; position: fixed; top: 5vh; left: 40vw;"">
            <div style=""margin:0 auto; width: 20vw; top: 8vh; font-size: 2vw""> 
            <font color=""green""> Bonus : $10 </font>
            </div>
        </div>
    ","null","","","","","","","",""
"","","","","","html-keyboard-response","18","54317","0.0-5.0-3.2","61253c280188c5503a64af66","655cb802637e0dbe2941dbc4","655cb8b84a2134892250356a","496","./stimuli//pack_shapes_diff/cat_1/diff_1/ex_1_1_15.png","arrowright","response","ArrowLeft","15","1","1","train","false",""
"","","","","","html-keyboard-response","19","55821","0.0-5.0-4.2","61253c280188c5503a64af66","655cb802637e0dbe2941dbc4","655cb8b84a2134892250356a","null","<p> <font color=""red"" size=""5vw""> Wrong category! </font> </p>","null","feedback","","","","","","","10"
"","","","","","html-keyboard-response","20","57068","0.0-5.0-0.3","61253c280188c5503a64af66","655cb802637e0dbe2941dbc4","655cb8b84a2134892250356a","1245","
            
        <div style=""text-align: center; position: fixed; top: 5vh; left: 40vw;"">
            <div style=""margin:0 auto; width: 20vw; top: 8vh; font-size: 2vw""> 
            <font color=""green""> Bonus : $10 </font>
            </div>
        </div>
    
            <div> Please press any key to continue to the next image.</div>
        "," ","ITI","","","","","","",""
"","","","","","html-keyboard-response","21","57671","0.0-5.0-1.3","61253c280188c5503a64af66","655cb802637e0dbe2941dbc4","655cb8b84a2134892250356a","null","
        
        <div style=""text-align: center; position: fixed; top: 5vh; left: 40vw;"">
            <div style=""margin:0 auto; width: 20vw; top: 8vh; font-size: 2vw""> 
            <font color=""green""> Bonus : $10 </font>
            </div>
        </div>
    
        <img class=""stim"" src=./stimuli//pack_shapes_diff/cat_1/diff_1/ex_1_1_5.png></img>
    ","null","stimulus","","","","","","",""
"","","","","","html-keyboard-response","22","58677","0.0-5.0-2.3","61253c280188c5503a64af66","655cb802637e0dbe2941dbc4","655cb8b84a2134892250356a","null","
        <div style=""text-align: center; position: fixed; top: 5vh; left: 40vw;"">
            <div style=""margin:0 auto; width: 20vw; top: 8vh; font-size: 2vw""> 
            <font color=""green""> Bonus : $10 </font>
            </div>
        </div>
    ","null","","","","","","","",""
"","","","","","html-keyboard-response","23","59896","0.0-5.0-3.3","61253c280188c5503a64af66","655cb802637e0dbe2941dbc4","655cb8b84a2134892250356a","1219","./stimuli//pack_shapes_diff/cat_1/diff_1/ex_1_1_5.png","arrowright","response","ArrowLeft","5","1","1","train","false",""
"","","","","","html-keyboard-response","24","61399","0.0-5.0-4.3","61253c280188c5503a64af66","655cb802637e0dbe2941dbc4","655cb8b84a2134892250356a","null","<p> <font color=""red"" size=""5vw""> Wrong category! </font> </p>","null","feedback","","","","","","","10"
"","","","","","html-keyboard-response","25","62607","0.0-5.0-0.4","61253c280188c5503a64af66","655cb802637e0dbe2941dbc4","655cb8b84a2134892250356a","1208","
            
        <div style=""text-align: center; position: fixed; top: 5vh; left: 40vw;"">
            <div style=""margin:0 auto; width: 20vw; top: 8vh; font-size: 2vw""> 
            <font color=""green""> Bonus : $10 </font>
            </div>
        </div>
    
            <div> Please press any key to continue to the next image.</div>
        "," ","ITI","","","","","","",""
"","","","","","html-keyboard-response","26","63213","0.0-5.0-1.4","61253c280188c5503a64af66","655cb802637e0dbe2941dbc4","655cb8b84a2134892250356a","null","
        
        <div style=""text-align: center; position: fixed; top: 5vh; left: 40vw;"">
            <div style=""margin:0 auto; width: 20vw; top: 8vh; font-size: 2vw""> 
            <font color=""green""> Bonus : $10 </font>
            </div>
        </div>
    
        <img class=""stim"" src=./stimuli//pack_shapes_diff/cat_1/diff_1/ex_1_1_11.png></img>
    ","null","stimulus","","","","","","",""
"","","","","","html-keyboard-response","27","64219","0.0-5.0-2.4","61253c280188c5503a64af66","655cb802637e0dbe2941dbc4","655cb8b84a2134892250356a","null","
        <div style=""text-align: center; position: fixed; top: 5vh; left: 40vw;"">
            <div style=""margin:0 auto; width: 20vw; top: 8vh; font-size: 2vw""> 
            <font color=""green""> Bonus : $10 </font>
            </div>
        </div>
    ","null","","","","","","","",""
"","","","","","html-keyboard-response","28","64652","0.0-5.0-3.4","61253c280188c5503a64af66","655cb802637e0dbe2941dbc4","655cb8b84a2134892250356a","432","./stimuli//pack_shapes_diff/cat_1/diff_1/ex_1_1_11.png","arrowleft","response","ArrowLeft","11","1","1","train","true",""
"","","","","","html-keyboard-response","29","66153","0.0-5.0-4.4","61253c280188c5503a64af66","655cb802637e0dbe2941dbc4","655cb8b84a2134892250356a","null","<p> <font color=""green"" size=""5vw""> Correct category! </font> </p>","null","feedback","","","","","","","10"
"","","","","","html-keyboard-response","30","67422","0.0-5.0-0.5","61253c280188c5503a64af66","655cb802637e0dbe2941dbc4","655cb8b84a2134892250356a","1268","
            
        <div style=""text-align: center; position: fixed; top: 5vh; left: 40vw;"">
            <div style=""margin:0 auto; width: 20vw; top: 8vh; font-size: 2vw""> 
            <font color=""green""> Bonus : $10 </font>
            </div>
        </div>
    
            <div> Please press any key to continue to the next image.</div>
        "," ","ITI","","","","","","",""
"","","","","","html-keyboard-response","31","68024","0.0-5.0-1.5","61253c280188c5503a64af66","655cb802637e0dbe2941dbc4","655cb8b84a2134892250356a","null","
        
        <div style=""text-align: center; position: fixed; top: 5vh; left: 40vw;"">
            <div style=""margin:0 auto; width: 20vw; top: 8vh; font-size: 2vw""> 
            <font color=""green""> Bonus : $10 </font>
            </div>
        </div>
    
        <img class=""stim"" src=./stimuli//pack_shapes_diff/cat_2/diff_1/ex_2_1_5.png></img>
    ","null","stimulus","","","","","","",""
"","","","","","html-keyboard-response","32","69025","0.0-5.0-2.5","61253c280188c5503a64af66","655cb802637e0dbe2941dbc4","655cb8b84a2134892250356a","null","
        <div style=""text-align: center; position: fixed; top: 5vh; left: 40vw;"">
            <div style=""margin:0 auto; width: 20vw; top: 8vh; font-size: 2vw""> 
            <font color=""green""> Bonus : $10 </font>
            </div>
        </div>
    ","null","","","","","","","",""
"","","","","","html-keyboard-response","33","69869","0.0-5.0-3.5","61253c280188c5503a64af66","655cb802637e0dbe2941dbc4","655cb8b84a2134892250356a","844","./stimuli//pack_shapes_diff/cat_2/diff_1/ex_2_1_5.png","arrowleft","response","ArrowRight","5","2","1","train","false",""
"","","","","","html-keyboard-response","34","71375","0.0-5.0-4.5","61253c280188c5503a64af66","655cb802637e0dbe2941dbc4","655cb8b84a2134892250356a","null","<p> <font color=""red"" size=""5vw""> Wrong category! </font> </p>","null","feedback","","","","","","","10"
"","","","","","html-keyboard-response","35","72434","0.0-5.0-0.6","61253c280188c5503a64af66","655cb802637e0dbe2941dbc4","655cb8b84a2134892250356a","1058","
            
        <div style=""text-align: center; position: fixed; top: 5vh; left: 40vw;"">
            <div style=""margin:0 auto; width: 20vw; top: 8vh; font-size: 2vw""> 
            <font color=""green""> Bonus : $10 </font>
            </div>
        </div>
    
            <div> Please press any key to continue to the next image.</div>
        "," ","ITI","","","","","","",""
"","","","","","html-keyboard-response","36","73041","0.0-5.0-1.6","61253c280188c5503a64af66","655cb802637e0dbe2941dbc4","655cb8b84a2134892250356a","null","
        
        <div style=""text-align: center; position: fixed; top: 5vh; left: 40vw;"">
            <div style=""margin:0 auto; width: 20vw; top: 8vh; font-size: 2vw""> 
            <font color=""green""> Bonus : $10 </font>
            </div>
        </div>
    
        <img class=""stim"" src=./stimuli//pack_shapes_diff/cat_2/diff_2/ex_2_2_6.png></img>
    ","null","stimulus","","","","","","",""
"","","","","","html-keyboard-response","37","74046","0.0-5.0-2.6","61253c280188c5503a64af66","655cb802637e0dbe2941dbc4","655cb8b84a2134892250356a","null","
        <div style=""text-align: center; position: fixed; top: 5vh; left: 40vw;"">
            <div style=""margin:0 auto; width: 20vw; top: 8vh; font-size: 2vw""> 
            <font color=""green""> Bonus : $10 </font>
            </div>
        </div>
    ","null","","","","","","","",""
"","","","","","html-keyboard-response","38","74063","0.0-5.0-3.6","61253c280188c5503a64af66","655cb802637e0dbe2941dbc4","655cb8b84a2134892250356a","16","./stimuli//pack_shapes_diff/cat_2/diff_2/ex_2_2_6.png","arrowright","response","ArrowRight","6","2","2","train","true",""
"","","","","","html-keyboard-response","39","75569","0.0-5.0-4.6","61253c280188c5503a64af66","655cb802637e0dbe2941dbc4","655cb8b84a2134892250356a","null","<p> <font color=""green"" size=""5vw""> Correct category! </font> </p>","null","feedback","","","","","","","10"
"","","","","","html-keyboard-response","40","76509","0.0-5.0-0.7","61253c280188c5503a64af66","655cb802637e0dbe2941dbc4","655cb8b84a2134892250356a","940","
            
        <div style=""text-align: center; position: fixed; top: 5vh; left: 40vw;"">
            <div style=""margin:0 auto; width: 20vw; top: 8vh; font-size: 2vw""> 
            <font color=""green""> Bonus : $10 </font>
            </div>
        </div>
    
            <div> Please press any key to continue to the next image.</div>
        "," ","ITI","","","","","","",""
"","","","","","html-keyboard-response","41","77116","0.0-5.0-1.7","61253c280188c5503a64af66","655cb802637e0dbe2941dbc4","655cb8b84a2134892250356a","null","
        
        <div style=""text-align: center; position: fixed; top: 5vh; left: 40vw;"">
            <div style=""margin:0 auto; width: 20vw; top: 8vh; font-size: 2vw""> 
            <font color=""green""> Bonus : $10 </font>
            </div>
        </div>
    
        <img class=""stim"" src=./stimuli//pack_shapes_diff/cat_2/diff_2/ex_2_2_5.png></img>
    ","null","stimulus","","","","","","",""
"","","","","","html-keyboard-response","42","78123","0.0-5.0-2.7","61253c280188c5503a64af66","655cb802637e0dbe2941dbc4","655cb8b84a2134892250356a","null","
        <div style=""text-align: center; position: fixed; top: 5vh; left: 40vw;"">
            <div style=""margin:0 auto; width: 20vw; top: 8vh; font-size: 2vw""> 
            <font color=""green""> Bonus : $10 </font>
            </div>
        </div>
    ","null","","","","","","","",""
"","","","","","html-keyboard-response","43","79042","0.0-5.0-3.7","61253c280188c5503a64af66","655cb802637e0dbe2941dbc4","655cb8b84a2134892250356a","919","./stimuli//pack_shapes_diff/cat_2/diff_2/ex_2_2_5.png","arrowright","response","ArrowRight","5","2","2","train","true",""
"","","","","","html-keyboard-response","44","80548","0.0-5.0-4.7","61253c280188c5503a64af66","655cb802637e0dbe2941dbc4","655cb8b84a2134892250356a","null","<p> <font color=""green"" size=""5vw""> Correct category! </font> </p>","null","feedback","","","","","","","10"
"","","","","","html-keyboard-response","45","81619","0.0-5.0-0.8","61253c280188c5503a64af66","655cb802637e0dbe2941dbc4","655cb8b84a2134892250356a","1069","
            
        <div style=""text-align: center; position: fixed; top: 5vh; left: 40vw;"">
            <div style=""margin:0 auto; width: 20vw; top: 8vh; font-size: 2vw""> 
            <font color=""green""> Bonus : $10 </font>
            </div>
        </div>
    
            <div> Please press any key to continue to the next image.</div>
        "," ","ITI","","","","","","",""
"","","","","","html-keyboard-response","46","82225","0.0-5.0-1.8","61253c280188c5503a64af66","655cb802637e0dbe2941dbc4","655cb8b84a2134892250356a","null","
        
        <div style=""text-align: center; position: fixed; top: 5vh; left: 40vw;"">
            <div style=""margin:0 auto; width: 20vw; top: 8vh; font-size: 2vw""> 
            <font color=""green""> Bonus : $10 </font>
            </div>
        </div>
    
        <img class=""stim"" src=./stimuli//pack_shapes_diff/cat_1/diff_2/ex_1_2_1.png></img>
    ","null","stimulus","","","","","","",""
"","","","","","html-keyboard-response","47","83228","0.0-5.0-2.8","61253c280188c5503a64af66","655cb802637e0dbe2941dbc4","655cb8b84a2134892250356a","null","
        <div style=""text-align: center; position: fixed; top: 5vh; left: 40vw;"">
            <div style=""margin:0 auto; width: 20vw; top: 8vh; font-size: 2vw""> 
            <font color=""green""> Bonus : $10 </font>
            </div>
        </div>
    ","null","","","","","","","",""
"","","","","","html-keyboard-response","48","83967","0.0-5.0-3.8","61253c280188c5503a64af66","655cb802637e0dbe2941dbc4","655cb8b84a2134892250356a","738","./stimuli//pack_shapes_diff/cat_1/diff_2/ex_1_2_1.png","arrowleft","response","ArrowLeft","1","1","2","train","true",""
"","","","","","html-keyboard-response","49","85474","0.0-5.0-4.8","61253c280188c5503a64af66","655cb802637e0dbe2941dbc4","655cb8b84a2134892250356a","null","<p> <font color=""green"" size=""5vw""> Correct category! </font> </p>","null","feedback","","","","","","","10"
"","","","","","html-keyboard-response","50","86253","0.0-5.0-0.9","61253c280188c5503a64af66","655cb802637e0dbe2941dbc4","655cb8b84a2134892250356a","779","
            
        <div style=""text-align: center; position: fixed; top: 5vh; left: 40vw;"">
            <div style=""margin:0 auto; width: 20vw; top: 8vh; font-size: 2vw""> 
            <font color=""green""> Bonus : $10 </font>
            </div>
        </div>
    
            <div> Please press any key to continue to the next image.</div>
        "," ","ITI","","","","","","",""
"","","","","","html-keyboard-response","51","86854","0.0-5.0-1.9","61253c280188c5503a64af66","655cb802637e0dbe2941dbc4","655cb8b84a2134892250356a","null","
        
        <div style=""text-align: center; position: fixed; top: 5vh; left: 40vw;"">
            <div style=""margin:0 auto; width: 20vw; top: 8vh; font-size: 2vw""> 
            <font color=""green""> Bonus : $10 </font>
            </div>
        </div>
    
        <img class=""stim"" src=./stimuli//pack_shapes_diff/cat_2/diff_1/ex_2_1_6.png></img>
    ","null","stimulus","","","","","","",""
"","","","","","html-keyboard-response","52","87860","0.0-5.0-2.9","61253c280188c5503a64af66","655cb802637e0dbe2941dbc4","655cb8b84a2134892250356a","null","
        <div style=""text-align: center; position: fixed; top: 5vh; left: 40vw;"">
            <div style=""margin:0 auto; width: 20vw; top: 8vh; font-size: 2vw""> 
            <font color=""green""> Bonus : $10 </font>
            </div>
        </div>
    ","null","","","","","","","",""
"","","","","","html-keyboard-response","53","88039","0.0-5.0-3.9","61253c280188c5503a64af66","655cb802637e0dbe2941dbc4","655cb8b84a2134892250356a","178","./stimuli//pack_shapes_diff/cat_2/diff_1/ex_2_1_6.png","arrowright","response","ArrowRight","6","2","1","train","true",""
"","","","","","html-keyboard-response","54","89544","0.0-5.0-4.9","61253c280188c5503a64af66","655cb802637e0dbe2941dbc4","655cb8b84a2134892250356a","null","<p> <font color=""green"" size=""5vw""> Correct category! </font> </p>","null","feedback","","","","","","","10"
"","","","","","html-keyboard-response","55","98458","0.0-6.0","61253c280188c5503a64af66","655cb802637e0dbe2941dbc4","655cb8b84a2134892250356a","8914","
            <b> <p> The practice round has finished.</p>
            <b> For the rest of the experiment if you guess incorrectly $0.05 will be subtracted from your bonus!</b>
            <p> Press any key to begin the test. </p>
            "," ","intermission","","","","","","",""
"","","","","","html-keyboard-response","56","100207","0.0-7.0-0.0","61253c280188c5503a64af66","655cb802637e0dbe2941dbc4","655cb8b84a2134892250356a","1748","
            
        <div style=""text-align: center; position: fixed; top: 5vh; left: 40vw;"">
            <div style=""margin:0 auto; width: 20vw; top: 8vh; font-size: 2vw""> 
            <font color=""green""> Bonus : $10 </font>
            </div>
        </div>
    
            <div> Please press any key to continue to the next image.</div>
        "," ","ITI","","","","","","",""
"","","","","","html-keyboard-response","57","100816","0.0-7.0-1.0","61253c280188c5503a64af66","655cb802637e0dbe2941dbc4","655cb8b84a2134892250356a","null","
        
        <div style=""text-align: center; position: fixed; top: 5vh; left: 40vw;"">
            <div style=""margin:0 auto; width: 20vw; top: 8vh; font-size: 2vw""> 
            <font color=""green""> Bonus : $10 </font>
            </div>
        </div>
    
        <img class=""stim"" src=./stimuli//pack_shapes_diff/cat_1/diff_1/ex_1_1_12.png></img>
    ","null","stimulus","","","","","","",""
"","","","","","html-keyboard-response","58","101822","0.0-7.0-2.0","61253c280188c5503a64af66","655cb802637e0dbe2941dbc4","655cb8b84a2134892250356a","null","
        <div style=""text-align: center; position: fixed; top: 5vh; left: 40vw;"">
            <div style=""margin:0 auto; width: 20vw; top: 8vh; font-size: 2vw""> 
            <font color=""green""> Bonus : $10 </font>
            </div>
        </div>
    ","null","","","","","","","",""
"","","","","","html-keyboard-response","59","103225","0.0-7.0-3.0","61253c280188c5503a64af66","655cb802637e0dbe2941dbc4","655cb8b84a2134892250356a","1402","./stimuli//pack_shapes_diff/cat_1/diff_1/ex_1_1_12.png","arrowleft","response","ArrowLeft","12","1","1","test","true",""
"","","","","","html-keyboard-response","60","104731","0.0-7.0-4.0","61253c280188c5503a64af66","655cb802637e0dbe2941dbc4","655cb8b84a2134892250356a","null","<p> <font color=""green"" size=""5vw""> Correct category! </font></p>","null","feedback","","","","","","","10"
"","","","","","html-keyboard-response","61","105590","0.0-7.1-0.1","61253c280188c5503a64af66","655cb802637e0dbe2941dbc4","655cb8b84a2134892250356a","857","
            
        <div style=""text-align: center; position: fixed; top: 5vh; left: 40vw;"">
            <div style=""margin:0 auto; width: 20vw; top: 8vh; font-size: 2vw""> 
            <font color=""green""> Bonus : $10 </font>
            </div>
        </div>
    
            <div> Please press any key to continue to the next image.</div>
        "," ","ITI","","","","","","",""
"","","","","","html-keyboard-response","62","106193","0.0-7.1-1.1","61253c280188c5503a64af66","655cb802637e0dbe2941dbc4","655cb8b84a2134892250356a","null","
        
        <div style=""text-align: center; position: fixed; top: 5vh; left: 40vw;"">
            <div style=""margin:0 auto; width: 20vw; top: 8vh; font-size: 2vw""> 
            <font color=""green""> Bonus : $10 </font>
            </div>
        </div>
    
        <img class=""stim"" src=./stimuli//pack_shapes_diff/cat_2/diff_1/ex_2_1_17.png></img>
    ","null","stimulus","","","","","","",""
"","","","","","html-keyboard-response","63","107199","0.0-7.1-2.1","61253c280188c5503a64af66","655cb802637e0dbe2941dbc4","655cb8b84a2134892250356a","null","
        <div style=""text-align: center; position: fixed; top: 5vh; left: 40vw;"">
            <div style=""margin:0 auto; width: 20vw; top: 8vh; font-size: 2vw""> 
            <font color=""green""> Bonus : $10 </font>
            </div>
        </div>
    ","null","","","","","","","",""
"","","","","","html-keyboard-response","64","108049","0.0-7.1-3.1","61253c280188c5503a64af66","655cb802637e0dbe2941dbc4","655cb8b84a2134892250356a","849","./stimuli//pack_shapes_diff/cat_2/diff_1/ex_2_1_17.png","arrowright","response","ArrowRight","17","2","1","test","true",""
"","","","","","html-keyboard-response","65","109551","0.0-7.1-4.1","61253c280188c5503a64af66","655cb802637e0dbe2941dbc4","655cb8b84a2134892250356a","null","<p> <font color=""green"" size=""5vw""> Correct category! </font></p>","null","feedback","","","","","","","10"
"","","","","","html-keyboard-response","66","110348","0.0-7.2-0.2","61253c280188c5503a64af66","655cb802637e0dbe2941dbc4","655cb8b84a2134892250356a","796","
            
        <div style=""text-align: center; position: fixed; top: 5vh; left: 40vw;"">
            <div style=""margin:0 auto; width: 20vw; top: 8vh; font-size: 2vw""> 
            <font color=""green""> Bonus : $10 </font>
            </div>
        </div>
    
            <div> Please press any key to continue to the next image.</div>
        "," ","ITI","","","","","","",""
"","","","","","html-keyboard-response","67","110955","0.0-7.2-1.2","61253c280188c5503a64af66","655cb802637e0dbe2941dbc4","655cb8b84a2134892250356a","null","
        
        <div style=""text-align: center; position: fixed; top: 5vh; left: 40vw;"">
            <div style=""margin:0 auto; width: 20vw; top: 8vh; font-size: 2vw""> 
            <font color=""green""> Bonus : $10 </font>
            </div>
        </div>
    
        <img class=""stim"" src=./stimuli//pack_shapes_diff/cat_2/diff_1/ex_2_1_2.png></img>
    ","null","stimulus","","","","","","",""
"","","","","","html-keyboard-response","68","111961","0.0-7.2-2.2","61253c280188c5503a64af66","655cb802637e0dbe2941dbc4","655cb8b84a2134892250356a","null","
        <div style=""text-align: center; position: fixed; top: 5vh; left: 40vw;"">
            <div style=""margin:0 auto; width: 20vw; top: 8vh; font-size: 2vw""> 
            <font color=""green""> Bonus : $10 </font>
            </div>
        </div>
    ","null","","","","","","","",""
"","","","","","html-keyboard-response","69","112485","0.0-7.2-3.2","61253c280188c5503a64af66","655cb802637e0dbe2941dbc4","655cb8b84a2134892250356a","524","./stimuli//pack_shapes_diff/cat_2/diff_1/ex_2_1_2.png","arrowright","response","ArrowRight","2","2","1","test","true",""
"","","","","","html-keyboard-response","70","113987","0.0-7.2-4.2","61253c280188c5503a64af66","655cb802637e0dbe2941dbc4","655cb8b84a2134892250356a","null","<p> <font color=""green"" size=""5vw""> Correct category! </font></p>","null","feedback","","","","","","","10"
"","","","","","html-keyboard-response","71","114993","0.0-7.3-0.3","61253c280188c5503a64af66","655cb802637e0dbe2941dbc4","655cb8b84a2134892250356a","1004","
            
        <div style=""text-align: center; position: fixed; top: 5vh; left: 40vw;"">
            <div style=""margin:0 auto; width: 20vw; top: 8vh; font-size: 2vw""> 
            <font color=""green""> Bonus : $10 </font>
            </div>
        </div>
    
            <div> Please press any key to continue to the next image.</div>
        "," ","ITI","","","","","","",""
"","","","","","html-keyboard-response","72","115597","0.0-7.3-1.3","61253c280188c5503a64af66","655cb802637e0dbe2941dbc4","655cb8b84a2134892250356a","null","
        
        <div style=""text-align: center; position: fixed; top: 5vh; left: 40vw;"">
            <div style=""margin:0 auto; width: 20vw; top: 8vh; font-size: 2vw""> 
            <font color=""green""> Bonus : $10 </font>
            </div>
        </div>
    
        <img class=""stim"" src=./stimuli//pack_shapes_diff/cat_2/diff_1/ex_2_1_2.png></img>
    ","null","stimulus","","","","","","",""
"","","","","","html-keyboard-response","73","116603","0.0-7.3-2.3","61253c280188c5503a64af66","655cb802637e0dbe2941dbc4","655cb8b84a2134892250356a","null","
        <div style=""text-align: center; position: fixed; top: 5vh; left: 40vw;"">
            <div style=""margin:0 auto; width: 20vw; top: 8vh; font-size: 2vw""> 
            <font color=""green""> Bonus : $10 </font>
            </div>
        </div>
    ","null","","","","","","","",""
"","","","","","html-keyboard-response","74","117594","0.0-7.3-3.3","61253c280188c5503a64af66","655cb802637e0dbe2941dbc4","655cb8b84a2134892250356a","990","./stimuli//pack_shapes_diff/cat_2/diff_1/ex_2_1_2.png","arrowright","response","ArrowRight","2","2","1","test","true",""
"","","","","","html-keyboard-response","75","119101","0.0-7.3-4.3","61253c280188c5503a64af66","655cb802637e0dbe2941dbc4","655cb8b84a2134892250356a","null","<p> <font color=""green"" size=""5vw""> Correct category! </font></p>","null","feedback","","","","","","","10"
"","","","","","html-keyboard-response","76","120388","0.0-7.4-0.4","61253c280188c5503a64af66","655cb802637e0dbe2941dbc4","655cb8b84a2134892250356a","1287","
            
        <div style=""text-align: center; position: fixed; top: 5vh; left: 40vw;"">
            <div style=""margin:0 auto; width: 20vw; top: 8vh; font-size: 2vw""> 
            <font color=""green""> Bonus : $10 </font>
            </div>
        </div>
    
            <div> Please press any key to continue to the next image.</div>
        "," ","ITI","","","","","","",""
"","","","","","html-keyboard-response","77","120992","0.0-7.4-1.4","61253c280188c5503a64af66","655cb802637e0dbe2941dbc4","655cb8b84a2134892250356a","null","
        
        <div style=""text-align: center; position: fixed; top: 5vh; left: 40vw;"">
            <div style=""margin:0 auto; width: 20vw; top: 8vh; font-size: 2vw""> 
            <font color=""green""> Bonus : $10 </font>
            </div>
        </div>
    
        <img class=""stim"" src=./stimuli//pack_shapes_diff/cat_2/diff_1/ex_2_1_8.png></img>
    ","null","stimulus","","","","","","",""
"","","","","","html-keyboard-response","78","121997","0.0-7.4-2.4","61253c280188c5503a64af66","655cb802637e0dbe2941dbc4","655cb8b84a2134892250356a","null","
        <div style=""text-align: center; position: fixed; top: 5vh; left: 40vw;"">
            <div style=""margin:0 auto; width: 20vw; top: 8vh; font-size: 2vw""> 
            <font color=""green""> Bonus : $10 </font>
            </div>
        </div>
    ","null","","","","","","","",""
"","","","","","html-keyboard-response","79","122977","0.0-7.4-3.4","61253c280188c5503a64af66","655cb802637e0dbe2941dbc4","655cb8b84a2134892250356a","979","./stimuli//pack_shapes_diff/cat_2/diff_1/ex_2_1_8.png","arrowright","response","ArrowRight","8","2","1","test","true",""
"","","","","","html-keyboard-response","80","124479","0.0-7.4-4.4","61253c280188c5503a64af66","655cb802637e0dbe2941dbc4","655cb8b84a2134892250356a","null","<p> <font color=""green"" size=""5vw""> Correct category! </font></p>","null","feedback","","","","","","","10"
"","","","","","html-keyboard-response","81","124981","0.0-7.5-0.5","61253c280188c5503a64af66","655cb802637e0dbe2941dbc4","655cb8b84a2134892250356a","501","
            
        <div style=""text-align: center; position: fixed; top: 5vh; left: 40vw;"">
            <div style=""margin:0 auto; width: 20vw; top: 8vh; font-size: 2vw""> 
            <font color=""green""> Bonus : $10 </font>
            </div>
        </div>
    
            <div> Please press any key to continue to the next image.</div>
        "," ","ITI","","","","","","",""
"","","","","","html-keyboard-response","82","125583","0.0-7.5-1.5","61253c280188c5503a64af66","655cb802637e0dbe2941dbc4","655cb8b84a2134892250356a","null","
        
        <div style=""text-align: center; position: fixed; top: 5vh; left: 40vw;"">
            <div style=""margin:0 auto; width: 20vw; top: 8vh; font-size: 2vw""> 
            <font color=""green""> Bonus : $10 </font>
            </div>
        </div>
    
        <img class=""stim"" src=./stimuli//pack_shapes_diff/cat_1/diff_2/ex_1_2_15.png></img>
    ","null","stimulus","","","","","","",""
"","","","","","html-keyboard-response","83","126587","0.0-7.5-2.5","61253c280188c5503a64af66","655cb802637e0dbe2941dbc4","655cb8b84a2134892250356a","null","
        <div style=""text-align: center; position: fixed; top: 5vh; left: 40vw;"">
            <div style=""margin:0 auto; width: 20vw; top: 8vh; font-size: 2vw""> 
            <font color=""green""> Bonus : $10 </font>
            </div>
        </div>
    ","null","","","","","","","",""
"","","","","","html-keyboard-response","84","127115","0.0-7.5-3.5","61253c280188c5503a64af66","655cb802637e0dbe2941dbc4","655cb8b84a2134892250356a","528","./stimuli//pack_shapes_diff/cat_1/diff_2/ex_1_2_15.png","arrowleft","response","ArrowLeft","15","1","2","test","true",""
"","","","","","html-keyboard-response","85","128621","0.0-7.5-4.5","61253c280188c5503a64af66","655cb802637e0dbe2941dbc4","655cb8b84a2134892250356a","null","<p> <font color=""green"" size=""5vw""> Correct category! </font></p>","null","feedback","","","","","","","10"
"","","","","","html-keyboard-response","86","129956","0.0-7.6-0.6","61253c280188c5503a64af66","655cb802637e0dbe2941dbc4","655cb8b84a2134892250356a","1334","
            
        <div style=""text-align: center; position: fixed; top: 5vh; left: 40vw;"">
            <div style=""margin:0 auto; width: 20vw; top: 8vh; font-size: 2vw""> 
            <font color=""green""> Bonus : $10 </font>
            </div>
        </div>
    
            <div> Please press any key to continue to the next image.</div>
        "," ","ITI","","","","","","",""
"","","","","","html-keyboard-response","87","130563","0.0-7.6-1.6","61253c280188c5503a64af66","655cb802637e0dbe2941dbc4","655cb8b84a2134892250356a","null","
        
        <div style=""text-align: center; position: fixed; top: 5vh; left: 40vw;"">
            <div style=""margin:0 auto; width: 20vw; top: 8vh; font-size: 2vw""> 
            <font color=""green""> Bonus : $10 </font>
            </div>
        </div>
    
        <img class=""stim"" src=./stimuli//pack_shapes_diff/cat_1/diff_2/ex_1_2_8.png></img>
    ","null","stimulus","","","","","","",""
"","","","","","html-keyboard-response","88","131569","0.0-7.6-2.6","61253c280188c5503a64af66","655cb802637e0dbe2941dbc4","655cb8b84a2134892250356a","null","
        <div style=""text-align: center; position: fixed; top: 5vh; left: 40vw;"">
            <div style=""margin:0 auto; width: 20vw; top: 8vh; font-size: 2vw""> 
            <font color=""green""> Bonus : $10 </font>
            </div>
        </div>
    ","null","","","","","","","",""
"","","","","","html-keyboard-response","89","131583","0.0-7.6-3.6","61253c280188c5503a64af66","655cb802637e0dbe2941dbc4","655cb8b84a2134892250356a","13","./stimuli//pack_shapes_diff/cat_1/diff_2/ex_1_2_8.png","arrowleft","response","ArrowLeft","8","1","2","test","true",""
"","","","","","html-keyboard-response","90","133089","0.0-7.6-4.6","61253c280188c5503a64af66","655cb802637e0dbe2941dbc4","655cb8b84a2134892250356a","null","<p> <font color=""green"" size=""5vw""> Correct category! </font></p>","null","feedback","","","","","","","10"
"","","","","","html-keyboard-response","91","133639","0.0-7.7-0.7","61253c280188c5503a64af66","655cb802637e0dbe2941dbc4","655cb8b84a2134892250356a","549","
            
        <div style=""text-align: center; position: fixed; top: 5vh; left: 40vw;"">
            <div style=""margin:0 auto; width: 20vw; top: 8vh; font-size: 2vw""> 
            <font color=""green""> Bonus : $10 </font>
            </div>
        </div>
    
            <div> Please press any key to continue to the next image.</div>
        "," ","ITI","","","","","","",""
"","","","","","html-keyboard-response","92","134244","0.0-7.7-1.7","61253c280188c5503a64af66","655cb802637e0dbe2941dbc4","655cb8b84a2134892250356a","null","
        
        <div style=""text-align: center; position: fixed; top: 5vh; left: 40vw;"">
            <div style=""margin:0 auto; width: 20vw; top: 8vh; font-size: 2vw""> 
            <font color=""green""> Bonus : $10 </font>
            </div>
        </div>
    
        <img class=""stim"" src=./stimuli//pack_shapes_diff/cat_1/diff_2/ex_1_2_9.png></img>
    ","null","stimulus","","","","","","",""
"","","","","","html-keyboard-response","93","135249","0.0-7.7-2.7","61253c280188c5503a64af66","655cb802637e0dbe2941dbc4","655cb8b84a2134892250356a","null","
        <div style=""text-align: center; position: fixed; top: 5vh; left: 40vw;"">
            <div style=""margin:0 auto; width: 20vw; top: 8vh; font-size: 2vw""> 
            <font color=""green""> Bonus : $10 </font>
            </div>
        </div>
    ","null","","","","","","","",""
"","","","","","html-keyboard-response","94","135765","0.0-7.7-3.7","61253c280188c5503a64af66","655cb802637e0dbe2941dbc4","655cb8b84a2134892250356a","516","./stimuli//pack_shapes_diff/cat_1/diff_2/ex_1_2_9.png","arrowleft","response","ArrowLeft","9","1","2","test","true",""
"","","","","","html-keyboard-response","95","137268","0.0-7.7-4.7","61253c280188c5503a64af66","655cb802637e0dbe2941dbc4","655cb8b84a2134892250356a","null","<p> <font color=""green"" size=""5vw""> Correct category! </font></p>","null","feedback","","","","","","","10"
"","","","","","html-keyboard-response","96","138018","0.0-7.8-0.8","61253c280188c5503a64af66","655cb802637e0dbe2941dbc4","655cb8b84a2134892250356a","750","
            
        <div style=""text-align: center; position: fixed; top: 5vh; left: 40vw;"">
            <div style=""margin:0 auto; width: 20vw; top: 8vh; font-size: 2vw""> 
            <font color=""green""> Bonus : $10 </font>
            </div>
        </div>
    
            <div> Please press any key to continue to the next image.</div>
        "," ","ITI","","","","","","",""
"","","","","","html-keyboard-response","97","138623","0.0-7.8-1.8","61253c280188c5503a64af66","655cb802637e0dbe2941dbc4","655cb8b84a2134892250356a","null","
        
        <div style=""text-align: center; position: fixed; top: 5vh; left: 40vw;"">
            <div style=""margin:0 auto; width: 20vw; top: 8vh; font-size: 2vw""> 
            <font color=""green""> Bonus : $10 </font>
            </div>
        </div>
    
        <img class=""stim"" src=./stimuli//pack_shapes_diff/cat_2/diff_2/ex_2_2_4.png></img>
    ","null","stimulus","","","","","","",""
"","","","","","html-keyboard-response","98","139629","0.0-7.8-2.8","61253c280188c5503a64af66","655cb802637e0dbe2941dbc4","655cb8b84a2134892250356a","null","
        <div style=""text-align: center; position: fixed; top: 5vh; left: 40vw;"">
            <div style=""margin:0 auto; width: 20vw; top: 8vh; font-size: 2vw""> 
            <font color=""green""> Bonus : $10 </font>
            </div>
        </div>
    ","null","","","","","","","",""
"","","","","","html-keyboard-response","99","139952","0.0-7.8-3.8","61253c280188c5503a64af66","655cb802637e0dbe2941dbc4","655cb8b84a2134892250356a","322","./stimuli//pack_shapes_diff/cat_2/diff_2/ex_2_2_4.png","arrowright","response","ArrowRight","4","2","2","test","true",""
"","","","","","html-keyboard-response","100","141456","0.0-7.8-4.8","61253c280188c5503a64af66","655cb802637e0dbe2941dbc4","655cb8b84a2134892250356a","null","<p> <font color=""green"" size=""5vw""> Correct category! </font></p>","null","feedback","","","","","","","10"
"","","","","","html-keyboard-response","101","142245","0.0-7.9-0.9","61253c280188c5503a64af66","655cb802637e0dbe2941dbc4","655cb8b84a2134892250356a","789","
            
        <div style=""text-align: center; position: fixed; top: 5vh; left: 40vw;"">
            <div style=""margin:0 auto; width: 20vw; top: 8vh; font-size: 2vw""> 
            <font color=""green""> Bonus : $10 </font>
            </div>
        </div>
    
            <div> Please press any key to continue to the next image.</div>
        "," ","ITI","","","","","","",""
"","","","","","html-keyboard-response","102","142848","0.0-7.9-1.9","61253c280188c5503a64af66","655cb802637e0dbe2941dbc4","655cb8b84a2134892250356a","null","
        
        <div style=""text-align: center; position: fixed; top: 5vh; left: 40vw;"">
            <div style=""margin:0 auto; width: 20vw; top: 8vh; font-size: 2vw""> 
            <font color=""green""> Bonus : $10 </font>
            </div>
        </div>
    
        <img class=""stim"" src=./stimuli//pack_shapes_diff/cat_1/diff_2/ex_1_2_5.png></img>
    ","null","stimulus","","","","","","",""
"","","","","","html-keyboard-response","103","143854","0.0-7.9-2.9","61253c280188c5503a64af66","655cb802637e0dbe2941dbc4","655cb8b84a2134892250356a","null","
        <div style=""text-align: center; position: fixed; top: 5vh; left: 40vw;"">
            <div style=""margin:0 auto; width: 20vw; top: 8vh; font-size: 2vw""> 
            <font color=""green""> Bonus : $10 </font>
            </div>
        </div>
    ","null","","","","","","","",""
"","","","","","html-keyboard-response","104","144398","0.0-7.9-3.9","61253c280188c5503a64af66","655cb802637e0dbe2941dbc4","655cb8b84a2134892250356a","544","./stimuli//pack_shapes_diff/cat_1/diff_2/ex_1_2_5.png","arrowleft","response","ArrowLeft","5","1","2","test","true",""
"","","","","","html-keyboard-response","105","145900","0.0-7.9-4.9","61253c280188c5503a64af66","655cb802637e0dbe2941dbc4","655cb8b84a2134892250356a","null","<p> <font color=""green"" size=""5vw""> Correct category! </font></p>","null","feedback","","","","","","","10"
"","","","","","html-keyboard-response","106","146674","0.0-7.10-0.10","61253c280188c5503a64af66","655cb802637e0dbe2941dbc4","655cb8b84a2134892250356a","773","
            
        <div style=""text-align: center; position: fixed; top: 5vh; left: 40vw;"">
            <div style=""margin:0 auto; width: 20vw; top: 8vh; font-size: 2vw""> 
            <font color=""green""> Bonus : $10 </font>
            </div>
        </div>
    
            <div> Please press any key to continue to the next image.</div>
        "," ","ITI","","","","","","",""
"","","","","","html-keyboard-response","107","147276","0.0-7.10-1.10","61253c280188c5503a64af66","655cb802637e0dbe2941dbc4","655cb8b84a2134892250356a","null","
        
        <div style=""text-align: center; position: fixed; top: 5vh; left: 40vw;"">
            <div style=""margin:0 auto; width: 20vw; top: 8vh; font-size: 2vw""> 
            <font color=""green""> Bonus : $10 </font>
            </div>
        </div>
    
        <img class=""stim"" src=./stimuli//pack_shapes_diff/cat_2/diff_3/ex_2_3_8.png></img>
    ","null","stimulus","","","","","","",""
"","","","","","html-keyboard-response","108","148283","0.0-7.10-2.10","61253c280188c5503a64af66","655cb802637e0dbe2941dbc4","655cb8b84a2134892250356a","null","
        <div style=""text-align: center; position: fixed; top: 5vh; left: 40vw;"">
            <div style=""margin:0 auto; width: 20vw; top: 8vh; font-size: 2vw""> 
            <font color=""green""> Bonus : $10 </font>
            </div>
        </div>
    ","null","","","","","","","",""
"","","","","","html-keyboard-response","109","148910","0.0-7.10-3.10","61253c280188c5503a64af66","655cb802637e0dbe2941dbc4","655cb8b84a2134892250356a","626","./stimuli//pack_shapes_diff/cat_2/diff_3/ex_2_3_8.png","arrowright","response","ArrowRight","8","2","3","test","true",""
"","","","","","html-keyboard-response","110","150411","0.0-7.10-4.10","61253c280188c5503a64af66","655cb802637e0dbe2941dbc4","655cb8b84a2134892250356a","null","<p> <font color=""green"" size=""5vw""> Correct category! </font></p>","null","feedback","","","","","","","10"
"","","","","","html-keyboard-response","111","151180","0.0-7.11-0.11","61253c280188c5503a64af66","655cb802637e0dbe2941dbc4","655cb8b84a2134892250356a","768","
            
        <div style=""text-align: center; position: fixed; top: 5vh; left: 40vw;"">
            <div style=""margin:0 auto; width: 20vw; top: 8vh; font-size: 2vw""> 
            <font color=""green""> Bonus : $10 </font>
            </div>
        </div>
    
            <div> Please press any key to continue to the next image.</div>
        "," ","ITI","","","","","","",""
"","","","","","html-keyboard-response","112","151783","0.0-7.11-1.11","61253c280188c5503a64af66","655cb802637e0dbe2941dbc4","655cb8b84a2134892250356a","null","
        
        <div style=""text-align: center; position: fixed; top: 5vh; left: 40vw;"">
            <div style=""margin:0 auto; width: 20vw; top: 8vh; font-size: 2vw""> 
            <font color=""green""> Bonus : $10 </font>
            </div>
        </div>
    
        <img class=""stim"" src=./stimuli//pack_shapes_diff/cat_2/diff_3/ex_2_3_11.png></img>
    ","null","stimulus","","","","","","",""
"","","","","","html-keyboard-response","113","152789","0.0-7.11-2.11","61253c280188c5503a64af66","655cb802637e0dbe2941dbc4","655cb8b84a2134892250356a","null","
        <div style=""text-align: center; position: fixed; top: 5vh; left: 40vw;"">
            <div style=""margin:0 auto; width: 20vw; top: 8vh; font-size: 2vw""> 
            <font color=""green""> Bonus : $10 </font>
            </div>
        </div>
    ","null","","","","","","","",""
"","","","","","html-keyboard-response","114","153263","0.0-7.11-3.11","61253c280188c5503a64af66","655cb802637e0dbe2941dbc4","655cb8b84a2134892250356a","473","./stimuli//pack_shapes_diff/cat_2/diff_3/ex_2_3_11.png","arrowright","response","ArrowRight","11","2","3","test","true",""
"","","","","","html-keyboard-response","115","154770","0.0-7.11-4.11","61253c280188c5503a64af66","655cb802637e0dbe2941dbc4","655cb8b84a2134892250356a","null","<p> <font color=""green"" size=""5vw""> Correct category! </font></p>","null","feedback","","","","","","","10"
"","","","","","html-keyboard-response","116","155688","0.0-7.12-0.12","61253c280188c5503a64af66","655cb802637e0dbe2941dbc4","655cb8b84a2134892250356a","917","
            
        <div style=""text-align: center; position: fixed; top: 5vh; left: 40vw;"">
            <div style=""margin:0 auto; width: 20vw; top: 8vh; font-size: 2vw""> 
            <font color=""green""> Bonus : $10 </font>
            </div>
        </div>
    
            <div> Please press any key to continue to the next image.</div>
        "," ","ITI","","","","","","",""
"","","","","","html-keyboard-response","117","156290","0.0-7.12-1.12","61253c280188c5503a64af66","655cb802637e0dbe2941dbc4","655cb8b84a2134892250356a","null","
        
        <div style=""text-align: center; position: fixed; top: 5vh; left: 40vw;"">
            <div style=""margin:0 auto; width: 20vw; top: 8vh; font-size: 2vw""> 
            <font color=""green""> Bonus : $10 </font>
            </div>
        </div>
    
        <img class=""stim"" src=./stimuli//pack_shapes_diff/cat_2/diff_3/ex_2_3_16.png></img>
    ","null","stimulus","","","","","","",""
"","","","","","html-keyboard-response","118","157293","0.0-7.12-2.12","61253c280188c5503a64af66","655cb802637e0dbe2941dbc4","655cb8b84a2134892250356a","null","
        <div style=""text-align: center; position: fixed; top: 5vh; left: 40vw;"">
            <div style=""margin:0 auto; width: 20vw; top: 8vh; font-size: 2vw""> 
            <font color=""green""> Bonus : $10 </font>
            </div>
        </div>
    ","null","","","","","","","",""
"","","","","","html-keyboard-response","119","157798","0.0-7.12-3.12","61253c280188c5503a64af66","655cb802637e0dbe2941dbc4","655cb8b84a2134892250356a","505","./stimuli//pack_shapes_diff/cat_2/diff_3/ex_2_3_16.png","arrowright","response","ArrowRight","16","2","3","test","true",""
"","","","","","html-keyboard-response","120","159302","0.0-7.12-4.12","61253c280188c5503a64af66","655cb802637e0dbe2941dbc4","655cb8b84a2134892250356a","null","<p> <font color=""green"" size=""5vw""> Correct category! </font></p>","null","feedback","","","","","","","10"
"","","","","","html-keyboard-response","121","160221","0.0-7.13-0.13","61253c280188c5503a64af66","655cb802637e0dbe2941dbc4","655cb8b84a2134892250356a","918","
            
        <div style=""text-align: center; position: fixed; top: 5vh; left: 40vw;"">
            <div style=""margin:0 auto; width: 20vw; top: 8vh; font-size: 2vw""> 
            <font color=""green""> Bonus : $10 </font>
            </div>
        </div>
    
            <div> Please press any key to continue to the next image.</div>
        "," ","ITI","","","","","","",""
"","","","","","html-keyboard-response","122","160824","0.0-7.13-1.13","61253c280188c5503a64af66","655cb802637e0dbe2941dbc4","655cb8b84a2134892250356a","null","
        
        <div style=""text-align: center; position: fixed; top: 5vh; left: 40vw;"">
            <div style=""margin:0 auto; width: 20vw; top: 8vh; font-size: 2vw""> 
            <font color=""green""> Bonus : $10 </font>
            </div>
        </div>
    
        <img class=""stim"" src=./stimuli//pack_shapes_diff/cat_1/diff_3/ex_1_3_9.png></img>
    ","null","stimulus","","","","","","",""
"","","","","","html-keyboard-response","123","161831","0.0-7.13-2.13","61253c280188c5503a64af66","655cb802637e0dbe2941dbc4","655cb8b84a2134892250356a","null","
        <div style=""text-align: center; position: fixed; top: 5vh; left: 40vw;"">
            <div style=""margin:0 auto; width: 20vw; top: 8vh; font-size: 2vw""> 
            <font color=""green""> Bonus : $10 </font>
            </div>
        </div>
    ","null","","","","","","","",""
"","","","","","html-keyboard-response","124","162345","0.0-7.13-3.13","61253c280188c5503a64af66","655cb802637e0dbe2941dbc4","655cb8b84a2134892250356a","513","./stimuli//pack_shapes_diff/cat_1/diff_3/ex_1_3_9.png","arrowleft","response","ArrowLeft","9","1","3","test","true",""
"","","","","","html-keyboard-response","125","163851","0.0-7.13-4.13","61253c280188c5503a64af66","655cb802637e0dbe2941dbc4","655cb8b84a2134892250356a","null","<p> <font color=""green"" size=""5vw""> Correct category! </font></p>","null","feedback","","","","","","","10"
"","","","","","html-keyboard-response","126","164694","0.0-7.14-0.14","61253c280188c5503a64af66","655cb802637e0dbe2941dbc4","655cb8b84a2134892250356a","842","
            
        <div style=""text-align: center; position: fixed; top: 5vh; left: 40vw;"">
            <div style=""margin:0 auto; width: 20vw; top: 8vh; font-size: 2vw""> 
            <font color=""green""> Bonus : $10 </font>
            </div>
        </div>
    
            <div> Please press any key to continue to the next image.</div>
        "," ","ITI","","","","","","",""
"","","","","","html-keyboard-response","127","165296","0.0-7.14-1.14","61253c280188c5503a64af66","655cb802637e0dbe2941dbc4","655cb8b84a2134892250356a","null","
        
        <div style=""text-align: center; position: fixed; top: 5vh; left: 40vw;"">
            <div style=""margin:0 auto; width: 20vw; top: 8vh; font-size: 2vw""> 
            <font color=""green""> Bonus : $10 </font>
            </div>
        </div>
    
        <img class=""stim"" src=./stimuli//pack_shapes_diff/cat_1/diff_3/ex_1_3_12.png></img>
    ","null","stimulus","","","","","","",""
"","","","","","html-keyboard-response","128","166302","0.0-7.14-2.14","61253c280188c5503a64af66","655cb802637e0dbe2941dbc4","655cb8b84a2134892250356a","null","
        <div style=""text-align: center; position: fixed; top: 5vh; left: 40vw;"">
            <div style=""margin:0 auto; width: 20vw; top: 8vh; font-size: 2vw""> 
            <font color=""green""> Bonus : $10 </font>
            </div>
        </div>
    ","null","","","","","","","",""
"","","","","","html-keyboard-response","129","166950","0.0-7.14-3.14","61253c280188c5503a64af66","655cb802637e0dbe2941dbc4","655cb8b84a2134892250356a","647","./stimuli//pack_shapes_diff/cat_1/diff_3/ex_1_3_12.png","arrowleft","response","ArrowLeft","12","1","3","test","true",""
"","","","","","html-keyboard-response","130","168457","0.0-7.14-4.14","61253c280188c5503a64af66","655cb802637e0dbe2941dbc4","655cb8b84a2134892250356a","null","<p> <font color=""green"" size=""5vw""> Correct category! </font></p>","null","feedback","","","","","","","10"
"","","","","","html-keyboard-response","131","169204","0.0-7.15-0.15","61253c280188c5503a64af66","655cb802637e0dbe2941dbc4","655cb8b84a2134892250356a","747","
            
        <div style=""text-align: center; position: fixed; top: 5vh; left: 40vw;"">
            <div style=""margin:0 auto; width: 20vw; top: 8vh; font-size: 2vw""> 
            <font color=""green""> Bonus : $10 </font>
            </div>
        </div>
    
            <div> Please press any key to continue to the next image.</div>
        "," ","ITI","","","","","","",""
"","","","","","html-keyboard-response","132","169808","0.0-7.15-1.15","61253c280188c5503a64af66","655cb802637e0dbe2941dbc4","655cb8b84a2134892250356a","null","
        
        <div style=""text-align: center; position: fixed; top: 5vh; left: 40vw;"">
            <div style=""margin:0 auto; width: 20vw; top: 8vh; font-size: 2vw""> 
            <font color=""green""> Bonus : $10 </font>
            </div>
        </div>
    
        <img class=""stim"" src=./stimuli//pack_shapes_diff/cat_1/diff_4/ex_1_4_1.png></img>
    ","null","stimulus","","","","","","",""
"","","","","","html-keyboard-response","133","170813","0.0-7.15-2.15","61253c280188c5503a64af66","655cb802637e0dbe2941dbc4","655cb8b84a2134892250356a","null","
        <div style=""text-align: center; position: fixed; top: 5vh; left: 40vw;"">
            <div style=""margin:0 auto; width: 20vw; top: 8vh; font-size: 2vw""> 
            <font color=""green""> Bonus : $10 </font>
            </div>
        </div>
    ","null","","","","","","","",""
"","","","","","html-keyboard-response","134","171394","0.0-7.15-3.15","61253c280188c5503a64af66","655cb802637e0dbe2941dbc4","655cb8b84a2134892250356a","580","./stimuli//pack_shapes_diff/cat_1/diff_4/ex_1_4_1.png","arrowleft","response","ArrowLeft","1","1","4","test","true",""
"","","","","","html-keyboard-response","135","172900","0.0-7.15-4.15","61253c280188c5503a64af66","655cb802637e0dbe2941dbc4","655cb8b84a2134892250356a","null","<p> <font color=""green"" size=""5vw""> Correct category! </font></p>","null","feedback","","","","","","","10"
"","","","","","html-keyboard-response","136","173504","0.0-7.16-0.16","61253c280188c5503a64af66","655cb802637e0dbe2941dbc4","655cb8b84a2134892250356a","603","
            
        <div style=""text-align: center; position: fixed; top: 5vh; left: 40vw;"">
            <div style=""margin:0 auto; width: 20vw; top: 8vh; font-size: 2vw""> 
            <font color=""green""> Bonus : $10 </font>
            </div>
        </div>
    
            <div> Please press any key to continue to the next image.</div>
        "," ","ITI","","","","","","",""
"","","","","","html-keyboard-response","137","174107","0.0-7.16-1.16","61253c280188c5503a64af66","655cb802637e0dbe2941dbc4","655cb8b84a2134892250356a","null","
        
        <div style=""text-align: center; position: fixed; top: 5vh; left: 40vw;"">
            <div style=""margin:0 auto; width: 20vw; top: 8vh; font-size: 2vw""> 
            <font color=""green""> Bonus : $10 </font>
            </div>
        </div>
    
        <img class=""stim"" src=./stimuli//pack_shapes_diff/cat_2/diff_4/ex_2_4_6.png></img>
    ","null","stimulus","","","","","","",""
"","","","","","html-keyboard-response","138","175112","0.0-7.16-2.16","61253c280188c5503a64af66","655cb802637e0dbe2941dbc4","655cb8b84a2134892250356a","null","
        <div style=""text-align: center; position: fixed; top: 5vh; left: 40vw;"">
            <div style=""margin:0 auto; width: 20vw; top: 8vh; font-size: 2vw""> 
            <font color=""green""> Bonus : $10 </font>
            </div>
        </div>
    ","null","","","","","","","",""
"","","","","","html-keyboard-response","139","175628","0.0-7.16-3.16","61253c280188c5503a64af66","655cb802637e0dbe2941dbc4","655cb8b84a2134892250356a","516","./stimuli//pack_shapes_diff/cat_2/diff_4/ex_2_4_6.png","arrowright","response","ArrowRight","6","2","4","test","true",""
"","","","","","html-keyboard-response","140","177135","0.0-7.16-4.16","61253c280188c5503a64af66","655cb802637e0dbe2941dbc4","655cb8b84a2134892250356a","null","<p> <font color=""green"" size=""5vw""> Correct category! </font></p>","null","feedback","","","","","","","10"
"","","","","","html-keyboard-response","141","177772","0.0-7.17-0.17","61253c280188c5503a64af66","655cb802637e0dbe2941dbc4","655cb8b84a2134892250356a","636","
            
        <div style=""text-align: center; position: fixed; top: 5vh; left: 40vw;"">
            <div style=""margin:0 auto; width: 20vw; top: 8vh; font-size: 2vw""> 
            <font color=""green""> Bonus : $10 </font>
            </div>
        </div>
    
            <div> Please press any key to continue to the next image.</div>
        "," ","ITI","","","","","","",""
"","","","","","html-keyboard-response","142","178373","0.0-7.17-1.17","61253c280188c5503a64af66","655cb802637e0dbe2941dbc4","655cb8b84a2134892250356a","null","
        
        <div style=""text-align: center; position: fixed; top: 5vh; left: 40vw;"">
            <div style=""margin:0 auto; width: 20vw; top: 8vh; font-size: 2vw""> 
            <font color=""green""> Bonus : $10 </font>
            </div>
        </div>
    
        <img class=""stim"" src=./stimuli//pack_shapes_diff/cat_2/diff_4/ex_2_4_5.png></img>
    ","null","stimulus","","","","","","",""
"","","","","","html-keyboard-response","143","179378","0.0-7.17-2.17","61253c280188c5503a64af66","655cb802637e0dbe2941dbc4","655cb8b84a2134892250356a","null","
        <div style=""text-align: center; position: fixed; top: 5vh; left: 40vw;"">
            <div style=""margin:0 auto; width: 20vw; top: 8vh; font-size: 2vw""> 
            <font color=""green""> Bonus : $10 </font>
            </div>
        </div>
    ","null","","","","","","","",""
"","","","","","html-keyboard-response","144","179957","0.0-7.17-3.17","61253c280188c5503a64af66","655cb802637e0dbe2941dbc4","655cb8b84a2134892250356a","579","./stimuli//pack_shapes_diff/cat_2/diff_4/ex_2_4_5.png","arrowright","response","ArrowRight","5","2","4","test","true",""
"","","","","","html-keyboard-response","145","181464","0.0-7.17-4.17","61253c280188c5503a64af66","655cb802637e0dbe2941dbc4","655cb8b84a2134892250356a","null","<p> <font color=""green"" size=""5vw""> Correct category! </font></p>","null","feedback","","","","","","","10"
"","","","","","html-keyboard-response","146","182636","0.0-7.18-0.18","61253c280188c5503a64af66","655cb802637e0dbe2941dbc4","655cb8b84a2134892250356a","1170","
            
        <div style=""text-align: center; position: fixed; top: 5vh; left: 40vw;"">
            <div style=""margin:0 auto; width: 20vw; top: 8vh; font-size: 2vw""> 
            <font color=""green""> Bonus : $10 </font>
            </div>
        </div>
    
            <div> Please press any key to continue to the next image.</div>
        "," ","ITI","","","","","","",""
"","","","","","html-keyboard-response","147","183243","0.0-7.18-1.18","61253c280188c5503a64af66","655cb802637e0dbe2941dbc4","655cb8b84a2134892250356a","null","
        
        <div style=""text-align: center; position: fixed; top: 5vh; left: 40vw;"">
            <div style=""margin:0 auto; width: 20vw; top: 8vh; font-size: 2vw""> 
            <font color=""green""> Bonus : $10 </font>
            </div>
        </div>
    
        <img class=""stim"" src=./stimuli//pack_shapes_diff/cat_2/diff_4/ex_2_4_6.png></img>
    ","null","stimulus","","","","","","",""
"","","","","","html-keyboard-response","148","184249","0.0-7.18-2.18","61253c280188c5503a64af66","655cb802637e0dbe2941dbc4","655cb8b84a2134892250356a","null","
        <div style=""text-align: center; position: fixed; top: 5vh; left: 40vw;"">
            <div style=""margin:0 auto; width: 20vw; top: 8vh; font-size: 2vw""> 
            <font color=""green""> Bonus : $10 </font>
            </div>
        </div>
    ","null","","","","","","","",""
"","","","","","html-keyboard-response","149","184849","0.0-7.18-3.18","61253c280188c5503a64af66","655cb802637e0dbe2941dbc4","655cb8b84a2134892250356a","600","./stimuli//pack_shapes_diff/cat_2/diff_4/ex_2_4_6.png","arrowright","response","ArrowRight","6","2","4","test","true",""
"","","","","","html-keyboard-response","150","186351","0.0-7.18-4.18","61253c280188c5503a64af66","655cb802637e0dbe2941dbc4","655cb8b84a2134892250356a","null","<p> <font color=""green"" size=""5vw""> Correct category! </font></p>","null","feedback","","","","","","","10"
"","","","","","html-keyboard-response","151","187313","0.0-7.19-0.19","61253c280188c5503a64af66","655cb802637e0dbe2941dbc4","655cb8b84a2134892250356a","962","
            
        <div style=""text-align: center; position: fixed; top: 5vh; left: 40vw;"">
            <div style=""margin:0 auto; width: 20vw; top: 8vh; font-size: 2vw""> 
            <font color=""green""> Bonus : $10 </font>
            </div>
        </div>
    
            <div> Please press any key to continue to the next image.</div>
        "," ","ITI","","","","","","",""
"","","","","","html-keyboard-response","152","187917","0.0-7.19-1.19","61253c280188c5503a64af66","655cb802637e0dbe2941dbc4","655cb8b84a2134892250356a","null","
        
        <div style=""text-align: center; position: fixed; top: 5vh; left: 40vw;"">
            <div style=""margin:0 auto; width: 20vw; top: 8vh; font-size: 2vw""> 
            <font color=""green""> Bonus : $10 </font>
            </div>
        </div>
    
        <img class=""stim"" src=./stimuli//pack_shapes_diff/cat_2/diff_4/ex_2_4_10.png></img>
    ","null","stimulus","","","","","","",""
"","","","","","html-keyboard-response","153","188923","0.0-7.19-2.19","61253c280188c5503a64af66","655cb802637e0dbe2941dbc4","655cb8b84a2134892250356a","null","
        <div style=""text-align: center; position: fixed; top: 5vh; left: 40vw;"">
            <div style=""margin:0 auto; width: 20vw; top: 8vh; font-size: 2vw""> 
            <font color=""green""> Bonus : $10 </font>
            </div>
        </div>
    ","null","","","","","","","",""
"","","","","","html-keyboard-response","154","189101","0.0-7.19-3.19","61253c280188c5503a64af66","655cb802637e0dbe2941dbc4","655cb8b84a2134892250356a","177","./stimuli//pack_shapes_diff/cat_2/diff_4/ex_2_4_10.png","arrowright","response","ArrowRight","10","2","4","test","true",""
"","","","","","html-keyboard-response","155","190603","0.0-7.19-4.19","61253c280188c5503a64af66","655cb802637e0dbe2941dbc4","655cb8b84a2134892250356a","null","<p> <font color=""green"" size=""5vw""> Correct category! </font></p>","null","feedback","","","","","","","10"
"","","","","","html-keyboard-response","156","190970","0.0-7.20-0.20","61253c280188c5503a64af66","655cb802637e0dbe2941dbc4","655cb8b84a2134892250356a","366","
            
        <div style=""text-align: center; position: fixed; top: 5vh; left: 40vw;"">
            <div style=""margin:0 auto; width: 20vw; top: 8vh; font-size: 2vw""> 
            <font color=""green""> Bonus : $10 </font>
            </div>
        </div>
    
            <div> Please press any key to continue to the next image.</div>
        "," ","ITI","","","","","","",""
"","","","","","html-keyboard-response","157","191573","0.0-7.20-1.20","61253c280188c5503a64af66","655cb802637e0dbe2941dbc4","655cb8b84a2134892250356a","null","
        
        <div style=""text-align: center; position: fixed; top: 5vh; left: 40vw;"">
            <div style=""margin:0 auto; width: 20vw; top: 8vh; font-size: 2vw""> 
            <font color=""green""> Bonus : $10 </font>
            </div>
        </div>
    
        <img class=""stim"" src=./stimuli//pack_shapes_diff/cat_2/diff_5/ex_2_5_7.png></img>
    ","null","stimulus","","","","","","",""
"","","","","","html-keyboard-response","158","192575","0.0-7.20-2.20","61253c280188c5503a64af66","655cb802637e0dbe2941dbc4","655cb8b84a2134892250356a","null","
        <div style=""text-align: center; position: fixed; top: 5vh; left: 40vw;"">
            <div style=""margin:0 auto; width: 20vw; top: 8vh; font-size: 2vw""> 
            <font color=""green""> Bonus : $10 </font>
            </div>
        </div>
    ","null","","","","","","","",""
"","","","","","html-keyboard-response","159","193372","0.0-7.20-3.20","61253c280188c5503a64af66","655cb802637e0dbe2941dbc4","655cb8b84a2134892250356a","797","./stimuli//pack_shapes_diff/cat_2/diff_5/ex_2_5_7.png","arrowright","response","ArrowRight","7","2","5","test","true",""
"","","","","","html-keyboard-response","160","194878","0.0-7.20-4.20","61253c280188c5503a64af66","655cb802637e0dbe2941dbc4","655cb8b84a2134892250356a","null","<p> <font color=""green"" size=""5vw""> Correct category! </font></p>","null","feedback","","","","","","","10"
"","","","","","html-keyboard-response","161","195755","0.0-7.21-0.21","61253c280188c5503a64af66","655cb802637e0dbe2941dbc4","655cb8b84a2134892250356a","876","
            
        <div style=""text-align: center; position: fixed; top: 5vh; left: 40vw;"">
            <div style=""margin:0 auto; width: 20vw; top: 8vh; font-size: 2vw""> 
            <font color=""green""> Bonus : $10 </font>
            </div>
        </div>
    
            <div> Please press any key to continue to the next image.</div>
        "," ","ITI","","","","","","",""
"","","","","","html-keyboard-response","162","196357","0.0-7.21-1.21","61253c280188c5503a64af66","655cb802637e0dbe2941dbc4","655cb8b84a2134892250356a","null","
        
        <div style=""text-align: center; position: fixed; top: 5vh; left: 40vw;"">
            <div style=""margin:0 auto; width: 20vw; top: 8vh; font-size: 2vw""> 
            <font color=""green""> Bonus : $10 </font>
            </div>
        </div>
    
        <img class=""stim"" src=./stimuli//pack_shapes_diff/cat_1/diff_5/ex_1_5_10.png></img>
    ","null","stimulus","","","","","","",""
"","","","","","html-keyboard-response","163","197364","0.0-7.21-2.21","61253c280188c5503a64af66","655cb802637e0dbe2941dbc4","655cb8b84a2134892250356a","null","
        <div style=""text-align: center; position: fixed; top: 5vh; left: 40vw;"">
            <div style=""margin:0 auto; width: 20vw; top: 8vh; font-size: 2vw""> 
            <font color=""green""> Bonus : $10 </font>
            </div>
        </div>
    ","null","","","","","","","",""
"","","","","","html-keyboard-response","164","198471","0.0-7.21-3.21","61253c280188c5503a64af66","655cb802637e0dbe2941dbc4","655cb8b84a2134892250356a","1106","./stimuli//pack_shapes_diff/cat_1/diff_5/ex_1_5_10.png","arrowright","response","ArrowLeft","10","1","5","test","false",""
"","","","","","html-keyboard-response","165","199978","0.0-7.21-4.21","61253c280188c5503a64af66","655cb802637e0dbe2941dbc4","655cb8b84a2134892250356a","null","<p> <font size=""4vw""> Wrong category! </font> <br> <br> <font color=""red"" size=""7vw""> - $0.05 points </font> </p>","null","feedback","","","","","","","9.95"
"","","","","","html-keyboard-response","166","201358","0.0-7.22-0.22","61253c280188c5503a64af66","655cb802637e0dbe2941dbc4","655cb8b84a2134892250356a","1380","
            
        <div style=""text-align: center; position: fixed; top: 5vh; left: 40vw;"">
            <div style=""margin:0 auto; width: 20vw; top: 8vh; font-size: 2vw""> 
            <font color=""green""> Bonus : $9.95 </font>
            </div>
        </div>
    
            <div> Please press any key to continue to the next image.</div>
        "," ","ITI","","","","","","",""
"","","","","","html-keyboard-response","167","201962","0.0-7.22-1.22","61253c280188c5503a64af66","655cb802637e0dbe2941dbc4","655cb8b84a2134892250356a","null","
        
        <div style=""text-align: center; position: fixed; top: 5vh; left: 40vw;"">
            <div style=""margin:0 auto; width: 20vw; top: 8vh; font-size: 2vw""> 
            <font color=""green""> Bonus : $9.95 </font>
            </div>
        </div>
    
        <img class=""stim"" src=./stimuli//pack_shapes_diff/cat_1/diff_5/ex_1_5_1.png></img>
    ","null","stimulus","","","","","","",""
"","","","","","html-keyboard-response","168","202969","0.0-7.22-2.22","61253c280188c5503a64af66","655cb802637e0dbe2941dbc4","655cb8b84a2134892250356a","null","
        <div style=""text-align: center; position: fixed; top: 5vh; left: 40vw;"">
            <div style=""margin:0 auto; width: 20vw; top: 8vh; font-size: 2vw""> 
            <font color=""green""> Bonus : $9.95 </font>
            </div>
        </div>
    ","null","","","","","","","",""
"","","","","","html-keyboard-response","169","203511","0.0-7.22-3.22","61253c280188c5503a64af66","655cb802637e0dbe2941dbc4","655cb8b84a2134892250356a","542","./stimuli//pack_shapes_diff/cat_1/diff_5/ex_1_5_1.png","arrowleft","response","ArrowLeft","1","1","5","test","true",""
"","","","","","html-keyboard-response","170","205012","0.0-7.22-4.22","61253c280188c5503a64af66","655cb802637e0dbe2941dbc4","655cb8b84a2134892250356a","null","<p> <font color=""green"" size=""5vw""> Correct category! </font></p>","null","feedback","","","","","","","9.95"
"","","","","","html-keyboard-response","171","206450","0.0-7.23-0.23","61253c280188c5503a64af66","655cb802637e0dbe2941dbc4","655cb8b84a2134892250356a","1436","
            
        <div style=""text-align: center; position: fixed; top: 5vh; left: 40vw;"">
            <div style=""margin:0 auto; width: 20vw; top: 8vh; font-size: 2vw""> 
            <font color=""green""> Bonus : $9.95 </font>
            </div>
        </div>
    
            <div> Please press any key to continue to the next image.</div>
        "," ","ITI","","","","","","",""
"","","","","","html-keyboard-response","172","207054","0.0-7.23-1.23","61253c280188c5503a64af66","655cb802637e0dbe2941dbc4","655cb8b84a2134892250356a","null","
        
        <div style=""text-align: center; position: fixed; top: 5vh; left: 40vw;"">
            <div style=""margin:0 auto; width: 20vw; top: 8vh; font-size: 2vw""> 
            <font color=""green""> Bonus : $9.95 </font>
            </div>
        </div>
    
        <img class=""stim"" src=./stimuli//pack_shapes_diff/cat_1/diff_5/ex_1_5_6.png></img>
    ","null","stimulus","","","","","","",""
"","","","","","html-keyboard-response","173","208060","0.0-7.23-2.23","61253c280188c5503a64af66","655cb802637e0dbe2941dbc4","655cb8b84a2134892250356a","null","
        <div style=""text-align: center; position: fixed; top: 5vh; left: 40vw;"">
            <div style=""margin:0 auto; width: 20vw; top: 8vh; font-size: 2vw""> 
            <font color=""green""> Bonus : $9.95 </font>
            </div>
        </div>
    ","null","","","","","","","",""
"","","","","","html-keyboard-response","174","208931","0.0-7.23-3.23","61253c280188c5503a64af66","655cb802637e0dbe2941dbc4","655cb8b84a2134892250356a","870","./stimuli//pack_shapes_diff/cat_1/diff_5/ex_1_5_6.png","arrowleft","response","ArrowLeft","6","1","5","test","true",""
"","","","","","html-keyboard-response","175","210437","0.0-7.23-4.23","61253c280188c5503a64af66","655cb802637e0dbe2941dbc4","655cb8b84a2134892250356a","null","<p> <font color=""green"" size=""5vw""> Correct category! </font></p>","null","feedback","","","","","","","9.95"
"","","","","","html-keyboard-response","176","211347","0.0-7.24-0.24","61253c280188c5503a64af66","655cb802637e0dbe2941dbc4","655cb8b84a2134892250356a","909","
            
        <div style=""text-align: center; position: fixed; top: 5vh; left: 40vw;"">
            <div style=""margin:0 auto; width: 20vw; top: 8vh; font-size: 2vw""> 
            <font color=""green""> Bonus : $9.95 </font>
            </div>
        </div>
    
            <div> Please press any key to continue to the next image.</div>
        "," ","ITI","","","","","","",""
"","","","","","html-keyboard-response","177","211949","0.0-7.24-1.24","61253c280188c5503a64af66","655cb802637e0dbe2941dbc4","655cb8b84a2134892250356a","null","
        
        <div style=""text-align: center; position: fixed; top: 5vh; left: 40vw;"">
            <div style=""margin:0 auto; width: 20vw; top: 8vh; font-size: 2vw""> 
            <font color=""green""> Bonus : $9.95 </font>
            </div>
        </div>
    
        <img class=""stim"" src=./stimuli//pack_shapes_diff/cat_1/diff_5/ex_1_5_12.png></img>
    ","null","stimulus","","","","","","",""
"","","","","","html-keyboard-response","178","212952","0.0-7.24-2.24","61253c280188c5503a64af66","655cb802637e0dbe2941dbc4","655cb8b84a2134892250356a","null","
        <div style=""text-align: center; position: fixed; top: 5vh; left: 40vw;"">
            <div style=""margin:0 auto; width: 20vw; top: 8vh; font-size: 2vw""> 
            <font color=""green""> Bonus : $9.95 </font>
            </div>
        </div>
    ","null","","","","","","","",""
"","","","","","html-keyboard-response","179","213373","0.0-7.24-3.24","61253c280188c5503a64af66","655cb802637e0dbe2941dbc4","655cb8b84a2134892250356a","421","./stimuli//pack_shapes_diff/cat_1/diff_5/ex_1_5_12.png","arrowleft","response","ArrowLeft","12","1","5","test","true",""
"","","","","","html-keyboard-response","180","214880","0.0-7.24-4.24","61253c280188c5503a64af66","655cb802637e0dbe2941dbc4","655cb8b84a2134892250356a","null","<p> <font color=""green"" size=""5vw""> Correct category! </font></p>","null","feedback","","","","","","","9.95"
"","","","","","html-keyboard-response","181","216161","0.0-7.25-0.25","61253c280188c5503a64af66","655cb802637e0dbe2941dbc4","655cb8b84a2134892250356a","1280","
            
        <div style=""text-align: center; position: fixed; top: 5vh; left: 40vw;"">
            <div style=""margin:0 auto; width: 20vw; top: 8vh; font-size: 2vw""> 
            <font color=""green""> Bonus : $9.95 </font>
            </div>
        </div>
    
            <div> Please press any key to continue to the next image.</div>
        "," ","ITI","","","","","","",""
"","","","","","html-keyboard-response","182","216767","0.0-7.25-1.25","61253c280188c5503a64af66","655cb802637e0dbe2941dbc4","655cb8b84a2134892250356a","null","
        
        <div style=""text-align: center; position: fixed; top: 5vh; left: 40vw;"">
            <div style=""margin:0 auto; width: 20vw; top: 8vh; font-size: 2vw""> 
            <font color=""green""> Bonus : $9.95 </font>
            </div>
        </div>
    
        <img class=""stim"" src=./stimuli//pack_shapes_diff/cat_1/diff_5/ex_1_5_12.png></img>
    ","null","stimulus","","","","","","",""
"","","","","","html-keyboard-response","183","217774","0.0-7.25-2.25","61253c280188c5503a64af66","655cb802637e0dbe2941dbc4","655cb8b84a2134892250356a","null","
        <div style=""text-align: center; position: fixed; top: 5vh; left: 40vw;"">
            <div style=""margin:0 auto; width: 20vw; top: 8vh; font-size: 2vw""> 
            <font color=""green""> Bonus : $9.95 </font>
            </div>
        </div>
    ","null","","","","","","","",""
"","","","","","html-keyboard-response","184","218107","0.0-7.25-3.25","61253c280188c5503a64af66","655cb802637e0dbe2941dbc4","655cb8b84a2134892250356a","333","./stimuli//pack_shapes_diff/cat_1/diff_5/ex_1_5_12.png","arrowright","response","ArrowLeft","12","1","5","test","false",""
"","","","","","html-keyboard-response","185","219614","0.0-7.25-4.25","61253c280188c5503a64af66","655cb802637e0dbe2941dbc4","655cb8b84a2134892250356a","null","<p> <font size=""4vw""> Wrong category! </font> <br> <br> <font color=""red"" size=""7vw""> - $0.05 points </font> </p>","null","feedback","","","","","","","9.9"
"","","","","","html-keyboard-response","186","220490","0.0-7.26-0.26","61253c280188c5503a64af66","655cb802637e0dbe2941dbc4","655cb8b84a2134892250356a","875","
            
        <div style=""text-align: center; position: fixed; top: 5vh; left: 40vw;"">
            <div style=""margin:0 auto; width: 20vw; top: 8vh; font-size: 2vw""> 
            <font color=""green""> Bonus : $9.9 </font>
            </div>
        </div>
    
            <div> Please press any key to continue to the next image.</div>
        "," ","ITI","","","","","","",""
"","","","","","html-keyboard-response","187","221095","0.0-7.26-1.26","61253c280188c5503a64af66","655cb802637e0dbe2941dbc4","655cb8b84a2134892250356a","null","
        
        <div style=""text-align: center; position: fixed; top: 5vh; left: 40vw;"">
            <div style=""margin:0 auto; width: 20vw; top: 8vh; font-size: 2vw""> 
            <font color=""green""> Bonus : $9.9 </font>
            </div>
        </div>
    
        <img class=""stim"" src=./stimuli//pack_shapes_diff/cat_2/diff_4/ex_2_4_15.png></img>
    ","null","stimulus","","","","","","",""
"","","","","","html-keyboard-response","188","222100","0.0-7.26-2.26","61253c280188c5503a64af66","655cb802637e0dbe2941dbc4","655cb8b84a2134892250356a","null","
        <div style=""text-align: center; position: fixed; top: 5vh; left: 40vw;"">
            <div style=""margin:0 auto; width: 20vw; top: 8vh; font-size: 2vw""> 
            <font color=""green""> Bonus : $9.9 </font>
            </div>
        </div>
    ","null","","","","","","","",""
"","","","","","html-keyboard-response","189","223398","0.0-7.26-3.26","61253c280188c5503a64af66","655cb802637e0dbe2941dbc4","655cb8b84a2134892250356a","1297","./stimuli//pack_shapes_diff/cat_2/diff_4/ex_2_4_15.png","arrowleft","response","ArrowRight","15","2","4","test","false",""
"","","","","","html-keyboard-response","190","224902","0.0-7.26-4.26","61253c280188c5503a64af66","655cb802637e0dbe2941dbc4","655cb8b84a2134892250356a","null","<p> <font size=""4vw""> Wrong category! </font> <br> <br> <font color=""red"" size=""7vw""> - $0.05 points </font> </p>","null","feedback","","","","","","","9.85"
"","","","","","html-keyboard-response","191","225628","0.0-7.27-0.27","61253c280188c5503a64af66","655cb802637e0dbe2941dbc4","655cb8b84a2134892250356a","726","
            
        <div style=""text-align: center; position: fixed; top: 5vh; left: 40vw;"">
            <div style=""margin:0 auto; width: 20vw; top: 8vh; font-size: 2vw""> 
            <font color=""green""> Bonus : $9.85 </font>
            </div>
        </div>
    
            <div> Please press any key to continue to the next image.</div>
        "," ","ITI","","","","","","",""
"","","","","","html-keyboard-response","192","226229","0.0-7.27-1.27","61253c280188c5503a64af66","655cb802637e0dbe2941dbc4","655cb8b84a2134892250356a","null","
        
        <div style=""text-align: center; position: fixed; top: 5vh; left: 40vw;"">
            <div style=""margin:0 auto; width: 20vw; top: 8vh; font-size: 2vw""> 
            <font color=""green""> Bonus : $9.85 </font>
            </div>
        </div>
    
        <img class=""stim"" src=./stimuli//pack_shapes_diff/cat_2/diff_4/ex_2_4_1.png></img>
    ","null","stimulus","","","","","","",""
"","","","","","html-keyboard-response","193","227236","0.0-7.27-2.27","61253c280188c5503a64af66","655cb802637e0dbe2941dbc4","655cb8b84a2134892250356a","null","
        <div style=""text-align: center; position: fixed; top: 5vh; left: 40vw;"">
            <div style=""margin:0 auto; width: 20vw; top: 8vh; font-size: 2vw""> 
            <font color=""green""> Bonus : $9.85 </font>
            </div>
        </div>
    ","null","","","","","","","",""
"","","","","","html-keyboard-response","194","227958","0.0-7.27-3.27","61253c280188c5503a64af66","655cb802637e0dbe2941dbc4","655cb8b84a2134892250356a","721","./stimuli//pack_shapes_diff/cat_2/diff_4/ex_2_4_1.png","arrowright","response","ArrowRight","1","2","4","test","true",""
"","","","","","html-keyboard-response","195","229464","0.0-7.27-4.27","61253c280188c5503a64af66","655cb802637e0dbe2941dbc4","655cb8b84a2134892250356a","null","<p> <font color=""green"" size=""5vw""> Correct category! </font></p>","null","feedback","","","","","","","9.85"
"","","","","","html-keyboard-response","196","230410","0.0-7.28-0.28","61253c280188c5503a64af66","655cb802637e0dbe2941dbc4","655cb8b84a2134892250356a","946","
            
        <div style=""text-align: center; position: fixed; top: 5vh; left: 40vw;"">
            <div style=""margin:0 auto; width: 20vw; top: 8vh; font-size: 2vw""> 
            <font color=""green""> Bonus : $9.85 </font>
            </div>
        </div>
    
            <div> Please press any key to continue to the next image.</div>
        "," ","ITI","","","","","","",""
"","","","","","html-keyboard-response","197","231014","0.0-7.28-1.28","61253c280188c5503a64af66","655cb802637e0dbe2941dbc4","655cb8b84a2134892250356a","null","
        
        <div style=""text-align: center; position: fixed; top: 5vh; left: 40vw;"">
            <div style=""margin:0 auto; width: 20vw; top: 8vh; font-size: 2vw""> 
            <font color=""green""> Bonus : $9.85 </font>
            </div>
        </div>
    
        <img class=""stim"" src=./stimuli//pack_shapes_diff/cat_2/diff_4/ex_2_4_17.png></img>
    ","null","stimulus","","","","","","",""
"","","","","","html-keyboard-response","198","232016","0.0-7.28-2.28","61253c280188c5503a64af66","655cb802637e0dbe2941dbc4","655cb8b84a2134892250356a","null","
        <div style=""text-align: center; position: fixed; top: 5vh; left: 40vw;"">
            <div style=""margin:0 auto; width: 20vw; top: 8vh; font-size: 2vw""> 
            <font color=""green""> Bonus : $9.85 </font>
            </div>
        </div>
    ","null","","","","","","","",""
"","","","","","html-keyboard-response","199","232523","0.0-7.28-3.28","61253c280188c5503a64af66","655cb802637e0dbe2941dbc4","655cb8b84a2134892250356a","506","./stimuli//pack_shapes_diff/cat_2/diff_4/ex_2_4_17.png","arrowright","response","ArrowRight","17","2","4","test","true",""
"","","","","","html-keyboard-response","200","234025","0.0-7.28-4.28","61253c280188c5503a64af66","655cb802637e0dbe2941dbc4","655cb8b84a2134892250356a","null","<p> <font color=""green"" size=""5vw""> Correct category! </font></p>","null","feedback","","","","","","","9.85"
"","","","","","html-keyboard-response","201","235320","0.0-7.29-0.29","61253c280188c5503a64af66","655cb802637e0dbe2941dbc4","655cb8b84a2134892250356a","1294","
            
        <div style=""text-align: center; position: fixed; top: 5vh; left: 40vw;"">
            <div style=""margin:0 auto; width: 20vw; top: 8vh; font-size: 2vw""> 
            <font color=""green""> Bonus : $9.85 </font>
            </div>
        </div>
    
            <div> Please press any key to continue to the next image.</div>
        "," ","ITI","","","","","","",""
"","","","","","html-keyboard-response","202","235922","0.0-7.29-1.29","61253c280188c5503a64af66","655cb802637e0dbe2941dbc4","655cb8b84a2134892250356a","null","
        
        <div style=""text-align: center; position: fixed; top: 5vh; left: 40vw;"">
            <div style=""margin:0 auto; width: 20vw; top: 8vh; font-size: 2vw""> 
            <font color=""green""> Bonus : $9.85 </font>
            </div>
        </div>
    
        <img class=""stim"" src=./stimuli//pack_shapes_diff/cat_1/diff_4/ex_1_4_2.png></img>
    ","null","stimulus","","","","","","",""
"","","","","","html-keyboard-response","203","236925","0.0-7.29-2.29","61253c280188c5503a64af66","655cb802637e0dbe2941dbc4","655cb8b84a2134892250356a","null","
        <div style=""text-align: center; position: fixed; top: 5vh; left: 40vw;"">
            <div style=""margin:0 auto; width: 20vw; top: 8vh; font-size: 2vw""> 
            <font color=""green""> Bonus : $9.85 </font>
            </div>
        </div>
    ","null","","","","","","","",""
"","","","","","html-keyboard-response","204","237455","0.0-7.29-3.29","61253c280188c5503a64af66","655cb802637e0dbe2941dbc4","655cb8b84a2134892250356a","529","./stimuli//pack_shapes_diff/cat_1/diff_4/ex_1_4_2.png","arrowleft","response","ArrowLeft","2","1","4","test","true",""
"","","","","","html-keyboard-response","205","238962","0.0-7.29-4.29","61253c280188c5503a64af66","655cb802637e0dbe2941dbc4","655cb8b84a2134892250356a","null","<p> <font color=""green"" size=""5vw""> Correct category! </font></p>","null","feedback","","","","","","","9.85"
"","","","","","html-keyboard-response","206","239477","0.0-7.30-0.30","61253c280188c5503a64af66","655cb802637e0dbe2941dbc4","655cb8b84a2134892250356a","514","
            
        <div style=""text-align: center; position: fixed; top: 5vh; left: 40vw;"">
            <div style=""margin:0 auto; width: 20vw; top: 8vh; font-size: 2vw""> 
            <font color=""green""> Bonus : $9.85 </font>
            </div>
        </div>
    
            <div> Please press any key to continue to the next image.</div>
        "," ","ITI","","","","","","",""
"","","","","","html-keyboard-response","207","240084","0.0-7.30-1.30","61253c280188c5503a64af66","655cb802637e0dbe2941dbc4","655cb8b84a2134892250356a","null","
        
        <div style=""text-align: center; position: fixed; top: 5vh; left: 40vw;"">
            <div style=""margin:0 auto; width: 20vw; top: 8vh; font-size: 2vw""> 
            <font color=""green""> Bonus : $9.85 </font>
            </div>
        </div>
    
        <img class=""stim"" src=./stimuli//pack_shapes_diff/cat_1/diff_4/ex_1_4_14.png></img>
    ","null","stimulus","","","","","","",""
"","","","","","html-keyboard-response","208","241091","0.0-7.30-2.30","61253c280188c5503a64af66","655cb802637e0dbe2941dbc4","655cb8b84a2134892250356a","null","
        <div style=""text-align: center; position: fixed; top: 5vh; left: 40vw;"">
            <div style=""margin:0 auto; width: 20vw; top: 8vh; font-size: 2vw""> 
            <font color=""green""> Bonus : $9.85 </font>
            </div>
        </div>
    ","null","","","","","","","",""
"","","","","","html-keyboard-response","209","242138","0.0-7.30-3.30","61253c280188c5503a64af66","655cb802637e0dbe2941dbc4","655cb8b84a2134892250356a","1047","./stimuli//pack_shapes_diff/cat_1/diff_4/ex_1_4_14.png","arrowleft","response","ArrowLeft","14","1","4","test","true",""
"","","","","","html-keyboard-response","210","243641","0.0-7.30-4.30","61253c280188c5503a64af66","655cb802637e0dbe2941dbc4","655cb8b84a2134892250356a","null","<p> <font color=""green"" size=""5vw""> Correct category! </font></p>","null","feedback","","","","","","","9.85"
"","","","","","html-keyboard-response","211","244298","0.0-7.31-0.31","61253c280188c5503a64af66","655cb802637e0dbe2941dbc4","655cb8b84a2134892250356a","657","
            
        <div style=""text-align: center; position: fixed; top: 5vh; left: 40vw;"">
            <div style=""margin:0 auto; width: 20vw; top: 8vh; font-size: 2vw""> 
            <font color=""green""> Bonus : $9.85 </font>
            </div>
        </div>
    
            <div> Please press any key to continue to the next image.</div>
        "," ","ITI","","","","","","",""
"","","","","","html-keyboard-response","212","244901","0.0-7.31-1.31","61253c280188c5503a64af66","655cb802637e0dbe2941dbc4","655cb8b84a2134892250356a","null","
        
        <div style=""text-align: center; position: fixed; top: 5vh; left: 40vw;"">
            <div style=""margin:0 auto; width: 20vw; top: 8vh; font-size: 2vw""> 
            <font color=""green""> Bonus : $9.85 </font>
            </div>
        </div>
    
        <img class=""stim"" src=./stimuli//pack_shapes_diff/cat_2/diff_5/ex_2_5_6.png></img>
    ","null","stimulus","","","","","","",""
"","","","","","html-keyboard-response","213","245905","0.0-7.31-2.31","61253c280188c5503a64af66","655cb802637e0dbe2941dbc4","655cb8b84a2134892250356a","null","
        <div style=""text-align: center; position: fixed; top: 5vh; left: 40vw;"">
            <div style=""margin:0 auto; width: 20vw; top: 8vh; font-size: 2vw""> 
            <font color=""green""> Bonus : $9.85 </font>
            </div>
        </div>
    ","null","","","","","","","",""
"","","","","","html-keyboard-response","214","246690","0.0-7.31-3.31","61253c280188c5503a64af66","655cb802637e0dbe2941dbc4","655cb8b84a2134892250356a","784","./stimuli//pack_shapes_diff/cat_2/diff_5/ex_2_5_6.png","arrowright","response","ArrowRight","6","2","5","test","true",""
"","","","","","html-keyboard-response","215","248193","0.0-7.31-4.31","61253c280188c5503a64af66","655cb802637e0dbe2941dbc4","655cb8b84a2134892250356a","null","<p> <font color=""green"" size=""5vw""> Correct category! </font></p>","null","feedback","","","","","","","9.85"
"","","","","","html-keyboard-response","216","248703","0.0-7.32-0.32","61253c280188c5503a64af66","655cb802637e0dbe2941dbc4","655cb8b84a2134892250356a","509","
            
        <div style=""text-align: center; position: fixed; top: 5vh; left: 40vw;"">
            <div style=""margin:0 auto; width: 20vw; top: 8vh; font-size: 2vw""> 
            <font color=""green""> Bonus : $9.85 </font>
            </div>
        </div>
    
            <div> Please press any key to continue to the next image.</div>
        "," ","ITI","","","","","","",""
"","","","","","html-keyboard-response","217","249307","0.0-7.32-1.32","61253c280188c5503a64af66","655cb802637e0dbe2941dbc4","655cb8b84a2134892250356a","null","
        
        <div style=""text-align: center; position: fixed; top: 5vh; left: 40vw;"">
            <div style=""margin:0 auto; width: 20vw; top: 8vh; font-size: 2vw""> 
            <font color=""green""> Bonus : $9.85 </font>
            </div>
        </div>
    
        <img class=""stim"" src=./stimuli//pack_shapes_diff/cat_2/diff_5/ex_2_5_7.png></img>
    ","null","stimulus","","","","","","",""
"","","","","","html-keyboard-response","218","250310","0.0-7.32-2.32","61253c280188c5503a64af66","655cb802637e0dbe2941dbc4","655cb8b84a2134892250356a","null","
        <div style=""text-align: center; position: fixed; top: 5vh; left: 40vw;"">
            <div style=""margin:0 auto; width: 20vw; top: 8vh; font-size: 2vw""> 
            <font color=""green""> Bonus : $9.85 </font>
            </div>
        </div>
    ","null","","","","","","","",""
"","","","","","html-keyboard-response","219","250680","0.0-7.32-3.32","61253c280188c5503a64af66","655cb802637e0dbe2941dbc4","655cb8b84a2134892250356a","369","./stimuli//pack_shapes_diff/cat_2/diff_5/ex_2_5_7.png","arrowright","response","ArrowRight","7","2","5","test","true",""
"","","","","","html-keyboard-response","220","252188","0.0-7.32-4.32","61253c280188c5503a64af66","655cb802637e0dbe2941dbc4","655cb8b84a2134892250356a","null","<p> <font color=""green"" size=""5vw""> Correct category! </font></p>","null","feedback","","","","","","","9.85"
"","","","","","html-keyboard-response","221","253396","0.0-7.33-0.33","61253c280188c5503a64af66","655cb802637e0dbe2941dbc4","655cb8b84a2134892250356a","1206","
            
        <div style=""text-align: center; position: fixed; top: 5vh; left: 40vw;"">
            <div style=""margin:0 auto; width: 20vw; top: 8vh; font-size: 2vw""> 
            <font color=""green""> Bonus : $9.85 </font>
            </div>
        </div>
    
            <div> Please press any key to continue to the next image.</div>
        "," ","ITI","","","","","","",""
"","","","","","html-keyboard-response","222","254000","0.0-7.33-1.33","61253c280188c5503a64af66","655cb802637e0dbe2941dbc4","655cb8b84a2134892250356a","null","
        
        <div style=""text-align: center; position: fixed; top: 5vh; left: 40vw;"">
            <div style=""margin:0 auto; width: 20vw; top: 8vh; font-size: 2vw""> 
            <font color=""green""> Bonus : $9.85 </font>
            </div>
        </div>
    
        <img class=""stim"" src=./stimuli//pack_shapes_diff/cat_1/diff_5/ex_1_5_9.png></img>
    ","null","stimulus","","","","","","",""
"","","","","","html-keyboard-response","223","255002","0.0-7.33-2.33","61253c280188c5503a64af66","655cb802637e0dbe2941dbc4","655cb8b84a2134892250356a","null","
        <div style=""text-align: center; position: fixed; top: 5vh; left: 40vw;"">
            <div style=""margin:0 auto; width: 20vw; top: 8vh; font-size: 2vw""> 
            <font color=""green""> Bonus : $9.85 </font>
            </div>
        </div>
    ","null","","","","","","","",""
"","","","","","html-keyboard-response","224","255922","0.0-7.33-3.33","61253c280188c5503a64af66","655cb802637e0dbe2941dbc4","655cb8b84a2134892250356a","918","./stimuli//pack_shapes_diff/cat_1/diff_5/ex_1_5_9.png","arrowleft","response","ArrowLeft","9","1","5","test","true",""
"","","","","","html-keyboard-response","225","257426","0.0-7.33-4.33","61253c280188c5503a64af66","655cb802637e0dbe2941dbc4","655cb8b84a2134892250356a","null","<p> <font color=""green"" size=""5vw""> Correct category! </font></p>","null","feedback","","","","","","","9.85"
"","","","","","html-keyboard-response","226","258245","0.0-7.34-0.34","61253c280188c5503a64af66","655cb802637e0dbe2941dbc4","655cb8b84a2134892250356a","818","
            
        <div style=""text-align: center; position: fixed; top: 5vh; left: 40vw;"">
            <div style=""margin:0 auto; width: 20vw; top: 8vh; font-size: 2vw""> 
            <font color=""green""> Bonus : $9.85 </font>
            </div>
        </div>
    
            <div> Please press any key to continue to the next image.</div>
        "," ","ITI","","","","","","",""
"","","","","","html-keyboard-response","227","258848","0.0-7.34-1.34","61253c280188c5503a64af66","655cb802637e0dbe2941dbc4","655cb8b84a2134892250356a","null","
        
        <div style=""text-align: center; position: fixed; top: 5vh; left: 40vw;"">
            <div style=""margin:0 auto; width: 20vw; top: 8vh; font-size: 2vw""> 
            <font color=""green""> Bonus : $9.85 </font>
            </div>
        </div>
    
        <img class=""stim"" src=./stimuli//pack_shapes_diff/cat_1/diff_5/ex_1_5_14.png></img>
    ","null","stimulus","","","","","","",""
"","","","","","html-keyboard-response","228","259854","0.0-7.34-2.34","61253c280188c5503a64af66","655cb802637e0dbe2941dbc4","655cb8b84a2134892250356a","null","
        <div style=""text-align: center; position: fixed; top: 5vh; left: 40vw;"">
            <div style=""margin:0 auto; width: 20vw; top: 8vh; font-size: 2vw""> 
            <font color=""green""> Bonus : $9.85 </font>
            </div>
        </div>
    ","null","","","","","","","",""
"","","","","","html-keyboard-response","229","261259","0.0-7.34-3.34","61253c280188c5503a64af66","655cb802637e0dbe2941dbc4","655cb8b84a2134892250356a","1404","./stimuli//pack_shapes_diff/cat_1/diff_5/ex_1_5_14.png","arrowright","response","ArrowLeft","14","1","5","test","false",""
"","","","","","html-keyboard-response","230","262764","0.0-7.34-4.34","61253c280188c5503a64af66","655cb802637e0dbe2941dbc4","655cb8b84a2134892250356a","null","<p> <font size=""4vw""> Wrong category! </font> <br> <br> <font color=""red"" size=""7vw""> - $0.05 points </font> </p>","null","feedback","","","","","","","9.8"
"","","","","","html-keyboard-response","231","263269","0.0-7.35-0.35","61253c280188c5503a64af66","655cb802637e0dbe2941dbc4","655cb8b84a2134892250356a","504","
            
        <div style=""text-align: center; position: fixed; top: 5vh; left: 40vw;"">
            <div style=""margin:0 auto; width: 20vw; top: 8vh; font-size: 2vw""> 
            <font color=""green""> Bonus : $9.8 </font>
            </div>
        </div>
    
            <div> Please press any key to continue to the next image.</div>
        "," ","ITI","","","","","","",""
"","","","","","html-keyboard-response","232","263872","0.0-7.35-1.35","61253c280188c5503a64af66","655cb802637e0dbe2941dbc4","655cb8b84a2134892250356a","null","
        
        <div style=""text-align: center; position: fixed; top: 5vh; left: 40vw;"">
            <div style=""margin:0 auto; width: 20vw; top: 8vh; font-size: 2vw""> 
            <font color=""green""> Bonus : $9.8 </font>
            </div>
        </div>
    
        <img class=""stim"" src=./stimuli//pack_shapes_diff/cat_2/diff_5/ex_2_5_15.png></img>
    ","null","stimulus","","","","","","",""
"","","","","","html-keyboard-response","233","264877","0.0-7.35-2.35","61253c280188c5503a64af66","655cb802637e0dbe2941dbc4","655cb8b84a2134892250356a","null","
        <div style=""text-align: center; position: fixed; top: 5vh; left: 40vw;"">
            <div style=""margin:0 auto; width: 20vw; top: 8vh; font-size: 2vw""> 
            <font color=""green""> Bonus : $9.8 </font>
            </div>
        </div>
    ","null","","","","","","","",""
