"success","timeout","failed_images","failed_audio","failed_video","trial_type","trial_index","time_elapsed","internal_node_id","subject_id","study_id","session_id","rt","stimulus","response","task","correct_response","exemplar_ID","category","difficulty","phase","correct","bonus"
"true","false","[]","[]","[]","preload","0","1","0.0-0.0","5cb1f1ccf3410900154a93a6","655cb802637e0dbe2941dbc4","655cb89c509604fd85638e2c","","","","","","","","","","",""
"","","","","","html-keyboard-response","1","2707","0.0-1.0","5cb1f1ccf3410900154a93a6","655cb802637e0dbe2941dbc4","655cb89c509604fd85638e2c","2705","Welcome to the Category Learning experiment! Press any key to continue."," ","welcome","","","","","","",""
"","","","","","html-keyboard-response","2","3746","0.0-2.0","5cb1f1ccf3410900154a93a6","655cb802637e0dbe2941dbc4","655cb89c509604fd85638e2c","1037","
            <p>You will be shown images of black shapes. Some are category A, some are category B.
            <br>You will not know in advance which category a specific shape belongs to.</p>
            <p>After you see an image, you will be asked to guess its category <b>(left arrow for category A, right arrow for category B)</b></p>
            <p>After you choose, the screen will show you whether you were correct or not.</p>
            <p>Please try to respond as quickly and accurately as possible every time.</p>
            <p>Press any key to continue.</p>
            "," ","introduction_1","","","","","","",""
"","","","","","html-keyboard-response","3","7590","0.0-3.0","5cb1f1ccf3410900154a93a6","655cb802637e0dbe2941dbc4","655cb89c509604fd85638e2c","3844","
              <p><b>You will receive a bonus payment depending on your performance!</b></p>
              <p><b>You start with a $10 bonus and each time you guess a shape's category incorrectly $0.05 will be subtracted from the bonus. <br> After the end of the experiment you will receive the remaining bonus as payment.</b></p>
              <p>Press any key to continue.</p>
              "," ","introduction_1","","","","","","",""
"","","","","","html-keyboard-response","4","9971","0.0-4.0","5cb1f1ccf3410900154a93a6","655cb802637e0dbe2941dbc4","655cb89c509604fd85638e2c","2380","
            <p> <b>The first 10 trials are a practice round that will not count towards your bonus payment.</b></p>
            <p> You will be notified when practice finishes and the test begins. </p>
            <p> Press any key to begin the practice round.</p>
            "," ","introduction_2","","","","","","",""
"","","","","","html-keyboard-response","5","11497","0.0-5.0-0.0","5cb1f1ccf3410900154a93a6","655cb802637e0dbe2941dbc4","655cb89c509604fd85638e2c","1525","
            
        <div style=""text-align: center; position: fixed; top: 5vh; left: 40vw;"">
            <div style=""margin:0 auto; width: 20vw; top: 8vh; font-size: 2vw""> 
            <font color=""green""> Bonus : $10 </font>
            </div>
        </div>
    
            <div> Please press any key to continue to the next image.</div>
        "," ","ITI","","","","","","",""
"","","","","","html-keyboard-response","6","12116","0.0-5.0-1.0","5cb1f1ccf3410900154a93a6","655cb802637e0dbe2941dbc4","655cb89c509604fd85638e2c","null","
        
        <div style=""text-align: center; position: fixed; top: 5vh; left: 40vw;"">
            <div style=""margin:0 auto; width: 20vw; top: 8vh; font-size: 2vw""> 
            <font color=""green""> Bonus : $10 </font>
            </div>
        </div>
    
        <img class=""stim"" src=./stimuli//pack_shapes_diff/cat_1/diff_1/ex_1_1_6.png></img>
    ","null","stimulus","","","","","","",""
"","","","","","html-keyboard-response","7","13119","0.0-5.0-2.0","5cb1f1ccf3410900154a93a6","655cb802637e0dbe2941dbc4","655cb89c509604fd85638e2c","null","
        <div style=""text-align: center; position: fixed; top: 5vh; left: 40vw;"">
            <div style=""margin:0 auto; width: 20vw; top: 8vh; font-size: 2vw""> 
            <font color=""green""> Bonus : $10 </font>
            </div>
        </div>
    ","null","","","","","","","",""
"","","","","","html-keyboard-response","8","17122","0.0-5.0-3.0","5cb1f1ccf3410900154a93a6","655cb802637e0dbe2941dbc4","655cb89c509604fd85638e2c","null","./stimuli//pack_shapes_diff/cat_1/diff_1/ex_1_1_6.png","null","response","ArrowLeft","6","1","1","train","false",""
"","","","","","html-keyboard-response","9","18640","0.0-5.0-4.0","5cb1f1ccf3410900154a93a6","655cb802637e0dbe2941dbc4","655cb89c509604fd85638e2c","null","<p> <font color=""red"" size=""5vw""> Time out! </font> <br> Please try to respond as quickly as possible. </p>","null","feedback","","","","","","","10"
"","","","","","html-keyboard-response","10","20803","0.0-5.0-0.1","5cb1f1ccf3410900154a93a6","655cb802637e0dbe2941dbc4","655cb89c509604fd85638e2c","2163","
            
        <div style=""text-align: center; position: fixed; top: 5vh; left: 40vw;"">
            <div style=""margin:0 auto; width: 20vw; top: 8vh; font-size: 2vw""> 
            <font color=""green""> Bonus : $10 </font>
            </div>
        </div>
    
            <div> Please press any key to continue to the next image.</div>
        "," ","ITI","","","","","","",""
"","","","","","html-keyboard-response","11","21407","0.0-5.0-1.1","5cb1f1ccf3410900154a93a6","655cb802637e0dbe2941dbc4","655cb89c509604fd85638e2c","null","
        
        <div style=""text-align: center; position: fixed; top: 5vh; left: 40vw;"">
            <div style=""margin:0 auto; width: 20vw; top: 8vh; font-size: 2vw""> 
            <font color=""green""> Bonus : $10 </font>
            </div>
        </div>
    
        <img class=""stim"" src=./stimuli//pack_shapes_diff/cat_1/diff_1/ex_1_1_1.png></img>
    ","null","stimulus","","","","","","",""
"","","","","","html-keyboard-response","12","22425","0.0-5.0-2.1","5cb1f1ccf3410900154a93a6","655cb802637e0dbe2941dbc4","655cb89c509604fd85638e2c","null","
        <div style=""text-align: center; position: fixed; top: 5vh; left: 40vw;"">
            <div style=""margin:0 auto; width: 20vw; top: 8vh; font-size: 2vw""> 
            <font color=""green""> Bonus : $10 </font>
            </div>
        </div>
    ","null","","","","","","","",""
"","","","","","html-keyboard-response","13","24002","0.0-5.0-3.1","5cb1f1ccf3410900154a93a6","655cb802637e0dbe2941dbc4","655cb89c509604fd85638e2c","1576","./stimuli//pack_shapes_diff/cat_1/diff_1/ex_1_1_1.png","arrowright","response","ArrowLeft","1","1","1","train","false",""
"","","","","","html-keyboard-response","14","25503","0.0-5.0-4.1","5cb1f1ccf3410900154a93a6","655cb802637e0dbe2941dbc4","655cb89c509604fd85638e2c","null","<p> <font color=""red"" size=""5vw""> Wrong category! </font> </p>","null","feedback","","","","","","","10"
"","","","","","html-keyboard-response","15","26947","0.0-5.0-0.2","5cb1f1ccf3410900154a93a6","655cb802637e0dbe2941dbc4","655cb89c509604fd85638e2c","1444","
            
        <div style=""text-align: center; position: fixed; top: 5vh; left: 40vw;"">
            <div style=""margin:0 auto; width: 20vw; top: 8vh; font-size: 2vw""> 
            <font color=""green""> Bonus : $10 </font>
            </div>
        </div>
    
            <div> Please press any key to continue to the next image.</div>
        ","arrowleft","ITI","","","","","","",""
"","","","","","html-keyboard-response","16","27578","0.0-5.0-1.2","5cb1f1ccf3410900154a93a6","655cb802637e0dbe2941dbc4","655cb89c509604fd85638e2c","null","
        
        <div style=""text-align: center; position: fixed; top: 5vh; left: 40vw;"">
            <div style=""margin:0 auto; width: 20vw; top: 8vh; font-size: 2vw""> 
            <font color=""green""> Bonus : $10 </font>
            </div>
        </div>
    
        <img class=""stim"" src=./stimuli//pack_shapes_diff/cat_1/diff_2/ex_1_2_1.png></img>
    ","null","stimulus","","","","","","",""
"","","","","","html-keyboard-response","17","28590","0.0-5.0-2.2","5cb1f1ccf3410900154a93a6","655cb802637e0dbe2941dbc4","655cb89c509604fd85638e2c","null","
        <div style=""text-align: center; position: fixed; top: 5vh; left: 40vw;"">
            <div style=""margin:0 auto; width: 20vw; top: 8vh; font-size: 2vw""> 
            <font color=""green""> Bonus : $10 </font>
            </div>
        </div>
    ","null","","","","","","","",""
"","","","","","html-keyboard-response","18","28930","0.0-5.0-3.2","5cb1f1ccf3410900154a93a6","655cb802637e0dbe2941dbc4","655cb89c509604fd85638e2c","339","./stimuli//pack_shapes_diff/cat_1/diff_2/ex_1_2_1.png","arrowleft","response","ArrowLeft","1","1","2","train","true",""
"","","","","","html-keyboard-response","19","30439","0.0-5.0-4.2","5cb1f1ccf3410900154a93a6","655cb802637e0dbe2941dbc4","655cb89c509604fd85638e2c","null","<p> <font color=""green"" size=""5vw""> Correct category! </font> </p>","null","feedback","","","","","","","10"
"","","","","","html-keyboard-response","20","31156","0.0-5.0-0.3","5cb1f1ccf3410900154a93a6","655cb802637e0dbe2941dbc4","655cb89c509604fd85638e2c","716","
            
        <div style=""text-align: center; position: fixed; top: 5vh; left: 40vw;"">
            <div style=""margin:0 auto; width: 20vw; top: 8vh; font-size: 2vw""> 
            <font color=""green""> Bonus : $10 </font>
            </div>
        </div>
    
            <div> Please press any key to continue to the next image.</div>
        ","arrowleft","ITI","","","","","","",""
"","","","","","html-keyboard-response","21","31757","0.0-5.0-1.3","5cb1f1ccf3410900154a93a6","655cb802637e0dbe2941dbc4","655cb89c509604fd85638e2c","null","
        
        <div style=""text-align: center; position: fixed; top: 5vh; left: 40vw;"">
            <div style=""margin:0 auto; width: 20vw; top: 8vh; font-size: 2vw""> 
            <font color=""green""> Bonus : $10 </font>
            </div>
        </div>
    
        <img class=""stim"" src=./stimuli//pack_shapes_diff/cat_1/diff_2/ex_1_2_9.png></img>
    ","null","stimulus","","","","","","",""
"","","","","","html-keyboard-response","22","32766","0.0-5.0-2.3","5cb1f1ccf3410900154a93a6","655cb802637e0dbe2941dbc4","655cb89c509604fd85638e2c","null","
        <div style=""text-align: center; position: fixed; top: 5vh; left: 40vw;"">
            <div style=""margin:0 auto; width: 20vw; top: 8vh; font-size: 2vw""> 
            <font color=""green""> Bonus : $10 </font>
            </div>
        </div>
    ","null","","","","","","","",""
"","","","","","html-keyboard-response","23","33018","0.0-5.0-3.3","5cb1f1ccf3410900154a93a6","655cb802637e0dbe2941dbc4","655cb89c509604fd85638e2c","251","./stimuli//pack_shapes_diff/cat_1/diff_2/ex_1_2_9.png","arrowright","response","ArrowLeft","9","1","2","train","false",""
"","","","","","html-keyboard-response","24","33987","0.0-5.0-4.3","5cb1f1ccf3410900154a93a6","655cb802637e0dbe2941dbc4","655cb89c509604fd85638e2c","969","<p> <font color=""red"" size=""5vw""> Wrong category! </font> </p>","arrowleft","feedback","","","","","","","10"
"","","","","","html-keyboard-response","25","34419","0.0-5.0-0.4","5cb1f1ccf3410900154a93a6","655cb802637e0dbe2941dbc4","655cb89c509604fd85638e2c","431","
            
        <div style=""text-align: center; position: fixed; top: 5vh; left: 40vw;"">
            <div style=""margin:0 auto; width: 20vw; top: 8vh; font-size: 2vw""> 
            <font color=""green""> Bonus : $10 </font>
            </div>
        </div>
    
            <div> Please press any key to continue to the next image.</div>
        ","arrowleft","ITI","","","","","","",""
"","","","","","html-keyboard-response","26","35039","0.0-5.0-1.4","5cb1f1ccf3410900154a93a6","655cb802637e0dbe2941dbc4","655cb89c509604fd85638e2c","null","
        
        <div style=""text-align: center; position: fixed; top: 5vh; left: 40vw;"">
            <div style=""margin:0 auto; width: 20vw; top: 8vh; font-size: 2vw""> 
            <font color=""green""> Bonus : $10 </font>
            </div>
        </div>
    
        <img class=""stim"" src=./stimuli//pack_shapes_diff/cat_2/diff_1/ex_2_1_15.png></img>
    ","null","stimulus","","","","","","",""
"","","","","","html-keyboard-response","27","36042","0.0-5.0-2.4","5cb1f1ccf3410900154a93a6","655cb802637e0dbe2941dbc4","655cb89c509604fd85638e2c","null","
        <div style=""text-align: center; position: fixed; top: 5vh; left: 40vw;"">
            <div style=""margin:0 auto; width: 20vw; top: 8vh; font-size: 2vw""> 
            <font color=""green""> Bonus : $10 </font>
            </div>
        </div>
    ","null","","","","","","","",""
"","","","","","html-keyboard-response","28","36443","0.0-5.0-3.4","5cb1f1ccf3410900154a93a6","655cb802637e0dbe2941dbc4","655cb89c509604fd85638e2c","401","./stimuli//pack_shapes_diff/cat_2/diff_1/ex_2_1_15.png","arrowleft","response","ArrowRight","15","2","1","train","false",""
"","","","","","html-keyboard-response","29","37959","0.0-5.0-4.4","5cb1f1ccf3410900154a93a6","655cb802637e0dbe2941dbc4","655cb89c509604fd85638e2c","null","<p> <font color=""red"" size=""5vw""> Wrong category! </font> </p>","null","feedback","","","","","","","10"
"","","","","","html-keyboard-response","30","38459","0.0-5.0-0.5","5cb1f1ccf3410900154a93a6","655cb802637e0dbe2941dbc4","655cb89c509604fd85638e2c","499","
            
        <div style=""text-align: center; position: fixed; top: 5vh; left: 40vw;"">
            <div style=""margin:0 auto; width: 20vw; top: 8vh; font-size: 2vw""> 
            <font color=""green""> Bonus : $10 </font>
            </div>
        </div>
    
            <div> Please press any key to continue to the next image.</div>
        ","arrowleft","ITI","","","","","","",""
"","","","","","html-keyboard-response","31","39065","0.0-5.0-1.5","5cb1f1ccf3410900154a93a6","655cb802637e0dbe2941dbc4","655cb89c509604fd85638e2c","null","
        
        <div style=""text-align: center; position: fixed; top: 5vh; left: 40vw;"">
            <div style=""margin:0 auto; width: 20vw; top: 8vh; font-size: 2vw""> 
            <font color=""green""> Bonus : $10 </font>
            </div>
        </div>
    
        <img class=""stim"" src=./stimuli//pack_shapes_diff/cat_2/diff_1/ex_2_1_13.png></img>
    ","null","stimulus","","","","","","",""
"","","","","","html-keyboard-response","32","40075","0.0-5.0-2.5","5cb1f1ccf3410900154a93a6","655cb802637e0dbe2941dbc4","655cb89c509604fd85638e2c","null","
        <div style=""text-align: center; position: fixed; top: 5vh; left: 40vw;"">
            <div style=""margin:0 auto; width: 20vw; top: 8vh; font-size: 2vw""> 
            <font color=""green""> Bonus : $10 </font>
            </div>
        </div>
    ","null","","","","","","","",""
"","","","","","html-keyboard-response","33","40442","0.0-5.0-3.5","5cb1f1ccf3410900154a93a6","655cb802637e0dbe2941dbc4","655cb89c509604fd85638e2c","366","./stimuli//pack_shapes_diff/cat_2/diff_1/ex_2_1_13.png","arrowleft","response","ArrowRight","13","2","1","train","false",""
"","","","","","html-keyboard-response","34","40963","0.0-5.0-4.5","5cb1f1ccf3410900154a93a6","655cb802637e0dbe2941dbc4","655cb89c509604fd85638e2c","521","<p> <font color=""red"" size=""5vw""> Wrong category! </font> </p>","arrowleft","feedback","","","","","","","10"
"","","","","","html-keyboard-response","35","41404","0.0-5.0-0.6","5cb1f1ccf3410900154a93a6","655cb802637e0dbe2941dbc4","655cb89c509604fd85638e2c","440","
            
        <div style=""text-align: center; position: fixed; top: 5vh; left: 40vw;"">
            <div style=""margin:0 auto; width: 20vw; top: 8vh; font-size: 2vw""> 
            <font color=""green""> Bonus : $10 </font>
            </div>
        </div>
    
            <div> Please press any key to continue to the next image.</div>
        ","arrowleft","ITI","","","","","","",""
"","","","","","html-keyboard-response","36","42008","0.0-5.0-1.6","5cb1f1ccf3410900154a93a6","655cb802637e0dbe2941dbc4","655cb89c509604fd85638e2c","null","
        
        <div style=""text-align: center; position: fixed; top: 5vh; left: 40vw;"">
            <div style=""margin:0 auto; width: 20vw; top: 8vh; font-size: 2vw""> 
            <font color=""green""> Bonus : $10 </font>
            </div>
        </div>
    
        <img class=""stim"" src=./stimuli//pack_shapes_diff/cat_1/diff_1/ex_1_1_4.png></img>
    ","null","stimulus","","","","","","",""
"","","","","","html-keyboard-response","37","43025","0.0-5.0-2.6","5cb1f1ccf3410900154a93a6","655cb802637e0dbe2941dbc4","655cb89c509604fd85638e2c","null","
        <div style=""text-align: center; position: fixed; top: 5vh; left: 40vw;"">
            <div style=""margin:0 auto; width: 20vw; top: 8vh; font-size: 2vw""> 
            <font color=""green""> Bonus : $10 </font>
            </div>
        </div>
    ","null","","","","","","","",""
"","","","","","html-keyboard-response","38","43146","0.0-5.0-3.6","5cb1f1ccf3410900154a93a6","655cb802637e0dbe2941dbc4","655cb89c509604fd85638e2c","119","./stimuli//pack_shapes_diff/cat_1/diff_1/ex_1_1_4.png","arrowleft","response","ArrowLeft","4","1","1","train","true",""
"","","","","","html-keyboard-response","39","43491","0.0-5.0-4.6","5cb1f1ccf3410900154a93a6","655cb802637e0dbe2941dbc4","655cb89c509604fd85638e2c","345","<p> <font color=""green"" size=""5vw""> Correct category! </font> </p>","arrowleft","feedback","","","","","","","10"
"","","","","","html-keyboard-response","40","44227","0.0-5.0-0.7","5cb1f1ccf3410900154a93a6","655cb802637e0dbe2941dbc4","655cb89c509604fd85638e2c","735","
            
        <div style=""text-align: center; position: fixed; top: 5vh; left: 40vw;"">
            <div style=""margin:0 auto; width: 20vw; top: 8vh; font-size: 2vw""> 
            <font color=""green""> Bonus : $10 </font>
            </div>
        </div>
    
            <div> Please press any key to continue to the next image.</div>
        ","arrowleft","ITI","","","","","","",""
"","","","","","html-keyboard-response","41","44841","0.0-5.0-1.7","5cb1f1ccf3410900154a93a6","655cb802637e0dbe2941dbc4","655cb89c509604fd85638e2c","null","
        
        <div style=""text-align: center; position: fixed; top: 5vh; left: 40vw;"">
            <div style=""margin:0 auto; width: 20vw; top: 8vh; font-size: 2vw""> 
            <font color=""green""> Bonus : $10 </font>
            </div>
        </div>
    
        <img class=""stim"" src=./stimuli//pack_shapes_diff/cat_2/diff_2/ex_2_2_15.png></img>
    ","null","stimulus","","","","","","",""
"","","","","","html-keyboard-response","42","45858","0.0-5.0-2.7","5cb1f1ccf3410900154a93a6","655cb802637e0dbe2941dbc4","655cb89c509604fd85638e2c","null","
        <div style=""text-align: center; position: fixed; top: 5vh; left: 40vw;"">
            <div style=""margin:0 auto; width: 20vw; top: 8vh; font-size: 2vw""> 
            <font color=""green""> Bonus : $10 </font>
            </div>
        </div>
    ","null","","","","","","","",""
"","","","","","html-keyboard-response","43","46050","0.0-5.0-3.7","5cb1f1ccf3410900154a93a6","655cb802637e0dbe2941dbc4","655cb89c509604fd85638e2c","191","./stimuli//pack_shapes_diff/cat_2/diff_2/ex_2_2_15.png","arrowright","response","ArrowRight","15","2","2","train","true",""
"","","","","","html-keyboard-response","44","46762","0.0-5.0-4.7","5cb1f1ccf3410900154a93a6","655cb802637e0dbe2941dbc4","655cb89c509604fd85638e2c","712","<p> <font color=""green"" size=""5vw""> Correct category! </font> </p>","arrowright","feedback","","","","","","","10"
"","","","","","html-keyboard-response","45","47410","0.0-5.0-0.8","5cb1f1ccf3410900154a93a6","655cb802637e0dbe2941dbc4","655cb89c509604fd85638e2c","648","
            
        <div style=""text-align: center; position: fixed; top: 5vh; left: 40vw;"">
            <div style=""margin:0 auto; width: 20vw; top: 8vh; font-size: 2vw""> 
            <font color=""green""> Bonus : $10 </font>
            </div>
        </div>
    
            <div> Please press any key to continue to the next image.</div>
        ","arrowleft","ITI","","","","","","",""
"","","","","","html-keyboard-response","46","48032","0.0-5.0-1.8","5cb1f1ccf3410900154a93a6","655cb802637e0dbe2941dbc4","655cb89c509604fd85638e2c","null","
        
        <div style=""text-align: center; position: fixed; top: 5vh; left: 40vw;"">
            <div style=""margin:0 auto; width: 20vw; top: 8vh; font-size: 2vw""> 
            <font color=""green""> Bonus : $10 </font>
            </div>
        </div>
    
        <img class=""stim"" src=./stimuli//pack_shapes_diff/cat_2/diff_2/ex_2_2_7.png></img>
    ","null","stimulus","","","","","","",""
"","","","","","html-keyboard-response","47","49039","0.0-5.0-2.8","5cb1f1ccf3410900154a93a6","655cb802637e0dbe2941dbc4","655cb89c509604fd85638e2c","null","
        <div style=""text-align: center; position: fixed; top: 5vh; left: 40vw;"">
            <div style=""margin:0 auto; width: 20vw; top: 8vh; font-size: 2vw""> 
            <font color=""green""> Bonus : $10 </font>
            </div>
        </div>
    ","null","","","","","","","",""
"","","","","","html-keyboard-response","48","49267","0.0-5.0-3.8","5cb1f1ccf3410900154a93a6","655cb802637e0dbe2941dbc4","655cb89c509604fd85638e2c","227","./stimuli//pack_shapes_diff/cat_2/diff_2/ex_2_2_7.png","arrowright","response","ArrowRight","7","2","2","train","true",""
"","","","","","html-keyboard-response","49","49771","0.0-5.0-4.8","5cb1f1ccf3410900154a93a6","655cb802637e0dbe2941dbc4","655cb89c509604fd85638e2c","503","<p> <font color=""green"" size=""5vw""> Correct category! </font> </p>","arrowright","feedback","","","","","","","10"
"","","","","","html-keyboard-response","50","50707","0.0-5.0-0.9","5cb1f1ccf3410900154a93a6","655cb802637e0dbe2941dbc4","655cb89c509604fd85638e2c","936","
            
        <div style=""text-align: center; position: fixed; top: 5vh; left: 40vw;"">
            <div style=""margin:0 auto; width: 20vw; top: 8vh; font-size: 2vw""> 
            <font color=""green""> Bonus : $10 </font>
            </div>
        </div>
    
            <div> Please press any key to continue to the next image.</div>
        ","arrowright","ITI","","","","","","",""
"","","","","","html-keyboard-response","51","51326","0.0-5.0-1.9","5cb1f1ccf3410900154a93a6","655cb802637e0dbe2941dbc4","655cb89c509604fd85638e2c","null","
        
        <div style=""text-align: center; position: fixed; top: 5vh; left: 40vw;"">
            <div style=""margin:0 auto; width: 20vw; top: 8vh; font-size: 2vw""> 
            <font color=""green""> Bonus : $10 </font>
            </div>
        </div>
    
        <img class=""stim"" src=./stimuli//pack_shapes_diff/cat_2/diff_1/ex_2_1_4.png></img>
    ","null","stimulus","","","","","","",""
"","","","","","html-keyboard-response","52","52347","0.0-5.0-2.9","5cb1f1ccf3410900154a93a6","655cb802637e0dbe2941dbc4","655cb89c509604fd85638e2c","null","
        <div style=""text-align: center; position: fixed; top: 5vh; left: 40vw;"">
            <div style=""margin:0 auto; width: 20vw; top: 8vh; font-size: 2vw""> 
            <font color=""green""> Bonus : $10 </font>
            </div>
        </div>
    ","null","","","","","","","",""
"","","","","","html-keyboard-response","53","52435","0.0-5.0-3.9","5cb1f1ccf3410900154a93a6","655cb802637e0dbe2941dbc4","655cb89c509604fd85638e2c","88","./stimuli//pack_shapes_diff/cat_2/diff_1/ex_2_1_4.png","arrowright","response","ArrowRight","4","2","1","train","true",""
"","","","","","html-keyboard-response","54","53011","0.0-5.0-4.9","5cb1f1ccf3410900154a93a6","655cb802637e0dbe2941dbc4","655cb89c509604fd85638e2c","575","<p> <font color=""green"" size=""5vw""> Correct category! </font> </p>","arrowright","feedback","","","","","","","10"
"","","","","","html-keyboard-response","55","55803","0.0-6.0","5cb1f1ccf3410900154a93a6","655cb802637e0dbe2941dbc4","655cb89c509604fd85638e2c","2792","
            <b> <p> The practice round has finished.</p>
            <b> For the rest of the experiment if you guess incorrectly $0.05 will be subtracted from your bonus!</b>
            <p> Press any key to begin the test. </p>
            ","arrowleft","intermission","","","","","","",""
"","","","","","html-keyboard-response","56","56595","0.0-7.0-0.0","5cb1f1ccf3410900154a93a6","655cb802637e0dbe2941dbc4","655cb89c509604fd85638e2c","791","
            
        <div style=""text-align: center; position: fixed; top: 5vh; left: 40vw;"">
            <div style=""margin:0 auto; width: 20vw; top: 8vh; font-size: 2vw""> 
            <font color=""green""> Bonus : $10 </font>
            </div>
        </div>
    
            <div> Please press any key to continue to the next image.</div>
        ","arrowright","ITI","","","","","","",""
"","","","","","html-keyboard-response","57","57222","0.0-7.0-1.0","5cb1f1ccf3410900154a93a6","655cb802637e0dbe2941dbc4","655cb89c509604fd85638e2c","null","
        
        <div style=""text-align: center; position: fixed; top: 5vh; left: 40vw;"">
            <div style=""margin:0 auto; width: 20vw; top: 8vh; font-size: 2vw""> 
            <font color=""green""> Bonus : $10 </font>
            </div>
        </div>
    
        <img class=""stim"" src=./stimuli//pack_shapes_diff/cat_1/diff_1/ex_1_1_9.png></img>
    ","null","stimulus","","","","","","",""
"","","","","","html-keyboard-response","58","58226","0.0-7.0-2.0","5cb1f1ccf3410900154a93a6","655cb802637e0dbe2941dbc4","655cb89c509604fd85638e2c","null","
        <div style=""text-align: center; position: fixed; top: 5vh; left: 40vw;"">
            <div style=""margin:0 auto; width: 20vw; top: 8vh; font-size: 2vw""> 
            <font color=""green""> Bonus : $10 </font>
            </div>
        </div>
    ","null","","","","","","","",""
"","","","","","html-keyboard-response","59","58850","0.0-7.0-3.0","5cb1f1ccf3410900154a93a6","655cb802637e0dbe2941dbc4","655cb89c509604fd85638e2c","623","./stimuli//pack_shapes_diff/cat_1/diff_1/ex_1_1_9.png","arrowleft","response","ArrowLeft","9","1","1","test","true",""
"","","","","","html-keyboard-response","60","60358","0.0-7.0-4.0","5cb1f1ccf3410900154a93a6","655cb802637e0dbe2941dbc4","655cb89c509604fd85638e2c","null","<p> <font color=""green"" size=""5vw""> Correct category! </font></p>","null","feedback","","","","","","","10"
"","","","","","html-keyboard-response","61","61019","0.0-7.1-0.1","5cb1f1ccf3410900154a93a6","655cb802637e0dbe2941dbc4","655cb89c509604fd85638e2c","659","
            
        <div style=""text-align: center; position: fixed; top: 5vh; left: 40vw;"">
            <div style=""margin:0 auto; width: 20vw; top: 8vh; font-size: 2vw""> 
            <font color=""green""> Bonus : $10 </font>
            </div>
        </div>
    
            <div> Please press any key to continue to the next image.</div>
        ","arrowleft","ITI","","","","","","",""
"","","","","","html-keyboard-response","62","61627","0.0-7.1-1.1","5cb1f1ccf3410900154a93a6","655cb802637e0dbe2941dbc4","655cb89c509604fd85638e2c","null","
        
        <div style=""text-align: center; position: fixed; top: 5vh; left: 40vw;"">
            <div style=""margin:0 auto; width: 20vw; top: 8vh; font-size: 2vw""> 
            <font color=""green""> Bonus : $10 </font>
            </div>
        </div>
    
        <img class=""stim"" src=./stimuli//pack_shapes_diff/cat_2/diff_1/ex_2_1_8.png></img>
    ","null","stimulus","","","","","","",""
"","","","","","html-keyboard-response","63","62635","0.0-7.1-2.1","5cb1f1ccf3410900154a93a6","655cb802637e0dbe2941dbc4","655cb89c509604fd85638e2c","null","
        <div style=""text-align: center; position: fixed; top: 5vh; left: 40vw;"">
            <div style=""margin:0 auto; width: 20vw; top: 8vh; font-size: 2vw""> 
            <font color=""green""> Bonus : $10 </font>
            </div>
        </div>
    ","null","","","","","","","",""
"","","","","","html-keyboard-response","64","62940","0.0-7.1-3.1","5cb1f1ccf3410900154a93a6","655cb802637e0dbe2941dbc4","655cb89c509604fd85638e2c","304","./stimuli//pack_shapes_diff/cat_2/diff_1/ex_2_1_8.png","arrowright","response","ArrowRight","8","2","1","test","true",""
"","","","","","html-keyboard-response","65","64460","0.0-7.1-4.1","5cb1f1ccf3410900154a93a6","655cb802637e0dbe2941dbc4","655cb89c509604fd85638e2c","null","<p> <font color=""green"" size=""5vw""> Correct category! </font></p>","null","feedback","","","","","","","10"
"","","","","","html-keyboard-response","66","64923","0.0-7.2-0.2","5cb1f1ccf3410900154a93a6","655cb802637e0dbe2941dbc4","655cb89c509604fd85638e2c","463","
            
        <div style=""text-align: center; position: fixed; top: 5vh; left: 40vw;"">
            <div style=""margin:0 auto; width: 20vw; top: 8vh; font-size: 2vw""> 
            <font color=""green""> Bonus : $10 </font>
            </div>
        </div>
    
            <div> Please press any key to continue to the next image.</div>
        ","arrowleft","ITI","","","","","","",""
"","","","","","html-keyboard-response","67","65526","0.0-7.2-1.2","5cb1f1ccf3410900154a93a6","655cb802637e0dbe2941dbc4","655cb89c509604fd85638e2c","null","
        
        <div style=""text-align: center; position: fixed; top: 5vh; left: 40vw;"">
            <div style=""margin:0 auto; width: 20vw; top: 8vh; font-size: 2vw""> 
            <font color=""green""> Bonus : $10 </font>
            </div>
        </div>
    
        <img class=""stim"" src=./stimuli//pack_shapes_diff/cat_2/diff_1/ex_2_1_7.png></img>
    ","null","stimulus","","","","","","",""
"","","","","","html-keyboard-response","68","66544","0.0-7.2-2.2","5cb1f1ccf3410900154a93a6","655cb802637e0dbe2941dbc4","655cb89c509604fd85638e2c","null","
        <div style=""text-align: center; position: fixed; top: 5vh; left: 40vw;"">
            <div style=""margin:0 auto; width: 20vw; top: 8vh; font-size: 2vw""> 
            <font color=""green""> Bonus : $10 </font>
            </div>
        </div>
    ","null","","","","","","","",""
"","","","","","html-keyboard-response","69","66891","0.0-7.2-3.2","5cb1f1ccf3410900154a93a6","655cb802637e0dbe2941dbc4","655cb89c509604fd85638e2c","347","./stimuli//pack_shapes_diff/cat_2/diff_1/ex_2_1_7.png","arrowright","response","ArrowRight","7","2","1","test","true",""
"","","","","","html-keyboard-response","70","68412","0.0-7.2-4.2","5cb1f1ccf3410900154a93a6","655cb802637e0dbe2941dbc4","655cb89c509604fd85638e2c","null","<p> <font color=""green"" size=""5vw""> Correct category! </font></p>","null","feedback","","","","","","","10"
"","","","","","html-keyboard-response","71","68955","0.0-7.3-0.3","5cb1f1ccf3410900154a93a6","655cb802637e0dbe2941dbc4","655cb89c509604fd85638e2c","543","
            
        <div style=""text-align: center; position: fixed; top: 5vh; left: 40vw;"">
            <div style=""margin:0 auto; width: 20vw; top: 8vh; font-size: 2vw""> 
            <font color=""green""> Bonus : $10 </font>
            </div>
        </div>
    
            <div> Please press any key to continue to the next image.</div>
        ","arrowright","ITI","","","","","","",""
"","","","","","html-keyboard-response","72","69576","0.0-7.3-1.3","5cb1f1ccf3410900154a93a6","655cb802637e0dbe2941dbc4","655cb89c509604fd85638e2c","null","
        
        <div style=""text-align: center; position: fixed; top: 5vh; left: 40vw;"">
            <div style=""margin:0 auto; width: 20vw; top: 8vh; font-size: 2vw""> 
            <font color=""green""> Bonus : $10 </font>
            </div>
        </div>
    
        <img class=""stim"" src=./stimuli//pack_shapes_diff/cat_1/diff_1/ex_1_1_15.png></img>
    ","null","stimulus","","","","","","",""
"","","","","","html-keyboard-response","73","70585","0.0-7.3-2.3","5cb1f1ccf3410900154a93a6","655cb802637e0dbe2941dbc4","655cb89c509604fd85638e2c","null","
        <div style=""text-align: center; position: fixed; top: 5vh; left: 40vw;"">
            <div style=""margin:0 auto; width: 20vw; top: 8vh; font-size: 2vw""> 
            <font color=""green""> Bonus : $10 </font>
            </div>
        </div>
    ","null","","","","","","","",""
"","","","","","html-keyboard-response","74","70939","0.0-7.3-3.3","5cb1f1ccf3410900154a93a6","655cb802637e0dbe2941dbc4","655cb89c509604fd85638e2c","354","./stimuli//pack_shapes_diff/cat_1/diff_1/ex_1_1_15.png","arrowleft","response","ArrowLeft","15","1","1","test","true",""
"","","","","","html-keyboard-response","75","72443","0.0-7.3-4.3","5cb1f1ccf3410900154a93a6","655cb802637e0dbe2941dbc4","655cb89c509604fd85638e2c","null","<p> <font color=""green"" size=""5vw""> Correct category! </font></p>","null","feedback","","","","","","","10"
"","","","","","html-keyboard-response","76","72754","0.0-7.4-0.4","5cb1f1ccf3410900154a93a6","655cb802637e0dbe2941dbc4","655cb89c509604fd85638e2c","310","
            
        <div style=""text-align: center; position: fixed; top: 5vh; left: 40vw;"">
            <div style=""margin:0 auto; width: 20vw; top: 8vh; font-size: 2vw""> 
            <font color=""green""> Bonus : $10 </font>
            </div>
        </div>
    
            <div> Please press any key to continue to the next image.</div>
        ","arrowright","ITI","","","","","","",""
"","","","","","html-keyboard-response","77","73359","0.0-7.4-1.4","5cb1f1ccf3410900154a93a6","655cb802637e0dbe2941dbc4","655cb89c509604fd85638e2c","null","
        
        <div style=""text-align: center; position: fixed; top: 5vh; left: 40vw;"">
            <div style=""margin:0 auto; width: 20vw; top: 8vh; font-size: 2vw""> 
            <font color=""green""> Bonus : $10 </font>
            </div>
        </div>
    
        <img class=""stim"" src=./stimuli//pack_shapes_diff/cat_2/diff_1/ex_2_1_8.png></img>
    ","null","stimulus","","","","","","",""
"","","","","","html-keyboard-response","78","74380","0.0-7.4-2.4","5cb1f1ccf3410900154a93a6","655cb802637e0dbe2941dbc4","655cb89c509604fd85638e2c","null","
        <div style=""text-align: center; position: fixed; top: 5vh; left: 40vw;"">
            <div style=""margin:0 auto; width: 20vw; top: 8vh; font-size: 2vw""> 
            <font color=""green""> Bonus : $10 </font>
            </div>
        </div>
    ","null","","","","","","","",""
"","","","","","html-keyboard-response","79","74621","0.0-7.4-3.4","5cb1f1ccf3410900154a93a6","655cb802637e0dbe2941dbc4","655cb89c509604fd85638e2c","241","./stimuli//pack_shapes_diff/cat_2/diff_1/ex_2_1_8.png","arrowright","response","ArrowRight","8","2","1","test","true",""
"","","","","","html-keyboard-response","80","76127","0.0-7.4-4.4","5cb1f1ccf3410900154a93a6","655cb802637e0dbe2941dbc4","655cb89c509604fd85638e2c","null","<p> <font color=""green"" size=""5vw""> Correct category! </font></p>","null","feedback","","","","","","","10"
"","","","","","html-keyboard-response","81","76564","0.0-7.5-0.5","5cb1f1ccf3410900154a93a6","655cb802637e0dbe2941dbc4","655cb89c509604fd85638e2c","436","
            
        <div style=""text-align: center; position: fixed; top: 5vh; left: 40vw;"">
            <div style=""margin:0 auto; width: 20vw; top: 8vh; font-size: 2vw""> 
            <font color=""green""> Bonus : $10 </font>
            </div>
        </div>
    
            <div> Please press any key to continue to the next image.</div>
        ","arrowright","ITI","","","","","","",""
"","","","","","html-keyboard-response","82","77176","0.0-7.5-1.5","5cb1f1ccf3410900154a93a6","655cb802637e0dbe2941dbc4","655cb89c509604fd85638e2c","null","
        
        <div style=""text-align: center; position: fixed; top: 5vh; left: 40vw;"">
            <div style=""margin:0 auto; width: 20vw; top: 8vh; font-size: 2vw""> 
            <font color=""green""> Bonus : $10 </font>
            </div>
        </div>
    
        <img class=""stim"" src=./stimuli//pack_shapes_diff/cat_1/diff_2/ex_1_2_12.png></img>
    ","null","stimulus","","","","","","",""
"","","","","","html-keyboard-response","83","78177","0.0-7.5-2.5","5cb1f1ccf3410900154a93a6","655cb802637e0dbe2941dbc4","655cb89c509604fd85638e2c","null","
        <div style=""text-align: center; position: fixed; top: 5vh; left: 40vw;"">
            <div style=""margin:0 auto; width: 20vw; top: 8vh; font-size: 2vw""> 
            <font color=""green""> Bonus : $10 </font>
            </div>
        </div>
    ","null","","","","","","","",""
"","","","","","html-keyboard-response","84","78628","0.0-7.5-3.5","5cb1f1ccf3410900154a93a6","655cb802637e0dbe2941dbc4","655cb89c509604fd85638e2c","450","./stimuli//pack_shapes_diff/cat_1/diff_2/ex_1_2_12.png","arrowleft","response","ArrowLeft","12","1","2","test","true",""
"","","","","","html-keyboard-response","85","80143","0.0-7.5-4.5","5cb1f1ccf3410900154a93a6","655cb802637e0dbe2941dbc4","655cb89c509604fd85638e2c","null","<p> <font color=""green"" size=""5vw""> Correct category! </font></p>","null","feedback","","","","","","","10"
"","","","","","html-keyboard-response","86","80467","0.0-7.6-0.6","5cb1f1ccf3410900154a93a6","655cb802637e0dbe2941dbc4","655cb89c509604fd85638e2c","324","
            
        <div style=""text-align: center; position: fixed; top: 5vh; left: 40vw;"">
            <div style=""margin:0 auto; width: 20vw; top: 8vh; font-size: 2vw""> 
            <font color=""green""> Bonus : $10 </font>
            </div>
        </div>
    
            <div> Please press any key to continue to the next image.</div>
        ","arrowright","ITI","","","","","","",""
"","","","","","html-keyboard-response","87","81076","0.0-7.6-1.6","5cb1f1ccf3410900154a93a6","655cb802637e0dbe2941dbc4","655cb89c509604fd85638e2c","null","
        
        <div style=""text-align: center; position: fixed; top: 5vh; left: 40vw;"">
            <div style=""margin:0 auto; width: 20vw; top: 8vh; font-size: 2vw""> 
            <font color=""green""> Bonus : $10 </font>
            </div>
        </div>
    
        <img class=""stim"" src=./stimuli//pack_shapes_diff/cat_1/diff_2/ex_1_2_14.png></img>
    ","null","stimulus","","","","","","",""
"","","","","","html-keyboard-response","88","82092","0.0-7.6-2.6","5cb1f1ccf3410900154a93a6","655cb802637e0dbe2941dbc4","655cb89c509604fd85638e2c","null","
        <div style=""text-align: center; position: fixed; top: 5vh; left: 40vw;"">
            <div style=""margin:0 auto; width: 20vw; top: 8vh; font-size: 2vw""> 
            <font color=""green""> Bonus : $10 </font>
            </div>
        </div>
    ","null","","","","","","","",""
"","","","","","html-keyboard-response","89","82378","0.0-7.6-3.6","5cb1f1ccf3410900154a93a6","655cb802637e0dbe2941dbc4","655cb89c509604fd85638e2c","285","./stimuli//pack_shapes_diff/cat_1/diff_2/ex_1_2_14.png","arrowleft","response","ArrowLeft","14","1","2","test","true",""
"","","","","","html-keyboard-response","90","83894","0.0-7.6-4.6","5cb1f1ccf3410900154a93a6","655cb802637e0dbe2941dbc4","655cb89c509604fd85638e2c","null","<p> <font color=""green"" size=""5vw""> Correct category! </font></p>","null","feedback","","","","","","","10"
"","","","","","html-keyboard-response","91","84058","0.0-7.7-0.7","5cb1f1ccf3410900154a93a6","655cb802637e0dbe2941dbc4","655cb89c509604fd85638e2c","164","
            
        <div style=""text-align: center; position: fixed; top: 5vh; left: 40vw;"">
            <div style=""margin:0 auto; width: 20vw; top: 8vh; font-size: 2vw""> 
            <font color=""green""> Bonus : $10 </font>
            </div>
        </div>
    
            <div> Please press any key to continue to the next image.</div>
        ","arrowleft","ITI","","","","","","",""
"","","","","","html-keyboard-response","92","84660","0.0-7.7-1.7","5cb1f1ccf3410900154a93a6","655cb802637e0dbe2941dbc4","655cb89c509604fd85638e2c","null","
        
        <div style=""text-align: center; position: fixed; top: 5vh; left: 40vw;"">
            <div style=""margin:0 auto; width: 20vw; top: 8vh; font-size: 2vw""> 
            <font color=""green""> Bonus : $10 </font>
            </div>
        </div>
    
        <img class=""stim"" src=./stimuli//pack_shapes_diff/cat_1/diff_2/ex_1_2_17.png></img>
    ","null","stimulus","","","","","","",""
"","","","","","html-keyboard-response","93","85681","0.0-7.7-2.7","5cb1f1ccf3410900154a93a6","655cb802637e0dbe2941dbc4","655cb89c509604fd85638e2c","null","
        <div style=""text-align: center; position: fixed; top: 5vh; left: 40vw;"">
            <div style=""margin:0 auto; width: 20vw; top: 8vh; font-size: 2vw""> 
            <font color=""green""> Bonus : $10 </font>
            </div>
        </div>
    ","null","","","","","","","",""
"","","","","","html-keyboard-response","94","85779","0.0-7.7-3.7","5cb1f1ccf3410900154a93a6","655cb802637e0dbe2941dbc4","655cb89c509604fd85638e2c","97","./stimuli//pack_shapes_diff/cat_1/diff_2/ex_1_2_17.png","arrowleft","response","ArrowLeft","17","1","2","test","true",""
"","","","","","html-keyboard-response","95","87293","0.0-7.7-4.7","5cb1f1ccf3410900154a93a6","655cb802637e0dbe2941dbc4","655cb89c509604fd85638e2c","null","<p> <font color=""green"" size=""5vw""> Correct category! </font></p>","null","feedback","","","","","","","10"
"","","","","","html-keyboard-response","96","87556","0.0-7.8-0.8","5cb1f1ccf3410900154a93a6","655cb802637e0dbe2941dbc4","655cb89c509604fd85638e2c","262","
            
        <div style=""text-align: center; position: fixed; top: 5vh; left: 40vw;"">
            <div style=""margin:0 auto; width: 20vw; top: 8vh; font-size: 2vw""> 
            <font color=""green""> Bonus : $10 </font>
            </div>
        </div>
    
            <div> Please press any key to continue to the next image.</div>
        ","arrowleft","ITI","","","","","","",""
"","","","","","html-keyboard-response","97","88168","0.0-7.8-1.8","5cb1f1ccf3410900154a93a6","655cb802637e0dbe2941dbc4","655cb89c509604fd85638e2c","null","
        
        <div style=""text-align: center; position: fixed; top: 5vh; left: 40vw;"">
            <div style=""margin:0 auto; width: 20vw; top: 8vh; font-size: 2vw""> 
            <font color=""green""> Bonus : $10 </font>
            </div>
        </div>
    
        <img class=""stim"" src=./stimuli//pack_shapes_diff/cat_2/diff_2/ex_2_2_14.png></img>
    ","null","stimulus","","","","","","",""
"","","","","","html-keyboard-response","98","89177","0.0-7.8-2.8","5cb1f1ccf3410900154a93a6","655cb802637e0dbe2941dbc4","655cb89c509604fd85638e2c","null","
        <div style=""text-align: center; position: fixed; top: 5vh; left: 40vw;"">
            <div style=""margin:0 auto; width: 20vw; top: 8vh; font-size: 2vw""> 
            <font color=""green""> Bonus : $10 </font>
            </div>
        </div>
    ","null","","","","","","","",""
"","","","","","html-keyboard-response","99","89403","0.0-7.8-3.8","5cb1f1ccf3410900154a93a6","655cb802637e0dbe2941dbc4","655cb89c509604fd85638e2c","224","./stimuli//pack_shapes_diff/cat_2/diff_2/ex_2_2_14.png","arrowright","response","ArrowRight","14","2","2","test","true",""
"","","","","","html-keyboard-response","100","90908","0.0-7.8-4.8","5cb1f1ccf3410900154a93a6","655cb802637e0dbe2941dbc4","655cb89c509604fd85638e2c","null","<p> <font color=""green"" size=""5vw""> Correct category! </font></p>","null","feedback","","","","","","","10"
"","","","","","html-keyboard-response","101","91027","0.0-7.9-0.9","5cb1f1ccf3410900154a93a6","655cb802637e0dbe2941dbc4","655cb89c509604fd85638e2c","119","
            
        <div style=""text-align: center; position: fixed; top: 5vh; left: 40vw;"">
            <div style=""margin:0 auto; width: 20vw; top: 8vh; font-size: 2vw""> 
            <font color=""green""> Bonus : $10 </font>
            </div>
        </div>
    
            <div> Please press any key to continue to the next image.</div>
        ","arrowright","ITI","","","","","","",""
"","","","","","html-keyboard-response","102","91645","0.0-7.9-1.9","5cb1f1ccf3410900154a93a6","655cb802637e0dbe2941dbc4","655cb89c509604fd85638e2c","null","
        
        <div style=""text-align: center; position: fixed; top: 5vh; left: 40vw;"">
            <div style=""margin:0 auto; width: 20vw; top: 8vh; font-size: 2vw""> 
            <font color=""green""> Bonus : $10 </font>
            </div>
        </div>
    
        <img class=""stim"" src=./stimuli//pack_shapes_diff/cat_2/diff_2/ex_2_2_1.png></img>
    ","null","stimulus","","","","","","",""
"","","","","","html-keyboard-response","103","92664","0.0-7.9-2.9","5cb1f1ccf3410900154a93a6","655cb802637e0dbe2941dbc4","655cb89c509604fd85638e2c","null","
        <div style=""text-align: center; position: fixed; top: 5vh; left: 40vw;"">
            <div style=""margin:0 auto; width: 20vw; top: 8vh; font-size: 2vw""> 
            <font color=""green""> Bonus : $10 </font>
            </div>
        </div>
    ","null","","","","","","","",""
"","","","","","html-keyboard-response","104","93003","0.0-7.9-3.9","5cb1f1ccf3410900154a93a6","655cb802637e0dbe2941dbc4","655cb89c509604fd85638e2c","338","./stimuli//pack_shapes_diff/cat_2/diff_2/ex_2_2_1.png","arrowright","response","ArrowRight","1","2","2","test","true",""
"","","","","","html-keyboard-response","105","94524","0.0-7.9-4.9","5cb1f1ccf3410900154a93a6","655cb802637e0dbe2941dbc4","655cb89c509604fd85638e2c","null","<p> <font color=""green"" size=""5vw""> Correct category! </font></p>","null","feedback","","","","","","","10"
"","","","","","html-keyboard-response","106","94554","0.0-7.10-0.10","5cb1f1ccf3410900154a93a6","655cb802637e0dbe2941dbc4","655cb89c509604fd85638e2c","30","
            
        <div style=""text-align: center; position: fixed; top: 5vh; left: 40vw;"">
            <div style=""margin:0 auto; width: 20vw; top: 8vh; font-size: 2vw""> 
            <font color=""green""> Bonus : $10 </font>
            </div>
        </div>
    
            <div> Please press any key to continue to the next image.</div>
        ","arrowright","ITI","","","","","","",""
"","","","","","html-keyboard-response","107","95162","0.0-7.10-1.10","5cb1f1ccf3410900154a93a6","655cb802637e0dbe2941dbc4","655cb89c509604fd85638e2c","null","
        
        <div style=""text-align: center; position: fixed; top: 5vh; left: 40vw;"">
            <div style=""margin:0 auto; width: 20vw; top: 8vh; font-size: 2vw""> 
            <font color=""green""> Bonus : $10 </font>
            </div>
        </div>
    
        <img class=""stim"" src=./stimuli//pack_shapes_diff/cat_2/diff_3/ex_2_3_17.png></img>
    ","null","stimulus","","","","","","",""
"","","","","","html-keyboard-response","108","96167","0.0-7.10-2.10","5cb1f1ccf3410900154a93a6","655cb802637e0dbe2941dbc4","655cb89c509604fd85638e2c","null","
        <div style=""text-align: center; position: fixed; top: 5vh; left: 40vw;"">
            <div style=""margin:0 auto; width: 20vw; top: 8vh; font-size: 2vw""> 
            <font color=""green""> Bonus : $10 </font>
            </div>
        </div>
    ","null","","","","","","","",""
"","","","","","html-keyboard-response","109","96434","0.0-7.10-3.10","5cb1f1ccf3410900154a93a6","655cb802637e0dbe2941dbc4","655cb89c509604fd85638e2c","266","./stimuli//pack_shapes_diff/cat_2/diff_3/ex_2_3_17.png","arrowright","response","ArrowRight","17","2","3","test","true",""
"","","","","","html-keyboard-response","110","97883","0.0-7.10-4.10","5cb1f1ccf3410900154a93a6","655cb802637e0dbe2941dbc4","655cb89c509604fd85638e2c","1449","<p> <font color=""green"" size=""5vw""> Correct category! </font></p>","arrowright","feedback","","","","","","","10"
"","","","","","html-keyboard-response","111","98387","0.0-7.11-0.11","5cb1f1ccf3410900154a93a6","655cb802637e0dbe2941dbc4","655cb89c509604fd85638e2c","503","
            
        <div style=""text-align: center; position: fixed; top: 5vh; left: 40vw;"">
            <div style=""margin:0 auto; width: 20vw; top: 8vh; font-size: 2vw""> 
            <font color=""green""> Bonus : $10 </font>
            </div>
        </div>
    
            <div> Please press any key to continue to the next image.</div>
        ","arrowright","ITI","","","","","","",""
"","","","","","html-keyboard-response","112","98995","0.0-7.11-1.11","5cb1f1ccf3410900154a93a6","655cb802637e0dbe2941dbc4","655cb89c509604fd85638e2c","null","
        
        <div style=""text-align: center; position: fixed; top: 5vh; left: 40vw;"">
            <div style=""margin:0 auto; width: 20vw; top: 8vh; font-size: 2vw""> 
            <font color=""green""> Bonus : $10 </font>
            </div>
        </div>
    
        <img class=""stim"" src=./stimuli//pack_shapes_diff/cat_2/diff_3/ex_2_3_9.png></img>
    ","null","stimulus","","","","","","",""
"","","","","","html-keyboard-response","113","100012","0.0-7.11-2.11","5cb1f1ccf3410900154a93a6","655cb802637e0dbe2941dbc4","655cb89c509604fd85638e2c","null","
        <div style=""text-align: center; position: fixed; top: 5vh; left: 40vw;"">
            <div style=""margin:0 auto; width: 20vw; top: 8vh; font-size: 2vw""> 
            <font color=""green""> Bonus : $10 </font>
            </div>
        </div>
    ","null","","","","","","","",""
"","","","","","html-keyboard-response","114","100052","0.0-7.11-3.11","5cb1f1ccf3410900154a93a6","655cb802637e0dbe2941dbc4","655cb89c509604fd85638e2c","39","./stimuli//pack_shapes_diff/cat_2/diff_3/ex_2_3_9.png","arrowright","response","ArrowRight","9","2","3","test","true",""
"","","","","","html-keyboard-response","115","101562","0.0-7.11-4.11","5cb1f1ccf3410900154a93a6","655cb802637e0dbe2941dbc4","655cb89c509604fd85638e2c","null","<p> <font color=""green"" size=""5vw""> Correct category! </font></p>","null","feedback","","","","","","","10"
"","","","","","html-keyboard-response","116","101979","0.0-7.12-0.12","5cb1f1ccf3410900154a93a6","655cb802637e0dbe2941dbc4","655cb89c509604fd85638e2c","417","
            
        <div style=""text-align: center; position: fixed; top: 5vh; left: 40vw;"">
            <div style=""margin:0 auto; width: 20vw; top: 8vh; font-size: 2vw""> 
            <font color=""green""> Bonus : $10 </font>
            </div>
        </div>
    
            <div> Please press any key to continue to the next image.</div>
        ","arrowright","ITI","","","","","","",""
"","","","","","html-keyboard-response","117","102581","0.0-7.12-1.12","5cb1f1ccf3410900154a93a6","655cb802637e0dbe2941dbc4","655cb89c509604fd85638e2c","null","
        
        <div style=""text-align: center; position: fixed; top: 5vh; left: 40vw;"">
            <div style=""margin:0 auto; width: 20vw; top: 8vh; font-size: 2vw""> 
            <font color=""green""> Bonus : $10 </font>
            </div>
        </div>
    
        <img class=""stim"" src=./stimuli//pack_shapes_diff/cat_2/diff_3/ex_2_3_4.png></img>
    ","null","stimulus","","","","","","",""
"","","","","","html-keyboard-response","118","103595","0.0-7.12-2.12","5cb1f1ccf3410900154a93a6","655cb802637e0dbe2941dbc4","655cb89c509604fd85638e2c","null","
        <div style=""text-align: center; position: fixed; top: 5vh; left: 40vw;"">
            <div style=""margin:0 auto; width: 20vw; top: 8vh; font-size: 2vw""> 
            <font color=""green""> Bonus : $10 </font>
            </div>
        </div>
    ","null","","","","","","","",""
"","","","","","html-keyboard-response","119","103851","0.0-7.12-3.12","5cb1f1ccf3410900154a93a6","655cb802637e0dbe2941dbc4","655cb89c509604fd85638e2c","256","./stimuli//pack_shapes_diff/cat_2/diff_3/ex_2_3_4.png","arrowright","response","ArrowRight","4","2","3","test","true",""
"","","","","","html-keyboard-response","120","104315","0.0-7.12-4.12","5cb1f1ccf3410900154a93a6","655cb802637e0dbe2941dbc4","655cb89c509604fd85638e2c","463","<p> <font color=""green"" size=""5vw""> Correct category! </font></p>","arrowright","feedback","","","","","","","10"
"","","","","","html-keyboard-response","121","105627","0.0-7.13-0.13","5cb1f1ccf3410900154a93a6","655cb802637e0dbe2941dbc4","655cb89c509604fd85638e2c","1311","
            
        <div style=""text-align: center; position: fixed; top: 5vh; left: 40vw;"">
            <div style=""margin:0 auto; width: 20vw; top: 8vh; font-size: 2vw""> 
            <font color=""green""> Bonus : $10 </font>
            </div>
        </div>
    
            <div> Please press any key to continue to the next image.</div>
        ","arrowright","ITI","","","","","","",""
"","","","","","html-keyboard-response","122","106245","0.0-7.13-1.13","5cb1f1ccf3410900154a93a6","655cb802637e0dbe2941dbc4","655cb89c509604fd85638e2c","null","
        
        <div style=""text-align: center; position: fixed; top: 5vh; left: 40vw;"">
            <div style=""margin:0 auto; width: 20vw; top: 8vh; font-size: 2vw""> 
            <font color=""green""> Bonus : $10 </font>
            </div>
        </div>
    
        <img class=""stim"" src=./stimuli//pack_shapes_diff/cat_2/diff_3/ex_2_3_14.png></img>
    ","null","stimulus","","","","","","",""
"","","","","","html-keyboard-response","123","107262","0.0-7.13-2.13","5cb1f1ccf3410900154a93a6","655cb802637e0dbe2941dbc4","655cb89c509604fd85638e2c","null","
        <div style=""text-align: center; position: fixed; top: 5vh; left: 40vw;"">
            <div style=""margin:0 auto; width: 20vw; top: 8vh; font-size: 2vw""> 
            <font color=""green""> Bonus : $10 </font>
            </div>
        </div>
    ","null","","","","","","","",""
"","","","","","html-keyboard-response","124","107500","0.0-7.13-3.13","5cb1f1ccf3410900154a93a6","655cb802637e0dbe2941dbc4","655cb89c509604fd85638e2c","237","./stimuli//pack_shapes_diff/cat_2/diff_3/ex_2_3_14.png","arrowright","response","ArrowRight","14","2","3","test","true",""
"","","","","","html-keyboard-response","125","108083","0.0-7.13-4.13","5cb1f1ccf3410900154a93a6","655cb802637e0dbe2941dbc4","655cb89c509604fd85638e2c","582","<p> <font color=""green"" size=""5vw""> Correct category! </font></p>","arrowright","feedback","","","","","","","10"
"","","","","","html-keyboard-response","126","108635","0.0-7.14-0.14","5cb1f1ccf3410900154a93a6","655cb802637e0dbe2941dbc4","655cb89c509604fd85638e2c","552","
            
        <div style=""text-align: center; position: fixed; top: 5vh; left: 40vw;"">
            <div style=""margin:0 auto; width: 20vw; top: 8vh; font-size: 2vw""> 
            <font color=""green""> Bonus : $10 </font>
            </div>
        </div>
    
            <div> Please press any key to continue to the next image.</div>
        ","arrowright","ITI","","","","","","",""
"","","","","","html-keyboard-response","127","109246","0.0-7.14-1.14","5cb1f1ccf3410900154a93a6","655cb802637e0dbe2941dbc4","655cb89c509604fd85638e2c","null","
        
        <div style=""text-align: center; position: fixed; top: 5vh; left: 40vw;"">
            <div style=""margin:0 auto; width: 20vw; top: 8vh; font-size: 2vw""> 
            <font color=""green""> Bonus : $10 </font>
            </div>
        </div>
    
        <img class=""stim"" src=./stimuli//pack_shapes_diff/cat_1/diff_3/ex_1_3_16.png></img>
    ","null","stimulus","","","","","","",""
"","","","","","html-keyboard-response","128","110262","0.0-7.14-2.14","5cb1f1ccf3410900154a93a6","655cb802637e0dbe2941dbc4","655cb89c509604fd85638e2c","null","
        <div style=""text-align: center; position: fixed; top: 5vh; left: 40vw;"">
            <div style=""margin:0 auto; width: 20vw; top: 8vh; font-size: 2vw""> 
            <font color=""green""> Bonus : $10 </font>
            </div>
        </div>
    ","null","","","","","","","",""
"","","","","","html-keyboard-response","129","110435","0.0-7.14-3.14","5cb1f1ccf3410900154a93a6","655cb802637e0dbe2941dbc4","655cb89c509604fd85638e2c","173","./stimuli//pack_shapes_diff/cat_1/diff_3/ex_1_3_16.png","arrowleft","response","ArrowLeft","16","1","3","test","true",""
"","","","","","html-keyboard-response","130","110867","0.0-7.14-4.14","5cb1f1ccf3410900154a93a6","655cb802637e0dbe2941dbc4","655cb89c509604fd85638e2c","431","<p> <font color=""green"" size=""5vw""> Correct category! </font></p>","arrowleft","feedback","","","","","","","10"
"","","","","","html-keyboard-response","131","111572","0.0-7.15-0.15","5cb1f1ccf3410900154a93a6","655cb802637e0dbe2941dbc4","655cb89c509604fd85638e2c","704","
            
        <div style=""text-align: center; position: fixed; top: 5vh; left: 40vw;"">
            <div style=""margin:0 auto; width: 20vw; top: 8vh; font-size: 2vw""> 
            <font color=""green""> Bonus : $10 </font>
            </div>
        </div>
    
            <div> Please press any key to continue to the next image.</div>
        ","arrowright","ITI","","","","","","",""
"","","","","","html-keyboard-response","132","112179","0.0-7.15-1.15","5cb1f1ccf3410900154a93a6","655cb802637e0dbe2941dbc4","655cb89c509604fd85638e2c","null","
        
        <div style=""text-align: center; position: fixed; top: 5vh; left: 40vw;"">
            <div style=""margin:0 auto; width: 20vw; top: 8vh; font-size: 2vw""> 
            <font color=""green""> Bonus : $10 </font>
            </div>
        </div>
    
        <img class=""stim"" src=./stimuli//pack_shapes_diff/cat_2/diff_4/ex_2_4_15.png></img>
    ","null","stimulus","","","","","","",""
"","","","","","html-keyboard-response","133","113197","0.0-7.15-2.15","5cb1f1ccf3410900154a93a6","655cb802637e0dbe2941dbc4","655cb89c509604fd85638e2c","null","
        <div style=""text-align: center; position: fixed; top: 5vh; left: 40vw;"">
            <div style=""margin:0 auto; width: 20vw; top: 8vh; font-size: 2vw""> 
            <font color=""green""> Bonus : $10 </font>
            </div>
        </div>
    ","null","","","","","","","",""
"","","","","","html-keyboard-response","134","113211","0.0-7.15-3.15","5cb1f1ccf3410900154a93a6","655cb802637e0dbe2941dbc4","655cb89c509604fd85638e2c","14","./stimuli//pack_shapes_diff/cat_2/diff_4/ex_2_4_15.png","arrowright","response","ArrowRight","15","2","4","test","true",""
"","","","","","html-keyboard-response","135","113683","0.0-7.15-4.15","5cb1f1ccf3410900154a93a6","655cb802637e0dbe2941dbc4","655cb89c509604fd85638e2c","472","<p> <font color=""green"" size=""5vw""> Correct category! </font></p>","arrowright","feedback","","","","","","","10"
"","","","","","html-keyboard-response","136","114219","0.0-7.16-0.16","5cb1f1ccf3410900154a93a6","655cb802637e0dbe2941dbc4","655cb89c509604fd85638e2c","535","
            
        <div style=""text-align: center; position: fixed; top: 5vh; left: 40vw;"">
            <div style=""margin:0 auto; width: 20vw; top: 8vh; font-size: 2vw""> 
            <font color=""green""> Bonus : $10 </font>
            </div>
        </div>
    
            <div> Please press any key to continue to the next image.</div>
        ","arrowright","ITI","","","","","","",""
"","","","","","html-keyboard-response","137","114829","0.0-7.16-1.16","5cb1f1ccf3410900154a93a6","655cb802637e0dbe2941dbc4","655cb89c509604fd85638e2c","null","
        
        <div style=""text-align: center; position: fixed; top: 5vh; left: 40vw;"">
            <div style=""margin:0 auto; width: 20vw; top: 8vh; font-size: 2vw""> 
            <font color=""green""> Bonus : $10 </font>
            </div>
        </div>
    
        <img class=""stim"" src=./stimuli//pack_shapes_diff/cat_1/diff_4/ex_1_4_7.png></img>
    ","null","stimulus","","","","","","",""
"","","","","","html-keyboard-response","138","115833","0.0-7.16-2.16","5cb1f1ccf3410900154a93a6","655cb802637e0dbe2941dbc4","655cb89c509604fd85638e2c","null","
        <div style=""text-align: center; position: fixed; top: 5vh; left: 40vw;"">
            <div style=""margin:0 auto; width: 20vw; top: 8vh; font-size: 2vw""> 
            <font color=""green""> Bonus : $10 </font>
            </div>
        </div>
    ","null","","","","","","","",""
"","","","","","html-keyboard-response","139","115907","0.0-7.16-3.16","5cb1f1ccf3410900154a93a6","655cb802637e0dbe2941dbc4","655cb89c509604fd85638e2c","74","./stimuli//pack_shapes_diff/cat_1/diff_4/ex_1_4_7.png","arrowleft","response","ArrowLeft","7","1","4","test","true",""
"","","","","","html-keyboard-response","140","116417","0.0-7.16-4.16","5cb1f1ccf3410900154a93a6","655cb802637e0dbe2941dbc4","655cb89c509604fd85638e2c","510","<p> <font color=""green"" size=""5vw""> Correct category! </font></p>","arrowleft","feedback","","","","","","","10"
"","","","","","html-keyboard-response","141","116963","0.0-7.17-0.17","5cb1f1ccf3410900154a93a6","655cb802637e0dbe2941dbc4","655cb89c509604fd85638e2c","546","
            
        <div style=""text-align: center; position: fixed; top: 5vh; left: 40vw;"">
            <div style=""margin:0 auto; width: 20vw; top: 8vh; font-size: 2vw""> 
            <font color=""green""> Bonus : $10 </font>
            </div>
        </div>
    
            <div> Please press any key to continue to the next image.</div>
        ","arrowleft","ITI","","","","","","",""
"","","","","","html-keyboard-response","142","117567","0.0-7.17-1.17","5cb1f1ccf3410900154a93a6","655cb802637e0dbe2941dbc4","655cb89c509604fd85638e2c","null","
        
        <div style=""text-align: center; position: fixed; top: 5vh; left: 40vw;"">
            <div style=""margin:0 auto; width: 20vw; top: 8vh; font-size: 2vw""> 
            <font color=""green""> Bonus : $10 </font>
            </div>
        </div>
    
        <img class=""stim"" src=./stimuli//pack_shapes_diff/cat_1/diff_4/ex_1_4_15.png></img>
    ","null","stimulus","","","","","","",""
"","","","","","html-keyboard-response","143","118591","0.0-7.17-2.17","5cb1f1ccf3410900154a93a6","655cb802637e0dbe2941dbc4","655cb89c509604fd85638e2c","null","
        <div style=""text-align: center; position: fixed; top: 5vh; left: 40vw;"">
            <div style=""margin:0 auto; width: 20vw; top: 8vh; font-size: 2vw""> 
            <font color=""green""> Bonus : $10 </font>
            </div>
        </div>
    ","null","","","","","","","",""
"","","","","","html-keyboard-response","144","118932","0.0-7.17-3.17","5cb1f1ccf3410900154a93a6","655cb802637e0dbe2941dbc4","655cb89c509604fd85638e2c","340","./stimuli//pack_shapes_diff/cat_1/diff_4/ex_1_4_15.png","arrowleft","response","ArrowLeft","15","1","4","test","true",""
"","","","","","html-keyboard-response","145","119371","0.0-7.17-4.17","5cb1f1ccf3410900154a93a6","655cb802637e0dbe2941dbc4","655cb89c509604fd85638e2c","439","<p> <font color=""green"" size=""5vw""> Correct category! </font></p>","arrowleft","feedback","","","","","","","10"
"","","","","","html-keyboard-response","146","119796","0.0-7.18-0.18","5cb1f1ccf3410900154a93a6","655cb802637e0dbe2941dbc4","655cb89c509604fd85638e2c","423","
            
        <div style=""text-align: center; position: fixed; top: 5vh; left: 40vw;"">
            <div style=""margin:0 auto; width: 20vw; top: 8vh; font-size: 2vw""> 
            <font color=""green""> Bonus : $10 </font>
            </div>
        </div>
    
            <div> Please press any key to continue to the next image.</div>
        ","arrowleft","ITI","","","","","","",""
"","","","","","html-keyboard-response","147","120411","0.0-7.18-1.18","5cb1f1ccf3410900154a93a6","655cb802637e0dbe2941dbc4","655cb89c509604fd85638e2c","null","
        
        <div style=""text-align: center; position: fixed; top: 5vh; left: 40vw;"">
            <div style=""margin:0 auto; width: 20vw; top: 8vh; font-size: 2vw""> 
            <font color=""green""> Bonus : $10 </font>
            </div>
        </div>
    
        <img class=""stim"" src=./stimuli//pack_shapes_diff/cat_2/diff_4/ex_2_4_17.png></img>
    ","null","stimulus","","","","","","",""
"","","","","","html-keyboard-response","148","121428","0.0-7.18-2.18","5cb1f1ccf3410900154a93a6","655cb802637e0dbe2941dbc4","655cb89c509604fd85638e2c","null","
        <div style=""text-align: center; position: fixed; top: 5vh; left: 40vw;"">
            <div style=""margin:0 auto; width: 20vw; top: 8vh; font-size: 2vw""> 
            <font color=""green""> Bonus : $10 </font>
            </div>
        </div>
    ","null","","","","","","","",""
"","","","","","html-keyboard-response","149","121540","0.0-7.18-3.18","5cb1f1ccf3410900154a93a6","655cb802637e0dbe2941dbc4","655cb89c509604fd85638e2c","111","./stimuli//pack_shapes_diff/cat_2/diff_4/ex_2_4_17.png","arrowleft","response","ArrowRight","17","2","4","test","false",""
"","","","","","html-keyboard-response","150","122259","0.0-7.18-4.18","5cb1f1ccf3410900154a93a6","655cb802637e0dbe2941dbc4","655cb89c509604fd85638e2c","719","<p> <font size=""4vw""> Wrong category! </font> <br> <br> <font color=""red"" size=""7vw""> - $0.05 points </font> </p>","arrowleft","feedback","","","","","","","9.95"
"","","","","","html-keyboard-response","151","122707","0.0-7.19-0.19","5cb1f1ccf3410900154a93a6","655cb802637e0dbe2941dbc4","655cb89c509604fd85638e2c","448","
            
        <div style=""text-align: center; position: fixed; top: 5vh; left: 40vw;"">
            <div style=""margin:0 auto; width: 20vw; top: 8vh; font-size: 2vw""> 
            <font color=""green""> Bonus : $9.95 </font>
            </div>
        </div>
    
            <div> Please press any key to continue to the next image.</div>
        ","arrowleft","ITI","","","","","","",""
"","","","","","html-keyboard-response","152","123327","0.0-7.19-1.19","5cb1f1ccf3410900154a93a6","655cb802637e0dbe2941dbc4","655cb89c509604fd85638e2c","null","
        
        <div style=""text-align: center; position: fixed; top: 5vh; left: 40vw;"">
            <div style=""margin:0 auto; width: 20vw; top: 8vh; font-size: 2vw""> 
            <font color=""green""> Bonus : $9.95 </font>
            </div>
        </div>
    
        <img class=""stim"" src=./stimuli//pack_shapes_diff/cat_2/diff_4/ex_2_4_8.png></img>
    ","null","stimulus","","","","","","",""
"","","","","","html-keyboard-response","153","124330","0.0-7.19-2.19","5cb1f1ccf3410900154a93a6","655cb802637e0dbe2941dbc4","655cb89c509604fd85638e2c","null","
        <div style=""text-align: center; position: fixed; top: 5vh; left: 40vw;"">
            <div style=""margin:0 auto; width: 20vw; top: 8vh; font-size: 2vw""> 
            <font color=""green""> Bonus : $9.95 </font>
            </div>
        </div>
    ","null","","","","","","","",""
"","","","","","html-keyboard-response","154","124412","0.0-7.19-3.19","5cb1f1ccf3410900154a93a6","655cb802637e0dbe2941dbc4","655cb89c509604fd85638e2c","82","./stimuli//pack_shapes_diff/cat_2/diff_4/ex_2_4_8.png","arrowright","response","ArrowRight","8","2","4","test","true",""
"","","","","","html-keyboard-response","155","124884","0.0-7.19-4.19","5cb1f1ccf3410900154a93a6","655cb802637e0dbe2941dbc4","655cb89c509604fd85638e2c","471","<p> <font color=""green"" size=""5vw""> Correct category! </font></p>","arrowright","feedback","","","","","","","9.95"
"","","","","","html-keyboard-response","156","125316","0.0-7.20-0.20","5cb1f1ccf3410900154a93a6","655cb802637e0dbe2941dbc4","655cb89c509604fd85638e2c","432","
            
        <div style=""text-align: center; position: fixed; top: 5vh; left: 40vw;"">
            <div style=""margin:0 auto; width: 20vw; top: 8vh; font-size: 2vw""> 
            <font color=""green""> Bonus : $9.95 </font>
            </div>
        </div>
    
            <div> Please press any key to continue to the next image.</div>
        ","arrowright","ITI","","","","","","",""
"","","","","","html-keyboard-response","157","125919","0.0-7.20-1.20","5cb1f1ccf3410900154a93a6","655cb802637e0dbe2941dbc4","655cb89c509604fd85638e2c","null","
        
        <div style=""text-align: center; position: fixed; top: 5vh; left: 40vw;"">
            <div style=""margin:0 auto; width: 20vw; top: 8vh; font-size: 2vw""> 
            <font color=""green""> Bonus : $9.95 </font>
            </div>
        </div>
    
        <img class=""stim"" src=./stimuli//pack_shapes_diff/cat_2/diff_5/ex_2_5_4.png></img>
    ","null","stimulus","","","","","","",""
"","","","","","html-keyboard-response","158","126927","0.0-7.20-2.20","5cb1f1ccf3410900154a93a6","655cb802637e0dbe2941dbc4","655cb89c509604fd85638e2c","null","
        <div style=""text-align: center; position: fixed; top: 5vh; left: 40vw;"">
            <div style=""margin:0 auto; width: 20vw; top: 8vh; font-size: 2vw""> 
            <font color=""green""> Bonus : $9.95 </font>
            </div>
        </div>
    ","null","","","","","","","",""
"","","","","","html-keyboard-response","159","126971","0.0-7.20-3.20","5cb1f1ccf3410900154a93a6","655cb802637e0dbe2941dbc4","655cb89c509604fd85638e2c","44","./stimuli//pack_shapes_diff/cat_2/diff_5/ex_2_5_4.png","arrowright","response","ArrowRight","4","2","5","test","true",""
"","","","","","html-keyboard-response","160","127484","0.0-7.20-4.20","5cb1f1ccf3410900154a93a6","655cb802637e0dbe2941dbc4","655cb89c509604fd85638e2c","511","<p> <font color=""green"" size=""5vw""> Correct category! </font></p>","arrowright","feedback","","","","","","","9.95"
"","","","","","html-keyboard-response","161","127923","0.0-7.21-0.21","5cb1f1ccf3410900154a93a6","655cb802637e0dbe2941dbc4","655cb89c509604fd85638e2c","439","
            
        <div style=""text-align: center; position: fixed; top: 5vh; left: 40vw;"">
            <div style=""margin:0 auto; width: 20vw; top: 8vh; font-size: 2vw""> 
            <font color=""green""> Bonus : $9.95 </font>
            </div>
        </div>
    
            <div> Please press any key to continue to the next image.</div>
        ","arrowright","ITI","","","","","","",""
"","","","","","html-keyboard-response","162","128543","0.0-7.21-1.21","5cb1f1ccf3410900154a93a6","655cb802637e0dbe2941dbc4","655cb89c509604fd85638e2c","null","
        
        <div style=""text-align: center; position: fixed; top: 5vh; left: 40vw;"">
            <div style=""margin:0 auto; width: 20vw; top: 8vh; font-size: 2vw""> 
            <font color=""green""> Bonus : $9.95 </font>
            </div>
        </div>
    
        <img class=""stim"" src=./stimuli//pack_shapes_diff/cat_2/diff_5/ex_2_5_10.png></img>
    ","null","stimulus","","","","","","",""
"","","","","","html-keyboard-response","163","129547","0.0-7.21-2.21","5cb1f1ccf3410900154a93a6","655cb802637e0dbe2941dbc4","655cb89c509604fd85638e2c","null","
        <div style=""text-align: center; position: fixed; top: 5vh; left: 40vw;"">
            <div style=""margin:0 auto; width: 20vw; top: 8vh; font-size: 2vw""> 
            <font color=""green""> Bonus : $9.95 </font>
            </div>
        </div>
    ","null","","","","","","","",""
"","","","","","html-keyboard-response","164","129842","0.0-7.21-3.21","5cb1f1ccf3410900154a93a6","655cb802637e0dbe2941dbc4","655cb89c509604fd85638e2c","294","./stimuli//pack_shapes_diff/cat_2/diff_5/ex_2_5_10.png","arrowright","response","ArrowRight","10","2","5","test","true",""
"","","","","","html-keyboard-response","165","130196","0.0-7.21-4.21","5cb1f1ccf3410900154a93a6","655cb802637e0dbe2941dbc4","655cb89c509604fd85638e2c","353","<p> <font color=""green"" size=""5vw""> Correct category! </font></p>","arrowright","feedback","","","","","","","9.95"
"","","","","","html-keyboard-response","166","130651","0.0-7.22-0.22","5cb1f1ccf3410900154a93a6","655cb802637e0dbe2941dbc4","655cb89c509604fd85638e2c","455","
            
        <div style=""text-align: center; position: fixed; top: 5vh; left: 40vw;"">
            <div style=""margin:0 auto; width: 20vw; top: 8vh; font-size: 2vw""> 
            <font color=""green""> Bonus : $9.95 </font>
            </div>
        </div>
    
            <div> Please press any key to continue to the next image.</div>
        ","arrowright","ITI","","","","","","",""
"","","","","","html-keyboard-response","167","131259","0.0-7.22-1.22","5cb1f1ccf3410900154a93a6","655cb802637e0dbe2941dbc4","655cb89c509604fd85638e2c","null","
        
        <div style=""text-align: center; position: fixed; top: 5vh; left: 40vw;"">
            <div style=""margin:0 auto; width: 20vw; top: 8vh; font-size: 2vw""> 
            <font color=""green""> Bonus : $9.95 </font>
            </div>
        </div>
    
        <img class=""stim"" src=./stimuli//pack_shapes_diff/cat_1/diff_5/ex_1_5_1.png></img>
    ","null","stimulus","","","","","","",""
"","","","","","html-keyboard-response","168","132271","0.0-7.22-2.22","5cb1f1ccf3410900154a93a6","655cb802637e0dbe2941dbc4","655cb89c509604fd85638e2c","null","
        <div style=""text-align: center; position: fixed; top: 5vh; left: 40vw;"">
            <div style=""margin:0 auto; width: 20vw; top: 8vh; font-size: 2vw""> 
            <font color=""green""> Bonus : $9.95 </font>
            </div>
        </div>
    ","null","","","","","","","",""
"","","","","","html-keyboard-response","169","132538","0.0-7.22-3.22","5cb1f1ccf3410900154a93a6","655cb802637e0dbe2941dbc4","655cb89c509604fd85638e2c","266","./stimuli//pack_shapes_diff/cat_1/diff_5/ex_1_5_1.png","arrowright","response","ArrowLeft","1","1","5","test","false",""
"","","","","","html-keyboard-response","170","133115","0.0-7.22-4.22","5cb1f1ccf3410900154a93a6","655cb802637e0dbe2941dbc4","655cb89c509604fd85638e2c","577","<p> <font size=""4vw""> Wrong category! </font> <br> <br> <font color=""red"" size=""7vw""> - $0.05 points </font> </p>","arrowright","feedback","","","","","","","9.9"
"","","","","","html-keyboard-response","171","133548","0.0-7.23-0.23","5cb1f1ccf3410900154a93a6","655cb802637e0dbe2941dbc4","655cb89c509604fd85638e2c","431","
            
        <div style=""text-align: center; position: fixed; top: 5vh; left: 40vw;"">
            <div style=""margin:0 auto; width: 20vw; top: 8vh; font-size: 2vw""> 
            <font color=""green""> Bonus : $9.9 </font>
            </div>
        </div>
    
            <div> Please press any key to continue to the next image.</div>
        ","arrowright","ITI","","","","","","",""
"","","","","","html-keyboard-response","172","134177","0.0-7.23-1.23","5cb1f1ccf3410900154a93a6","655cb802637e0dbe2941dbc4","655cb89c509604fd85638e2c","null","
        
        <div style=""text-align: center; position: fixed; top: 5vh; left: 40vw;"">
            <div style=""margin:0 auto; width: 20vw; top: 8vh; font-size: 2vw""> 
            <font color=""green""> Bonus : $9.9 </font>
            </div>
        </div>
    
        <img class=""stim"" src=./stimuli//pack_shapes_diff/cat_2/diff_5/ex_2_5_7.png></img>
    ","null","stimulus","","","","","","",""
"","","","","","html-keyboard-response","173","135179","0.0-7.23-2.23","5cb1f1ccf3410900154a93a6","655cb802637e0dbe2941dbc4","655cb89c509604fd85638e2c","null","
        <div style=""text-align: center; position: fixed; top: 5vh; left: 40vw;"">
            <div style=""margin:0 auto; width: 20vw; top: 8vh; font-size: 2vw""> 
            <font color=""green""> Bonus : $9.9 </font>
            </div>
        </div>
    ","null","","","","","","","",""
"","","","","","html-keyboard-response","174","135443","0.0-7.23-3.23","5cb1f1ccf3410900154a93a6","655cb802637e0dbe2941dbc4","655cb89c509604fd85638e2c","263","./stimuli//pack_shapes_diff/cat_2/diff_5/ex_2_5_7.png","arrowright","response","ArrowRight","7","2","5","test","true",""
"","","","","","html-keyboard-response","175","135882","0.0-7.23-4.23","5cb1f1ccf3410900154a93a6","655cb802637e0dbe2941dbc4","655cb89c509604fd85638e2c","438","<p> <font color=""green"" size=""5vw""> Correct category! </font></p>","arrowright","feedback","","","","","","","9.9"
"","","","","","html-keyboard-response","176","136275","0.0-7.24-0.24","5cb1f1ccf3410900154a93a6","655cb802637e0dbe2941dbc4","655cb89c509604fd85638e2c","393","
            
        <div style=""text-align: center; position: fixed; top: 5vh; left: 40vw;"">
            <div style=""margin:0 auto; width: 20vw; top: 8vh; font-size: 2vw""> 
            <font color=""green""> Bonus : $9.9 </font>
            </div>
        </div>
    
            <div> Please press any key to continue to the next image.</div>
        ","arrowright","ITI","","","","","","",""
"","","","","","html-keyboard-response","177","136883","0.0-7.24-1.24","5cb1f1ccf3410900154a93a6","655cb802637e0dbe2941dbc4","655cb89c509604fd85638e2c","null","
        
        <div style=""text-align: center; position: fixed; top: 5vh; left: 40vw;"">
            <div style=""margin:0 auto; width: 20vw; top: 8vh; font-size: 2vw""> 
            <font color=""green""> Bonus : $9.9 </font>
            </div>
        </div>
    
        <img class=""stim"" src=./stimuli//pack_shapes_diff/cat_1/diff_5/ex_1_5_17.png></img>
    ","null","stimulus","","","","","","",""
"","","","","","html-keyboard-response","178","137886","0.0-7.24-2.24","5cb1f1ccf3410900154a93a6","655cb802637e0dbe2941dbc4","655cb89c509604fd85638e2c","null","
        <div style=""text-align: center; position: fixed; top: 5vh; left: 40vw;"">
            <div style=""margin:0 auto; width: 20vw; top: 8vh; font-size: 2vw""> 
            <font color=""green""> Bonus : $9.9 </font>
            </div>
        </div>
    ","null","","","","","","","",""
"","","","","","html-keyboard-response","179","138258","0.0-7.24-3.24","5cb1f1ccf3410900154a93a6","655cb802637e0dbe2941dbc4","655cb89c509604fd85638e2c","371","./stimuli//pack_shapes_diff/cat_1/diff_5/ex_1_5_17.png","arrowright","response","ArrowLeft","17","1","5","test","false",""
"","","","","","html-keyboard-response","180","138803","0.0-7.24-4.24","5cb1f1ccf3410900154a93a6","655cb802637e0dbe2941dbc4","655cb89c509604fd85638e2c","545","<p> <font size=""4vw""> Wrong category! </font> <br> <br> <font color=""red"" size=""7vw""> - $0.05 points </font> </p>","arrowright","feedback","","","","","","","9.85"
"","","","","","html-keyboard-response","181","139291","0.0-7.25-0.25","5cb1f1ccf3410900154a93a6","655cb802637e0dbe2941dbc4","655cb89c509604fd85638e2c","487","
            
        <div style=""text-align: center; position: fixed; top: 5vh; left: 40vw;"">
            <div style=""margin:0 auto; width: 20vw; top: 8vh; font-size: 2vw""> 
            <font color=""green""> Bonus : $9.85 </font>
            </div>
        </div>
    
            <div> Please press any key to continue to the next image.</div>
        ","arrowright","ITI","","","","","","",""
"","","","","","html-keyboard-response","182","139902","0.0-7.25-1.25","5cb1f1ccf3410900154a93a6","655cb802637e0dbe2941dbc4","655cb89c509604fd85638e2c","null","
        
        <div style=""text-align: center; position: fixed; top: 5vh; left: 40vw;"">
            <div style=""margin:0 auto; width: 20vw; top: 8vh; font-size: 2vw""> 
            <font color=""green""> Bonus : $9.85 </font>
            </div>
        </div>
    
        <img class=""stim"" src=./stimuli//pack_shapes_diff/cat_1/diff_4/ex_1_4_9.png></img>
    ","null","stimulus","","","","","","",""
"","","","","","html-keyboard-response","183","140909","0.0-7.25-2.25","5cb1f1ccf3410900154a93a6","655cb802637e0dbe2941dbc4","655cb89c509604fd85638e2c","null","
        <div style=""text-align: center; position: fixed; top: 5vh; left: 40vw;"">
            <div style=""margin:0 auto; width: 20vw; top: 8vh; font-size: 2vw""> 
            <font color=""green""> Bonus : $9.85 </font>
            </div>
        </div>
    ","null","","","","","","","",""
"","","","","","html-keyboard-response","184","141211","0.0-7.25-3.25","5cb1f1ccf3410900154a93a6","655cb802637e0dbe2941dbc4","655cb89c509604fd85638e2c","302","./stimuli//pack_shapes_diff/cat_1/diff_4/ex_1_4_9.png","arrowleft","response","ArrowLeft","9","1","4","test","true",""
"","","","","","html-keyboard-response","185","141707","0.0-7.25-4.25","5cb1f1ccf3410900154a93a6","655cb802637e0dbe2941dbc4","655cb89c509604fd85638e2c","496","<p> <font color=""green"" size=""5vw""> Correct category! </font></p>","arrowleft","feedback","","","","","","","9.85"
"","","","","","html-keyboard-response","186","142234","0.0-7.26-0.26","5cb1f1ccf3410900154a93a6","655cb802637e0dbe2941dbc4","655cb89c509604fd85638e2c","526","
            
        <div style=""text-align: center; position: fixed; top: 5vh; left: 40vw;"">
            <div style=""margin:0 auto; width: 20vw; top: 8vh; font-size: 2vw""> 
            <font color=""green""> Bonus : $9.85 </font>
            </div>
        </div>
    
            <div> Please press any key to continue to the next image.</div>
        ","arrowleft","ITI","","","","","","",""
"","","","","","html-keyboard-response","187","142847","0.0-7.26-1.26","5cb1f1ccf3410900154a93a6","655cb802637e0dbe2941dbc4","655cb89c509604fd85638e2c","null","
        
        <div style=""text-align: center; position: fixed; top: 5vh; left: 40vw;"">
            <div style=""margin:0 auto; width: 20vw; top: 8vh; font-size: 2vw""> 
            <font color=""green""> Bonus : $9.85 </font>
            </div>
        </div>
    
        <img class=""stim"" src=./stimuli//pack_shapes_diff/cat_1/diff_4/ex_1_4_8.png></img>
    ","null","stimulus","","","","","","",""
"","","","","","html-keyboard-response","188","143863","0.0-7.26-2.26","5cb1f1ccf3410900154a93a6","655cb802637e0dbe2941dbc4","655cb89c509604fd85638e2c","null","
        <div style=""text-align: center; position: fixed; top: 5vh; left: 40vw;"">
            <div style=""margin:0 auto; width: 20vw; top: 8vh; font-size: 2vw""> 
            <font color=""green""> Bonus : $9.85 </font>
            </div>
        </div>
    ","null","","","","","","","",""
"","","","","","html-keyboard-response","189","144234","0.0-7.26-3.26","5cb1f1ccf3410900154a93a6","655cb802637e0dbe2941dbc4","655cb89c509604fd85638e2c","370","./stimuli//pack_shapes_diff/cat_1/diff_4/ex_1_4_8.png","arrowleft","response","ArrowLeft","8","1","4","test","true",""
"","","","","","html-keyboard-response","190","144811","0.0-7.26-4.26","5cb1f1ccf3410900154a93a6","655cb802637e0dbe2941dbc4","655cb89c509604fd85638e2c","577","<p> <font color=""green"" size=""5vw""> Correct category! </font></p>","arrowleft","feedback","","","","","","","9.85"
"","","","","","html-keyboard-response","191","145427","0.0-7.27-0.27","5cb1f1ccf3410900154a93a6","655cb802637e0dbe2941dbc4","655cb89c509604fd85638e2c","615","
            
        <div style=""text-align: center; position: fixed; top: 5vh; left: 40vw;"">
            <div style=""margin:0 auto; width: 20vw; top: 8vh; font-size: 2vw""> 
            <font color=""green""> Bonus : $9.85 </font>
            </div>
        </div>
    
            <div> Please press any key to continue to the next image.</div>
        ","arrowleft","ITI","","","","","","",""
"","","","","","html-keyboard-response","192","146039","0.0-7.27-1.27","5cb1f1ccf3410900154a93a6","655cb802637e0dbe2941dbc4","655cb89c509604fd85638e2c","null","
        
        <div style=""text-align: center; position: fixed; top: 5vh; left: 40vw;"">
            <div style=""margin:0 auto; width: 20vw; top: 8vh; font-size: 2vw""> 
            <font color=""green""> Bonus : $9.85 </font>
            </div>
        </div>
    
        <img class=""stim"" src=./stimuli//pack_shapes_diff/cat_2/diff_4/ex_2_4_10.png></img>
    ","null","stimulus","","","","","","",""
"","","","","","html-keyboard-response","193","147052","0.0-7.27-2.27","5cb1f1ccf3410900154a93a6","655cb802637e0dbe2941dbc4","655cb89c509604fd85638e2c","null","
        <div style=""text-align: center; position: fixed; top: 5vh; left: 40vw;"">
            <div style=""margin:0 auto; width: 20vw; top: 8vh; font-size: 2vw""> 
            <font color=""green""> Bonus : $9.85 </font>
            </div>
        </div>
    ","null","","","","","","","",""
"","","","","","html-keyboard-response","194","147234","0.0-7.27-3.27","5cb1f1ccf3410900154a93a6","655cb802637e0dbe2941dbc4","655cb89c509604fd85638e2c","182","./stimuli//pack_shapes_diff/cat_2/diff_4/ex_2_4_10.png","arrowright","response","ArrowRight","10","2","4","test","true",""
"","","","","","html-keyboard-response","195","147731","0.0-7.27-4.27","5cb1f1ccf3410900154a93a6","655cb802637e0dbe2941dbc4","655cb89c509604fd85638e2c","497","<p> <font color=""green"" size=""5vw""> Correct category! </font></p>","arrowright","feedback","","","","","","","9.85"
"","","","","","html-keyboard-response","196","148219","0.0-7.28-0.28","5cb1f1ccf3410900154a93a6","655cb802637e0dbe2941dbc4","655cb89c509604fd85638e2c","488","
            
        <div style=""text-align: center; position: fixed; top: 5vh; left: 40vw;"">
            <div style=""margin:0 auto; width: 20vw; top: 8vh; font-size: 2vw""> 
            <font color=""green""> Bonus : $9.85 </font>
            </div>
        </div>
    
            <div> Please press any key to continue to the next image.</div>
        ","arrowright","ITI","","","","","","",""
"","","","","","html-keyboard-response","197","148831","0.0-7.28-1.28","5cb1f1ccf3410900154a93a6","655cb802637e0dbe2941dbc4","655cb89c509604fd85638e2c","null","
        
        <div style=""text-align: center; position: fixed; top: 5vh; left: 40vw;"">
            <div style=""margin:0 auto; width: 20vw; top: 8vh; font-size: 2vw""> 
            <font color=""green""> Bonus : $9.85 </font>
            </div>
        </div>
    
        <img class=""stim"" src=./stimuli//pack_shapes_diff/cat_1/diff_4/ex_1_4_15.png></img>
    ","null","stimulus","","","","","","",""
"","","","","","html-keyboard-response","198","149843","0.0-7.28-2.28","5cb1f1ccf3410900154a93a6","655cb802637e0dbe2941dbc4","655cb89c509604fd85638e2c","null","
        <div style=""text-align: center; position: fixed; top: 5vh; left: 40vw;"">
            <div style=""margin:0 auto; width: 20vw; top: 8vh; font-size: 2vw""> 
            <font color=""green""> Bonus : $9.85 </font>
            </div>
        </div>
    ","null","","","","","","","",""
"","","","","","html-keyboard-response","199","149863","0.0-7.28-3.28","5cb1f1ccf3410900154a93a6","655cb802637e0dbe2941dbc4","655cb89c509604fd85638e2c","19","./stimuli//pack_shapes_diff/cat_1/diff_4/ex_1_4_15.png","arrowleft","response","ArrowLeft","15","1","4","test","true",""
"","","","","","html-keyboard-response","200","150291","0.0-7.28-4.28","5cb1f1ccf3410900154a93a6","655cb802637e0dbe2941dbc4","655cb89c509604fd85638e2c","428","<p> <font color=""green"" size=""5vw""> Correct category! </font></p>","arrowleft","feedback","","","","","","","9.85"
"","","","","","html-keyboard-response","201","150778","0.0-7.29-0.29","5cb1f1ccf3410900154a93a6","655cb802637e0dbe2941dbc4","655cb89c509604fd85638e2c","486","
            
        <div style=""text-align: center; position: fixed; top: 5vh; left: 40vw;"">
            <div style=""margin:0 auto; width: 20vw; top: 8vh; font-size: 2vw""> 
            <font color=""green""> Bonus : $9.85 </font>
            </div>
        </div>
    
            <div> Please press any key to continue to the next image.</div>
        ","arrowleft","ITI","","","","","","",""
"","","","","","html-keyboard-response","202","151380","0.0-7.29-1.29","5cb1f1ccf3410900154a93a6","655cb802637e0dbe2941dbc4","655cb89c509604fd85638e2c","null","
        
        <div style=""text-align: center; position: fixed; top: 5vh; left: 40vw;"">
            <div style=""margin:0 auto; width: 20vw; top: 8vh; font-size: 2vw""> 
            <font color=""green""> Bonus : $9.85 </font>
            </div>
        </div>
    
        <img class=""stim"" src=./stimuli//pack_shapes_diff/cat_2/diff_4/ex_2_4_5.png></img>
    ","null","stimulus","","","","","","",""
"","","","","","html-keyboard-response","203","152396","0.0-7.29-2.29","5cb1f1ccf3410900154a93a6","655cb802637e0dbe2941dbc4","655cb89c509604fd85638e2c","null","
        <div style=""text-align: center; position: fixed; top: 5vh; left: 40vw;"">
            <div style=""margin:0 auto; width: 20vw; top: 8vh; font-size: 2vw""> 
            <font color=""green""> Bonus : $9.85 </font>
            </div>
        </div>
    ","null","","","","","","","",""
"","","","","","html-keyboard-response","204","152763","0.0-7.29-3.29","5cb1f1ccf3410900154a93a6","655cb802637e0dbe2941dbc4","655cb89c509604fd85638e2c","367","./stimuli//pack_shapes_diff/cat_2/diff_4/ex_2_4_5.png","arrowright","response","ArrowRight","5","2","4","test","true",""
"","","","","","html-keyboard-response","205","153179","0.0-7.29-4.29","5cb1f1ccf3410900154a93a6","655cb802637e0dbe2941dbc4","655cb89c509604fd85638e2c","415","<p> <font color=""green"" size=""5vw""> Correct category! </font></p>","arrowright","feedback","","","","","","","9.85"
"","","","","","html-keyboard-response","206","153635","0.0-7.30-0.30","5cb1f1ccf3410900154a93a6","655cb802637e0dbe2941dbc4","655cb89c509604fd85638e2c","454","
            
        <div style=""text-align: center; position: fixed; top: 5vh; left: 40vw;"">
            <div style=""margin:0 auto; width: 20vw; top: 8vh; font-size: 2vw""> 
            <font color=""green""> Bonus : $9.85 </font>
            </div>
        </div>
    
            <div> Please press any key to continue to the next image.</div>
        ","arrowright","ITI","","","","","","",""
"","","","","","html-keyboard-response","207","154238","0.0-7.30-1.30","5cb1f1ccf3410900154a93a6","655cb802637e0dbe2941dbc4","655cb89c509604fd85638e2c","null","
        
        <div style=""text-align: center; position: fixed; top: 5vh; left: 40vw;"">
            <div style=""margin:0 auto; width: 20vw; top: 8vh; font-size: 2vw""> 
            <font color=""green""> Bonus : $9.85 </font>
            </div>
        </div>
    
        <img class=""stim"" src=./stimuli//pack_shapes_diff/cat_1/diff_5/ex_1_5_14.png></img>
    ","null","stimulus","","","","","","",""
"","","","","","html-keyboard-response","208","155246","0.0-7.30-2.30","5cb1f1ccf3410900154a93a6","655cb802637e0dbe2941dbc4","655cb89c509604fd85638e2c","null","
        <div style=""text-align: center; position: fixed; top: 5vh; left: 40vw;"">
            <div style=""margin:0 auto; width: 20vw; top: 8vh; font-size: 2vw""> 
            <font color=""green""> Bonus : $9.85 </font>
            </div>
        </div>
    ","null","","","","","","","",""
"","","","","","html-keyboard-response","209","155290","0.0-7.30-3.30","5cb1f1ccf3410900154a93a6","655cb802637e0dbe2941dbc4","655cb89c509604fd85638e2c","43","./stimuli//pack_shapes_diff/cat_1/diff_5/ex_1_5_14.png","arrowleft","response","ArrowLeft","14","1","5","test","true",""
"","","","","","html-keyboard-response","210","155771","0.0-7.30-4.30","5cb1f1ccf3410900154a93a6","655cb802637e0dbe2941dbc4","655cb89c509604fd85638e2c","481","<p> <font color=""green"" size=""5vw""> Correct category! </font></p>","arrowleft","feedback","","","","","","","9.85"
"","","","","","html-keyboard-response","211","156187","0.0-7.31-0.31","5cb1f1ccf3410900154a93a6","655cb802637e0dbe2941dbc4","655cb89c509604fd85638e2c","415","
            
        <div style=""text-align: center; position: fixed; top: 5vh; left: 40vw;"">
            <div style=""margin:0 auto; width: 20vw; top: 8vh; font-size: 2vw""> 
            <font color=""green""> Bonus : $9.85 </font>
            </div>
        </div>
    
            <div> Please press any key to continue to the next image.</div>
        ","arrowleft","ITI","","","","","","",""
"","","","","","html-keyboard-response","212","156798","0.0-7.31-1.31","5cb1f1ccf3410900154a93a6","655cb802637e0dbe2941dbc4","655cb89c509604fd85638e2c","null","
        
        <div style=""text-align: center; position: fixed; top: 5vh; left: 40vw;"">
            <div style=""margin:0 auto; width: 20vw; top: 8vh; font-size: 2vw""> 
            <font color=""green""> Bonus : $9.85 </font>
            </div>
        </div>
    
        <img class=""stim"" src=./stimuli//pack_shapes_diff/cat_2/diff_5/ex_2_5_8.png></img>
    ","null","stimulus","","","","","","",""
"","","","","","html-keyboard-response","213","157805","0.0-7.31-2.31","5cb1f1ccf3410900154a93a6","655cb802637e0dbe2941dbc4","655cb89c509604fd85638e2c","null","
        <div style=""text-align: center; position: fixed; top: 5vh; left: 40vw;"">
            <div style=""margin:0 auto; width: 20vw; top: 8vh; font-size: 2vw""> 
            <font color=""green""> Bonus : $9.85 </font>
            </div>
        </div>
    ","null","","","","","","","",""
"","","","","","html-keyboard-response","214","157818","0.0-7.31-3.31","5cb1f1ccf3410900154a93a6","655cb802637e0dbe2941dbc4","655cb89c509604fd85638e2c","13","./stimuli//pack_shapes_diff/cat_2/diff_5/ex_2_5_8.png","arrowleft","response","ArrowRight","8","2","5","test","false",""
"","","","","","html-keyboard-response","215","158316","0.0-7.31-4.31","5cb1f1ccf3410900154a93a6","655cb802637e0dbe2941dbc4","655cb89c509604fd85638e2c","498","<p> <font size=""4vw""> Wrong category! </font> <br> <br> <font color=""red"" size=""7vw""> - $0.05 points </font> </p>","arrowleft","feedback","","","","","","","9.8"
"","","","","","html-keyboard-response","216","158748","0.0-7.32-0.32","5cb1f1ccf3410900154a93a6","655cb802637e0dbe2941dbc4","655cb89c509604fd85638e2c","431","
            
        <div style=""text-align: center; position: fixed; top: 5vh; left: 40vw;"">
            <div style=""margin:0 auto; width: 20vw; top: 8vh; font-size: 2vw""> 
            <font color=""green""> Bonus : $9.8 </font>
            </div>
        </div>
    
            <div> Please press any key to continue to the next image.</div>
        ","arrowleft","ITI","","","","","","",""
"","","","","","html-keyboard-response","217","159364","0.0-7.32-1.32","5cb1f1ccf3410900154a93a6","655cb802637e0dbe2941dbc4","655cb89c509604fd85638e2c","null","
        
        <div style=""text-align: center; position: fixed; top: 5vh; left: 40vw;"">
            <div style=""margin:0 auto; width: 20vw; top: 8vh; font-size: 2vw""> 
            <font color=""green""> Bonus : $9.8 </font>
            </div>
        </div>
    
        <img class=""stim"" src=./stimuli//pack_shapes_diff/cat_1/diff_5/ex_1_5_10.png></img>
    ","null","stimulus","","","","","","",""
"","","","","","html-keyboard-response","218","160366","0.0-7.32-2.32","5cb1f1ccf3410900154a93a6","655cb802637e0dbe2941dbc4","655cb89c509604fd85638e2c","null","
        <div style=""text-align: center; position: fixed; top: 5vh; left: 40vw;"">
            <div style=""margin:0 auto; width: 20vw; top: 8vh; font-size: 2vw""> 
            <font color=""green""> Bonus : $9.8 </font>
            </div>
        </div>
    ","null","","","","","","","",""
"","","","","","html-keyboard-response","219","160500","0.0-7.32-3.32","5cb1f1ccf3410900154a93a6","655cb802637e0dbe2941dbc4","655cb89c509604fd85638e2c","133","./stimuli//pack_shapes_diff/cat_1/diff_5/ex_1_5_10.png","arrowright","response","ArrowLeft","10","1","5","test","false",""
"","","","","","html-keyboard-response","220","161250","0.0-7.32-4.32","5cb1f1ccf3410900154a93a6","655cb802637e0dbe2941dbc4","655cb89c509604fd85638e2c","750","<p> <font size=""4vw""> Wrong category! </font> <br> <br> <font color=""red"" size=""7vw""> - $0.05 points </font> </p>","arrowright","feedback","","","","","","","9.75"
"","","","","","html-keyboard-response","221","161732","0.0-7.33-0.33","5cb1f1ccf3410900154a93a6","655cb802637e0dbe2941dbc4","655cb89c509604fd85638e2c","482","
            
        <div style=""text-align: center; position: fixed; top: 5vh; left: 40vw;"">
            <div style=""margin:0 auto; width: 20vw; top: 8vh; font-size: 2vw""> 
            <font color=""green""> Bonus : $9.75 </font>
            </div>
        </div>
    
            <div> Please press any key to continue to the next image.</div>
        ","arrowright","ITI","","","","","","",""
"","","","","","html-keyboard-response","222","162346","0.0-7.33-1.33","5cb1f1ccf3410900154a93a6","655cb802637e0dbe2941dbc4","655cb89c509604fd85638e2c","null","
        
        <div style=""text-align: center; position: fixed; top: 5vh; left: 40vw;"">
            <div style=""margin:0 auto; width: 20vw; top: 8vh; font-size: 2vw""> 
            <font color=""green""> Bonus : $9.75 </font>
            </div>
        </div>
    
        <img class=""stim"" src=./stimuli//pack_shapes_diff/cat_2/diff_5/ex_2_5_13.png></img>
    ","null","stimulus","","","","","","",""
"","","","","","html-keyboard-response","223","163348","0.0-7.33-2.33","5cb1f1ccf3410900154a93a6","655cb802637e0dbe2941dbc4","655cb89c509604fd85638e2c","null","
        <div style=""text-align: center; position: fixed; top: 5vh; left: 40vw;"">
            <div style=""margin:0 auto; width: 20vw; top: 8vh; font-size: 2vw""> 
            <font color=""green""> Bonus : $9.75 </font>
            </div>
        </div>
    ","null","","","","","","","",""
"","","","","","html-keyboard-response","224","163756","0.0-7.33-3.33","5cb1f1ccf3410900154a93a6","655cb802637e0dbe2941dbc4","655cb89c509604fd85638e2c","407","./stimuli//pack_shapes_diff/cat_2/diff_5/ex_2_5_13.png","arrowright","response","ArrowRight","13","2","5","test","true",""
"","","","","","html-keyboard-response","225","164202","0.0-7.33-4.33","5cb1f1ccf3410900154a93a6","655cb802637e0dbe2941dbc4","655cb89c509604fd85638e2c","446","<p> <font color=""green"" size=""5vw""> Correct category! </font></p>","arrowright","feedback","","","","","","","9.75"
"","","","","","html-keyboard-response","226","164643","0.0-7.34-0.34","5cb1f1ccf3410900154a93a6","655cb802637e0dbe2941dbc4","655cb89c509604fd85638e2c","441","
            
        <div style=""text-align: center; position: fixed; top: 5vh; left: 40vw;"">
            <div style=""margin:0 auto; width: 20vw; top: 8vh; font-size: 2vw""> 
            <font color=""green""> Bonus : $9.75 </font>
            </div>
        </div>
    
            <div> Please press any key to continue to the next image.</div>
        ","arrowright","ITI","","","","","","",""
"","","","","","html-keyboard-response","227","165262","0.0-7.34-1.34","5cb1f1ccf3410900154a93a6","655cb802637e0dbe2941dbc4","655cb89c509604fd85638e2c","null","
        
        <div style=""text-align: center; position: fixed; top: 5vh; left: 40vw;"">
            <div style=""margin:0 auto; width: 20vw; top: 8vh; font-size: 2vw""> 
            <font color=""green""> Bonus : $9.75 </font>
            </div>
        </div>
    
        <img class=""stim"" src=./stimuli//pack_shapes_diff/cat_1/diff_5/ex_1_5_11.png></img>
    ","null","stimulus","","","","","","",""
"","","","","","html-keyboard-response","228","166265","0.0-7.34-2.34","5cb1f1ccf3410900154a93a6","655cb802637e0dbe2941dbc4","655cb89c509604fd85638e2c","null","
        <div style=""text-align: center; position: fixed; top: 5vh; left: 40vw;"">
            <div style=""margin:0 auto; width: 20vw; top: 8vh; font-size: 2vw""> 
            <font color=""green""> Bonus : $9.75 </font>
            </div>
        </div>
    ","null","","","","","","","",""
"","","","","","html-keyboard-response","229","166570","0.0-7.34-3.34","5cb1f1ccf3410900154a93a6","655cb802637e0dbe2941dbc4","655cb89c509604fd85638e2c","304","./stimuli//pack_shapes_diff/cat_1/diff_5/ex_1_5_11.png","arrowleft","response","ArrowLeft","11","1","5","test","true",""
"","","","","","html-keyboard-response","230","167115","0.0-7.34-4.34","5cb1f1ccf3410900154a93a6","655cb802637e0dbe2941dbc4","655cb89c509604fd85638e2c","545","<p> <font color=""green"" size=""5vw""> Correct category! </font></p>","arrowleft","feedback","","","","","","","9.75"
"","","","","","html-keyboard-response","231","167968","0.0-7.35-0.35","5cb1f1ccf3410900154a93a6","655cb802637e0dbe2941dbc4","655cb89c509604fd85638e2c","852","
            
        <div style=""text-align: center; position: fixed; top: 5vh; left: 40vw;"">
            <div style=""margin:0 auto; width: 20vw; top: 8vh; font-size: 2vw""> 
            <font color=""green""> Bonus : $9.75 </font>
            </div>
        </div>
    
            <div> Please press any key to continue to the next image.</div>
        ","arrowleft","ITI","","","","","","",""
"","","","","","html-keyboard-response","232","168582","0.0-7.35-1.35","5cb1f1ccf3410900154a93a6","655cb802637e0dbe2941dbc4","655cb89c509604fd85638e2c","null","
        
        <div style=""text-align: center; position: fixed; top: 5vh; left: 40vw;"">
            <div style=""margin:0 auto; width: 20vw; top: 8vh; font-size: 2vw""> 
            <font color=""green""> Bonus : $9.75 </font>
            </div>
        </div>
    
