"success","timeout","failed_images","failed_audio","failed_video","trial_type","trial_index","time_elapsed","internal_node_id","subject_id","study_id","session_id","rt","stimulus","response","task","correct_response","exemplar_ID","category","difficulty","phase","correct","bonus"
"true","false","[]","[]","[]","preload","0","3","0.0-0.0","64b433e7e3913a60c34c9cb6","655cb802637e0dbe2941dbc4","655cb8d1ed52d4450fd13835","","","","","","","","","","",""
"","","","","","html-keyboard-response","1","3504","0.0-1.0","64b433e7e3913a60c34c9cb6","655cb802637e0dbe2941dbc4","655cb8d1ed52d4450fd13835","3498","Welcome to the Category Learning experiment! Press any key to continue."," ","welcome","","","","","","",""
"","","","","","html-keyboard-response","2","22934","0.0-2.0","64b433e7e3913a60c34c9cb6","655cb802637e0dbe2941dbc4","655cb8d1ed52d4450fd13835","19427","
            <p>You will be shown images of black shapes. Some are category A, some are category B.
            <br>You will not know in advance which category a specific shape belongs to.</p>
            <p>After you see an image, you will be asked to guess its category <b>(left arrow for category A, right arrow for category B)</b></p>
            <p>After you choose, the screen will show you whether you were correct or not.</p>
            <p>Please try to respond as quickly and accurately as possible every time.</p>
            <p>Press any key to continue.</p>
            "," ","introduction_1","","","","","","",""
"","","","","","html-keyboard-response","3","43323","0.0-3.0","64b433e7e3913a60c34c9cb6","655cb802637e0dbe2941dbc4","655cb8d1ed52d4450fd13835","20388","
              <p><b>You will receive a bonus payment depending on your performance!</b></p>
              <p><b>You start with a $10 bonus and each time you guess a shape's category incorrectly $0.05 will be subtracted from the bonus. <br> After the end of the experiment you will receive the remaining bonus as payment.</b></p>
              <p>Press any key to continue.</p>
              "," ","introduction_1","","","","","","",""
"","","","","","html-keyboard-response","4","50512","0.0-4.0","64b433e7e3913a60c34c9cb6","655cb802637e0dbe2941dbc4","655cb8d1ed52d4450fd13835","7187","
            <p> <b>The first 10 trials are a practice round that will not count towards your bonus payment.</b></p>
            <p> You will be notified when practice finishes and the test begins. </p>
            <p> Press any key to begin the practice round.</p>
            "," ","introduction_2","","","","","","",""
"","","","","","html-keyboard-response","5","53026","0.0-5.0-0.0","64b433e7e3913a60c34c9cb6","655cb802637e0dbe2941dbc4","655cb8d1ed52d4450fd13835","2513","
            
        <div style=""text-align: center; position: fixed; top: 5vh; left: 40vw;"">
            <div style=""margin:0 auto; width: 20vw; top: 8vh; font-size: 2vw""> 
            <font color=""green""> Bonus : $10 </font>
            </div>
        </div>
    
            <div> Please press any key to continue to the next image.</div>
        ","arrowdown","ITI","","","","","","",""
"","","","","","html-keyboard-response","6","53646","0.0-5.0-1.0","64b433e7e3913a60c34c9cb6","655cb802637e0dbe2941dbc4","655cb8d1ed52d4450fd13835","null","
        
        <div style=""text-align: center; position: fixed; top: 5vh; left: 40vw;"">
            <div style=""margin:0 auto; width: 20vw; top: 8vh; font-size: 2vw""> 
            <font color=""green""> Bonus : $10 </font>
            </div>
        </div>
    
        <img class=""stim"" src=./stimuli//pack_shapes_diff/cat_1/diff_2/ex_1_2_12.png></img>
    ","null","stimulus","","","","","","",""
"","","","","","html-keyboard-response","7","54649","0.0-5.0-2.0","64b433e7e3913a60c34c9cb6","655cb802637e0dbe2941dbc4","655cb8d1ed52d4450fd13835","null","
        <div style=""text-align: center; position: fixed; top: 5vh; left: 40vw;"">
            <div style=""margin:0 auto; width: 20vw; top: 8vh; font-size: 2vw""> 
            <font color=""green""> Bonus : $10 </font>
            </div>
        </div>
    ","null","","","","","","","",""
"","","","","","html-keyboard-response","8","58051","0.0-5.0-3.0","64b433e7e3913a60c34c9cb6","655cb802637e0dbe2941dbc4","655cb8d1ed52d4450fd13835","3398","./stimuli//pack_shapes_diff/cat_1/diff_2/ex_1_2_12.png","arrowright","response","ArrowLeft","12","1","2","train","false",""
"","","","","","html-keyboard-response","9","59555","0.0-5.0-4.0","64b433e7e3913a60c34c9cb6","655cb802637e0dbe2941dbc4","655cb8d1ed52d4450fd13835","null","<p> <font color=""red"" size=""5vw""> Wrong category! </font> </p>","null","feedback","","","","","","","10"
"","","","","","html-keyboard-response","10","61985","0.0-5.0-0.1","64b433e7e3913a60c34c9cb6","655cb802637e0dbe2941dbc4","655cb8d1ed52d4450fd13835","2429","
            
        <div style=""text-align: center; position: fixed; top: 5vh; left: 40vw;"">
            <div style=""margin:0 auto; width: 20vw; top: 8vh; font-size: 2vw""> 
            <font color=""green""> Bonus : $10 </font>
            </div>
        </div>
    
            <div> Please press any key to continue to the next image.</div>
        ","arrowdown","ITI","","","","","","",""
"","","","","","html-keyboard-response","11","62601","0.0-5.0-1.1","64b433e7e3913a60c34c9cb6","655cb802637e0dbe2941dbc4","655cb8d1ed52d4450fd13835","null","
        
        <div style=""text-align: center; position: fixed; top: 5vh; left: 40vw;"">
            <div style=""margin:0 auto; width: 20vw; top: 8vh; font-size: 2vw""> 
            <font color=""green""> Bonus : $10 </font>
            </div>
        </div>
    
        <img class=""stim"" src=./stimuli//pack_shapes_diff/cat_2/diff_1/ex_2_1_15.png></img>
    ","null","stimulus","","","","","","",""
"","","","","","html-keyboard-response","12","63615","0.0-5.0-2.1","64b433e7e3913a60c34c9cb6","655cb802637e0dbe2941dbc4","655cb8d1ed52d4450fd13835","null","
        <div style=""text-align: center; position: fixed; top: 5vh; left: 40vw;"">
            <div style=""margin:0 auto; width: 20vw; top: 8vh; font-size: 2vw""> 
            <font color=""green""> Bonus : $10 </font>
            </div>
        </div>
    ","null","","","","","","","",""
"","","","","","html-keyboard-response","13","64402","0.0-5.0-3.1","64b433e7e3913a60c34c9cb6","655cb802637e0dbe2941dbc4","655cb8d1ed52d4450fd13835","785","./stimuli//pack_shapes_diff/cat_2/diff_1/ex_2_1_15.png","arrowleft","response","ArrowRight","15","2","1","train","false",""
"","","","","","html-keyboard-response","14","65910","0.0-5.0-4.1","64b433e7e3913a60c34c9cb6","655cb802637e0dbe2941dbc4","655cb8d1ed52d4450fd13835","null","<p> <font color=""red"" size=""5vw""> Wrong category! </font> </p>","null","feedback","","","","","","","10"
"","","","","","html-keyboard-response","15","66672","0.0-5.0-0.2","64b433e7e3913a60c34c9cb6","655cb802637e0dbe2941dbc4","655cb8d1ed52d4450fd13835","760","
            
        <div style=""text-align: center; position: fixed; top: 5vh; left: 40vw;"">
            <div style=""margin:0 auto; width: 20vw; top: 8vh; font-size: 2vw""> 
            <font color=""green""> Bonus : $10 </font>
            </div>
        </div>
    
            <div> Please press any key to continue to the next image.</div>
        ","arrowdown","ITI","","","","","","",""
"","","","","","html-keyboard-response","16","67278","0.0-5.0-1.2","64b433e7e3913a60c34c9cb6","655cb802637e0dbe2941dbc4","655cb8d1ed52d4450fd13835","null","
        
        <div style=""text-align: center; position: fixed; top: 5vh; left: 40vw;"">
            <div style=""margin:0 auto; width: 20vw; top: 8vh; font-size: 2vw""> 
            <font color=""green""> Bonus : $10 </font>
            </div>
        </div>
    
        <img class=""stim"" src=./stimuli//pack_shapes_diff/cat_2/diff_2/ex_2_2_1.png></img>
    ","null","stimulus","","","","","","",""
"","","","","","html-keyboard-response","17","68282","0.0-5.0-2.2","64b433e7e3913a60c34c9cb6","655cb802637e0dbe2941dbc4","655cb8d1ed52d4450fd13835","null","
        <div style=""text-align: center; position: fixed; top: 5vh; left: 40vw;"">
            <div style=""margin:0 auto; width: 20vw; top: 8vh; font-size: 2vw""> 
            <font color=""green""> Bonus : $10 </font>
            </div>
        </div>
    ","null","","","","","","","",""
"","","","","","html-keyboard-response","18","68361","0.0-5.0-3.2","64b433e7e3913a60c34c9cb6","655cb802637e0dbe2941dbc4","655cb8d1ed52d4450fd13835","78","./stimuli//pack_shapes_diff/cat_2/diff_2/ex_2_2_1.png","arrowleft","response","ArrowRight","1","2","2","train","false",""
"","","","","","html-keyboard-response","19","69877","0.0-5.0-4.2","64b433e7e3913a60c34c9cb6","655cb802637e0dbe2941dbc4","655cb8d1ed52d4450fd13835","null","<p> <font color=""red"" size=""5vw""> Wrong category! </font> </p>","null","feedback","","","","","","","10"
"","","","","","html-keyboard-response","20","70682","0.0-5.0-0.3","64b433e7e3913a60c34c9cb6","655cb802637e0dbe2941dbc4","655cb8d1ed52d4450fd13835","803","
            
        <div style=""text-align: center; position: fixed; top: 5vh; left: 40vw;"">
            <div style=""margin:0 auto; width: 20vw; top: 8vh; font-size: 2vw""> 
            <font color=""green""> Bonus : $10 </font>
            </div>
        </div>
    
            <div> Please press any key to continue to the next image.</div>
        "," ","ITI","","","","","","",""
"","","","","","html-keyboard-response","21","71292","0.0-5.0-1.3","64b433e7e3913a60c34c9cb6","655cb802637e0dbe2941dbc4","655cb8d1ed52d4450fd13835","null","
        
        <div style=""text-align: center; position: fixed; top: 5vh; left: 40vw;"">
            <div style=""margin:0 auto; width: 20vw; top: 8vh; font-size: 2vw""> 
            <font color=""green""> Bonus : $10 </font>
            </div>
        </div>
    
        <img class=""stim"" src=./stimuli//pack_shapes_diff/cat_2/diff_1/ex_2_1_2.png></img>
    ","null","stimulus","","","","","","",""
"","","","","","html-keyboard-response","22","72304","0.0-5.0-2.3","64b433e7e3913a60c34c9cb6","655cb802637e0dbe2941dbc4","655cb8d1ed52d4450fd13835","null","
        <div style=""text-align: center; position: fixed; top: 5vh; left: 40vw;"">
            <div style=""margin:0 auto; width: 20vw; top: 8vh; font-size: 2vw""> 
            <font color=""green""> Bonus : $10 </font>
            </div>
        </div>
    ","null","","","","","","","",""
"","","","","","html-keyboard-response","23","72889","0.0-5.0-3.3","64b433e7e3913a60c34c9cb6","655cb802637e0dbe2941dbc4","655cb8d1ed52d4450fd13835","583","./stimuli//pack_shapes_diff/cat_2/diff_1/ex_2_1_2.png","arrowleft","response","ArrowRight","2","2","1","train","false",""
"","","","","","html-keyboard-response","24","74401","0.0-5.0-4.3","64b433e7e3913a60c34c9cb6","655cb802637e0dbe2941dbc4","655cb8d1ed52d4450fd13835","null","<p> <font color=""red"" size=""5vw""> Wrong category! </font> </p>","null","feedback","","","","","","","10"
"","","","","","html-keyboard-response","25","79058","0.0-5.0-0.4","64b433e7e3913a60c34c9cb6","655cb802637e0dbe2941dbc4","655cb8d1ed52d4450fd13835","4655","
            
        <div style=""text-align: center; position: fixed; top: 5vh; left: 40vw;"">
            <div style=""margin:0 auto; width: 20vw; top: 8vh; font-size: 2vw""> 
            <font color=""green""> Bonus : $10 </font>
            </div>
        </div>
    
            <div> Please press any key to continue to the next image.</div>
        ","arrowright","ITI","","","","","","",""
"","","","","","html-keyboard-response","26","79672","0.0-5.0-1.4","64b433e7e3913a60c34c9cb6","655cb802637e0dbe2941dbc4","655cb8d1ed52d4450fd13835","null","
        
        <div style=""text-align: center; position: fixed; top: 5vh; left: 40vw;"">
            <div style=""margin:0 auto; width: 20vw; top: 8vh; font-size: 2vw""> 
            <font color=""green""> Bonus : $10 </font>
            </div>
        </div>
    
        <img class=""stim"" src=./stimuli//pack_shapes_diff/cat_2/diff_1/ex_2_1_11.png></img>
    ","null","stimulus","","","","","","",""
"","","","","","html-keyboard-response","27","80678","0.0-5.0-2.4","64b433e7e3913a60c34c9cb6","655cb802637e0dbe2941dbc4","655cb8d1ed52d4450fd13835","null","
        <div style=""text-align: center; position: fixed; top: 5vh; left: 40vw;"">
            <div style=""margin:0 auto; width: 20vw; top: 8vh; font-size: 2vw""> 
            <font color=""green""> Bonus : $10 </font>
            </div>
        </div>
    ","null","","","","","","","",""
"","","","","","html-keyboard-response","28","81394","0.0-5.0-3.4","64b433e7e3913a60c34c9cb6","655cb802637e0dbe2941dbc4","655cb8d1ed52d4450fd13835","713","./stimuli//pack_shapes_diff/cat_2/diff_1/ex_2_1_11.png","arrowright","response","ArrowRight","11","2","1","train","true",""
"","","","","","html-keyboard-response","29","82899","0.0-5.0-4.4","64b433e7e3913a60c34c9cb6","655cb802637e0dbe2941dbc4","655cb8d1ed52d4450fd13835","null","<p> <font color=""green"" size=""5vw""> Correct category! </font> </p>","null","feedback","","","","","","","10"
"","","","","","html-keyboard-response","30","84353","0.0-5.0-0.5","64b433e7e3913a60c34c9cb6","655cb802637e0dbe2941dbc4","655cb8d1ed52d4450fd13835","1452","
            
        <div style=""text-align: center; position: fixed; top: 5vh; left: 40vw;"">
            <div style=""margin:0 auto; width: 20vw; top: 8vh; font-size: 2vw""> 
            <font color=""green""> Bonus : $10 </font>
            </div>
        </div>
    
            <div> Please press any key to continue to the next image.</div>
        ","o","ITI","","","","","","",""
"","","","","","html-keyboard-response","31","84962","0.0-5.0-1.5","64b433e7e3913a60c34c9cb6","655cb802637e0dbe2941dbc4","655cb8d1ed52d4450fd13835","null","
        
        <div style=""text-align: center; position: fixed; top: 5vh; left: 40vw;"">
            <div style=""margin:0 auto; width: 20vw; top: 8vh; font-size: 2vw""> 
            <font color=""green""> Bonus : $10 </font>
            </div>
        </div>
    
        <img class=""stim"" src=./stimuli//pack_shapes_diff/cat_1/diff_1/ex_1_1_13.png></img>
    ","null","stimulus","","","","","","",""
"","","","","","html-keyboard-response","32","85976","0.0-5.0-2.5","64b433e7e3913a60c34c9cb6","655cb802637e0dbe2941dbc4","655cb8d1ed52d4450fd13835","null","
        <div style=""text-align: center; position: fixed; top: 5vh; left: 40vw;"">
            <div style=""margin:0 auto; width: 20vw; top: 8vh; font-size: 2vw""> 
            <font color=""green""> Bonus : $10 </font>
            </div>
        </div>
    ","null","","","","","","","",""
"","","","","","html-keyboard-response","33","86466","0.0-5.0-3.5","64b433e7e3913a60c34c9cb6","655cb802637e0dbe2941dbc4","655cb8d1ed52d4450fd13835","488","./stimuli//pack_shapes_diff/cat_1/diff_1/ex_1_1_13.png","arrowright","response","ArrowLeft","13","1","1","train","false",""
"","","","","","html-keyboard-response","34","87981","0.0-5.0-4.5","64b433e7e3913a60c34c9cb6","655cb802637e0dbe2941dbc4","655cb8d1ed52d4450fd13835","null","<p> <font color=""red"" size=""5vw""> Wrong category! </font> </p>","null","feedback","","","","","","","10"
"","","","","","html-keyboard-response","35","92988","0.0-5.0-0.6","64b433e7e3913a60c34c9cb6","655cb802637e0dbe2941dbc4","655cb8d1ed52d4450fd13835","null","
            
        <div style=""text-align: center; position: fixed; top: 5vh; left: 40vw;"">
            <div style=""margin:0 auto; width: 20vw; top: 8vh; font-size: 2vw""> 
            <font color=""green""> Bonus : $10 </font>
            </div>
        </div>
    
            <div> Please press any key to continue to the next image.</div>
        ","null","ITI","","","","","","",""
"","","","","","html-keyboard-response","36","93595","0.0-5.0-1.6","64b433e7e3913a60c34c9cb6","655cb802637e0dbe2941dbc4","655cb8d1ed52d4450fd13835","null","
        
        <div style=""text-align: center; position: fixed; top: 5vh; left: 40vw;"">
            <div style=""margin:0 auto; width: 20vw; top: 8vh; font-size: 2vw""> 
            <font color=""green""> Bonus : $10 </font>
            </div>
        </div>
    
        <img class=""stim"" src=./stimuli//pack_shapes_diff/cat_1/diff_2/ex_1_2_17.png></img>
    ","null","stimulus","","","","","","",""
"","","","","","html-keyboard-response","37","94611","0.0-5.0-2.6","64b433e7e3913a60c34c9cb6","655cb802637e0dbe2941dbc4","655cb8d1ed52d4450fd13835","null","
        <div style=""text-align: center; position: fixed; top: 5vh; left: 40vw;"">
            <div style=""margin:0 auto; width: 20vw; top: 8vh; font-size: 2vw""> 
            <font color=""green""> Bonus : $10 </font>
            </div>
        </div>
    ","null","","","","","","","",""
"","","","","","html-keyboard-response","38","95041","0.0-5.0-3.6","64b433e7e3913a60c34c9cb6","655cb802637e0dbe2941dbc4","655cb8d1ed52d4450fd13835","428","./stimuli//pack_shapes_diff/cat_1/diff_2/ex_1_2_17.png","arrowright","response","ArrowLeft","17","1","2","train","false",""
"","","","","","html-keyboard-response","39","96544","0.0-5.0-4.6","64b433e7e3913a60c34c9cb6","655cb802637e0dbe2941dbc4","655cb8d1ed52d4450fd13835","null","<p> <font color=""red"" size=""5vw""> Wrong category! </font> </p>","null","feedback","","","","","","","10"
"","","","","","html-keyboard-response","40","98666","0.0-5.0-0.7","64b433e7e3913a60c34c9cb6","655cb802637e0dbe2941dbc4","655cb8d1ed52d4450fd13835","2120","
            
        <div style=""text-align: center; position: fixed; top: 5vh; left: 40vw;"">
            <div style=""margin:0 auto; width: 20vw; top: 8vh; font-size: 2vw""> 
            <font color=""green""> Bonus : $10 </font>
            </div>
        </div>
    
            <div> Please press any key to continue to the next image.</div>
        ","a","ITI","","","","","","",""
"","","","","","html-keyboard-response","41","99282","0.0-5.0-1.7","64b433e7e3913a60c34c9cb6","655cb802637e0dbe2941dbc4","655cb8d1ed52d4450fd13835","null","
        
        <div style=""text-align: center; position: fixed; top: 5vh; left: 40vw;"">
            <div style=""margin:0 auto; width: 20vw; top: 8vh; font-size: 2vw""> 
            <font color=""green""> Bonus : $10 </font>
            </div>
        </div>
    
        <img class=""stim"" src=./stimuli//pack_shapes_diff/cat_1/diff_1/ex_1_1_15.png></img>
    ","null","stimulus","","","","","","",""
"","","","","","html-keyboard-response","42","100288","0.0-5.0-2.7","64b433e7e3913a60c34c9cb6","655cb802637e0dbe2941dbc4","655cb8d1ed52d4450fd13835","null","
        <div style=""text-align: center; position: fixed; top: 5vh; left: 40vw;"">
            <div style=""margin:0 auto; width: 20vw; top: 8vh; font-size: 2vw""> 
            <font color=""green""> Bonus : $10 </font>
            </div>
        </div>
    ","null","","","","","","","",""
"","","","","","html-keyboard-response","43","100642","0.0-5.0-3.7","64b433e7e3913a60c34c9cb6","655cb802637e0dbe2941dbc4","655cb8d1ed52d4450fd13835","352","./stimuli//pack_shapes_diff/cat_1/diff_1/ex_1_1_15.png","arrowright","response","ArrowLeft","15","1","1","train","false",""
"","","","","","html-keyboard-response","44","102152","0.0-5.0-4.7","64b433e7e3913a60c34c9cb6","655cb802637e0dbe2941dbc4","655cb8d1ed52d4450fd13835","null","<p> <font color=""red"" size=""5vw""> Wrong category! </font> </p>","null","feedback","","","","","","","10"
"","","","","","html-keyboard-response","45","105176","0.0-5.0-0.8","64b433e7e3913a60c34c9cb6","655cb802637e0dbe2941dbc4","655cb8d1ed52d4450fd13835","3023","
            
        <div style=""text-align: center; position: fixed; top: 5vh; left: 40vw;"">
            <div style=""margin:0 auto; width: 20vw; top: 8vh; font-size: 2vw""> 
            <font color=""green""> Bonus : $10 </font>
            </div>
        </div>
    
            <div> Please press any key to continue to the next image.</div>
        ","s","ITI","","","","","","",""
"","","","","","html-keyboard-response","46","105783","0.0-5.0-1.8","64b433e7e3913a60c34c9cb6","655cb802637e0dbe2941dbc4","655cb8d1ed52d4450fd13835","null","
        
        <div style=""text-align: center; position: fixed; top: 5vh; left: 40vw;"">
            <div style=""margin:0 auto; width: 20vw; top: 8vh; font-size: 2vw""> 
            <font color=""green""> Bonus : $10 </font>
            </div>
        </div>
    
        <img class=""stim"" src=./stimuli//pack_shapes_diff/cat_2/diff_2/ex_2_2_17.png></img>
    ","null","stimulus","","","","","","",""
"","","","","","html-keyboard-response","47","106796","0.0-5.0-2.8","64b433e7e3913a60c34c9cb6","655cb802637e0dbe2941dbc4","655cb8d1ed52d4450fd13835","null","
        <div style=""text-align: center; position: fixed; top: 5vh; left: 40vw;"">
            <div style=""margin:0 auto; width: 20vw; top: 8vh; font-size: 2vw""> 
            <font color=""green""> Bonus : $10 </font>
            </div>
        </div>
    ","null","","","","","","","",""
"","","","","","html-keyboard-response","48","107138","0.0-5.0-3.8","64b433e7e3913a60c34c9cb6","655cb802637e0dbe2941dbc4","655cb8d1ed52d4450fd13835","339","./stimuli//pack_shapes_diff/cat_2/diff_2/ex_2_2_17.png","arrowright","response","ArrowRight","17","2","2","train","true",""
"","","","","","html-keyboard-response","49","108655","0.0-5.0-4.8","64b433e7e3913a60c34c9cb6","655cb802637e0dbe2941dbc4","655cb8d1ed52d4450fd13835","null","<p> <font color=""green"" size=""5vw""> Correct category! </font> </p>","null","feedback","","","","","","","10"
"","","","","","html-keyboard-response","50","109451","0.0-5.0-0.9","64b433e7e3913a60c34c9cb6","655cb802637e0dbe2941dbc4","655cb8d1ed52d4450fd13835","794","
            
        <div style=""text-align: center; position: fixed; top: 5vh; left: 40vw;"">
            <div style=""margin:0 auto; width: 20vw; top: 8vh; font-size: 2vw""> 
            <font color=""green""> Bonus : $10 </font>
            </div>
        </div>
    
            <div> Please press any key to continue to the next image.</div>
        ","s","ITI","","","","","","",""
"","","","","","html-keyboard-response","51","110055","0.0-5.0-1.9","64b433e7e3913a60c34c9cb6","655cb802637e0dbe2941dbc4","655cb8d1ed52d4450fd13835","null","
        
        <div style=""text-align: center; position: fixed; top: 5vh; left: 40vw;"">
            <div style=""margin:0 auto; width: 20vw; top: 8vh; font-size: 2vw""> 
            <font color=""green""> Bonus : $10 </font>
            </div>
        </div>
    
        <img class=""stim"" src=./stimuli//pack_shapes_diff/cat_1/diff_1/ex_1_1_17.png></img>
    ","null","stimulus","","","","","","",""
"","","","","","html-keyboard-response","52","111057","0.0-5.0-2.9","64b433e7e3913a60c34c9cb6","655cb802637e0dbe2941dbc4","655cb8d1ed52d4450fd13835","null","
        <div style=""text-align: center; position: fixed; top: 5vh; left: 40vw;"">
            <div style=""margin:0 auto; width: 20vw; top: 8vh; font-size: 2vw""> 
            <font color=""green""> Bonus : $10 </font>
            </div>
        </div>
    ","null","","","","","","","",""
"","","","","","html-keyboard-response","53","111393","0.0-5.0-3.9","64b433e7e3913a60c34c9cb6","655cb802637e0dbe2941dbc4","655cb8d1ed52d4450fd13835","334","./stimuli//pack_shapes_diff/cat_1/diff_1/ex_1_1_17.png","arrowright","response","ArrowLeft","17","1","1","train","false",""
"","","","","","html-keyboard-response","54","112901","0.0-5.0-4.9","64b433e7e3913a60c34c9cb6","655cb802637e0dbe2941dbc4","655cb8d1ed52d4450fd13835","null","<p> <font color=""red"" size=""5vw""> Wrong category! </font> </p>","null","feedback","","","","","","","10"
"","","","","","html-keyboard-response","55","138835","0.0-6.0","64b433e7e3913a60c34c9cb6","655cb802637e0dbe2941dbc4","655cb8d1ed52d4450fd13835","25932","
            <b> <p> The practice round has finished.</p>
            <b> For the rest of the experiment if you guess incorrectly $0.05 will be subtracted from your bonus!</b>
            <p> Press any key to begin the test. </p>
            ","s","intermission","","","","","","",""
"","","","","","html-keyboard-response","56","139844","0.0-7.0-0.0","64b433e7e3913a60c34c9cb6","655cb802637e0dbe2941dbc4","655cb8d1ed52d4450fd13835","1008","
            
        <div style=""text-align: center; position: fixed; top: 5vh; left: 40vw;"">
            <div style=""margin:0 auto; width: 20vw; top: 8vh; font-size: 2vw""> 
            <font color=""green""> Bonus : $10 </font>
            </div>
        </div>
    
            <div> Please press any key to continue to the next image.</div>
        ","a","ITI","","","","","","",""
"","","","","","html-keyboard-response","57","140457","0.0-7.0-1.0","64b433e7e3913a60c34c9cb6","655cb802637e0dbe2941dbc4","655cb8d1ed52d4450fd13835","null","
        
        <div style=""text-align: center; position: fixed; top: 5vh; left: 40vw;"">
            <div style=""margin:0 auto; width: 20vw; top: 8vh; font-size: 2vw""> 
            <font color=""green""> Bonus : $10 </font>
            </div>
        </div>
    
        <img class=""stim"" src=./stimuli//pack_shapes_diff/cat_1/diff_1/ex_1_1_4.png></img>
    ","null","stimulus","","","","","","",""
"","","","","","html-keyboard-response","58","141472","0.0-7.0-2.0","64b433e7e3913a60c34c9cb6","655cb802637e0dbe2941dbc4","655cb8d1ed52d4450fd13835","null","
        <div style=""text-align: center; position: fixed; top: 5vh; left: 40vw;"">
            <div style=""margin:0 auto; width: 20vw; top: 8vh; font-size: 2vw""> 
            <font color=""green""> Bonus : $10 </font>
            </div>
        </div>
    ","null","","","","","","","",""
"","","","","","html-keyboard-response","59","141827","0.0-7.0-3.0","64b433e7e3913a60c34c9cb6","655cb802637e0dbe2941dbc4","655cb8d1ed52d4450fd13835","353","./stimuli//pack_shapes_diff/cat_1/diff_1/ex_1_1_4.png","arrowright","response","ArrowLeft","4","1","1","test","false",""
"","","","","","html-keyboard-response","60","143330","0.0-7.0-4.0","64b433e7e3913a60c34c9cb6","655cb802637e0dbe2941dbc4","655cb8d1ed52d4450fd13835","null","<p> <font size=""4vw""> Wrong category! </font> <br> <br> <font color=""red"" size=""7vw""> - $0.05 points </font> </p>","null","feedback","","","","","","","9.95"
"","","","","","html-keyboard-response","61","144228","0.0-7.1-0.1","64b433e7e3913a60c34c9cb6","655cb802637e0dbe2941dbc4","655cb8d1ed52d4450fd13835","896","
            
        <div style=""text-align: center; position: fixed; top: 5vh; left: 40vw;"">
            <div style=""margin:0 auto; width: 20vw; top: 8vh; font-size: 2vw""> 
            <font color=""green""> Bonus : $9.95 </font>
            </div>
        </div>
    
            <div> Please press any key to continue to the next image.</div>
        ","s","ITI","","","","","","",""
"","","","","","html-keyboard-response","62","144834","0.0-7.1-1.1","64b433e7e3913a60c34c9cb6","655cb802637e0dbe2941dbc4","655cb8d1ed52d4450fd13835","null","
        
        <div style=""text-align: center; position: fixed; top: 5vh; left: 40vw;"">
            <div style=""margin:0 auto; width: 20vw; top: 8vh; font-size: 2vw""> 
            <font color=""green""> Bonus : $9.95 </font>
            </div>
        </div>
    
        <img class=""stim"" src=./stimuli//pack_shapes_diff/cat_1/diff_1/ex_1_1_14.png></img>
    ","null","stimulus","","","","","","",""
"","","","","","html-keyboard-response","63","145848","0.0-7.1-2.1","64b433e7e3913a60c34c9cb6","655cb802637e0dbe2941dbc4","655cb8d1ed52d4450fd13835","null","
        <div style=""text-align: center; position: fixed; top: 5vh; left: 40vw;"">
            <div style=""margin:0 auto; width: 20vw; top: 8vh; font-size: 2vw""> 
            <font color=""green""> Bonus : $9.95 </font>
            </div>
        </div>
    ","null","","","","","","","",""
"","","","","","html-keyboard-response","64","146292","0.0-7.1-3.1","64b433e7e3913a60c34c9cb6","655cb802637e0dbe2941dbc4","655cb8d1ed52d4450fd13835","443","./stimuli//pack_shapes_diff/cat_1/diff_1/ex_1_1_14.png","arrowleft","response","ArrowLeft","14","1","1","test","true",""
"","","","","","html-keyboard-response","65","147799","0.0-7.1-4.1","64b433e7e3913a60c34c9cb6","655cb802637e0dbe2941dbc4","655cb8d1ed52d4450fd13835","null","<p> <font color=""green"" size=""5vw""> Correct category! </font></p>","null","feedback","","","","","","","9.95"
"","","","","","html-keyboard-response","66","148658","0.0-7.2-0.2","64b433e7e3913a60c34c9cb6","655cb802637e0dbe2941dbc4","655cb8d1ed52d4450fd13835","858","
            
        <div style=""text-align: center; position: fixed; top: 5vh; left: 40vw;"">
            <div style=""margin:0 auto; width: 20vw; top: 8vh; font-size: 2vw""> 
            <font color=""green""> Bonus : $9.95 </font>
            </div>
        </div>
    
            <div> Please press any key to continue to the next image.</div>
        ","s","ITI","","","","","","",""
"","","","","","html-keyboard-response","67","149273","0.0-7.2-1.2","64b433e7e3913a60c34c9cb6","655cb802637e0dbe2941dbc4","655cb8d1ed52d4450fd13835","null","
        
        <div style=""text-align: center; position: fixed; top: 5vh; left: 40vw;"">
            <div style=""margin:0 auto; width: 20vw; top: 8vh; font-size: 2vw""> 
            <font color=""green""> Bonus : $9.95 </font>
            </div>
        </div>
    
        <img class=""stim"" src=./stimuli//pack_shapes_diff/cat_2/diff_1/ex_2_1_8.png></img>
    ","null","stimulus","","","","","","",""
"","","","","","html-keyboard-response","68","150291","0.0-7.2-2.2","64b433e7e3913a60c34c9cb6","655cb802637e0dbe2941dbc4","655cb8d1ed52d4450fd13835","null","
        <div style=""text-align: center; position: fixed; top: 5vh; left: 40vw;"">
            <div style=""margin:0 auto; width: 20vw; top: 8vh; font-size: 2vw""> 
            <font color=""green""> Bonus : $9.95 </font>
            </div>
        </div>
    ","null","","","","","","","",""
"","","","","","html-keyboard-response","69","150403","0.0-7.2-3.2","64b433e7e3913a60c34c9cb6","655cb802637e0dbe2941dbc4","655cb8d1ed52d4450fd13835","111","./stimuli//pack_shapes_diff/cat_2/diff_1/ex_2_1_8.png","arrowleft","response","ArrowRight","8","2","1","test","false",""
"","","","","","html-keyboard-response","70","151916","0.0-7.2-4.2","64b433e7e3913a60c34c9cb6","655cb802637e0dbe2941dbc4","655cb8d1ed52d4450fd13835","null","<p> <font size=""4vw""> Wrong category! </font> <br> <br> <font color=""red"" size=""7vw""> - $0.05 points </font> </p>","null","feedback","","","","","","","9.9"
"","","","","","html-keyboard-response","71","152348","0.0-7.3-0.3","64b433e7e3913a60c34c9cb6","655cb802637e0dbe2941dbc4","655cb8d1ed52d4450fd13835","430","
            
        <div style=""text-align: center; position: fixed; top: 5vh; left: 40vw;"">
            <div style=""margin:0 auto; width: 20vw; top: 8vh; font-size: 2vw""> 
            <font color=""green""> Bonus : $9.9 </font>
            </div>
        </div>
    
            <div> Please press any key to continue to the next image.</div>
        ","s","ITI","","","","","","",""
"","","","","","html-keyboard-response","72","152960","0.0-7.3-1.3","64b433e7e3913a60c34c9cb6","655cb802637e0dbe2941dbc4","655cb8d1ed52d4450fd13835","null","
        
        <div style=""text-align: center; position: fixed; top: 5vh; left: 40vw;"">
            <div style=""margin:0 auto; width: 20vw; top: 8vh; font-size: 2vw""> 
            <font color=""green""> Bonus : $9.9 </font>
            </div>
        </div>
    
        <img class=""stim"" src=./stimuli//pack_shapes_diff/cat_1/diff_1/ex_1_1_11.png></img>
    ","null","stimulus","","","","","","",""
"","","","","","html-keyboard-response","73","153962","0.0-7.3-2.3","64b433e7e3913a60c34c9cb6","655cb802637e0dbe2941dbc4","655cb8d1ed52d4450fd13835","null","
        <div style=""text-align: center; position: fixed; top: 5vh; left: 40vw;"">
            <div style=""margin:0 auto; width: 20vw; top: 8vh; font-size: 2vw""> 
            <font color=""green""> Bonus : $9.9 </font>
            </div>
        </div>
    ","null","","","","","","","",""
"","","","","","html-keyboard-response","74","154394","0.0-7.3-3.3","64b433e7e3913a60c34c9cb6","655cb802637e0dbe2941dbc4","655cb8d1ed52d4450fd13835","430","./stimuli//pack_shapes_diff/cat_1/diff_1/ex_1_1_11.png","arrowright","response","ArrowLeft","11","1","1","test","false",""
"","","","","","html-keyboard-response","75","155900","0.0-7.3-4.3","64b433e7e3913a60c34c9cb6","655cb802637e0dbe2941dbc4","655cb8d1ed52d4450fd13835","null","<p> <font size=""4vw""> Wrong category! </font> <br> <br> <font color=""red"" size=""7vw""> - $0.05 points </font> </p>","null","feedback","","","","","","","9.85"
"","","","","","html-keyboard-response","76","156754","0.0-7.4-0.4","64b433e7e3913a60c34c9cb6","655cb802637e0dbe2941dbc4","655cb8d1ed52d4450fd13835","853","
            
        <div style=""text-align: center; position: fixed; top: 5vh; left: 40vw;"">
            <div style=""margin:0 auto; width: 20vw; top: 8vh; font-size: 2vw""> 
            <font color=""green""> Bonus : $9.85 </font>
            </div>
        </div>
    
            <div> Please press any key to continue to the next image.</div>
        ","s","ITI","","","","","","",""
"","","","","","html-keyboard-response","77","157358","0.0-7.4-1.4","64b433e7e3913a60c34c9cb6","655cb802637e0dbe2941dbc4","655cb8d1ed52d4450fd13835","null","
        
        <div style=""text-align: center; position: fixed; top: 5vh; left: 40vw;"">
            <div style=""margin:0 auto; width: 20vw; top: 8vh; font-size: 2vw""> 
            <font color=""green""> Bonus : $9.85 </font>
            </div>
        </div>
    
        <img class=""stim"" src=./stimuli//pack_shapes_diff/cat_2/diff_1/ex_2_1_1.png></img>
    ","null","stimulus","","","","","","",""
"","","","","","html-keyboard-response","78","158374","0.0-7.4-2.4","64b433e7e3913a60c34c9cb6","655cb802637e0dbe2941dbc4","655cb8d1ed52d4450fd13835","null","
        <div style=""text-align: center; position: fixed; top: 5vh; left: 40vw;"">
            <div style=""margin:0 auto; width: 20vw; top: 8vh; font-size: 2vw""> 
            <font color=""green""> Bonus : $9.85 </font>
            </div>
        </div>
    ","null","","","","","","","",""
"","","","","","html-keyboard-response","79","158723","0.0-7.4-3.4","64b433e7e3913a60c34c9cb6","655cb802637e0dbe2941dbc4","655cb8d1ed52d4450fd13835","347","./stimuli//pack_shapes_diff/cat_2/diff_1/ex_2_1_1.png","arrowright","response","ArrowRight","1","2","1","test","true",""
"","","","","","html-keyboard-response","80","160235","0.0-7.4-4.4","64b433e7e3913a60c34c9cb6","655cb802637e0dbe2941dbc4","655cb8d1ed52d4450fd13835","null","<p> <font color=""green"" size=""5vw""> Correct category! </font></p>","null","feedback","","","","","","","9.85"
"","","","","","html-keyboard-response","81","161453","0.0-7.5-0.5","64b433e7e3913a60c34c9cb6","655cb802637e0dbe2941dbc4","655cb8d1ed52d4450fd13835","1215","
            
        <div style=""text-align: center; position: fixed; top: 5vh; left: 40vw;"">
            <div style=""margin:0 auto; width: 20vw; top: 8vh; font-size: 2vw""> 
            <font color=""green""> Bonus : $9.85 </font>
            </div>
        </div>
    
            <div> Please press any key to continue to the next image.</div>
        ","s","ITI","","","","","","",""
"","","","","","html-keyboard-response","82","162077","0.0-7.5-1.5","64b433e7e3913a60c34c9cb6","655cb802637e0dbe2941dbc4","655cb8d1ed52d4450fd13835","null","
        
        <div style=""text-align: center; position: fixed; top: 5vh; left: 40vw;"">
            <div style=""margin:0 auto; width: 20vw; top: 8vh; font-size: 2vw""> 
            <font color=""green""> Bonus : $9.85 </font>
            </div>
        </div>
    
        <img class=""stim"" src=./stimuli//pack_shapes_diff/cat_1/diff_1/ex_1_1_5.png></img>
    ","null","stimulus","","","","","","",""
"","","","","","html-keyboard-response","83","163095","0.0-7.5-2.5","64b433e7e3913a60c34c9cb6","655cb802637e0dbe2941dbc4","655cb8d1ed52d4450fd13835","null","
        <div style=""text-align: center; position: fixed; top: 5vh; left: 40vw;"">
            <div style=""margin:0 auto; width: 20vw; top: 8vh; font-size: 2vw""> 
            <font color=""green""> Bonus : $9.85 </font>
            </div>
        </div>
    ","null","","","","","","","",""
"","","","","","html-keyboard-response","84","163540","0.0-7.5-3.5","64b433e7e3913a60c34c9cb6","655cb802637e0dbe2941dbc4","655cb8d1ed52d4450fd13835","442","./stimuli//pack_shapes_diff/cat_1/diff_1/ex_1_1_5.png","arrowleft","response","ArrowLeft","5","1","1","test","true",""
"","","","","","html-keyboard-response","85","165045","0.0-7.5-4.5","64b433e7e3913a60c34c9cb6","655cb802637e0dbe2941dbc4","655cb8d1ed52d4450fd13835","null","<p> <font color=""green"" size=""5vw""> Correct category! </font></p>","null","feedback","","","","","","","9.85"
"","","","","","html-keyboard-response","86","165972","0.0-7.6-0.6","64b433e7e3913a60c34c9cb6","655cb802637e0dbe2941dbc4","655cb8d1ed52d4450fd13835","925","
            
        <div style=""text-align: center; position: fixed; top: 5vh; left: 40vw;"">
            <div style=""margin:0 auto; width: 20vw; top: 8vh; font-size: 2vw""> 
            <font color=""green""> Bonus : $9.85 </font>
            </div>
        </div>
    
            <div> Please press any key to continue to the next image.</div>
        ","s","ITI","","","","","","",""
"","","","","","html-keyboard-response","87","166588","0.0-7.6-1.6","64b433e7e3913a60c34c9cb6","655cb802637e0dbe2941dbc4","655cb8d1ed52d4450fd13835","null","
        
        <div style=""text-align: center; position: fixed; top: 5vh; left: 40vw;"">
            <div style=""margin:0 auto; width: 20vw; top: 8vh; font-size: 2vw""> 
            <font color=""green""> Bonus : $9.85 </font>
            </div>
        </div>
    
        <img class=""stim"" src=./stimuli//pack_shapes_diff/cat_2/diff_1/ex_2_1_12.png></img>
    ","null","stimulus","","","","","","",""
"","","","","","html-keyboard-response","88","167605","0.0-7.6-2.6","64b433e7e3913a60c34c9cb6","655cb802637e0dbe2941dbc4","655cb8d1ed52d4450fd13835","null","
        <div style=""text-align: center; position: fixed; top: 5vh; left: 40vw;"">
            <div style=""margin:0 auto; width: 20vw; top: 8vh; font-size: 2vw""> 
            <font color=""green""> Bonus : $9.85 </font>
            </div>
        </div>
    ","null","","","","","","","",""
"","","","","","html-keyboard-response","89","168028","0.0-7.6-3.6","64b433e7e3913a60c34c9cb6","655cb802637e0dbe2941dbc4","655cb8d1ed52d4450fd13835","421","./stimuli//pack_shapes_diff/cat_2/diff_1/ex_2_1_12.png","arrowright","response","ArrowRight","12","2","1","test","true",""
"","","","","","html-keyboard-response","90","169531","0.0-7.6-4.6","64b433e7e3913a60c34c9cb6","655cb802637e0dbe2941dbc4","655cb8d1ed52d4450fd13835","null","<p> <font color=""green"" size=""5vw""> Correct category! </font></p>","null","feedback","","","","","","","9.85"
"","","","","","html-keyboard-response","91","170170","0.0-7.7-0.7","64b433e7e3913a60c34c9cb6","655cb802637e0dbe2941dbc4","655cb8d1ed52d4450fd13835","638","
            
        <div style=""text-align: center; position: fixed; top: 5vh; left: 40vw;"">
            <div style=""margin:0 auto; width: 20vw; top: 8vh; font-size: 2vw""> 
            <font color=""green""> Bonus : $9.85 </font>
            </div>
        </div>
    
            <div> Please press any key to continue to the next image.</div>
        ","s","ITI","","","","","","",""
"","","","","","html-keyboard-response","92","170783","0.0-7.7-1.7","64b433e7e3913a60c34c9cb6","655cb802637e0dbe2941dbc4","655cb8d1ed52d4450fd13835","null","
        
        <div style=""text-align: center; position: fixed; top: 5vh; left: 40vw;"">
            <div style=""margin:0 auto; width: 20vw; top: 8vh; font-size: 2vw""> 
            <font color=""green""> Bonus : $9.85 </font>
            </div>
        </div>
    
        <img class=""stim"" src=./stimuli//pack_shapes_diff/cat_2/diff_1/ex_2_1_9.png></img>
    ","null","stimulus","","","","","","",""
"","","","","","html-keyboard-response","93","171792","0.0-7.7-2.7","64b433e7e3913a60c34c9cb6","655cb802637e0dbe2941dbc4","655cb8d1ed52d4450fd13835","null","
        <div style=""text-align: center; position: fixed; top: 5vh; left: 40vw;"">
            <div style=""margin:0 auto; width: 20vw; top: 8vh; font-size: 2vw""> 
            <font color=""green""> Bonus : $9.85 </font>
            </div>
        </div>
    ","null","","","","","","","",""
"","","","","","html-keyboard-response","94","172131","0.0-7.7-3.7","64b433e7e3913a60c34c9cb6","655cb802637e0dbe2941dbc4","655cb8d1ed52d4450fd13835","339","./stimuli//pack_shapes_diff/cat_2/diff_1/ex_2_1_9.png","arrowright","response","ArrowRight","9","2","1","test","true",""
"","","","","","html-keyboard-response","95","173642","0.0-7.7-4.7","64b433e7e3913a60c34c9cb6","655cb802637e0dbe2941dbc4","655cb8d1ed52d4450fd13835","null","<p> <font color=""green"" size=""5vw""> Correct category! </font></p>","null","feedback","","","","","","","9.85"
"","","","","","html-keyboard-response","96","174828","0.0-7.8-0.8","64b433e7e3913a60c34c9cb6","655cb802637e0dbe2941dbc4","655cb8d1ed52d4450fd13835","1184","
            
        <div style=""text-align: center; position: fixed; top: 5vh; left: 40vw;"">
            <div style=""margin:0 auto; width: 20vw; top: 8vh; font-size: 2vw""> 
            <font color=""green""> Bonus : $9.85 </font>
            </div>
        </div>
    
            <div> Please press any key to continue to the next image.</div>
        ","s","ITI","","","","","","",""
"","","","","","html-keyboard-response","97","175445","0.0-7.8-1.8","64b433e7e3913a60c34c9cb6","655cb802637e0dbe2941dbc4","655cb8d1ed52d4450fd13835","null","
        
        <div style=""text-align: center; position: fixed; top: 5vh; left: 40vw;"">
            <div style=""margin:0 auto; width: 20vw; top: 8vh; font-size: 2vw""> 
            <font color=""green""> Bonus : $9.85 </font>
            </div>
        </div>
    
        <img class=""stim"" src=./stimuli//pack_shapes_diff/cat_1/diff_2/ex_1_2_1.png></img>
    ","null","stimulus","","","","","","",""
"","","","","","html-keyboard-response","98","176461","0.0-7.8-2.8","64b433e7e3913a60c34c9cb6","655cb802637e0dbe2941dbc4","655cb8d1ed52d4450fd13835","null","
        <div style=""text-align: center; position: fixed; top: 5vh; left: 40vw;"">
            <div style=""margin:0 auto; width: 20vw; top: 8vh; font-size: 2vw""> 
            <font color=""green""> Bonus : $9.85 </font>
            </div>
        </div>
    ","null","","","","","","","",""
"","","","","","html-keyboard-response","99","176603","0.0-7.8-3.8","64b433e7e3913a60c34c9cb6","655cb802637e0dbe2941dbc4","655cb8d1ed52d4450fd13835","141","./stimuli//pack_shapes_diff/cat_1/diff_2/ex_1_2_1.png","arrowright","response","ArrowLeft","1","1","2","test","false",""
"","","","","","html-keyboard-response","100","178107","0.0-7.8-4.8","64b433e7e3913a60c34c9cb6","655cb802637e0dbe2941dbc4","655cb8d1ed52d4450fd13835","null","<p> <font size=""4vw""> Wrong category! </font> <br> <br> <font color=""red"" size=""7vw""> - $0.05 points </font> </p>","null","feedback","","","","","","","9.8"
"","","","","","html-keyboard-response","101","179364","0.0-7.9-0.9","64b433e7e3913a60c34c9cb6","655cb802637e0dbe2941dbc4","655cb8d1ed52d4450fd13835","1256","
            
        <div style=""text-align: center; position: fixed; top: 5vh; left: 40vw;"">
            <div style=""margin:0 auto; width: 20vw; top: 8vh; font-size: 2vw""> 
            <font color=""green""> Bonus : $9.8 </font>
            </div>
        </div>
    
            <div> Please press any key to continue to the next image.</div>
        ","s","ITI","","","","","","",""
"","","","","","html-keyboard-response","102","179982","0.0-7.9-1.9","64b433e7e3913a60c34c9cb6","655cb802637e0dbe2941dbc4","655cb8d1ed52d4450fd13835","null","
        
        <div style=""text-align: center; position: fixed; top: 5vh; left: 40vw;"">
            <div style=""margin:0 auto; width: 20vw; top: 8vh; font-size: 2vw""> 
            <font color=""green""> Bonus : $9.8 </font>
            </div>
        </div>
    
        <img class=""stim"" src=./stimuli//pack_shapes_diff/cat_1/diff_2/ex_1_2_4.png></img>
    ","null","stimulus","","","","","","",""
"","","","","","html-keyboard-response","103","180985","0.0-7.9-2.9","64b433e7e3913a60c34c9cb6","655cb802637e0dbe2941dbc4","655cb8d1ed52d4450fd13835","null","
        <div style=""text-align: center; position: fixed; top: 5vh; left: 40vw;"">
            <div style=""margin:0 auto; width: 20vw; top: 8vh; font-size: 2vw""> 
            <font color=""green""> Bonus : $9.8 </font>
            </div>
        </div>
    ","null","","","","","","","",""
"","","","","","html-keyboard-response","104","181506","0.0-7.9-3.9","64b433e7e3913a60c34c9cb6","655cb802637e0dbe2941dbc4","655cb8d1ed52d4450fd13835","520","./stimuli//pack_shapes_diff/cat_1/diff_2/ex_1_2_4.png","arrowright","response","ArrowLeft","4","1","2","test","false",""
"","","","","","html-keyboard-response","105","183012","0.0-7.9-4.9","64b433e7e3913a60c34c9cb6","655cb802637e0dbe2941dbc4","655cb8d1ed52d4450fd13835","null","<p> <font size=""4vw""> Wrong category! </font> <br> <br> <font color=""red"" size=""7vw""> - $0.05 points </font> </p>","null","feedback","","","","","","","9.75"
"","","","","","html-keyboard-response","106","183787","0.0-7.10-0.10","64b433e7e3913a60c34c9cb6","655cb802637e0dbe2941dbc4","655cb8d1ed52d4450fd13835","774","
            
        <div style=""text-align: center; position: fixed; top: 5vh; left: 40vw;"">
            <div style=""margin:0 auto; width: 20vw; top: 8vh; font-size: 2vw""> 
            <font color=""green""> Bonus : $9.75 </font>
            </div>
        </div>
    
            <div> Please press any key to continue to the next image.</div>
        ","s","ITI","","","","","","",""
"","","","","","html-keyboard-response","107","184403","0.0-7.10-1.10","64b433e7e3913a60c34c9cb6","655cb802637e0dbe2941dbc4","655cb8d1ed52d4450fd13835","null","
        
        <div style=""text-align: center; position: fixed; top: 5vh; left: 40vw;"">
            <div style=""margin:0 auto; width: 20vw; top: 8vh; font-size: 2vw""> 
            <font color=""green""> Bonus : $9.75 </font>
            </div>
        </div>
    
        <img class=""stim"" src=./stimuli//pack_shapes_diff/cat_1/diff_2/ex_1_2_9.png></img>
    ","null","stimulus","","","","","","",""
"","","","","","html-keyboard-response","108","185416","0.0-7.10-2.10","64b433e7e3913a60c34c9cb6","655cb802637e0dbe2941dbc4","655cb8d1ed52d4450fd13835","null","
        <div style=""text-align: center; position: fixed; top: 5vh; left: 40vw;"">
            <div style=""margin:0 auto; width: 20vw; top: 8vh; font-size: 2vw""> 
            <font color=""green""> Bonus : $9.75 </font>
            </div>
        </div>
    ","null","","","","","","","",""
"","","","","","html-keyboard-response","109","185964","0.0-7.10-3.10","64b433e7e3913a60c34c9cb6","655cb802637e0dbe2941dbc4","655cb8d1ed52d4450fd13835","546","./stimuli//pack_shapes_diff/cat_1/diff_2/ex_1_2_9.png","arrowleft","response","ArrowLeft","9","1","2","test","true",""
"","","","","","html-keyboard-response","110","187475","0.0-7.10-4.10","64b433e7e3913a60c34c9cb6","655cb802637e0dbe2941dbc4","655cb8d1ed52d4450fd13835","null","<p> <font color=""green"" size=""5vw""> Correct category! </font></p>","null","feedback","","","","","","","9.75"
"","","","","","html-keyboard-response","111","188258","0.0-7.11-0.11","64b433e7e3913a60c34c9cb6","655cb802637e0dbe2941dbc4","655cb8d1ed52d4450fd13835","782","
            
        <div style=""text-align: center; position: fixed; top: 5vh; left: 40vw;"">
            <div style=""margin:0 auto; width: 20vw; top: 8vh; font-size: 2vw""> 
            <font color=""green""> Bonus : $9.75 </font>
            </div>
        </div>
    
            <div> Please press any key to continue to the next image.</div>
        ","s","ITI","","","","","","",""
"","","","","","html-keyboard-response","112","188867","0.0-7.11-1.11","64b433e7e3913a60c34c9cb6","655cb802637e0dbe2941dbc4","655cb8d1ed52d4450fd13835","null","
        
        <div style=""text-align: center; position: fixed; top: 5vh; left: 40vw;"">
            <div style=""margin:0 auto; width: 20vw; top: 8vh; font-size: 2vw""> 
            <font color=""green""> Bonus : $9.75 </font>
            </div>
        </div>
    
        <img class=""stim"" src=./stimuli//pack_shapes_diff/cat_2/diff_2/ex_2_2_10.png></img>
    ","null","stimulus","","","","","","",""
"","","","","","html-keyboard-response","113","189884","0.0-7.11-2.11","64b433e7e3913a60c34c9cb6","655cb802637e0dbe2941dbc4","655cb8d1ed52d4450fd13835","null","
        <div style=""text-align: center; position: fixed; top: 5vh; left: 40vw;"">
            <div style=""margin:0 auto; width: 20vw; top: 8vh; font-size: 2vw""> 
            <font color=""green""> Bonus : $9.75 </font>
            </div>
        </div>
    ","null","","","","","","","",""
"","","","","","html-keyboard-response","114","189930","0.0-7.11-3.11","64b433e7e3913a60c34c9cb6","655cb802637e0dbe2941dbc4","655cb8d1ed52d4450fd13835","46","./stimuli//pack_shapes_diff/cat_2/diff_2/ex_2_2_10.png","arrowleft","response","ArrowRight","10","2","2","test","false",""
"","","","","","html-keyboard-response","115","190948","0.0-7.11-4.11","64b433e7e3913a60c34c9cb6","655cb802637e0dbe2941dbc4","655cb8d1ed52d4450fd13835","1017","<p> <font size=""4vw""> Wrong category! </font> <br> <br> <font color=""red"" size=""7vw""> - $0.05 points </font> </p>","s","feedback","","","","","","","9.7"
"","","","","","html-keyboard-response","116","192044","0.0-7.12-0.12","64b433e7e3913a60c34c9cb6","655cb802637e0dbe2941dbc4","655cb8d1ed52d4450fd13835","1094","
            
        <div style=""text-align: center; position: fixed; top: 5vh; left: 40vw;"">
            <div style=""margin:0 auto; width: 20vw; top: 8vh; font-size: 2vw""> 
            <font color=""green""> Bonus : $9.7 </font>
            </div>
        </div>
    
            <div> Please press any key to continue to the next image.</div>
        ","arrowleft","ITI","","","","","","",""
"","","","","","html-keyboard-response","117","192656","0.0-7.12-1.12","64b433e7e3913a60c34c9cb6","655cb802637e0dbe2941dbc4","655cb8d1ed52d4450fd13835","null","
        
        <div style=""text-align: center; position: fixed; top: 5vh; left: 40vw;"">
            <div style=""margin:0 auto; width: 20vw; top: 8vh; font-size: 2vw""> 
            <font color=""green""> Bonus : $9.7 </font>
            </div>
        </div>
    
        <img class=""stim"" src=./stimuli//pack_shapes_diff/cat_1/diff_2/ex_1_2_15.png></img>
    ","null","stimulus","","","","","","",""
"","","","","","html-keyboard-response","118","193674","0.0-7.12-2.12","64b433e7e3913a60c34c9cb6","655cb802637e0dbe2941dbc4","655cb8d1ed52d4450fd13835","null","
        <div style=""text-align: center; position: fixed; top: 5vh; left: 40vw;"">
            <div style=""margin:0 auto; width: 20vw; top: 8vh; font-size: 2vw""> 
            <font color=""green""> Bonus : $9.7 </font>
            </div>
        </div>
    ","null","","","","","","","",""
"","","","","","html-keyboard-response","119","194181","0.0-7.12-3.12","64b433e7e3913a60c34c9cb6","655cb802637e0dbe2941dbc4","655cb8d1ed52d4450fd13835","506","./stimuli//pack_shapes_diff/cat_1/diff_2/ex_1_2_15.png","arrowleft","response","ArrowLeft","15","1","2","test","true",""
"","","","","","html-keyboard-response","120","195696","0.0-7.12-4.12","64b433e7e3913a60c34c9cb6","655cb802637e0dbe2941dbc4","655cb8d1ed52d4450fd13835","null","<p> <font color=""green"" size=""5vw""> Correct category! </font></p>","null","feedback","","","","","","","9.7"
"","","","","","html-keyboard-response","121","196236","0.0-7.13-0.13","64b433e7e3913a60c34c9cb6","655cb802637e0dbe2941dbc4","655cb8d1ed52d4450fd13835","538","
            
        <div style=""text-align: center; position: fixed; top: 5vh; left: 40vw;"">
            <div style=""margin:0 auto; width: 20vw; top: 8vh; font-size: 2vw""> 
            <font color=""green""> Bonus : $9.7 </font>
            </div>
        </div>
    
            <div> Please press any key to continue to the next image.</div>
        ","s","ITI","","","","","","",""
"","","","","","html-keyboard-response","122","196854","0.0-7.13-1.13","64b433e7e3913a60c34c9cb6","655cb802637e0dbe2941dbc4","655cb8d1ed52d4450fd13835","null","
        
        <div style=""text-align: center; position: fixed; top: 5vh; left: 40vw;"">
            <div style=""margin:0 auto; width: 20vw; top: 8vh; font-size: 2vw""> 
            <font color=""green""> Bonus : $9.7 </font>
            </div>
        </div>
    
        <img class=""stim"" src=./stimuli//pack_shapes_diff/cat_2/diff_1/ex_2_1_13.png></img>
    ","null","stimulus","","","","","","",""
"","","","","","html-keyboard-response","123","197860","0.0-7.13-2.13","64b433e7e3913a60c34c9cb6","655cb802637e0dbe2941dbc4","655cb8d1ed52d4450fd13835","null","
        <div style=""text-align: center; position: fixed; top: 5vh; left: 40vw;"">
            <div style=""margin:0 auto; width: 20vw; top: 8vh; font-size: 2vw""> 
            <font color=""green""> Bonus : $9.7 </font>
            </div>
        </div>
    ","null","","","","","","","",""
"","","","","","html-keyboard-response","124","197890","0.0-7.13-3.13","64b433e7e3913a60c34c9cb6","655cb802637e0dbe2941dbc4","655cb8d1ed52d4450fd13835","29","./stimuli//pack_shapes_diff/cat_2/diff_1/ex_2_1_13.png","arrowleft","response","ArrowRight","13","2","1","test","false",""
"","","","","","html-keyboard-response","125","198396","0.0-7.13-4.13","64b433e7e3913a60c34c9cb6","655cb802637e0dbe2941dbc4","655cb8d1ed52d4450fd13835","505","<p> <font size=""4vw""> Wrong category! </font> <br> <br> <font color=""red"" size=""7vw""> - $0.05 points </font> </p>","arrowleft","feedback","","","","","","","9.65"
"","","","","","html-keyboard-response","126","199274","0.0-7.14-0.14","64b433e7e3913a60c34c9cb6","655cb802637e0dbe2941dbc4","655cb8d1ed52d4450fd13835","877","
            
        <div style=""text-align: center; position: fixed; top: 5vh; left: 40vw;"">
            <div style=""margin:0 auto; width: 20vw; top: 8vh; font-size: 2vw""> 
            <font color=""green""> Bonus : $9.65 </font>
            </div>
        </div>
    
            <div> Please press any key to continue to the next image.</div>
        ","s","ITI","","","","","","",""
"","","","","","html-keyboard-response","127","199887","0.0-7.14-1.14","64b433e7e3913a60c34c9cb6","655cb802637e0dbe2941dbc4","655cb8d1ed52d4450fd13835","null","
        
        <div style=""text-align: center; position: fixed; top: 5vh; left: 40vw;"">
            <div style=""margin:0 auto; width: 20vw; top: 8vh; font-size: 2vw""> 
            <font color=""green""> Bonus : $9.65 </font>
            </div>
        </div>
    
        <img class=""stim"" src=./stimuli//pack_shapes_diff/cat_2/diff_1/ex_2_1_5.png></img>
    ","null","stimulus","","","","","","",""
"","","","","","html-keyboard-response","128","200903","0.0-7.14-2.14","64b433e7e3913a60c34c9cb6","655cb802637e0dbe2941dbc4","655cb8d1ed52d4450fd13835","null","
        <div style=""text-align: center; position: fixed; top: 5vh; left: 40vw;"">
            <div style=""margin:0 auto; width: 20vw; top: 8vh; font-size: 2vw""> 
            <font color=""green""> Bonus : $9.65 </font>
            </div>
        </div>
    ","null","","","","","","","",""
"","","","","","html-keyboard-response","129","201075","0.0-7.14-3.14","64b433e7e3913a60c34c9cb6","655cb802637e0dbe2941dbc4","655cb8d1ed52d4450fd13835","169","./stimuli//pack_shapes_diff/cat_2/diff_1/ex_2_1_5.png","arrowright","response","ArrowRight","5","2","1","test","true",""
"","","","","","html-keyboard-response","130","202581","0.0-7.14-4.14","64b433e7e3913a60c34c9cb6","655cb802637e0dbe2941dbc4","655cb8d1ed52d4450fd13835","null","<p> <font color=""green"" size=""5vw""> Correct category! </font></p>","null","feedback","","","","","","","9.65"
"","","","","","html-keyboard-response","131","203244","0.0-7.15-0.15","64b433e7e3913a60c34c9cb6","655cb802637e0dbe2941dbc4","655cb8d1ed52d4450fd13835","660","
            
        <div style=""text-align: center; position: fixed; top: 5vh; left: 40vw;"">
            <div style=""margin:0 auto; width: 20vw; top: 8vh; font-size: 2vw""> 
            <font color=""green""> Bonus : $9.65 </font>
            </div>
        </div>
    
            <div> Please press any key to continue to the next image.</div>
        ","s","ITI","","","","","","",""
"","","","","","html-keyboard-response","132","203858","0.0-7.15-1.15","64b433e7e3913a60c34c9cb6","655cb802637e0dbe2941dbc4","655cb8d1ed52d4450fd13835","null","
        
        <div style=""text-align: center; position: fixed; top: 5vh; left: 40vw;"">
            <div style=""margin:0 auto; width: 20vw; top: 8vh; font-size: 2vw""> 
            <font color=""green""> Bonus : $9.65 </font>
            </div>
        </div>
    
        <img class=""stim"" src=./stimuli//pack_shapes_diff/cat_1/diff_1/ex_1_1_8.png></img>
    ","null","stimulus","","","","","","",""
"","","","","","html-keyboard-response","133","204872","0.0-7.15-2.15","64b433e7e3913a60c34c9cb6","655cb802637e0dbe2941dbc4","655cb8d1ed52d4450fd13835","null","
        <div style=""text-align: center; position: fixed; top: 5vh; left: 40vw;"">
            <div style=""margin:0 auto; width: 20vw; top: 8vh; font-size: 2vw""> 
            <font color=""green""> Bonus : $9.65 </font>
            </div>
        </div>
    ","null","","","","","","","",""
"","","","","","html-keyboard-response","134","205323","0.0-7.15-3.15","64b433e7e3913a60c34c9cb6","655cb802637e0dbe2941dbc4","655cb8d1ed52d4450fd13835","450","./stimuli//pack_shapes_diff/cat_1/diff_1/ex_1_1_8.png","arrowright","response","ArrowLeft","8","1","1","test","false",""
"","","","","","html-keyboard-response","135","206839","0.0-7.15-4.15","64b433e7e3913a60c34c9cb6","655cb802637e0dbe2941dbc4","655cb8d1ed52d4450fd13835","null","<p> <font size=""4vw""> Wrong category! </font> <br> <br> <font color=""red"" size=""7vw""> - $0.05 points </font> </p>","null","feedback","","","","","","","9.6"
"","","","","","html-keyboard-response","136","207164","0.0-7.16-0.16","64b433e7e3913a60c34c9cb6","655cb802637e0dbe2941dbc4","655cb8d1ed52d4450fd13835","324","
            
        <div style=""text-align: center; position: fixed; top: 5vh; left: 40vw;"">
            <div style=""margin:0 auto; width: 20vw; top: 8vh; font-size: 2vw""> 
            <font color=""green""> Bonus : $9.6 </font>
            </div>
        </div>
    
            <div> Please press any key to continue to the next image.</div>
        ","s","ITI","","","","","","",""
"","","","","","html-keyboard-response","137","207771","0.0-7.16-1.16","64b433e7e3913a60c34c9cb6","655cb802637e0dbe2941dbc4","655cb8d1ed52d4450fd13835","null","
        
        <div style=""text-align: center; position: fixed; top: 5vh; left: 40vw;"">
            <div style=""margin:0 auto; width: 20vw; top: 8vh; font-size: 2vw""> 
            <font color=""green""> Bonus : $9.6 </font>
            </div>
        </div>
    
        <img class=""stim"" src=./stimuli//pack_shapes_diff/cat_1/diff_1/ex_1_1_8.png></img>
    ","null","stimulus","","","","","","",""
"","","","","","html-keyboard-response","138","208788","0.0-7.16-2.16","64b433e7e3913a60c34c9cb6","655cb802637e0dbe2941dbc4","655cb8d1ed52d4450fd13835","null","
        <div style=""text-align: center; position: fixed; top: 5vh; left: 40vw;"">
            <div style=""margin:0 auto; width: 20vw; top: 8vh; font-size: 2vw""> 
            <font color=""green""> Bonus : $9.6 </font>
            </div>
        </div>
    ","null","","","","","","","",""
"","","","","","html-keyboard-response","139","209085","0.0-7.16-3.16","64b433e7e3913a60c34c9cb6","655cb802637e0dbe2941dbc4","655cb8d1ed52d4450fd13835","294","./stimuli//pack_shapes_diff/cat_1/diff_1/ex_1_1_8.png","arrowleft","response","ArrowLeft","8","1","1","test","true",""
"","","","","","html-keyboard-response","140","210595","0.0-7.16-4.16","64b433e7e3913a60c34c9cb6","655cb802637e0dbe2941dbc4","655cb8d1ed52d4450fd13835","null","<p> <font color=""green"" size=""5vw""> Correct category! </font></p>","null","feedback","","","","","","","9.6"
"","","","","","html-keyboard-response","141","211141","0.0-7.17-0.17","64b433e7e3913a60c34c9cb6","655cb802637e0dbe2941dbc4","655cb8d1ed52d4450fd13835","543","
            
        <div style=""text-align: center; position: fixed; top: 5vh; left: 40vw;"">
            <div style=""margin:0 auto; width: 20vw; top: 8vh; font-size: 2vw""> 
            <font color=""green""> Bonus : $9.6 </font>
            </div>
        </div>
    
            <div> Please press any key to continue to the next image.</div>
        ","s","ITI","","","","","","",""
"","","","","","html-keyboard-response","142","211751","0.0-7.17-1.17","64b433e7e3913a60c34c9cb6","655cb802637e0dbe2941dbc4","655cb8d1ed52d4450fd13835","null","
        
        <div style=""text-align: center; position: fixed; top: 5vh; left: 40vw;"">
            <div style=""margin:0 auto; width: 20vw; top: 8vh; font-size: 2vw""> 
            <font color=""green""> Bonus : $9.6 </font>
            </div>
        </div>
    
        <img class=""stim"" src=./stimuli//pack_shapes_diff/cat_1/diff_1/ex_1_1_1.png></img>
    ","null","stimulus","","","","","","",""
"","","","","","html-keyboard-response","143","212768","0.0-7.17-2.17","64b433e7e3913a60c34c9cb6","655cb802637e0dbe2941dbc4","655cb8d1ed52d4450fd13835","null","
        <div style=""text-align: center; position: fixed; top: 5vh; left: 40vw;"">
            <div style=""margin:0 auto; width: 20vw; top: 8vh; font-size: 2vw""> 
            <font color=""green""> Bonus : $9.6 </font>
            </div>
        </div>
    ","null","","","","","","","",""
"","","","","","html-keyboard-response","144","213052","0.0-7.17-3.17","64b433e7e3913a60c34c9cb6","655cb802637e0dbe2941dbc4","655cb8d1ed52d4450fd13835","282","./stimuli//pack_shapes_diff/cat_1/diff_1/ex_1_1_1.png","arrowright","response","ArrowLeft","1","1","1","test","false",""
"","","","","","html-keyboard-response","145","213516","0.0-7.17-4.17","64b433e7e3913a60c34c9cb6","655cb802637e0dbe2941dbc4","655cb8d1ed52d4450fd13835","462","<p> <font size=""4vw""> Wrong category! </font> <br> <br> <font color=""red"" size=""7vw""> - $0.05 points </font> </p>","arrowleft","feedback","","","","","","","9.55"
"","","","","","html-keyboard-response","146","214308","0.0-7.18-0.18","64b433e7e3913a60c34c9cb6","655cb802637e0dbe2941dbc4","655cb8d1ed52d4450fd13835","791","
            
        <div style=""text-align: center; position: fixed; top: 5vh; left: 40vw;"">
            <div style=""margin:0 auto; width: 20vw; top: 8vh; font-size: 2vw""> 
            <font color=""green""> Bonus : $9.55 </font>
            </div>
        </div>
    
            <div> Please press any key to continue to the next image.</div>
        ","s","ITI","","","","","","",""
"","","","","","html-keyboard-response","147","214925","0.0-7.18-1.18","64b433e7e3913a60c34c9cb6","655cb802637e0dbe2941dbc4","655cb8d1ed52d4450fd13835","null","
        
        <div style=""text-align: center; position: fixed; top: 5vh; left: 40vw;"">
            <div style=""margin:0 auto; width: 20vw; top: 8vh; font-size: 2vw""> 
            <font color=""green""> Bonus : $9.55 </font>
            </div>
        </div>
    
        <img class=""stim"" src=./stimuli//pack_shapes_diff/cat_1/diff_1/ex_1_1_1.png></img>
    ","null","stimulus","","","","","","",""
"","","","","","html-keyboard-response","148","215942","0.0-7.18-2.18","64b433e7e3913a60c34c9cb6","655cb802637e0dbe2941dbc4","655cb8d1ed52d4450fd13835","null","
        <div style=""text-align: center; position: fixed; top: 5vh; left: 40vw;"">
            <div style=""margin:0 auto; width: 20vw; top: 8vh; font-size: 2vw""> 
            <font color=""green""> Bonus : $9.55 </font>
            </div>
        </div>
    ","null","","","","","","","",""
"","","","","","html-keyboard-response","149","216108","0.0-7.18-3.18","64b433e7e3913a60c34c9cb6","655cb802637e0dbe2941dbc4","655cb8d1ed52d4450fd13835","166","./stimuli//pack_shapes_diff/cat_1/diff_1/ex_1_1_1.png","arrowright","response","ArrowLeft","1","1","1","test","false",""
"","","","","","html-keyboard-response","150","216324","0.0-7.18-4.18","64b433e7e3913a60c34c9cb6","655cb802637e0dbe2941dbc4","655cb8d1ed52d4450fd13835","214","<p> <font size=""4vw""> Wrong category! </font> <br> <br> <font color=""red"" size=""7vw""> - $0.05 points </font> </p>","arrowleft","feedback","","","","","","","9.5"
"","","","","","html-keyboard-response","151","216964","0.0-7.19-0.19","64b433e7e3913a60c34c9cb6","655cb802637e0dbe2941dbc4","655cb8d1ed52d4450fd13835","638","
            
        <div style=""text-align: center; position: fixed; top: 5vh; left: 40vw;"">
            <div style=""margin:0 auto; width: 20vw; top: 8vh; font-size: 2vw""> 
            <font color=""green""> Bonus : $9.5 </font>
            </div>
        </div>
    
            <div> Please press any key to continue to the next image.</div>
        ","s","ITI","","","","","","",""
"","","","","","html-keyboard-response","152","217582","0.0-7.19-1.19","64b433e7e3913a60c34c9cb6","655cb802637e0dbe2941dbc4","655cb8d1ed52d4450fd13835","null","
        
        <div style=""text-align: center; position: fixed; top: 5vh; left: 40vw;"">
            <div style=""margin:0 auto; width: 20vw; top: 8vh; font-size: 2vw""> 
            <font color=""green""> Bonus : $9.5 </font>
            </div>
        </div>
    
        <img class=""stim"" src=./stimuli//pack_shapes_diff/cat_2/diff_1/ex_2_1_17.png></img>
    ","null","stimulus","","","","","","",""
"","","","","","html-keyboard-response","153","218595","0.0-7.19-2.19","64b433e7e3913a60c34c9cb6","655cb802637e0dbe2941dbc4","655cb8d1ed52d4450fd13835","null","
        <div style=""text-align: center; position: fixed; top: 5vh; left: 40vw;"">
            <div style=""margin:0 auto; width: 20vw; top: 8vh; font-size: 2vw""> 
            <font color=""green""> Bonus : $9.5 </font>
            </div>
        </div>
    ","null","","","","","","","",""
"","","","","","html-keyboard-response","154","218988","0.0-7.19-3.19","64b433e7e3913a60c34c9cb6","655cb802637e0dbe2941dbc4","655cb8d1ed52d4450fd13835","392","./stimuli//pack_shapes_diff/cat_2/diff_1/ex_2_1_17.png","arrowright","response","ArrowRight","17","2","1","test","true",""
"","","","","","html-keyboard-response","155","220499","0.0-7.19-4.19","64b433e7e3913a60c34c9cb6","655cb802637e0dbe2941dbc4","655cb8d1ed52d4450fd13835","null","<p> <font color=""green"" size=""5vw""> Correct category! </font></p>","null","feedback","","","","","","","9.5"
"","","","","","html-keyboard-response","156","221011","0.0-7.20-0.20","64b433e7e3913a60c34c9cb6","655cb802637e0dbe2941dbc4","655cb8d1ed52d4450fd13835","510","
            
        <div style=""text-align: center; position: fixed; top: 5vh; left: 40vw;"">
            <div style=""margin:0 auto; width: 20vw; top: 8vh; font-size: 2vw""> 
            <font color=""green""> Bonus : $9.5 </font>
            </div>
        </div>
    
            <div> Please press any key to continue to the next image.</div>
        ","s","ITI","","","","","","",""
"","","","","","html-keyboard-response","157","221613","0.0-7.20-1.20","64b433e7e3913a60c34c9cb6","655cb802637e0dbe2941dbc4","655cb8d1ed52d4450fd13835","null","
        
        <div style=""text-align: center; position: fixed; top: 5vh; left: 40vw;"">
            <div style=""margin:0 auto; width: 20vw; top: 8vh; font-size: 2vw""> 
            <font color=""green""> Bonus : $9.5 </font>
            </div>
        </div>
    
        <img class=""stim"" src=./stimuli//pack_shapes_diff/cat_1/diff_1/ex_1_1_16.png></img>
    ","null","stimulus","","","","","","",""
"","","","","","html-keyboard-response","158","222626","0.0-7.20-2.20","64b433e7e3913a60c34c9cb6","655cb802637e0dbe2941dbc4","655cb8d1ed52d4450fd13835","null","
        <div style=""text-align: center; position: fixed; top: 5vh; left: 40vw;"">
            <div style=""margin:0 auto; width: 20vw; top: 8vh; font-size: 2vw""> 
            <font color=""green""> Bonus : $9.5 </font>
            </div>
        </div>
    ","null","","","","","","","",""
"","","","","","html-keyboard-response","159","223140","0.0-7.20-3.20","64b433e7e3913a60c34c9cb6","655cb802637e0dbe2941dbc4","655cb8d1ed52d4450fd13835","513","./stimuli//pack_shapes_diff/cat_1/diff_1/ex_1_1_16.png","arrowleft","response","ArrowLeft","16","1","1","test","true",""
"","","","","","html-keyboard-response","160","224645","0.0-7.20-4.20","64b433e7e3913a60c34c9cb6","655cb802637e0dbe2941dbc4","655cb8d1ed52d4450fd13835","null","<p> <font color=""green"" size=""5vw""> Correct category! </font></p>","null","feedback","","","","","","","9.5"
"","","","","","html-keyboard-response","161","224973","0.0-7.21-0.21","64b433e7e3913a60c34c9cb6","655cb802637e0dbe2941dbc4","655cb8d1ed52d4450fd13835","326","
            
        <div style=""text-align: center; position: fixed; top: 5vh; left: 40vw;"">
            <div style=""margin:0 auto; width: 20vw; top: 8vh; font-size: 2vw""> 
            <font color=""green""> Bonus : $9.5 </font>
            </div>
        </div>
    
            <div> Please press any key to continue to the next image.</div>
        ","s","ITI","","","","","","",""
"","","","","","html-keyboard-response","162","225582","0.0-7.21-1.21","64b433e7e3913a60c34c9cb6","655cb802637e0dbe2941dbc4","655cb8d1ed52d4450fd13835","null","
        
        <div style=""text-align: center; position: fixed; top: 5vh; left: 40vw;"">
            <div style=""margin:0 auto; width: 20vw; top: 8vh; font-size: 2vw""> 
            <font color=""green""> Bonus : $9.5 </font>
            </div>
        </div>
    
        <img class=""stim"" src=./stimuli//pack_shapes_diff/cat_1/diff_1/ex_1_1_4.png></img>
    ","null","stimulus","","","","","","",""
"","","","","","html-keyboard-response","163","226592","0.0-7.21-2.21","64b433e7e3913a60c34c9cb6","655cb802637e0dbe2941dbc4","655cb8d1ed52d4450fd13835","null","
        <div style=""text-align: center; position: fixed; top: 5vh; left: 40vw;"">
            <div style=""margin:0 auto; width: 20vw; top: 8vh; font-size: 2vw""> 
            <font color=""green""> Bonus : $9.5 </font>
            </div>
        </div>
    ","null","","","","","","","",""
"","","","","","html-keyboard-response","164","226628","0.0-7.21-3.21","64b433e7e3913a60c34c9cb6","655cb802637e0dbe2941dbc4","655cb8d1ed52d4450fd13835","33","./stimuli//pack_shapes_diff/cat_1/diff_1/ex_1_1_4.png","arrowleft","response","ArrowLeft","4","1","1","test","true",""
"","","","","","html-keyboard-response","165","228141","0.0-7.21-4.21","64b433e7e3913a60c34c9cb6","655cb802637e0dbe2941dbc4","655cb8d1ed52d4450fd13835","null","<p> <font color=""green"" size=""5vw""> Correct category! </font></p>","null","feedback","","","","","","","9.5"
"","","","","","html-keyboard-response","166","228707","0.0-7.22-0.22","64b433e7e3913a60c34c9cb6","655cb802637e0dbe2941dbc4","655cb8d1ed52d4450fd13835","564","
            
        <div style=""text-align: center; position: fixed; top: 5vh; left: 40vw;"">
            <div style=""margin:0 auto; width: 20vw; top: 8vh; font-size: 2vw""> 
            <font color=""green""> Bonus : $9.5 </font>
            </div>
        </div>
    
            <div> Please press any key to continue to the next image.</div>
        ","d","ITI","","","","","","",""
"","","","","","html-keyboard-response","167","229316","0.0-7.22-1.22","64b433e7e3913a60c34c9cb6","655cb802637e0dbe2941dbc4","655cb8d1ed52d4450fd13835","null","
        
        <div style=""text-align: center; position: fixed; top: 5vh; left: 40vw;"">
            <div style=""margin:0 auto; width: 20vw; top: 8vh; font-size: 2vw""> 
            <font color=""green""> Bonus : $9.5 </font>
            </div>
        </div>
    
        <img class=""stim"" src=./stimuli//pack_shapes_diff/cat_1/diff_1/ex_1_1_8.png></img>
    ","null","stimulus","","","","","","",""
"","","","","","html-keyboard-response","168","230325","0.0-7.22-2.22","64b433e7e3913a60c34c9cb6","655cb802637e0dbe2941dbc4","655cb8d1ed52d4450fd13835","null","
        <div style=""text-align: center; position: fixed; top: 5vh; left: 40vw;"">
            <div style=""margin:0 auto; width: 20vw; top: 8vh; font-size: 2vw""> 
            <font color=""green""> Bonus : $9.5 </font>
            </div>
        </div>
    ","null","","","","","","","",""
"","","","","","html-keyboard-response","169","230834","0.0-7.22-3.22","64b433e7e3913a60c34c9cb6","655cb802637e0dbe2941dbc4","655cb8d1ed52d4450fd13835","508","./stimuli//pack_shapes_diff/cat_1/diff_1/ex_1_1_8.png","arrowleft","response","ArrowLeft","8","1","1","test","true",""
"","","","","","html-keyboard-response","170","232342","0.0-7.22-4.22","64b433e7e3913a60c34c9cb6","655cb802637e0dbe2941dbc4","655cb8d1ed52d4450fd13835","null","<p> <font color=""green"" size=""5vw""> Correct category! </font></p>","null","feedback","","","","","","","9.5"
"","","","","","html-keyboard-response","171","232660","0.0-7.23-0.23","64b433e7e3913a60c34c9cb6","655cb802637e0dbe2941dbc4","655cb8d1ed52d4450fd13835","316","
            
        <div style=""text-align: center; position: fixed; top: 5vh; left: 40vw;"">
            <div style=""margin:0 auto; width: 20vw; top: 8vh; font-size: 2vw""> 
            <font color=""green""> Bonus : $9.5 </font>
            </div>
        </div>
    
            <div> Please press any key to continue to the next image.</div>
        ","d","ITI","","","","","","",""
"","","","","","html-keyboard-response","172","233276","0.0-7.23-1.23","64b433e7e3913a60c34c9cb6","655cb802637e0dbe2941dbc4","655cb8d1ed52d4450fd13835","null","
        
        <div style=""text-align: center; position: fixed; top: 5vh; left: 40vw;"">
            <div style=""margin:0 auto; width: 20vw; top: 8vh; font-size: 2vw""> 
            <font color=""green""> Bonus : $9.5 </font>
            </div>
        </div>
    
        <img class=""stim"" src=./stimuli//pack_shapes_diff/cat_1/diff_2/ex_1_2_16.png></img>
    ","null","stimulus","","","","","","",""
"","","","","","html-keyboard-response","173","234292","0.0-7.23-2.23","64b433e7e3913a60c34c9cb6","655cb802637e0dbe2941dbc4","655cb8d1ed52d4450fd13835","null","
        <div style=""text-align: center; position: fixed; top: 5vh; left: 40vw;"">
            <div style=""margin:0 auto; width: 20vw; top: 8vh; font-size: 2vw""> 
            <font color=""green""> Bonus : $9.5 </font>
            </div>
        </div>
    ","null","","","","","","","",""
"","","","","","html-keyboard-response","174","234636","0.0-7.23-3.23","64b433e7e3913a60c34c9cb6","655cb802637e0dbe2941dbc4","655cb8d1ed52d4450fd13835","341","./stimuli//pack_shapes_diff/cat_1/diff_2/ex_1_2_16.png","arrowleft","response","ArrowLeft","16","1","2","test","true",""
"","","","","","html-keyboard-response","175","236142","0.0-7.23-4.23","64b433e7e3913a60c34c9cb6","655cb802637e0dbe2941dbc4","655cb8d1ed52d4450fd13835","null","<p> <font color=""green"" size=""5vw""> Correct category! </font></p>","null","feedback","","","","","","","9.5"
"","","","","","html-keyboard-response","176","236493","0.0-7.24-0.24","64b433e7e3913a60c34c9cb6","655cb802637e0dbe2941dbc4","655cb8d1ed52d4450fd13835","349","
            
        <div style=""text-align: center; position: fixed; top: 5vh; left: 40vw;"">
            <div style=""margin:0 auto; width: 20vw; top: 8vh; font-size: 2vw""> 
            <font color=""green""> Bonus : $9.5 </font>
            </div>
        </div>
    
            <div> Please press any key to continue to the next image.</div>
        ","d","ITI","","","","","","",""
"","","","","","html-keyboard-response","177","237112","0.0-7.24-1.24","64b433e7e3913a60c34c9cb6","655cb802637e0dbe2941dbc4","655cb8d1ed52d4450fd13835","null","
        
        <div style=""text-align: center; position: fixed; top: 5vh; left: 40vw;"">
            <div style=""margin:0 auto; width: 20vw; top: 8vh; font-size: 2vw""> 
            <font color=""green""> Bonus : $9.5 </font>
            </div>
        </div>
    
        <img class=""stim"" src=./stimuli//pack_shapes_diff/cat_2/diff_2/ex_2_2_10.png></img>
    ","null","stimulus","","","","","","",""
"","","","","","html-keyboard-response","178","238126","0.0-7.24-2.24","64b433e7e3913a60c34c9cb6","655cb802637e0dbe2941dbc4","655cb8d1ed52d4450fd13835","null","
        <div style=""text-align: center; position: fixed; top: 5vh; left: 40vw;"">
            <div style=""margin:0 auto; width: 20vw; top: 8vh; font-size: 2vw""> 
            <font color=""green""> Bonus : $9.5 </font>
            </div>
        </div>
    ","null","","","","","","","",""
"","","","","","html-keyboard-response","179","238372","0.0-7.24-3.24","64b433e7e3913a60c34c9cb6","655cb802637e0dbe2941dbc4","655cb8d1ed52d4450fd13835","245","./stimuli//pack_shapes_diff/cat_2/diff_2/ex_2_2_10.png","arrowright","response","ArrowRight","10","2","2","test","true",""
"","","","","","html-keyboard-response","180","238778","0.0-7.24-4.24","64b433e7e3913a60c34c9cb6","655cb802637e0dbe2941dbc4","655cb8d1ed52d4450fd13835","405","<p> <font color=""green"" size=""5vw""> Correct category! </font></p>","arrowleft","feedback","","","","","","","9.5"
"","","","","","html-keyboard-response","181","239666","0.0-7.25-0.25","64b433e7e3913a60c34c9cb6","655cb802637e0dbe2941dbc4","655cb8d1ed52d4450fd13835","887","
            
        <div style=""text-align: center; position: fixed; top: 5vh; left: 40vw;"">
            <div style=""margin:0 auto; width: 20vw; top: 8vh; font-size: 2vw""> 
            <font color=""green""> Bonus : $9.5 </font>
            </div>
        </div>
    
            <div> Please press any key to continue to the next image.</div>
        ","s","ITI","","","","","","",""
"","","","","","html-keyboard-response","182","240278","0.0-7.25-1.25","64b433e7e3913a60c34c9cb6","655cb802637e0dbe2941dbc4","655cb8d1ed52d4450fd13835","null","
        
        <div style=""text-align: center; position: fixed; top: 5vh; left: 40vw;"">
            <div style=""margin:0 auto; width: 20vw; top: 8vh; font-size: 2vw""> 
            <font color=""green""> Bonus : $9.5 </font>
            </div>
        </div>
    
        <img class=""stim"" src=./stimuli//pack_shapes_diff/cat_2/diff_2/ex_2_2_13.png></img>
    ","null","stimulus","","","","","","",""
"","","","","","html-keyboard-response","183","241296","0.0-7.25-2.25","64b433e7e3913a60c34c9cb6","655cb802637e0dbe2941dbc4","655cb8d1ed52d4450fd13835","null","
        <div style=""text-align: center; position: fixed; top: 5vh; left: 40vw;"">
            <div style=""margin:0 auto; width: 20vw; top: 8vh; font-size: 2vw""> 
            <font color=""green""> Bonus : $9.5 </font>
            </div>
        </div>
    ","null","","","","","","","",""
"","","","","","html-keyboard-response","184","241411","0.0-7.25-3.25","64b433e7e3913a60c34c9cb6","655cb802637e0dbe2941dbc4","655cb8d1ed52d4450fd13835","114","./stimuli//pack_shapes_diff/cat_2/diff_2/ex_2_2_13.png","arrowleft","response","ArrowRight","13","2","2","test","false",""
"","","","","","html-keyboard-response","185","241955","0.0-7.25-4.25","64b433e7e3913a60c34c9cb6","655cb802637e0dbe2941dbc4","655cb8d1ed52d4450fd13835","543","<p> <font size=""4vw""> Wrong category! </font> <br> <br> <font color=""red"" size=""7vw""> - $0.05 points </font> </p>","arrowright","feedback","","","","","","","9.45"
"","","","","","html-keyboard-response","186","243772","0.0-7.26-0.26","64b433e7e3913a60c34c9cb6","655cb802637e0dbe2941dbc4","655cb8d1ed52d4450fd13835","1815","
            
        <div style=""text-align: center; position: fixed; top: 5vh; left: 40vw;"">
            <div style=""margin:0 auto; width: 20vw; top: 8vh; font-size: 2vw""> 
            <font color=""green""> Bonus : $9.45 </font>
            </div>
        </div>
    
            <div> Please press any key to continue to the next image.</div>
        ","s","ITI","","","","","","",""
"","","","","","html-keyboard-response","187","244385","0.0-7.26-1.26","64b433e7e3913a60c34c9cb6","655cb802637e0dbe2941dbc4","655cb8d1ed52d4450fd13835","null","
        
        <div style=""text-align: center; position: fixed; top: 5vh; left: 40vw;"">
            <div style=""margin:0 auto; width: 20vw; top: 8vh; font-size: 2vw""> 
            <font color=""green""> Bonus : $9.45 </font>
            </div>
        </div>
    
        <img class=""stim"" src=./stimuli//pack_shapes_diff/cat_2/diff_2/ex_2_2_4.png></img>
    ","null","stimulus","","","","","","",""
"","","","","","html-keyboard-response","188","245399","0.0-7.26-2.26","64b433e7e3913a60c34c9cb6","655cb802637e0dbe2941dbc4","655cb8d1ed52d4450fd13835","null","
        <div style=""text-align: center; position: fixed; top: 5vh; left: 40vw;"">
            <div style=""margin:0 auto; width: 20vw; top: 8vh; font-size: 2vw""> 
            <font color=""green""> Bonus : $9.45 </font>
            </div>
        </div>
    ","null","","","","","","","",""
"","","","","","html-keyboard-response","189","245692","0.0-7.26-3.26","64b433e7e3913a60c34c9cb6","655cb802637e0dbe2941dbc4","655cb8d1ed52d4450fd13835","291","./stimuli//pack_shapes_diff/cat_2/diff_2/ex_2_2_4.png","arrowleft","response","ArrowRight","4","2","2","test","false",""
"","","","","","html-keyboard-response","190","246084","0.0-7.26-4.26","64b433e7e3913a60c34c9cb6","655cb802637e0dbe2941dbc4","655cb8d1ed52d4450fd13835","390","<p> <font size=""4vw""> Wrong category! </font> <br> <br> <font color=""red"" size=""7vw""> - $0.05 points </font> </p>","arrowright","feedback","","","","","","","9.4"
"","","","","","html-keyboard-response","191","247484","0.0-7.27-0.27","64b433e7e3913a60c34c9cb6","655cb802637e0dbe2941dbc4","655cb8d1ed52d4450fd13835","1399","
            
        <div style=""text-align: center; position: fixed; top: 5vh; left: 40vw;"">
            <div style=""margin:0 auto; width: 20vw; top: 8vh; font-size: 2vw""> 
            <font color=""green""> Bonus : $9.4 </font>
            </div>
        </div>
    
            <div> Please press any key to continue to the next image.</div>
        ","s","ITI","","","","","","",""
"","","","","","html-keyboard-response","192","248087","0.0-7.27-1.27","64b433e7e3913a60c34c9cb6","655cb802637e0dbe2941dbc4","655cb8d1ed52d4450fd13835","null","
        
        <div style=""text-align: center; position: fixed; top: 5vh; left: 40vw;"">
            <div style=""margin:0 auto; width: 20vw; top: 8vh; font-size: 2vw""> 
            <font color=""green""> Bonus : $9.4 </font>
            </div>
        </div>
    
        <img class=""stim"" src=./stimuli//pack_shapes_diff/cat_1/diff_2/ex_1_2_2.png></img>
    ","null","stimulus","","","","","","",""
"","","","","","html-keyboard-response","193","249099","0.0-7.27-2.27","64b433e7e3913a60c34c9cb6","655cb802637e0dbe2941dbc4","655cb8d1ed52d4450fd13835","null","
        <div style=""text-align: center; position: fixed; top: 5vh; left: 40vw;"">
            <div style=""margin:0 auto; width: 20vw; top: 8vh; font-size: 2vw""> 
            <font color=""green""> Bonus : $9.4 </font>
            </div>
        </div>
    ","null","","","","","","","",""
"","","","","","html-keyboard-response","194","249436","0.0-7.27-3.27","64b433e7e3913a60c34c9cb6","655cb802637e0dbe2941dbc4","655cb8d1ed52d4450fd13835","334","./stimuli//pack_shapes_diff/cat_1/diff_2/ex_1_2_2.png","arrowright","response","ArrowLeft","2","1","2","test","false",""
"","","","","","html-keyboard-response","195","249659","0.0-7.27-4.27","64b433e7e3913a60c34c9cb6","655cb802637e0dbe2941dbc4","655cb8d1ed52d4450fd13835","223","<p> <font size=""4vw""> Wrong category! </font> <br> <br> <font color=""red"" size=""7vw""> - $0.05 points </font> </p>","arrowleft","feedback","","","","","","","9.35"
"","","","","","html-keyboard-response","196","250443","0.0-7.28-0.28","64b433e7e3913a60c34c9cb6","655cb802637e0dbe2941dbc4","655cb8d1ed52d4450fd13835","782","
            
        <div style=""text-align: center; position: fixed; top: 5vh; left: 40vw;"">
            <div style=""margin:0 auto; width: 20vw; top: 8vh; font-size: 2vw""> 
            <font color=""green""> Bonus : $9.35 </font>
            </div>
        </div>
    
            <div> Please press any key to continue to the next image.</div>
        ","s","ITI","","","","","","",""
"","","","","","html-keyboard-response","197","251054","0.0-7.28-1.28","64b433e7e3913a60c34c9cb6","655cb802637e0dbe2941dbc4","655cb8d1ed52d4450fd13835","null","
        
        <div style=""text-align: center; position: fixed; top: 5vh; left: 40vw;"">
            <div style=""margin:0 auto; width: 20vw; top: 8vh; font-size: 2vw""> 
            <font color=""green""> Bonus : $9.35 </font>
            </div>
        </div>
    
        <img class=""stim"" src=./stimuli//pack_shapes_diff/cat_1/diff_1/ex_1_1_10.png></img>
    ","null","stimulus","","","","","","",""
"","","","","","html-keyboard-response","198","252073","0.0-7.28-2.28","64b433e7e3913a60c34c9cb6","655cb802637e0dbe2941dbc4","655cb8d1ed52d4450fd13835","null","
        <div style=""text-align: center; position: fixed; top: 5vh; left: 40vw;"">
            <div style=""margin:0 auto; width: 20vw; top: 8vh; font-size: 2vw""> 
            <font color=""green""> Bonus : $9.35 </font>
            </div>
        </div>
    ","null","","","","","","","",""
"","","","","","html-keyboard-response","199","252435","0.0-7.28-3.28","64b433e7e3913a60c34c9cb6","655cb802637e0dbe2941dbc4","655cb8d1ed52d4450fd13835","361","./stimuli//pack_shapes_diff/cat_1/diff_1/ex_1_1_10.png","arrowleft","response","ArrowLeft","10","1","1","test","true",""
"","","","","","html-keyboard-response","200","253942","0.0-7.28-4.28","64b433e7e3913a60c34c9cb6","655cb802637e0dbe2941dbc4","655cb8d1ed52d4450fd13835","null","<p> <font color=""green"" size=""5vw""> Correct category! </font></p>","null","feedback","","","","","","","9.35"
"","","","","","html-keyboard-response","201","254436","0.0-7.29-0.29","64b433e7e3913a60c34c9cb6","655cb802637e0dbe2941dbc4","655cb8d1ed52d4450fd13835","492","
            
        <div style=""text-align: center; position: fixed; top: 5vh; left: 40vw;"">
            <div style=""margin:0 auto; width: 20vw; top: 8vh; font-size: 2vw""> 
            <font color=""green""> Bonus : $9.35 </font>
            </div>
        </div>
    
            <div> Please press any key to continue to the next image.</div>
        ","d","ITI","","","","","","",""
"","","","","","html-keyboard-response","202","255052","0.0-7.29-1.29","64b433e7e3913a60c34c9cb6","655cb802637e0dbe2941dbc4","655cb8d1ed52d4450fd13835","null","
        
        <div style=""text-align: center; position: fixed; top: 5vh; left: 40vw;"">
            <div style=""margin:0 auto; width: 20vw; top: 8vh; font-size: 2vw""> 
            <font color=""green""> Bonus : $9.35 </font>
            </div>
        </div>
    
        <img class=""stim"" src=./stimuli//pack_shapes_diff/cat_2/diff_1/ex_2_1_7.png></img>
    ","null","stimulus","","","","","","",""
"","","","","","html-keyboard-response","203","256062","0.0-7.29-2.29","64b433e7e3913a60c34c9cb6","655cb802637e0dbe2941dbc4","655cb8d1ed52d4450fd13835","null","
        <div style=""text-align: center; position: fixed; top: 5vh; left: 40vw;"">
            <div style=""margin:0 auto; width: 20vw; top: 8vh; font-size: 2vw""> 
            <font color=""green""> Bonus : $9.35 </font>
            </div>
        </div>
    ","null","","","","","","","",""
"","","","","","html-keyboard-response","204","256122","0.0-7.29-3.29","64b433e7e3913a60c34c9cb6","655cb802637e0dbe2941dbc4","655cb8d1ed52d4450fd13835","59","./stimuli//pack_shapes_diff/cat_2/diff_1/ex_2_1_7.png","arrowleft","response","ArrowRight","7","2","1","test","false",""
"","","","","","html-keyboard-response","205","256602","0.0-7.29-4.29","64b433e7e3913a60c34c9cb6","655cb802637e0dbe2941dbc4","655cb8d1ed52d4450fd13835","479","<p> <font size=""4vw""> Wrong category! </font> <br> <br> <font color=""red"" size=""7vw""> - $0.05 points </font> </p>","arrowright","feedback","","","","","","","9.3"
"","","","","","html-keyboard-response","206","257260","0.0-7.30-0.30","64b433e7e3913a60c34c9cb6","655cb802637e0dbe2941dbc4","655cb8d1ed52d4450fd13835","657","
            
        <div style=""text-align: center; position: fixed; top: 5vh; left: 40vw;"">
            <div style=""margin:0 auto; width: 20vw; top: 8vh; font-size: 2vw""> 
            <font color=""green""> Bonus : $9.3 </font>
            </div>
        </div>
    
            <div> Please press any key to continue to the next image.</div>
        ","arrowright","ITI","","","","","","",""
"","","","","","html-keyboard-response","207","257863","0.0-7.30-1.30","64b433e7e3913a60c34c9cb6","655cb802637e0dbe2941dbc4","655cb8d1ed52d4450fd13835","null","
        
        <div style=""text-align: center; position: fixed; top: 5vh; left: 40vw;"">
            <div style=""margin:0 auto; width: 20vw; top: 8vh; font-size: 2vw""> 
            <font color=""green""> Bonus : $9.3 </font>
            </div>
        </div>
    
        <img class=""stim"" src=./stimuli//pack_shapes_diff/cat_1/diff_1/ex_1_1_6.png></img>
    ","null","stimulus","","","","","","",""
"","","","","","html-keyboard-response","208","258866","0.0-7.30-2.30","64b433e7e3913a60c34c9cb6","655cb802637e0dbe2941dbc4","655cb8d1ed52d4450fd13835","null","
        <div style=""text-align: center; position: fixed; top: 5vh; left: 40vw;"">
            <div style=""margin:0 auto; width: 20vw; top: 8vh; font-size: 2vw""> 
            <font color=""green""> Bonus : $9.3 </font>
            </div>
        </div>
    ","null","","","","","","","",""
"","","","","","html-keyboard-response","209","259290","0.0-7.30-3.30","64b433e7e3913a60c34c9cb6","655cb802637e0dbe2941dbc4","655cb8d1ed52d4450fd13835","422","./stimuli//pack_shapes_diff/cat_1/diff_1/ex_1_1_6.png","arrowleft","response","ArrowLeft","6","1","1","test","true",""
"","","","","","html-keyboard-response","210","259723","0.0-7.30-4.30","64b433e7e3913a60c34c9cb6","655cb802637e0dbe2941dbc4","655cb8d1ed52d4450fd13835","432","<p> <font color=""green"" size=""5vw""> Correct category! </font></p>","arrowright","feedback","","","","","","","9.3"
"","","","","","html-keyboard-response","211","260603","0.0-7.31-0.31","64b433e7e3913a60c34c9cb6","655cb802637e0dbe2941dbc4","655cb8d1ed52d4450fd13835","879","
            
        <div style=""text-align: center; position: fixed; top: 5vh; left: 40vw;"">
            <div style=""margin:0 auto; width: 20vw; top: 8vh; font-size: 2vw""> 
            <font color=""green""> Bonus : $9.3 </font>
            </div>
        </div>
    
            <div> Please press any key to continue to the next image.</div>
        ","d","ITI","","","","","","",""
"","","","","","html-keyboard-response","212","261210","0.0-7.31-1.31","64b433e7e3913a60c34c9cb6","655cb802637e0dbe2941dbc4","655cb8d1ed52d4450fd13835","null","
        
        <div style=""text-align: center; position: fixed; top: 5vh; left: 40vw;"">
            <div style=""margin:0 auto; width: 20vw; top: 8vh; font-size: 2vw""> 
            <font color=""green""> Bonus : $9.3 </font>
            </div>
        </div>
    
        <img class=""stim"" src=./stimuli//pack_shapes_diff/cat_2/diff_1/ex_2_1_9.png></img>
    ","null","stimulus","","","","","","",""
"","","","","","html-keyboard-response","213","262218","0.0-7.31-2.31","64b433e7e3913a60c34c9cb6","655cb802637e0dbe2941dbc4","655cb8d1ed52d4450fd13835","null","
        <div style=""text-align: center; position: fixed; top: 5vh; left: 40vw;"">
            <div style=""margin:0 auto; width: 20vw; top: 8vh; font-size: 2vw""> 
            <font color=""green""> Bonus : $9.3 </font>
            </div>
        </div>
    ","null","","","","","","","",""
"","","","","","html-keyboard-response","214","262276","0.0-7.31-3.31","64b433e7e3913a60c34c9cb6","655cb802637e0dbe2941dbc4","655cb8d1ed52d4450fd13835","56","./stimuli//pack_shapes_diff/cat_2/diff_1/ex_2_1_9.png","arrowright","response","ArrowRight","9","2","1","test","true",""
"","","","","","html-keyboard-response","215","263781","0.0-7.31-4.31","64b433e7e3913a60c34c9cb6","655cb802637e0dbe2941dbc4","655cb8d1ed52d4450fd13835","null","<p> <font color=""green"" size=""5vw""> Correct category! </font></p>","null","feedback","","","","","","","9.3"
"","","","","","html-keyboard-response","216","264148","0.0-7.32-0.32","64b433e7e3913a60c34c9cb6","655cb802637e0dbe2941dbc4","655cb8d1ed52d4450fd13835","364","
            
        <div style=""text-align: center; position: fixed; top: 5vh; left: 40vw;"">
            <div style=""margin:0 auto; width: 20vw; top: 8vh; font-size: 2vw""> 
            <font color=""green""> Bonus : $9.3 </font>
            </div>
        </div>
    
            <div> Please press any key to continue to the next image.</div>
        ","d","ITI","","","","","","",""
"","","","","","html-keyboard-response","217","264752","0.0-7.32-1.32","64b433e7e3913a60c34c9cb6","655cb802637e0dbe2941dbc4","655cb8d1ed52d4450fd13835","null","
        
        <div style=""text-align: center; position: fixed; top: 5vh; left: 40vw;"">
            <div style=""margin:0 auto; width: 20vw; top: 8vh; font-size: 2vw""> 
            <font color=""green""> Bonus : $9.3 </font>
            </div>
        </div>
    
        <img class=""stim"" src=./stimuli//pack_shapes_diff/cat_1/diff_1/ex_1_1_10.png></img>
    ","null","stimulus","","","","","","",""
"","","","","","html-keyboard-response","218","265757","0.0-7.32-2.32","64b433e7e3913a60c34c9cb6","655cb802637e0dbe2941dbc4","655cb8d1ed52d4450fd13835","null","
        <div style=""text-align: center; position: fixed; top: 5vh; left: 40vw;"">
            <div style=""margin:0 auto; width: 20vw; top: 8vh; font-size: 2vw""> 
            <font color=""green""> Bonus : $9.3 </font>
            </div>
        </div>
    ","null","","","","","","","",""
"","","","","","html-keyboard-response","219","266034","0.0-7.32-3.32","64b433e7e3913a60c34c9cb6","655cb802637e0dbe2941dbc4","655cb8d1ed52d4450fd13835","274","./stimuli//pack_shapes_diff/cat_1/diff_1/ex_1_1_10.png","arrowright","response","ArrowLeft","10","1","1","test","false",""
"","","","","","html-keyboard-response","220","266531","0.0-7.32-4.32","64b433e7e3913a60c34c9cb6","655cb802637e0dbe2941dbc4","655cb8d1ed52d4450fd13835","497","<p> <font size=""4vw""> Wrong category! </font> <br> <br> <font color=""red"" size=""7vw""> - $0.05 points </font> </p>","arrowleft","feedback","","","","","","","9.25"
"","","","","","html-keyboard-response","221","267106","0.0-7.33-0.33","64b433e7e3913a60c34c9cb6","655cb802637e0dbe2941dbc4","655cb8d1ed52d4450fd13835","573","
            
        <div style=""text-align: center; position: fixed; top: 5vh; left: 40vw;"">
            <div style=""margin:0 auto; width: 20vw; top: 8vh; font-size: 2vw""> 
            <font color=""green""> Bonus : $9.25 </font>
            </div>
        </div>
    
            <div> Please press any key to continue to the next image.</div>
        ","d","ITI","","","","","","",""
"","","","","","html-keyboard-response","222","267711","0.0-7.33-1.33","64b433e7e3913a60c34c9cb6","655cb802637e0dbe2941dbc4","655cb8d1ed52d4450fd13835","null","
        
        <div style=""text-align: center; position: fixed; top: 5vh; left: 40vw;"">
            <div style=""margin:0 auto; width: 20vw; top: 8vh; font-size: 2vw""> 
            <font color=""green""> Bonus : $9.25 </font>
            </div>
        </div>
    
        <img class=""stim"" src=./stimuli//pack_shapes_diff/cat_1/diff_1/ex_1_1_2.png></img>
    ","null","stimulus","","","","","","",""
"","","","","","html-keyboard-response","223","268724","0.0-7.33-2.33","64b433e7e3913a60c34c9cb6","655cb802637e0dbe2941dbc4","655cb8d1ed52d4450fd13835","null","
        <div style=""text-align: center; position: fixed; top: 5vh; left: 40vw;"">
            <div style=""margin:0 auto; width: 20vw; top: 8vh; font-size: 2vw""> 
            <font color=""green""> Bonus : $9.25 </font>
            </div>
        </div>
    ","null","","","","","","","",""
"","","","","","html-keyboard-response","224","269322","0.0-7.33-3.33","64b433e7e3913a60c34c9cb6","655cb802637e0dbe2941dbc4","655cb8d1ed52d4450fd13835","597","./stimuli//pack_shapes_diff/cat_1/diff_1/ex_1_1_2.png","arrowleft","response","ArrowLeft","2","1","1","test","true",""
"","","","","","html-keyboard-response","225","269875","0.0-7.33-4.33","64b433e7e3913a60c34c9cb6","655cb802637e0dbe2941dbc4","655cb8d1ed52d4450fd13835","552","<p> <font color=""green"" size=""5vw""> Correct category! </font></p>","arrowright","feedback","","","","","","","9.25"
"","","","","","html-keyboard-response","226","271713","0.0-7.34-0.34","64b433e7e3913a60c34c9cb6","655cb802637e0dbe2941dbc4","655cb8d1ed52d4450fd13835","1837","
            
        <div style=""text-align: center; position: fixed; top: 5vh; left: 40vw;"">
            <div style=""margin:0 auto; width: 20vw; top: 8vh; font-size: 2vw""> 
            <font color=""green""> Bonus : $9.25 </font>
            </div>
        </div>
    
            <div> Please press any key to continue to the next image.</div>
        ","d","ITI","","","","","","",""
"","","","","","html-keyboard-response","227","272322","0.0-7.34-1.34","64b433e7e3913a60c34c9cb6","655cb802637e0dbe2941dbc4","655cb8d1ed52d4450fd13835","null","
        
        <div style=""text-align: center; position: fixed; top: 5vh; left: 40vw;"">
            <div style=""margin:0 auto; width: 20vw; top: 8vh; font-size: 2vw""> 
            <font color=""green""> Bonus : $9.25 </font>
            </div>
        </div>
    
        <img class=""stim"" src=./stimuli//pack_shapes_diff/cat_1/diff_1/ex_1_1_16.png></img>
    ","null","stimulus","","","","","","",""
"","","","","","html-keyboard-response","228","273337","0.0-7.34-2.34","64b433e7e3913a60c34c9cb6","655cb802637e0dbe2941dbc4","655cb8d1ed52d4450fd13835","null","
        <div style=""text-align: center; position: fixed; top: 5vh; left: 40vw;"">
            <div style=""margin:0 auto; width: 20vw; top: 8vh; font-size: 2vw""> 
            <font color=""green""> Bonus : $9.25 </font>
            </div>
        </div>
    ","null","","","","","","","",""
"","","","","","html-keyboard-response","229","273571","0.0-7.34-3.34","64b433e7e3913a60c34c9cb6","655cb802637e0dbe2941dbc4","655cb8d1ed52d4450fd13835","233","./stimuli//pack_shapes_diff/cat_1/diff_1/ex_1_1_16.png","arrowright","response","ArrowLeft","16","1","1","test","false",""
"","","","","","html-keyboard-response","230","274227","0.0-7.34-4.34","64b433e7e3913a60c34c9cb6","655cb802637e0dbe2941dbc4","655cb8d1ed52d4450fd13835","654","<p> <font size=""4vw""> Wrong category! </font> <br> <br> <font color=""red"" size=""7vw""> - $0.05 points </font> </p>","arrowleft","feedback","","","","","","","9.2"
"","","","","","html-keyboard-response","231","274756","0.0-7.35-0.35","64b433e7e3913a60c34c9cb6","655cb802637e0dbe2941dbc4","655cb8d1ed52d4450fd13835","526","
            
        <div style=""text-align: center; position: fixed; top: 5vh; left: 40vw;"">
            <div style=""margin:0 auto; width: 20vw; top: 8vh; font-size: 2vw""> 
            <font color=""green""> Bonus : $9.2 </font>
            </div>
        </div>
    
            <div> Please press any key to continue to the next image.</div>
        ","arrowright","ITI","","","","","","",""
"","","","","","html-keyboard-response","232","275366","0.0-7.35-1.35","64b433e7e3913a60c34c9cb6","655cb802637e0dbe2941dbc4","655cb8d1ed52d4450fd13835","null","
        
