"success","timeout","failed_images","failed_audio","failed_video","trial_type","trial_index","time_elapsed","internal_node_id","subject_id","study_id","session_id","rt","stimulus","response","task","correct_response","exemplar_ID","category","difficulty","phase","correct","bonus"
"true","false","[]","[]","[]","preload","0","2","0.0-0.0","60e9645361b411f90370a970","655cb802637e0dbe2941dbc4","655cb8bec76174f27e375d25","","","","","","","","","","",""
"","","","","","html-keyboard-response","1","9910","0.0-1.0","60e9645361b411f90370a970","655cb802637e0dbe2941dbc4","655cb8bec76174f27e375d25","9908","Welcome to the Category Learning experiment! Press any key to continue.","enter","welcome","","","","","","",""
"","","","","","html-keyboard-response","2","35007","0.0-2.0","60e9645361b411f90370a970","655cb802637e0dbe2941dbc4","655cb8bec76174f27e375d25","25096","
            <p>You will be shown images of black shapes. Some are category A, some are category B.
            <br>You will not know in advance which category a specific shape belongs to.</p>
            <p>After you see an image, you will be asked to guess its category <b>(left arrow for category A, right arrow for category B)</b></p>
            <p>After you choose, the screen will show you whether you were correct or not.</p>
            <p>Please try to respond as quickly and accurately as possible every time.</p>
            <p>Press any key to continue.</p>
            ","enter","introduction_1","","","","","","",""
"","","","","","html-keyboard-response","3","47220","0.0-3.0","60e9645361b411f90370a970","655cb802637e0dbe2941dbc4","655cb8bec76174f27e375d25","12212","
              <p><b>You will receive a bonus payment depending on your performance!</b></p>
              <p><b>You start with a $10 bonus and each time you guess a shape's category incorrectly $0.05 will be subtracted from the bonus. <br> After the end of the experiment you will receive the remaining bonus as payment.</b></p>
              <p>Press any key to continue.</p>
              ","enter","introduction_1","","","","","","",""
"","","","","","html-keyboard-response","4","52782","0.0-4.0","60e9645361b411f90370a970","655cb802637e0dbe2941dbc4","655cb8bec76174f27e375d25","5561","
            <p> <b>The first 10 trials are a practice round that will not count towards your bonus payment.</b></p>
            <p> You will be notified when practice finishes and the test begins. </p>
            <p> Press any key to begin the practice round.</p>
            ","enter","introduction_2","","","","","","",""
"","","","","","html-keyboard-response","5","55747","0.0-5.0-0.0","60e9645361b411f90370a970","655cb802637e0dbe2941dbc4","655cb8bec76174f27e375d25","2964","
            
        <div style=""text-align: center; position: fixed; top: 5vh; left: 40vw;"">
            <div style=""margin:0 auto; width: 20vw; top: 8vh; font-size: 2vw""> 
            <font color=""green""> Bonus : $10 </font>
            </div>
        </div>
    
            <div> Please press any key to continue to the next image.</div>
        ","enter","ITI","","","","","","",""
"","","","","","html-keyboard-response","6","56349","0.0-5.0-1.0","60e9645361b411f90370a970","655cb802637e0dbe2941dbc4","655cb8bec76174f27e375d25","null","
        
        <div style=""text-align: center; position: fixed; top: 5vh; left: 40vw;"">
            <div style=""margin:0 auto; width: 20vw; top: 8vh; font-size: 2vw""> 
            <font color=""green""> Bonus : $10 </font>
            </div>
        </div>
    
        <img class=""stim"" src=./stimuli//pack_shapes_diff/cat_2/diff_2/ex_2_2_5.png></img>
    ","null","stimulus","","","","","","",""
"","","","","","html-keyboard-response","7","57351","0.0-5.0-2.0","60e9645361b411f90370a970","655cb802637e0dbe2941dbc4","655cb8bec76174f27e375d25","null","
        <div style=""text-align: center; position: fixed; top: 5vh; left: 40vw;"">
            <div style=""margin:0 auto; width: 20vw; top: 8vh; font-size: 2vw""> 
            <font color=""green""> Bonus : $10 </font>
            </div>
        </div>
    ","null","","","","","","","",""
"","","","","","html-keyboard-response","8","61353","0.0-5.0-3.0","60e9645361b411f90370a970","655cb802637e0dbe2941dbc4","655cb8bec76174f27e375d25","null","./stimuli//pack_shapes_diff/cat_2/diff_2/ex_2_2_5.png","null","response","ArrowRight","5","2","2","train","false",""
"","","","","","html-keyboard-response","9","62855","0.0-5.0-4.0","60e9645361b411f90370a970","655cb802637e0dbe2941dbc4","655cb8bec76174f27e375d25","null","<p> <font color=""red"" size=""5vw""> Time out! </font> <br> Please try to respond as quickly as possible. </p>","null","feedback","","","","","","","10"
"","","","","","html-keyboard-response","10","67857","0.0-5.0-0.1","60e9645361b411f90370a970","655cb802637e0dbe2941dbc4","655cb8bec76174f27e375d25","null","
            
        <div style=""text-align: center; position: fixed; top: 5vh; left: 40vw;"">
            <div style=""margin:0 auto; width: 20vw; top: 8vh; font-size: 2vw""> 
            <font color=""green""> Bonus : $10 </font>
            </div>
        </div>
    
            <div> Please press any key to continue to the next image.</div>
        ","null","ITI","","","","","","",""
"","","","","","html-keyboard-response","11","68459","0.0-5.0-1.1","60e9645361b411f90370a970","655cb802637e0dbe2941dbc4","655cb8bec76174f27e375d25","null","
        
        <div style=""text-align: center; position: fixed; top: 5vh; left: 40vw;"">
            <div style=""margin:0 auto; width: 20vw; top: 8vh; font-size: 2vw""> 
            <font color=""green""> Bonus : $10 </font>
            </div>
        </div>
    
        <img class=""stim"" src=./stimuli//pack_shapes_diff/cat_1/diff_1/ex_1_1_10.png></img>
    ","null","stimulus","","","","","","",""
"","","","","","html-keyboard-response","12","69460","0.0-5.0-2.1","60e9645361b411f90370a970","655cb802637e0dbe2941dbc4","655cb8bec76174f27e375d25","null","
        <div style=""text-align: center; position: fixed; top: 5vh; left: 40vw;"">
            <div style=""margin:0 auto; width: 20vw; top: 8vh; font-size: 2vw""> 
            <font color=""green""> Bonus : $10 </font>
            </div>
        </div>
    ","null","","","","","","","",""
"","","","","","html-keyboard-response","13","73461","0.0-5.0-3.1","60e9645361b411f90370a970","655cb802637e0dbe2941dbc4","655cb8bec76174f27e375d25","null","./stimuli//pack_shapes_diff/cat_1/diff_1/ex_1_1_10.png","null","response","ArrowLeft","10","1","1","train","false",""
"","","","","","html-keyboard-response","14","74963","0.0-5.0-4.1","60e9645361b411f90370a970","655cb802637e0dbe2941dbc4","655cb8bec76174f27e375d25","null","<p> <font color=""red"" size=""5vw""> Time out! </font> <br> Please try to respond as quickly as possible. </p>","null","feedback","","","","","","","10"
"","","","","","html-keyboard-response","15","79965","0.0-5.0-0.2","60e9645361b411f90370a970","655cb802637e0dbe2941dbc4","655cb8bec76174f27e375d25","null","
            
        <div style=""text-align: center; position: fixed; top: 5vh; left: 40vw;"">
            <div style=""margin:0 auto; width: 20vw; top: 8vh; font-size: 2vw""> 
            <font color=""green""> Bonus : $10 </font>
            </div>
        </div>
    
            <div> Please press any key to continue to the next image.</div>
        ","null","ITI","","","","","","",""
"","","","","","html-keyboard-response","16","80566","0.0-5.0-1.2","60e9645361b411f90370a970","655cb802637e0dbe2941dbc4","655cb8bec76174f27e375d25","null","
        
        <div style=""text-align: center; position: fixed; top: 5vh; left: 40vw;"">
            <div style=""margin:0 auto; width: 20vw; top: 8vh; font-size: 2vw""> 
            <font color=""green""> Bonus : $10 </font>
            </div>
        </div>
    
        <img class=""stim"" src=./stimuli//pack_shapes_diff/cat_2/diff_1/ex_2_1_17.png></img>
    ","null","stimulus","","","","","","",""
"","","","","","html-keyboard-response","17","81568","0.0-5.0-2.2","60e9645361b411f90370a970","655cb802637e0dbe2941dbc4","655cb8bec76174f27e375d25","null","
        <div style=""text-align: center; position: fixed; top: 5vh; left: 40vw;"">
            <div style=""margin:0 auto; width: 20vw; top: 8vh; font-size: 2vw""> 
            <font color=""green""> Bonus : $10 </font>
            </div>
        </div>
    ","null","","","","","","","",""
"","","","","","html-keyboard-response","18","85569","0.0-5.0-3.2","60e9645361b411f90370a970","655cb802637e0dbe2941dbc4","655cb8bec76174f27e375d25","null","./stimuli//pack_shapes_diff/cat_2/diff_1/ex_2_1_17.png","null","response","ArrowRight","17","2","1","train","false",""
"","","","","","html-keyboard-response","19","86218","0.0-5.0-4.2","60e9645361b411f90370a970","655cb802637e0dbe2941dbc4","655cb8bec76174f27e375d25","649","<p> <font color=""red"" size=""5vw""> Time out! </font> <br> Please try to respond as quickly as possible. </p>","a","feedback","","","","","","","10"
"","","","","","html-keyboard-response","20","88191","0.0-5.0-0.3","60e9645361b411f90370a970","655cb802637e0dbe2941dbc4","655cb8bec76174f27e375d25","1972","
            
        <div style=""text-align: center; position: fixed; top: 5vh; left: 40vw;"">
            <div style=""margin:0 auto; width: 20vw; top: 8vh; font-size: 2vw""> 
            <font color=""green""> Bonus : $10 </font>
            </div>
        </div>
    
            <div> Please press any key to continue to the next image.</div>
        ","a","ITI","","","","","","",""
"","","","","","html-keyboard-response","21","88793","0.0-5.0-1.3","60e9645361b411f90370a970","655cb802637e0dbe2941dbc4","655cb8bec76174f27e375d25","null","
        
        <div style=""text-align: center; position: fixed; top: 5vh; left: 40vw;"">
            <div style=""margin:0 auto; width: 20vw; top: 8vh; font-size: 2vw""> 
            <font color=""green""> Bonus : $10 </font>
            </div>
        </div>
    
        <img class=""stim"" src=./stimuli//pack_shapes_diff/cat_2/diff_1/ex_2_1_7.png></img>
    ","null","stimulus","","","","","","",""
"","","","","","html-keyboard-response","22","89794","0.0-5.0-2.3","60e9645361b411f90370a970","655cb802637e0dbe2941dbc4","655cb8bec76174f27e375d25","null","
        <div style=""text-align: center; position: fixed; top: 5vh; left: 40vw;"">
            <div style=""margin:0 auto; width: 20vw; top: 8vh; font-size: 2vw""> 
            <font color=""green""> Bonus : $10 </font>
            </div>
        </div>
    ","null","","","","","","","",""
"","","","","","html-keyboard-response","23","93796","0.0-5.0-3.3","60e9645361b411f90370a970","655cb802637e0dbe2941dbc4","655cb8bec76174f27e375d25","null","./stimuli//pack_shapes_diff/cat_2/diff_1/ex_2_1_7.png","null","response","ArrowRight","7","2","1","train","false",""
"","","","","","html-keyboard-response","24","94883","0.0-5.0-4.3","60e9645361b411f90370a970","655cb802637e0dbe2941dbc4","655cb8bec76174f27e375d25","1086","<p> <font color=""red"" size=""5vw""> Time out! </font> <br> Please try to respond as quickly as possible. </p>","z","feedback","","","","","","","10"
"","","","","","html-keyboard-response","25","95660","0.0-5.0-0.4","60e9645361b411f90370a970","655cb802637e0dbe2941dbc4","655cb8bec76174f27e375d25","776","
            
        <div style=""text-align: center; position: fixed; top: 5vh; left: 40vw;"">
            <div style=""margin:0 auto; width: 20vw; top: 8vh; font-size: 2vw""> 
            <font color=""green""> Bonus : $10 </font>
            </div>
        </div>
    
            <div> Please press any key to continue to the next image.</div>
        ","z","ITI","","","","","","",""
"","","","","","html-keyboard-response","26","96261","0.0-5.0-1.4","60e9645361b411f90370a970","655cb802637e0dbe2941dbc4","655cb8bec76174f27e375d25","null","
        
        <div style=""text-align: center; position: fixed; top: 5vh; left: 40vw;"">
            <div style=""margin:0 auto; width: 20vw; top: 8vh; font-size: 2vw""> 
            <font color=""green""> Bonus : $10 </font>
            </div>
        </div>
    
        <img class=""stim"" src=./stimuli//pack_shapes_diff/cat_2/diff_1/ex_2_1_3.png></img>
    ","null","stimulus","","","","","","",""
"","","","","","html-keyboard-response","27","97264","0.0-5.0-2.4","60e9645361b411f90370a970","655cb802637e0dbe2941dbc4","655cb8bec76174f27e375d25","null","
        <div style=""text-align: center; position: fixed; top: 5vh; left: 40vw;"">
            <div style=""margin:0 auto; width: 20vw; top: 8vh; font-size: 2vw""> 
            <font color=""green""> Bonus : $10 </font>
            </div>
        </div>
    ","null","","","","","","","",""
"","","","","","html-keyboard-response","28","102028","0.0-5.0-3.4","60e9645361b411f90370a970","655cb802637e0dbe2941dbc4","655cb8bec76174f27e375d25","null","./stimuli//pack_shapes_diff/cat_2/diff_1/ex_2_1_3.png","null","response","ArrowRight","3","2","1","train","false",""
"","","","","","html-keyboard-response","29","104027","0.0-5.0-4.4","60e9645361b411f90370a970","655cb802637e0dbe2941dbc4","655cb8bec76174f27e375d25","null","<p> <font color=""red"" size=""5vw""> Time out! </font> <br> Please try to respond as quickly as possible. </p>","null","feedback","","","","","","","10"
"","","","","","html-keyboard-response","30","110027","0.0-5.0-0.5","60e9645361b411f90370a970","655cb802637e0dbe2941dbc4","655cb8bec76174f27e375d25","null","
            
        <div style=""text-align: center; position: fixed; top: 5vh; left: 40vw;"">
            <div style=""margin:0 auto; width: 20vw; top: 8vh; font-size: 2vw""> 
            <font color=""green""> Bonus : $10 </font>
            </div>
        </div>
    
            <div> Please press any key to continue to the next image.</div>
        ","null","ITI","","","","","","",""
"","","","","","html-keyboard-response","31","111026","0.0-5.0-1.5","60e9645361b411f90370a970","655cb802637e0dbe2941dbc4","655cb8bec76174f27e375d25","null","
        
        <div style=""text-align: center; position: fixed; top: 5vh; left: 40vw;"">
            <div style=""margin:0 auto; width: 20vw; top: 8vh; font-size: 2vw""> 
            <font color=""green""> Bonus : $10 </font>
            </div>
        </div>
    
        <img class=""stim"" src=./stimuli//pack_shapes_diff/cat_1/diff_2/ex_1_2_3.png></img>
    ","null","stimulus","","","","","","",""
"","","","","","html-keyboard-response","32","112028","0.0-5.0-2.5","60e9645361b411f90370a970","655cb802637e0dbe2941dbc4","655cb8bec76174f27e375d25","null","
        <div style=""text-align: center; position: fixed; top: 5vh; left: 40vw;"">
            <div style=""margin:0 auto; width: 20vw; top: 8vh; font-size: 2vw""> 
            <font color=""green""> Bonus : $10 </font>
            </div>
        </div>
    ","null","","","","","","","",""
"","","","","","html-keyboard-response","33","116030","0.0-5.0-3.5","60e9645361b411f90370a970","655cb802637e0dbe2941dbc4","655cb8bec76174f27e375d25","null","./stimuli//pack_shapes_diff/cat_1/diff_2/ex_1_2_3.png","null","response","ArrowLeft","3","1","2","train","false",""
"","","","","","html-keyboard-response","34","117532","0.0-5.0-4.5","60e9645361b411f90370a970","655cb802637e0dbe2941dbc4","655cb8bec76174f27e375d25","null","<p> <font color=""red"" size=""5vw""> Time out! </font> <br> Please try to respond as quickly as possible. </p>","null","feedback","","","","","","","10"
"","","","","","html-keyboard-response","35","117678","0.0-5.0-0.6","60e9645361b411f90370a970","655cb802637e0dbe2941dbc4","655cb8bec76174f27e375d25","144","
            
        <div style=""text-align: center; position: fixed; top: 5vh; left: 40vw;"">
            <div style=""margin:0 auto; width: 20vw; top: 8vh; font-size: 2vw""> 
            <font color=""green""> Bonus : $10 </font>
            </div>
        </div>
    
            <div> Please press any key to continue to the next image.</div>
        ","1","ITI","","","","","","",""
"","","","","","html-keyboard-response","36","118281","0.0-5.0-1.6","60e9645361b411f90370a970","655cb802637e0dbe2941dbc4","655cb8bec76174f27e375d25","null","
        
        <div style=""text-align: center; position: fixed; top: 5vh; left: 40vw;"">
            <div style=""margin:0 auto; width: 20vw; top: 8vh; font-size: 2vw""> 
            <font color=""green""> Bonus : $10 </font>
            </div>
        </div>
    
        <img class=""stim"" src=./stimuli//pack_shapes_diff/cat_1/diff_1/ex_1_1_3.png></img>
    ","null","stimulus","","","","","","",""
"","","","","","html-keyboard-response","37","119282","0.0-5.0-2.6","60e9645361b411f90370a970","655cb802637e0dbe2941dbc4","655cb8bec76174f27e375d25","null","
        <div style=""text-align: center; position: fixed; top: 5vh; left: 40vw;"">
            <div style=""margin:0 auto; width: 20vw; top: 8vh; font-size: 2vw""> 
            <font color=""green""> Bonus : $10 </font>
            </div>
        </div>
    ","null","","","","","","","",""
"","","","","","html-keyboard-response","38","123284","0.0-5.0-3.6","60e9645361b411f90370a970","655cb802637e0dbe2941dbc4","655cb8bec76174f27e375d25","null","./stimuli//pack_shapes_diff/cat_1/diff_1/ex_1_1_3.png","null","response","ArrowLeft","3","1","1","train","false",""
"","","","","","html-keyboard-response","39","123457","0.0-5.0-4.6","60e9645361b411f90370a970","655cb802637e0dbe2941dbc4","655cb8bec76174f27e375d25","173","<p> <font color=""red"" size=""5vw""> Time out! </font> <br> Please try to respond as quickly as possible. </p>","z","feedback","","","","","","","10"
"","","","","","html-keyboard-response","40","123932","0.0-5.0-0.7","60e9645361b411f90370a970","655cb802637e0dbe2941dbc4","655cb8bec76174f27e375d25","474","
            
        <div style=""text-align: center; position: fixed; top: 5vh; left: 40vw;"">
            <div style=""margin:0 auto; width: 20vw; top: 8vh; font-size: 2vw""> 
            <font color=""green""> Bonus : $10 </font>
            </div>
        </div>
    
            <div> Please press any key to continue to the next image.</div>
        ","x","ITI","","","","","","",""
"","","","","","html-keyboard-response","41","124533","0.0-5.0-1.7","60e9645361b411f90370a970","655cb802637e0dbe2941dbc4","655cb8bec76174f27e375d25","null","
        
        <div style=""text-align: center; position: fixed; top: 5vh; left: 40vw;"">
            <div style=""margin:0 auto; width: 20vw; top: 8vh; font-size: 2vw""> 
            <font color=""green""> Bonus : $10 </font>
            </div>
        </div>
    
        <img class=""stim"" src=./stimuli//pack_shapes_diff/cat_1/diff_1/ex_1_1_5.png></img>
    ","null","stimulus","","","","","","",""
"","","","","","html-keyboard-response","42","125535","0.0-5.0-2.7","60e9645361b411f90370a970","655cb802637e0dbe2941dbc4","655cb8bec76174f27e375d25","null","
        <div style=""text-align: center; position: fixed; top: 5vh; left: 40vw;"">
            <div style=""margin:0 auto; width: 20vw; top: 8vh; font-size: 2vw""> 
            <font color=""green""> Bonus : $10 </font>
            </div>
        </div>
    ","null","","","","","","","",""
"","","","","","html-keyboard-response","43","129537","0.0-5.0-3.7","60e9645361b411f90370a970","655cb802637e0dbe2941dbc4","655cb8bec76174f27e375d25","null","./stimuli//pack_shapes_diff/cat_1/diff_1/ex_1_1_5.png","null","response","ArrowLeft","5","1","1","train","false",""
"","","","","","html-keyboard-response","44","131038","0.0-5.0-4.7","60e9645361b411f90370a970","655cb802637e0dbe2941dbc4","655cb8bec76174f27e375d25","null","<p> <font color=""red"" size=""5vw""> Time out! </font> <br> Please try to respond as quickly as possible. </p>","null","feedback","","","","","","","10"
"","","","","","html-keyboard-response","45","132227","0.0-5.0-0.8","60e9645361b411f90370a970","655cb802637e0dbe2941dbc4","655cb8bec76174f27e375d25","1188","
            
        <div style=""text-align: center; position: fixed; top: 5vh; left: 40vw;"">
            <div style=""margin:0 auto; width: 20vw; top: 8vh; font-size: 2vw""> 
            <font color=""green""> Bonus : $10 </font>
            </div>
        </div>
    
            <div> Please press any key to continue to the next image.</div>
        ","a","ITI","","","","","","",""
"","","","","","html-keyboard-response","46","132830","0.0-5.0-1.8","60e9645361b411f90370a970","655cb802637e0dbe2941dbc4","655cb8bec76174f27e375d25","null","
        
        <div style=""text-align: center; position: fixed; top: 5vh; left: 40vw;"">
            <div style=""margin:0 auto; width: 20vw; top: 8vh; font-size: 2vw""> 
            <font color=""green""> Bonus : $10 </font>
            </div>
        </div>
    
        <img class=""stim"" src=./stimuli//pack_shapes_diff/cat_1/diff_2/ex_1_2_2.png></img>
    ","null","stimulus","","","","","","",""
"","","","","","html-keyboard-response","47","133832","0.0-5.0-2.8","60e9645361b411f90370a970","655cb802637e0dbe2941dbc4","655cb8bec76174f27e375d25","null","
        <div style=""text-align: center; position: fixed; top: 5vh; left: 40vw;"">
            <div style=""margin:0 auto; width: 20vw; top: 8vh; font-size: 2vw""> 
            <font color=""green""> Bonus : $10 </font>
            </div>
        </div>
    ","null","","","","","","","",""
"","","","","","html-keyboard-response","48","137834","0.0-5.0-3.8","60e9645361b411f90370a970","655cb802637e0dbe2941dbc4","655cb8bec76174f27e375d25","null","./stimuli//pack_shapes_diff/cat_1/diff_2/ex_1_2_2.png","null","response","ArrowLeft","2","1","2","train","false",""
"","","","","","html-keyboard-response","49","138119","0.0-5.0-4.8","60e9645361b411f90370a970","655cb802637e0dbe2941dbc4","655cb8bec76174f27e375d25","283","<p> <font color=""red"" size=""5vw""> Time out! </font> <br> Please try to respond as quickly as possible. </p>","l","feedback","","","","","","","10"
"","","","","","html-keyboard-response","50","139738","0.0-5.0-0.9","60e9645361b411f90370a970","655cb802637e0dbe2941dbc4","655cb8bec76174f27e375d25","1618","
            
        <div style=""text-align: center; position: fixed; top: 5vh; left: 40vw;"">
            <div style=""margin:0 auto; width: 20vw; top: 8vh; font-size: 2vw""> 
            <font color=""green""> Bonus : $10 </font>
            </div>
        </div>
    
            <div> Please press any key to continue to the next image.</div>
        ","k","ITI","","","","","","",""
"","","","","","html-keyboard-response","51","140340","0.0-5.0-1.9","60e9645361b411f90370a970","655cb802637e0dbe2941dbc4","655cb8bec76174f27e375d25","null","
        
        <div style=""text-align: center; position: fixed; top: 5vh; left: 40vw;"">
            <div style=""margin:0 auto; width: 20vw; top: 8vh; font-size: 2vw""> 
            <font color=""green""> Bonus : $10 </font>
            </div>
        </div>
    
        <img class=""stim"" src=./stimuli//pack_shapes_diff/cat_2/diff_2/ex_2_2_14.png></img>
    ","null","stimulus","","","","","","",""
"","","","","","html-keyboard-response","52","141341","0.0-5.0-2.9","60e9645361b411f90370a970","655cb802637e0dbe2941dbc4","655cb8bec76174f27e375d25","null","
        <div style=""text-align: center; position: fixed; top: 5vh; left: 40vw;"">
            <div style=""margin:0 auto; width: 20vw; top: 8vh; font-size: 2vw""> 
            <font color=""green""> Bonus : $10 </font>
            </div>
        </div>
    ","null","","","","","","","",""
"","","","","","html-keyboard-response","53","145343","0.0-5.0-3.9","60e9645361b411f90370a970","655cb802637e0dbe2941dbc4","655cb8bec76174f27e375d25","null","./stimuli//pack_shapes_diff/cat_2/diff_2/ex_2_2_14.png","null","response","ArrowRight","14","2","2","train","false",""
"","","","","","html-keyboard-response","54","146610","0.0-5.0-4.9","60e9645361b411f90370a970","655cb802637e0dbe2941dbc4","655cb8bec76174f27e375d25","1266","<p> <font color=""red"" size=""5vw""> Time out! </font> <br> Please try to respond as quickly as possible. </p>","i","feedback","","","","","","","10"
"","","","","","html-keyboard-response","55","159541","0.0-6.0","60e9645361b411f90370a970","655cb802637e0dbe2941dbc4","655cb8bec76174f27e375d25","12929","
            <b> <p> The practice round has finished.</p>
            <b> For the rest of the experiment if you guess incorrectly $0.05 will be subtracted from your bonus!</b>
            <p> Press any key to begin the test. </p>
            ","i","intermission","","","","","","",""
"","","","","","html-keyboard-response","56","162168","0.0-7.0-0.0","60e9645361b411f90370a970","655cb802637e0dbe2941dbc4","655cb8bec76174f27e375d25","2626","
            
        <div style=""text-align: center; position: fixed; top: 5vh; left: 40vw;"">
            <div style=""margin:0 auto; width: 20vw; top: 8vh; font-size: 2vw""> 
            <font color=""green""> Bonus : $10 </font>
            </div>
        </div>
    
            <div> Please press any key to continue to the next image.</div>
        ","i","ITI","","","","","","",""
"","","","","","html-keyboard-response","57","162771","0.0-7.0-1.0","60e9645361b411f90370a970","655cb802637e0dbe2941dbc4","655cb8bec76174f27e375d25","null","
        
        <div style=""text-align: center; position: fixed; top: 5vh; left: 40vw;"">
            <div style=""margin:0 auto; width: 20vw; top: 8vh; font-size: 2vw""> 
            <font color=""green""> Bonus : $10 </font>
            </div>
        </div>
    
        <img class=""stim"" src=./stimuli//pack_shapes_diff/cat_1/diff_1/ex_1_1_4.png></img>
    ","null","stimulus","","","","","","",""
"","","","","","html-keyboard-response","58","163773","0.0-7.0-2.0","60e9645361b411f90370a970","655cb802637e0dbe2941dbc4","655cb8bec76174f27e375d25","null","
        <div style=""text-align: center; position: fixed; top: 5vh; left: 40vw;"">
            <div style=""margin:0 auto; width: 20vw; top: 8vh; font-size: 2vw""> 
            <font color=""green""> Bonus : $10 </font>
            </div>
        </div>
    ","null","","","","","","","",""
"","","","","","html-keyboard-response","59","167775","0.0-7.0-3.0","60e9645361b411f90370a970","655cb802637e0dbe2941dbc4","655cb8bec76174f27e375d25","null","./stimuli//pack_shapes_diff/cat_1/diff_1/ex_1_1_4.png","null","response","ArrowLeft","4","1","1","test","false",""
"","","","","","html-keyboard-response","60","169277","0.0-7.0-4.0","60e9645361b411f90370a970","655cb802637e0dbe2941dbc4","655cb8bec76174f27e375d25","null","<p> <font color=""red"" size=""5vw""> Time out! </font> <br> <font color=""red"" size=""7vw""> - $0.05 points </font> <br> Please try to respond as quickly as possible. </p>","null","feedback","","","","","","","9.95"
"","","","","","html-keyboard-response","61","171878","0.0-7.1-0.1","60e9645361b411f90370a970","655cb802637e0dbe2941dbc4","655cb8bec76174f27e375d25","2599","
            
        <div style=""text-align: center; position: fixed; top: 5vh; left: 40vw;"">
            <div style=""margin:0 auto; width: 20vw; top: 8vh; font-size: 2vw""> 
            <font color=""green""> Bonus : $9.95 </font>
            </div>
        </div>
    
            <div> Please press any key to continue to the next image.</div>
        ","k","ITI","","","","","","",""
"","","","","","html-keyboard-response","62","172480","0.0-7.1-1.1","60e9645361b411f90370a970","655cb802637e0dbe2941dbc4","655cb8bec76174f27e375d25","null","
        
        <div style=""text-align: center; position: fixed; top: 5vh; left: 40vw;"">
            <div style=""margin:0 auto; width: 20vw; top: 8vh; font-size: 2vw""> 
            <font color=""green""> Bonus : $9.95 </font>
            </div>
        </div>
    
        <img class=""stim"" src=./stimuli//pack_shapes_diff/cat_1/diff_1/ex_1_1_15.png></img>
    ","null","stimulus","","","","","","",""
"","","","","","html-keyboard-response","63","173482","0.0-7.1-2.1","60e9645361b411f90370a970","655cb802637e0dbe2941dbc4","655cb8bec76174f27e375d25","null","
        <div style=""text-align: center; position: fixed; top: 5vh; left: 40vw;"">
            <div style=""margin:0 auto; width: 20vw; top: 8vh; font-size: 2vw""> 
            <font color=""green""> Bonus : $9.95 </font>
            </div>
        </div>
    ","null","","","","","","","",""
"","","","","","html-keyboard-response","64","177485","0.0-7.1-3.1","60e9645361b411f90370a970","655cb802637e0dbe2941dbc4","655cb8bec76174f27e375d25","null","./stimuli//pack_shapes_diff/cat_1/diff_1/ex_1_1_15.png","null","response","ArrowLeft","15","1","1","test","false",""
"","","","","","html-keyboard-response","65","178986","0.0-7.1-4.1","60e9645361b411f90370a970","655cb802637e0dbe2941dbc4","655cb8bec76174f27e375d25","null","<p> <font color=""red"" size=""5vw""> Time out! </font> <br> <font color=""red"" size=""7vw""> - $0.05 points </font> <br> Please try to respond as quickly as possible. </p>","null","feedback","","","","","","","9.9"
"","","","","","html-keyboard-response","66","179034","0.0-7.2-0.2","60e9645361b411f90370a970","655cb802637e0dbe2941dbc4","655cb8bec76174f27e375d25","47","
            
        <div style=""text-align: center; position: fixed; top: 5vh; left: 40vw;"">
            <div style=""margin:0 auto; width: 20vw; top: 8vh; font-size: 2vw""> 
            <font color=""green""> Bonus : $9.9 </font>
            </div>
        </div>
    
            <div> Please press any key to continue to the next image.</div>
        ","9","ITI","","","","","","",""
"","","","","","html-keyboard-response","67","179636","0.0-7.2-1.2","60e9645361b411f90370a970","655cb802637e0dbe2941dbc4","655cb8bec76174f27e375d25","null","
        
        <div style=""text-align: center; position: fixed; top: 5vh; left: 40vw;"">
            <div style=""margin:0 auto; width: 20vw; top: 8vh; font-size: 2vw""> 
            <font color=""green""> Bonus : $9.9 </font>
            </div>
        </div>
    
        <img class=""stim"" src=./stimuli//pack_shapes_diff/cat_1/diff_1/ex_1_1_12.png></img>
    ","null","stimulus","","","","","","",""
"","","","","","html-keyboard-response","68","180640","0.0-7.2-2.2","60e9645361b411f90370a970","655cb802637e0dbe2941dbc4","655cb8bec76174f27e375d25","null","
        <div style=""text-align: center; position: fixed; top: 5vh; left: 40vw;"">
            <div style=""margin:0 auto; width: 20vw; top: 8vh; font-size: 2vw""> 
            <font color=""green""> Bonus : $9.9 </font>
            </div>
        </div>
    ","null","","","","","","","",""
"","","","","","html-keyboard-response","69","184641","0.0-7.2-3.2","60e9645361b411f90370a970","655cb802637e0dbe2941dbc4","655cb8bec76174f27e375d25","null","./stimuli//pack_shapes_diff/cat_1/diff_1/ex_1_1_12.png","null","response","ArrowLeft","12","1","1","test","false",""
"","","","","","html-keyboard-response","70","186143","0.0-7.2-4.2","60e9645361b411f90370a970","655cb802637e0dbe2941dbc4","655cb8bec76174f27e375d25","null","<p> <font color=""red"" size=""5vw""> Time out! </font> <br> <font color=""red"" size=""7vw""> - $0.05 points </font> <br> Please try to respond as quickly as possible. </p>","null","feedback","","","","","","","9.85"
"","","","","","html-keyboard-response","71","191145","0.0-7.3-0.3","60e9645361b411f90370a970","655cb802637e0dbe2941dbc4","655cb8bec76174f27e375d25","null","
            
        <div style=""text-align: center; position: fixed; top: 5vh; left: 40vw;"">
            <div style=""margin:0 auto; width: 20vw; top: 8vh; font-size: 2vw""> 
            <font color=""green""> Bonus : $9.85 </font>
            </div>
        </div>
    
            <div> Please press any key to continue to the next image.</div>
        ","null","ITI","","","","","","",""
"","","","","","html-keyboard-response","72","191747","0.0-7.3-1.3","60e9645361b411f90370a970","655cb802637e0dbe2941dbc4","655cb8bec76174f27e375d25","null","
        
        <div style=""text-align: center; position: fixed; top: 5vh; left: 40vw;"">
            <div style=""margin:0 auto; width: 20vw; top: 8vh; font-size: 2vw""> 
            <font color=""green""> Bonus : $9.85 </font>
            </div>
        </div>
    
        <img class=""stim"" src=./stimuli//pack_shapes_diff/cat_2/diff_1/ex_2_1_9.png></img>
    ","null","stimulus","","","","","","",""
"","","","","","html-keyboard-response","73","192749","0.0-7.3-2.3","60e9645361b411f90370a970","655cb802637e0dbe2941dbc4","655cb8bec76174f27e375d25","null","
        <div style=""text-align: center; position: fixed; top: 5vh; left: 40vw;"">
            <div style=""margin:0 auto; width: 20vw; top: 8vh; font-size: 2vw""> 
            <font color=""green""> Bonus : $9.85 </font>
            </div>
        </div>
    ","null","","","","","","","",""
"","","","","","html-keyboard-response","74","196751","0.0-7.3-3.3","60e9645361b411f90370a970","655cb802637e0dbe2941dbc4","655cb8bec76174f27e375d25","null","./stimuli//pack_shapes_diff/cat_2/diff_1/ex_2_1_9.png","null","response","ArrowRight","9","2","1","test","false",""
"","","","","","html-keyboard-response","75","198252","0.0-7.3-4.3","60e9645361b411f90370a970","655cb802637e0dbe2941dbc4","655cb8bec76174f27e375d25","null","<p> <font color=""red"" size=""5vw""> Time out! </font> <br> <font color=""red"" size=""7vw""> - $0.05 points </font> <br> Please try to respond as quickly as possible. </p>","null","feedback","","","","","","","9.8"
"","","","","","html-keyboard-response","76","200357","0.0-7.4-0.4","60e9645361b411f90370a970","655cb802637e0dbe2941dbc4","655cb8bec76174f27e375d25","2104","
            
        <div style=""text-align: center; position: fixed; top: 5vh; left: 40vw;"">
            <div style=""margin:0 auto; width: 20vw; top: 8vh; font-size: 2vw""> 
            <font color=""green""> Bonus : $9.8 </font>
            </div>
        </div>
    
            <div> Please press any key to continue to the next image.</div>
        ","a","ITI","","","","","","",""
"","","","","","html-keyboard-response","77","200957","0.0-7.4-1.4","60e9645361b411f90370a970","655cb802637e0dbe2941dbc4","655cb8bec76174f27e375d25","null","
        
        <div style=""text-align: center; position: fixed; top: 5vh; left: 40vw;"">
            <div style=""margin:0 auto; width: 20vw; top: 8vh; font-size: 2vw""> 
            <font color=""green""> Bonus : $9.8 </font>
            </div>
        </div>
    
        <img class=""stim"" src=./stimuli//pack_shapes_diff/cat_1/diff_1/ex_1_1_2.png></img>
    ","null","stimulus","","","","","","",""
"","","","","","html-keyboard-response","78","201958","0.0-7.4-2.4","60e9645361b411f90370a970","655cb802637e0dbe2941dbc4","655cb8bec76174f27e375d25","null","
        <div style=""text-align: center; position: fixed; top: 5vh; left: 40vw;"">
            <div style=""margin:0 auto; width: 20vw; top: 8vh; font-size: 2vw""> 
            <font color=""green""> Bonus : $9.8 </font>
            </div>
        </div>
    ","null","","","","","","","",""
"","","","","","html-keyboard-response","79","205961","0.0-7.4-3.4","60e9645361b411f90370a970","655cb802637e0dbe2941dbc4","655cb8bec76174f27e375d25","null","./stimuli//pack_shapes_diff/cat_1/diff_1/ex_1_1_2.png","null","response","ArrowLeft","2","1","1","test","false",""
"","","","","","html-keyboard-response","80","206918","0.0-7.4-4.4","60e9645361b411f90370a970","655cb802637e0dbe2941dbc4","655cb8bec76174f27e375d25","955","<p> <font color=""red"" size=""5vw""> Time out! </font> <br> <font color=""red"" size=""7vw""> - $0.05 points </font> <br> Please try to respond as quickly as possible. </p>"," ","feedback","","","","","","","9.75"
"","","","","","html-keyboard-response","81","207716","0.0-7.5-0.5","60e9645361b411f90370a970","655cb802637e0dbe2941dbc4","655cb8bec76174f27e375d25","796","
            
        <div style=""text-align: center; position: fixed; top: 5vh; left: 40vw;"">
            <div style=""margin:0 auto; width: 20vw; top: 8vh; font-size: 2vw""> 
            <font color=""green""> Bonus : $9.75 </font>
            </div>
        </div>
    
            <div> Please press any key to continue to the next image.</div>
        "," ","ITI","","","","","","",""
"","","","","","html-keyboard-response","82","208318","0.0-7.5-1.5","60e9645361b411f90370a970","655cb802637e0dbe2941dbc4","655cb8bec76174f27e375d25","null","
        
        <div style=""text-align: center; position: fixed; top: 5vh; left: 40vw;"">
            <div style=""margin:0 auto; width: 20vw; top: 8vh; font-size: 2vw""> 
            <font color=""green""> Bonus : $9.75 </font>
            </div>
        </div>
    
        <img class=""stim"" src=./stimuli//pack_shapes_diff/cat_2/diff_1/ex_2_1_12.png></img>
    ","null","stimulus","","","","","","",""
"","","","","","html-keyboard-response","83","209319","0.0-7.5-2.5","60e9645361b411f90370a970","655cb802637e0dbe2941dbc4","655cb8bec76174f27e375d25","null","
        <div style=""text-align: center; position: fixed; top: 5vh; left: 40vw;"">
            <div style=""margin:0 auto; width: 20vw; top: 8vh; font-size: 2vw""> 
            <font color=""green""> Bonus : $9.75 </font>
            </div>
        </div>
    ","null","","","","","","","",""
"","","","","","html-keyboard-response","84","213320","0.0-7.5-3.5","60e9645361b411f90370a970","655cb802637e0dbe2941dbc4","655cb8bec76174f27e375d25","null","./stimuli//pack_shapes_diff/cat_2/diff_1/ex_2_1_12.png","null","response","ArrowRight","12","2","1","test","false",""
"","","","","","html-keyboard-response","85","214821","0.0-7.5-4.5","60e9645361b411f90370a970","655cb802637e0dbe2941dbc4","655cb8bec76174f27e375d25","null","<p> <font color=""red"" size=""5vw""> Time out! </font> <br> <font color=""red"" size=""7vw""> - $0.05 points </font> <br> Please try to respond as quickly as possible. </p>","null","feedback","","","","","","","9.7"
"","","","","","html-keyboard-response","86","215873","0.0-7.6-0.6","60e9645361b411f90370a970","655cb802637e0dbe2941dbc4","655cb8bec76174f27e375d25","1052","
            
        <div style=""text-align: center; position: fixed; top: 5vh; left: 40vw;"">
            <div style=""margin:0 auto; width: 20vw; top: 8vh; font-size: 2vw""> 
            <font color=""green""> Bonus : $9.7 </font>
            </div>
        </div>
    
            <div> Please press any key to continue to the next image.</div>
        ","0","ITI","","","","","","",""
"","","","","","html-keyboard-response","87","216475","0.0-7.6-1.6","60e9645361b411f90370a970","655cb802637e0dbe2941dbc4","655cb8bec76174f27e375d25","null","
        
        <div style=""text-align: center; position: fixed; top: 5vh; left: 40vw;"">
            <div style=""margin:0 auto; width: 20vw; top: 8vh; font-size: 2vw""> 
            <font color=""green""> Bonus : $9.7 </font>
            </div>
        </div>
    
        <img class=""stim"" src=./stimuli//pack_shapes_diff/cat_2/diff_1/ex_2_1_9.png></img>
    ","null","stimulus","","","","","","",""
"","","","","","html-keyboard-response","88","217476","0.0-7.6-2.6","60e9645361b411f90370a970","655cb802637e0dbe2941dbc4","655cb8bec76174f27e375d25","null","
        <div style=""text-align: center; position: fixed; top: 5vh; left: 40vw;"">
            <div style=""margin:0 auto; width: 20vw; top: 8vh; font-size: 2vw""> 
            <font color=""green""> Bonus : $9.7 </font>
            </div>
        </div>
    ","null","","","","","","","",""
"","","","","","html-keyboard-response","89","221479","0.0-7.6-3.6","60e9645361b411f90370a970","655cb802637e0dbe2941dbc4","655cb8bec76174f27e375d25","null","./stimuli//pack_shapes_diff/cat_2/diff_1/ex_2_1_9.png","null","response","ArrowRight","9","2","1","test","false",""
"","","","","","html-keyboard-response","90","221671","0.0-7.6-4.6","60e9645361b411f90370a970","655cb802637e0dbe2941dbc4","655cb8bec76174f27e375d25","192","<p> <font color=""red"" size=""5vw""> Time out! </font> <br> <font color=""red"" size=""7vw""> - $0.05 points </font> <br> Please try to respond as quickly as possible. </p>","4","feedback","","","","","","","9.65"
"","","","","","html-keyboard-response","91","222771","0.0-7.7-0.7","60e9645361b411f90370a970","655cb802637e0dbe2941dbc4","655cb8bec76174f27e375d25","1099","
            
        <div style=""text-align: center; position: fixed; top: 5vh; left: 40vw;"">
            <div style=""margin:0 auto; width: 20vw; top: 8vh; font-size: 2vw""> 
            <font color=""green""> Bonus : $9.65 </font>
            </div>
        </div>
    
            <div> Please press any key to continue to the next image.</div>
        ","5","ITI","","","","","","",""
"","","","","","html-keyboard-response","92","223372","0.0-7.7-1.7","60e9645361b411f90370a970","655cb802637e0dbe2941dbc4","655cb8bec76174f27e375d25","null","
        
        <div style=""text-align: center; position: fixed; top: 5vh; left: 40vw;"">
            <div style=""margin:0 auto; width: 20vw; top: 8vh; font-size: 2vw""> 
            <font color=""green""> Bonus : $9.65 </font>
            </div>
        </div>
    
        <img class=""stim"" src=./stimuli//pack_shapes_diff/cat_2/diff_1/ex_2_1_5.png></img>
    ","null","stimulus","","","","","","",""
"","","","","","html-keyboard-response","93","224374","0.0-7.7-2.7","60e9645361b411f90370a970","655cb802637e0dbe2941dbc4","655cb8bec76174f27e375d25","null","
        <div style=""text-align: center; position: fixed; top: 5vh; left: 40vw;"">
            <div style=""margin:0 auto; width: 20vw; top: 8vh; font-size: 2vw""> 
            <font color=""green""> Bonus : $9.65 </font>
            </div>
        </div>
    ","null","","","","","","","",""
"","","","","","html-keyboard-response","94","228376","0.0-7.7-3.7","60e9645361b411f90370a970","655cb802637e0dbe2941dbc4","655cb8bec76174f27e375d25","null","./stimuli//pack_shapes_diff/cat_2/diff_1/ex_2_1_5.png","null","response","ArrowRight","5","2","1","test","false",""
"","","","","","html-keyboard-response","95","229878","0.0-7.7-4.7","60e9645361b411f90370a970","655cb802637e0dbe2941dbc4","655cb8bec76174f27e375d25","null","<p> <font color=""red"" size=""5vw""> Time out! </font> <br> <font color=""red"" size=""7vw""> - $0.05 points </font> <br> Please try to respond as quickly as possible. </p>","null","feedback","","","","","","","9.6"
"","","","","","html-keyboard-response","96","233030","0.0-7.8-0.8","60e9645361b411f90370a970","655cb802637e0dbe2941dbc4","655cb8bec76174f27e375d25","3151","
            
        <div style=""text-align: center; position: fixed; top: 5vh; left: 40vw;"">
            <div style=""margin:0 auto; width: 20vw; top: 8vh; font-size: 2vw""> 
            <font color=""green""> Bonus : $9.6 </font>
            </div>
        </div>
    
            <div> Please press any key to continue to the next image.</div>
        ","5","ITI","","","","","","",""
"","","","","","html-keyboard-response","97","233632","0.0-7.8-1.8","60e9645361b411f90370a970","655cb802637e0dbe2941dbc4","655cb8bec76174f27e375d25","null","
        
        <div style=""text-align: center; position: fixed; top: 5vh; left: 40vw;"">
            <div style=""margin:0 auto; width: 20vw; top: 8vh; font-size: 2vw""> 
            <font color=""green""> Bonus : $9.6 </font>
            </div>
        </div>
    
        <img class=""stim"" src=./stimuli//pack_shapes_diff/cat_2/diff_1/ex_2_1_1.png></img>
    ","null","stimulus","","","","","","",""
"","","","","","html-keyboard-response","98","234633","0.0-7.8-2.8","60e9645361b411f90370a970","655cb802637e0dbe2941dbc4","655cb8bec76174f27e375d25","null","
        <div style=""text-align: center; position: fixed; top: 5vh; left: 40vw;"">
            <div style=""margin:0 auto; width: 20vw; top: 8vh; font-size: 2vw""> 
            <font color=""green""> Bonus : $9.6 </font>
            </div>
        </div>
    ","null","","","","","","","",""
"","","","","","html-keyboard-response","99","238637","0.0-7.8-3.8","60e9645361b411f90370a970","655cb802637e0dbe2941dbc4","655cb8bec76174f27e375d25","null","./stimuli//pack_shapes_diff/cat_2/diff_1/ex_2_1_1.png","null","response","ArrowRight","1","2","1","test","false",""
"","","","","","html-keyboard-response","100","238659","0.0-7.8-4.8","60e9645361b411f90370a970","655cb802637e0dbe2941dbc4","655cb8bec76174f27e375d25","21","<p> <font color=""red"" size=""5vw""> Time out! </font> <br> <font color=""red"" size=""7vw""> - $0.05 points </font> <br> Please try to respond as quickly as possible. </p>","b","feedback","","","","","","","9.55"
"","","","","","html-keyboard-response","101","238870","0.0-7.9-0.9","60e9645361b411f90370a970","655cb802637e0dbe2941dbc4","655cb8bec76174f27e375d25","211","
            
        <div style=""text-align: center; position: fixed; top: 5vh; left: 40vw;"">
            <div style=""margin:0 auto; width: 20vw; top: 8vh; font-size: 2vw""> 
            <font color=""green""> Bonus : $9.55 </font>
            </div>
        </div>
    
            <div> Please press any key to continue to the next image.</div>
        ","b","ITI","","","","","","",""
"","","","","","html-keyboard-response","102","239472","0.0-7.9-1.9","60e9645361b411f90370a970","655cb802637e0dbe2941dbc4","655cb8bec76174f27e375d25","null","
        
        <div style=""text-align: center; position: fixed; top: 5vh; left: 40vw;"">
            <div style=""margin:0 auto; width: 20vw; top: 8vh; font-size: 2vw""> 
            <font color=""green""> Bonus : $9.55 </font>
            </div>
        </div>
    
        <img class=""stim"" src=./stimuli//pack_shapes_diff/cat_1/diff_1/ex_1_1_6.png></img>
    ","null","stimulus","","","","","","",""
"","","","","","html-keyboard-response","103","240474","0.0-7.9-2.9","60e9645361b411f90370a970","655cb802637e0dbe2941dbc4","655cb8bec76174f27e375d25","null","
        <div style=""text-align: center; position: fixed; top: 5vh; left: 40vw;"">
            <div style=""margin:0 auto; width: 20vw; top: 8vh; font-size: 2vw""> 
            <font color=""green""> Bonus : $9.55 </font>
            </div>
        </div>
    ","null","","","","","","","",""
"","","","","","html-keyboard-response","104","244475","0.0-7.9-3.9","60e9645361b411f90370a970","655cb802637e0dbe2941dbc4","655cb8bec76174f27e375d25","null","./stimuli//pack_shapes_diff/cat_1/diff_1/ex_1_1_6.png","null","response","ArrowLeft","6","1","1","test","false",""
"","","","","","html-keyboard-response","105","244966","0.0-7.9-4.9","60e9645361b411f90370a970","655cb802637e0dbe2941dbc4","655cb8bec76174f27e375d25","491","<p> <font color=""red"" size=""5vw""> Time out! </font> <br> <font color=""red"" size=""7vw""> - $0.05 points </font> <br> Please try to respond as quickly as possible. </p>","control","feedback","","","","","","","9.5"
"","","","","","html-keyboard-response","106","245899","0.0-7.10-0.10","60e9645361b411f90370a970","655cb802637e0dbe2941dbc4","655cb8bec76174f27e375d25","932","
            
        <div style=""text-align: center; position: fixed; top: 5vh; left: 40vw;"">
            <div style=""margin:0 auto; width: 20vw; top: 8vh; font-size: 2vw""> 
            <font color=""green""> Bonus : $9.5 </font>
            </div>
        </div>
    
            <div> Please press any key to continue to the next image.</div>
        ","control","ITI","","","","","","",""
"","","","","","html-keyboard-response","107","246501","0.0-7.10-1.10","60e9645361b411f90370a970","655cb802637e0dbe2941dbc4","655cb8bec76174f27e375d25","null","
        
        <div style=""text-align: center; position: fixed; top: 5vh; left: 40vw;"">
            <div style=""margin:0 auto; width: 20vw; top: 8vh; font-size: 2vw""> 
            <font color=""green""> Bonus : $9.5 </font>
            </div>
        </div>
    
        <img class=""stim"" src=./stimuli//pack_shapes_diff/cat_1/diff_1/ex_1_1_4.png></img>
    ","null","stimulus","","","","","","",""
"","","","","","html-keyboard-response","108","247503","0.0-7.10-2.10","60e9645361b411f90370a970","655cb802637e0dbe2941dbc4","655cb8bec76174f27e375d25","null","
        <div style=""text-align: center; position: fixed; top: 5vh; left: 40vw;"">
            <div style=""margin:0 auto; width: 20vw; top: 8vh; font-size: 2vw""> 
            <font color=""green""> Bonus : $9.5 </font>
            </div>
        </div>
    ","null","","","","","","","",""
"","","","","","html-keyboard-response","109","251505","0.0-7.10-3.10","60e9645361b411f90370a970","655cb802637e0dbe2941dbc4","655cb8bec76174f27e375d25","null","./stimuli//pack_shapes_diff/cat_1/diff_1/ex_1_1_4.png","null","response","ArrowLeft","4","1","1","test","false",""
"","","","","","html-keyboard-response","110","253007","0.0-7.10-4.10","60e9645361b411f90370a970","655cb802637e0dbe2941dbc4","655cb8bec76174f27e375d25","null","<p> <font color=""red"" size=""5vw""> Time out! </font> <br> <font color=""red"" size=""7vw""> - $0.05 points </font> <br> Please try to respond as quickly as possible. </p>","null","feedback","","","","","","","9.45"
"","","","","","html-keyboard-response","111","254595","0.0-7.11-0.11","60e9645361b411f90370a970","655cb802637e0dbe2941dbc4","655cb8bec76174f27e375d25","1587","
            
        <div style=""text-align: center; position: fixed; top: 5vh; left: 40vw;"">
            <div style=""margin:0 auto; width: 20vw; top: 8vh; font-size: 2vw""> 
            <font color=""green""> Bonus : $9.45 </font>
            </div>
        </div>
    
            <div> Please press any key to continue to the next image.</div>
        ","a","ITI","","","","","","",""
"","","","","","html-keyboard-response","112","255199","0.0-7.11-1.11","60e9645361b411f90370a970","655cb802637e0dbe2941dbc4","655cb8bec76174f27e375d25","null","
        
        <div style=""text-align: center; position: fixed; top: 5vh; left: 40vw;"">
            <div style=""margin:0 auto; width: 20vw; top: 8vh; font-size: 2vw""> 
            <font color=""green""> Bonus : $9.45 </font>
            </div>
        </div>
    
        <img class=""stim"" src=./stimuli//pack_shapes_diff/cat_1/diff_1/ex_1_1_14.png></img>
    ","null","stimulus","","","","","","",""
"","","","","","html-keyboard-response","113","256202","0.0-7.11-2.11","60e9645361b411f90370a970","655cb802637e0dbe2941dbc4","655cb8bec76174f27e375d25","null","
        <div style=""text-align: center; position: fixed; top: 5vh; left: 40vw;"">
            <div style=""margin:0 auto; width: 20vw; top: 8vh; font-size: 2vw""> 
            <font color=""green""> Bonus : $9.45 </font>
            </div>
        </div>
    ","null","","","","","","","",""
"","","","","","html-keyboard-response","114","260204","0.0-7.11-3.11","60e9645361b411f90370a970","655cb802637e0dbe2941dbc4","655cb8bec76174f27e375d25","null","./stimuli//pack_shapes_diff/cat_1/diff_1/ex_1_1_14.png","null","response","ArrowLeft","14","1","1","test","false",""
"","","","","","html-keyboard-response","115","261706","0.0-7.11-4.11","60e9645361b411f90370a970","655cb802637e0dbe2941dbc4","655cb8bec76174f27e375d25","null","<p> <font color=""red"" size=""5vw""> Time out! </font> <br> <font color=""red"" size=""7vw""> - $0.05 points </font> <br> Please try to respond as quickly as possible. </p>","null","feedback","","","","","","","9.4"
"","","","","","html-keyboard-response","116","262445","0.0-7.12-0.12","60e9645361b411f90370a970","655cb802637e0dbe2941dbc4","655cb8bec76174f27e375d25","739","
            
        <div style=""text-align: center; position: fixed; top: 5vh; left: 40vw;"">
            <div style=""margin:0 auto; width: 20vw; top: 8vh; font-size: 2vw""> 
            <font color=""green""> Bonus : $9.4 </font>
            </div>
        </div>
    
            <div> Please press any key to continue to the next image.</div>
        ","a","ITI","","","","","","",""
"","","","","","html-keyboard-response","117","263048","0.0-7.12-1.12","60e9645361b411f90370a970","655cb802637e0dbe2941dbc4","655cb8bec76174f27e375d25","null","
        
        <div style=""text-align: center; position: fixed; top: 5vh; left: 40vw;"">
            <div style=""margin:0 auto; width: 20vw; top: 8vh; font-size: 2vw""> 
            <font color=""green""> Bonus : $9.4 </font>
            </div>
        </div>
    
        <img class=""stim"" src=./stimuli//pack_shapes_diff/cat_1/diff_1/ex_1_1_2.png></img>
    ","null","stimulus","","","","","","",""
"","","","","","html-keyboard-response","118","264050","0.0-7.12-2.12","60e9645361b411f90370a970","655cb802637e0dbe2941dbc4","655cb8bec76174f27e375d25","null","
        <div style=""text-align: center; position: fixed; top: 5vh; left: 40vw;"">
            <div style=""margin:0 auto; width: 20vw; top: 8vh; font-size: 2vw""> 
            <font color=""green""> Bonus : $9.4 </font>
            </div>
        </div>
    ","null","","","","","","","",""
"","","","","","html-keyboard-response","119","268052","0.0-7.12-3.12","60e9645361b411f90370a970","655cb802637e0dbe2941dbc4","655cb8bec76174f27e375d25","null","./stimuli//pack_shapes_diff/cat_1/diff_1/ex_1_1_2.png","null","response","ArrowLeft","2","1","1","test","false",""
"","","","","","html-keyboard-response","120","268637","0.0-7.12-4.12","60e9645361b411f90370a970","655cb802637e0dbe2941dbc4","655cb8bec76174f27e375d25","585","<p> <font color=""red"" size=""5vw""> Time out! </font> <br> <font color=""red"" size=""7vw""> - $0.05 points </font> <br> Please try to respond as quickly as possible. </p>"," ","feedback","","","","","","","9.35"
"","","","","","html-keyboard-response","121","269646","0.0-7.13-0.13","60e9645361b411f90370a970","655cb802637e0dbe2941dbc4","655cb8bec76174f27e375d25","1008","
            
        <div style=""text-align: center; position: fixed; top: 5vh; left: 40vw;"">
            <div style=""margin:0 auto; width: 20vw; top: 8vh; font-size: 2vw""> 
            <font color=""green""> Bonus : $9.35 </font>
            </div>
        </div>
    
            <div> Please press any key to continue to the next image.</div>
        ","alt","ITI","","","","","","",""
"","","","","","html-keyboard-response","122","270247","0.0-7.13-1.13","60e9645361b411f90370a970","655cb802637e0dbe2941dbc4","655cb8bec76174f27e375d25","null","
        
        <div style=""text-align: center; position: fixed; top: 5vh; left: 40vw;"">
            <div style=""margin:0 auto; width: 20vw; top: 8vh; font-size: 2vw""> 
            <font color=""green""> Bonus : $9.35 </font>
            </div>
        </div>
    
        <img class=""stim"" src=./stimuli//pack_shapes_diff/cat_1/diff_1/ex_1_1_16.png></img>
    ","null","stimulus","","","","","","",""
"","","","","","html-keyboard-response","123","271248","0.0-7.13-2.13","60e9645361b411f90370a970","655cb802637e0dbe2941dbc4","655cb8bec76174f27e375d25","null","
        <div style=""text-align: center; position: fixed; top: 5vh; left: 40vw;"">
            <div style=""margin:0 auto; width: 20vw; top: 8vh; font-size: 2vw""> 
            <font color=""green""> Bonus : $9.35 </font>
            </div>
        </div>
    ","null","","","","","","","",""
"","","","","","html-keyboard-response","124","275253","0.0-7.13-3.13","60e9645361b411f90370a970","655cb802637e0dbe2941dbc4","655cb8bec76174f27e375d25","null","./stimuli//pack_shapes_diff/cat_1/diff_1/ex_1_1_16.png","null","response","ArrowLeft","16","1","1","test","false",""
"","","","","","html-keyboard-response","125","276755","0.0-7.13-4.13","60e9645361b411f90370a970","655cb802637e0dbe2941dbc4","655cb8bec76174f27e375d25","null","<p> <font color=""red"" size=""5vw""> Time out! </font> <br> <font color=""red"" size=""7vw""> - $0.05 points </font> <br> Please try to respond as quickly as possible. </p>","null","feedback","","","","","","","9.3"
"","","","","","html-keyboard-response","126","282029","0.0-7.14-0.14","60e9645361b411f90370a970","655cb802637e0dbe2941dbc4","655cb8bec76174f27e375d25","null","
            
        <div style=""text-align: center; position: fixed; top: 5vh; left: 40vw;"">
            <div style=""margin:0 auto; width: 20vw; top: 8vh; font-size: 2vw""> 
            <font color=""green""> Bonus : $9.3 </font>
            </div>
        </div>
    
            <div> Please press any key to continue to the next image.</div>
        ","null","ITI","","","","","","",""
"","","","","","html-keyboard-response","127","283028","0.0-7.14-1.14","60e9645361b411f90370a970","655cb802637e0dbe2941dbc4","655cb8bec76174f27e375d25","null","
        
        <div style=""text-align: center; position: fixed; top: 5vh; left: 40vw;"">
            <div style=""margin:0 auto; width: 20vw; top: 8vh; font-size: 2vw""> 
            <font color=""green""> Bonus : $9.3 </font>
            </div>
        </div>
    
        <img class=""stim"" src=./stimuli//pack_shapes_diff/cat_2/diff_1/ex_2_1_2.png></img>
    ","null","stimulus","","","","","","",""
"","","","","","html-keyboard-response","128","284031","0.0-7.14-2.14","60e9645361b411f90370a970","655cb802637e0dbe2941dbc4","655cb8bec76174f27e375d25","null","
        <div style=""text-align: center; position: fixed; top: 5vh; left: 40vw;"">
            <div style=""margin:0 auto; width: 20vw; top: 8vh; font-size: 2vw""> 
            <font color=""green""> Bonus : $9.3 </font>
            </div>
        </div>
    ","null","","","","","","","",""
"","","","","","html-keyboard-response","129","288032","0.0-7.14-3.14","60e9645361b411f90370a970","655cb802637e0dbe2941dbc4","655cb8bec76174f27e375d25","null","./stimuli//pack_shapes_diff/cat_2/diff_1/ex_2_1_2.png","null","response","ArrowRight","2","2","1","test","false",""
"","","","","","html-keyboard-response","130","289534","0.0-7.14-4.14","60e9645361b411f90370a970","655cb802637e0dbe2941dbc4","655cb8bec76174f27e375d25","null","<p> <font color=""red"" size=""5vw""> Time out! </font> <br> <font color=""red"" size=""7vw""> - $0.05 points </font> <br> Please try to respond as quickly as possible. </p>","null","feedback","","","","","","","9.25"
"","","","","","html-keyboard-response","131","291567","0.0-7.15-0.15","60e9645361b411f90370a970","655cb802637e0dbe2941dbc4","655cb8bec76174f27e375d25","2032","
            
        <div style=""text-align: center; position: fixed; top: 5vh; left: 40vw;"">
            <div style=""margin:0 auto; width: 20vw; top: 8vh; font-size: 2vw""> 
            <font color=""green""> Bonus : $9.25 </font>
            </div>
        </div>
    
            <div> Please press any key to continue to the next image.</div>
        ","alt","ITI","","","","","","",""
"","","","","","html-keyboard-response","132","292171","0.0-7.15-1.15","60e9645361b411f90370a970","655cb802637e0dbe2941dbc4","655cb8bec76174f27e375d25","null","
        
        <div style=""text-align: center; position: fixed; top: 5vh; left: 40vw;"">
            <div style=""margin:0 auto; width: 20vw; top: 8vh; font-size: 2vw""> 
            <font color=""green""> Bonus : $9.25 </font>
            </div>
        </div>
    
        <img class=""stim"" src=./stimuli//pack_shapes_diff/cat_1/diff_1/ex_1_1_8.png></img>
    ","null","stimulus","","","","","","",""
"","","","","","html-keyboard-response","133","293172","0.0-7.15-2.15","60e9645361b411f90370a970","655cb802637e0dbe2941dbc4","655cb8bec76174f27e375d25","null","
        <div style=""text-align: center; position: fixed; top: 5vh; left: 40vw;"">
            <div style=""margin:0 auto; width: 20vw; top: 8vh; font-size: 2vw""> 
            <font color=""green""> Bonus : $9.25 </font>
            </div>
        </div>
    ","null","","","","","","","",""
"","","","","","html-keyboard-response","134","297173","0.0-7.15-3.15","60e9645361b411f90370a970","655cb802637e0dbe2941dbc4","655cb8bec76174f27e375d25","null","./stimuli//pack_shapes_diff/cat_1/diff_1/ex_1_1_8.png","null","response","ArrowLeft","8","1","1","test","false",""
"","","","","","html-keyboard-response","135","298676","0.0-7.15-4.15","60e9645361b411f90370a970","655cb802637e0dbe2941dbc4","655cb8bec76174f27e375d25","null","<p> <font color=""red"" size=""5vw""> Time out! </font> <br> <font color=""red"" size=""7vw""> - $0.05 points </font> <br> Please try to respond as quickly as possible. </p>","null","feedback","","","","","","","9.2"
"","","","","","html-keyboard-response","136","300035","0.0-7.16-0.16","60e9645361b411f90370a970","655cb802637e0dbe2941dbc4","655cb8bec76174f27e375d25","1359","
            
        <div style=""text-align: center; position: fixed; top: 5vh; left: 40vw;"">
            <div style=""margin:0 auto; width: 20vw; top: 8vh; font-size: 2vw""> 
            <font color=""green""> Bonus : $9.2 </font>
            </div>
        </div>
    
            <div> Please press any key to continue to the next image.</div>
        ","c","ITI","","","","","","",""
"","","","","","html-keyboard-response","137","300636","0.0-7.16-1.16","60e9645361b411f90370a970","655cb802637e0dbe2941dbc4","655cb8bec76174f27e375d25","null","
        
        <div style=""text-align: center; position: fixed; top: 5vh; left: 40vw;"">
            <div style=""margin:0 auto; width: 20vw; top: 8vh; font-size: 2vw""> 
            <font color=""green""> Bonus : $9.2 </font>
            </div>
        </div>
    
        <img class=""stim"" src=./stimuli//pack_shapes_diff/cat_1/diff_1/ex_1_1_7.png></img>
    ","null","stimulus","","","","","","",""
"","","","","","html-keyboard-response","138","301637","0.0-7.16-2.16","60e9645361b411f90370a970","655cb802637e0dbe2941dbc4","655cb8bec76174f27e375d25","null","
        <div style=""text-align: center; position: fixed; top: 5vh; left: 40vw;"">
            <div style=""margin:0 auto; width: 20vw; top: 8vh; font-size: 2vw""> 
            <font color=""green""> Bonus : $9.2 </font>
            </div>
        </div>
    ","null","","","","","","","",""
"","","","","","html-keyboard-response","139","305638","0.0-7.16-3.16","60e9645361b411f90370a970","655cb802637e0dbe2941dbc4","655cb8bec76174f27e375d25","null","./stimuli//pack_shapes_diff/cat_1/diff_1/ex_1_1_7.png","null","response","ArrowLeft","7","1","1","test","false",""
"","","","","","html-keyboard-response","140","307141","0.0-7.16-4.16","60e9645361b411f90370a970","655cb802637e0dbe2941dbc4","655cb8bec76174f27e375d25","null","<p> <font color=""red"" size=""5vw""> Time out! </font> <br> <font color=""red"" size=""7vw""> - $0.05 points </font> <br> Please try to respond as quickly as possible. </p>","null","feedback","","","","","","","9.15"
"","","","","","html-keyboard-response","141","307814","0.0-7.17-0.17","60e9645361b411f90370a970","655cb802637e0dbe2941dbc4","655cb8bec76174f27e375d25","672","
            
        <div style=""text-align: center; position: fixed; top: 5vh; left: 40vw;"">
            <div style=""margin:0 auto; width: 20vw; top: 8vh; font-size: 2vw""> 
            <font color=""green""> Bonus : $9.15 </font>
            </div>
        </div>
    
            <div> Please press any key to continue to the next image.</div>
        ","d","ITI","","","","","","",""
"","","","","","html-keyboard-response","142","308415","0.0-7.17-1.17","60e9645361b411f90370a970","655cb802637e0dbe2941dbc4","655cb8bec76174f27e375d25","null","
        
        <div style=""text-align: center; position: fixed; top: 5vh; left: 40vw;"">
            <div style=""margin:0 auto; width: 20vw; top: 8vh; font-size: 2vw""> 
            <font color=""green""> Bonus : $9.15 </font>
            </div>
        </div>
    
        <img class=""stim"" src=./stimuli//pack_shapes_diff/cat_1/diff_1/ex_1_1_4.png></img>
    ","null","stimulus","","","","","","",""
"","","","","","html-keyboard-response","143","309417","0.0-7.17-2.17","60e9645361b411f90370a970","655cb802637e0dbe2941dbc4","655cb8bec76174f27e375d25","null","
        <div style=""text-align: center; position: fixed; top: 5vh; left: 40vw;"">
            <div style=""margin:0 auto; width: 20vw; top: 8vh; font-size: 2vw""> 
            <font color=""green""> Bonus : $9.15 </font>
            </div>
        </div>
    ","null","","","","","","","",""
"","","","","","html-keyboard-response","144","313419","0.0-7.17-3.17","60e9645361b411f90370a970","655cb802637e0dbe2941dbc4","655cb8bec76174f27e375d25","null","./stimuli//pack_shapes_diff/cat_1/diff_1/ex_1_1_4.png","null","response","ArrowLeft","4","1","1","test","false",""
"","","","","","html-keyboard-response","145","314485","0.0-7.17-4.17","60e9645361b411f90370a970","655cb802637e0dbe2941dbc4","655cb8bec76174f27e375d25","1066","<p> <font color=""red"" size=""5vw""> Time out! </font> <br> <font color=""red"" size=""7vw""> - $0.05 points </font> <br> Please try to respond as quickly as possible. </p>","g","feedback","","","","","","","9.1"
"","","","","","html-keyboard-response","146","315375","0.0-7.18-0.18","60e9645361b411f90370a970","655cb802637e0dbe2941dbc4","655cb8bec76174f27e375d25","889","
            
        <div style=""text-align: center; position: fixed; top: 5vh; left: 40vw;"">
            <div style=""margin:0 auto; width: 20vw; top: 8vh; font-size: 2vw""> 
            <font color=""green""> Bonus : $9.1 </font>
            </div>
        </div>
    
            <div> Please press any key to continue to the next image.</div>
        ","d","ITI","","","","","","",""
"","","","","","html-keyboard-response","147","315978","0.0-7.18-1.18","60e9645361b411f90370a970","655cb802637e0dbe2941dbc4","655cb8bec76174f27e375d25","null","
        
        <div style=""text-align: center; position: fixed; top: 5vh; left: 40vw;"">
            <div style=""margin:0 auto; width: 20vw; top: 8vh; font-size: 2vw""> 
            <font color=""green""> Bonus : $9.1 </font>
            </div>
        </div>
    
        <img class=""stim"" src=./stimuli//pack_shapes_diff/cat_1/diff_1/ex_1_1_2.png></img>
    ","null","stimulus","","","","","","",""
"","","","","","html-keyboard-response","148","316981","0.0-7.18-2.18","60e9645361b411f90370a970","655cb802637e0dbe2941dbc4","655cb8bec76174f27e375d25","null","
        <div style=""text-align: center; position: fixed; top: 5vh; left: 40vw;"">
            <div style=""margin:0 auto; width: 20vw; top: 8vh; font-size: 2vw""> 
            <font color=""green""> Bonus : $9.1 </font>
            </div>
        </div>
    ","null","","","","","","","",""
"","","","","","html-keyboard-response","149","320984","0.0-7.18-3.18","60e9645361b411f90370a970","655cb802637e0dbe2941dbc4","655cb8bec76174f27e375d25","null","./stimuli//pack_shapes_diff/cat_1/diff_1/ex_1_1_2.png","null","response","ArrowLeft","2","1","1","test","false",""
"","","","","","html-keyboard-response","150","322151","0.0-7.18-4.18","60e9645361b411f90370a970","655cb802637e0dbe2941dbc4","655cb8bec76174f27e375d25","1166","<p> <font color=""red"" size=""5vw""> Time out! </font> <br> <font color=""red"" size=""7vw""> - $0.05 points </font> <br> Please try to respond as quickly as possible. </p>","d","feedback","","","","","","","9.05"
"","","","","","html-keyboard-response","151","322714","0.0-7.19-0.19","60e9645361b411f90370a970","655cb802637e0dbe2941dbc4","655cb8bec76174f27e375d25","562","
            
        <div style=""text-align: center; position: fixed; top: 5vh; left: 40vw;"">
            <div style=""margin:0 auto; width: 20vw; top: 8vh; font-size: 2vw""> 
            <font color=""green""> Bonus : $9.05 </font>
            </div>
        </div>
    
            <div> Please press any key to continue to the next image.</div>
        ","d","ITI","","","","","","",""
"","","","","","html-keyboard-response","152","323318","0.0-7.19-1.19","60e9645361b411f90370a970","655cb802637e0dbe2941dbc4","655cb8bec76174f27e375d25","null","
        
        <div style=""text-align: center; position: fixed; top: 5vh; left: 40vw;"">
            <div style=""margin:0 auto; width: 20vw; top: 8vh; font-size: 2vw""> 
            <font color=""green""> Bonus : $9.05 </font>
            </div>
        </div>
    
        <img class=""stim"" src=./stimuli//pack_shapes_diff/cat_1/diff_1/ex_1_1_17.png></img>
    ","null","stimulus","","","","","","",""
"","","","","","html-keyboard-response","153","324321","0.0-7.19-2.19","60e9645361b411f90370a970","655cb802637e0dbe2941dbc4","655cb8bec76174f27e375d25","null","
        <div style=""text-align: center; position: fixed; top: 5vh; left: 40vw;"">
            <div style=""margin:0 auto; width: 20vw; top: 8vh; font-size: 2vw""> 
            <font color=""green""> Bonus : $9.05 </font>
            </div>
        </div>
    ","null","","","","","","","",""
"","","","","","html-keyboard-response","154","328323","0.0-7.19-3.19","60e9645361b411f90370a970","655cb802637e0dbe2941dbc4","655cb8bec76174f27e375d25","null","./stimuli//pack_shapes_diff/cat_1/diff_1/ex_1_1_17.png","null","response","ArrowLeft","17","1","1","test","false",""
"","","","","","html-keyboard-response","155","329824","0.0-7.19-4.19","60e9645361b411f90370a970","655cb802637e0dbe2941dbc4","655cb8bec76174f27e375d25","null","<p> <font color=""red"" size=""5vw""> Time out! </font> <br> <font color=""red"" size=""7vw""> - $0.05 points </font> <br> Please try to respond as quickly as possible. </p>","null","feedback","","","","","","","9"
"","","","","","html-keyboard-response","156","330103","0.0-7.20-0.20","60e9645361b411f90370a970","655cb802637e0dbe2941dbc4","655cb8bec76174f27e375d25","278","
            
        <div style=""text-align: center; position: fixed; top: 5vh; left: 40vw;"">
            <div style=""margin:0 auto; width: 20vw; top: 8vh; font-size: 2vw""> 
            <font color=""green""> Bonus : $9 </font>
            </div>
        </div>
    
            <div> Please press any key to continue to the next image.</div>
        ","a","ITI","","","","","","",""
"","","","","","html-keyboard-response","157","330706","0.0-7.20-1.20","60e9645361b411f90370a970","655cb802637e0dbe2941dbc4","655cb8bec76174f27e375d25","null","
        
        <div style=""text-align: center; position: fixed; top: 5vh; left: 40vw;"">
            <div style=""margin:0 auto; width: 20vw; top: 8vh; font-size: 2vw""> 
            <font color=""green""> Bonus : $9 </font>
            </div>
        </div>
    
        <img class=""stim"" src=./stimuli//pack_shapes_diff/cat_2/diff_1/ex_2_1_14.png></img>
    ","null","stimulus","","","","","","",""
"","","","","","html-keyboard-response","158","331710","0.0-7.20-2.20","60e9645361b411f90370a970","655cb802637e0dbe2941dbc4","655cb8bec76174f27e375d25","null","
        <div style=""text-align: center; position: fixed; top: 5vh; left: 40vw;"">
            <div style=""margin:0 auto; width: 20vw; top: 8vh; font-size: 2vw""> 
            <font color=""green""> Bonus : $9 </font>
            </div>
        </div>
    ","null","","","","","","","",""
"","","","","","html-keyboard-response","159","335713","0.0-7.20-3.20","60e9645361b411f90370a970","655cb802637e0dbe2941dbc4","655cb8bec76174f27e375d25","null","./stimuli//pack_shapes_diff/cat_2/diff_1/ex_2_1_14.png","null","response","ArrowRight","14","2","1","test","false",""
"","","","","","html-keyboard-response","160","337216","0.0-7.20-4.20","60e9645361b411f90370a970","655cb802637e0dbe2941dbc4","655cb8bec76174f27e375d25","null","<p> <font color=""red"" size=""5vw""> Time out! </font> <br> <font color=""red"" size=""7vw""> - $0.05 points </font> <br> Please try to respond as quickly as possible. </p>","null","feedback","","","","","","","8.95"
"","","","","","html-keyboard-response","161","338207","0.0-7.21-0.21","60e9645361b411f90370a970","655cb802637e0dbe2941dbc4","655cb8bec76174f27e375d25","989","
            
        <div style=""text-align: center; position: fixed; top: 5vh; left: 40vw;"">
            <div style=""margin:0 auto; width: 20vw; top: 8vh; font-size: 2vw""> 
            <font color=""green""> Bonus : $8.95 </font>
            </div>
        </div>
    
            <div> Please press any key to continue to the next image.</div>
        ","f","ITI","","","","","","",""
"","","","","","html-keyboard-response","162","338809","0.0-7.21-1.21","60e9645361b411f90370a970","655cb802637e0dbe2941dbc4","655cb8bec76174f27e375d25","null","
        
        <div style=""text-align: center; position: fixed; top: 5vh; left: 40vw;"">
            <div style=""margin:0 auto; width: 20vw; top: 8vh; font-size: 2vw""> 
            <font color=""green""> Bonus : $8.95 </font>
            </div>
        </div>
    
        <img class=""stim"" src=./stimuli//pack_shapes_diff/cat_1/diff_1/ex_1_1_8.png></img>
    ","null","stimulus","","","","","","",""
"","","","","","html-keyboard-response","163","339812","0.0-7.21-2.21","60e9645361b411f90370a970","655cb802637e0dbe2941dbc4","655cb8bec76174f27e375d25","null","
        <div style=""text-align: center; position: fixed; top: 5vh; left: 40vw;"">
            <div style=""margin:0 auto; width: 20vw; top: 8vh; font-size: 2vw""> 
            <font color=""green""> Bonus : $8.95 </font>
            </div>
        </div>
    ","null","","","","","","","",""
"","","","","","html-keyboard-response","164","343814","0.0-7.21-3.21","60e9645361b411f90370a970","655cb802637e0dbe2941dbc4","655cb8bec76174f27e375d25","null","./stimuli//pack_shapes_diff/cat_1/diff_1/ex_1_1_8.png","null","response","ArrowLeft","8","1","1","test","false",""
"","","","","","html-keyboard-response","165","345316","0.0-7.21-4.21","60e9645361b411f90370a970","655cb802637e0dbe2941dbc4","655cb8bec76174f27e375d25","null","<p> <font color=""red"" size=""5vw""> Time out! </font> <br> <font color=""red"" size=""7vw""> - $0.05 points </font> <br> Please try to respond as quickly as possible. </p>","null","feedback","","","","","","","8.9"
"","","","","","html-keyboard-response","166","346853","0.0-7.22-0.22","60e9645361b411f90370a970","655cb802637e0dbe2941dbc4","655cb8bec76174f27e375d25","1537","
            
        <div style=""text-align: center; position: fixed; top: 5vh; left: 40vw;"">
            <div style=""margin:0 auto; width: 20vw; top: 8vh; font-size: 2vw""> 
            <font color=""green""> Bonus : $8.9 </font>
            </div>
        </div>
    
            <div> Please press any key to continue to the next image.</div>
        ","j","ITI","","","","","","",""
"","","","","","html-keyboard-response","167","347454","0.0-7.22-1.22","60e9645361b411f90370a970","655cb802637e0dbe2941dbc4","655cb8bec76174f27e375d25","null","
        
        <div style=""text-align: center; position: fixed; top: 5vh; left: 40vw;"">
            <div style=""margin:0 auto; width: 20vw; top: 8vh; font-size: 2vw""> 
            <font color=""green""> Bonus : $8.9 </font>
            </div>
        </div>
    
        <img class=""stim"" src=./stimuli//pack_shapes_diff/cat_1/diff_1/ex_1_1_14.png></img>
    ","null","stimulus","","","","","","",""
"","","","","","html-keyboard-response","168","348456","0.0-7.22-2.22","60e9645361b411f90370a970","655cb802637e0dbe2941dbc4","655cb8bec76174f27e375d25","null","
        <div style=""text-align: center; position: fixed; top: 5vh; left: 40vw;"">
            <div style=""margin:0 auto; width: 20vw; top: 8vh; font-size: 2vw""> 
            <font color=""green""> Bonus : $8.9 </font>
            </div>
        </div>
    ","null","","","","","","","",""
"","","","","","html-keyboard-response","169","352457","0.0-7.22-3.22","60e9645361b411f90370a970","655cb802637e0dbe2941dbc4","655cb8bec76174f27e375d25","null","./stimuli//pack_shapes_diff/cat_1/diff_1/ex_1_1_14.png","null","response","ArrowLeft","14","1","1","test","false",""
"","","","","","html-keyboard-response","170","353959","0.0-7.22-4.22","60e9645361b411f90370a970","655cb802637e0dbe2941dbc4","655cb8bec76174f27e375d25","null","<p> <font color=""red"" size=""5vw""> Time out! </font> <br> <font color=""red"" size=""7vw""> - $0.05 points </font> <br> Please try to respond as quickly as possible. </p>","null","feedback","","","","","","","8.85"
"","","","","","html-keyboard-response","171","356865","0.0-7.23-0.23","60e9645361b411f90370a970","655cb802637e0dbe2941dbc4","655cb8bec76174f27e375d25","2906","
            
        <div style=""text-align: center; position: fixed; top: 5vh; left: 40vw;"">
            <div style=""margin:0 auto; width: 20vw; top: 8vh; font-size: 2vw""> 
            <font color=""green""> Bonus : $8.85 </font>
            </div>
        </div>
    
            <div> Please press any key to continue to the next image.</div>
        ","j","ITI","","","","","","",""
"","","","","","html-keyboard-response","172","357467","0.0-7.23-1.23","60e9645361b411f90370a970","655cb802637e0dbe2941dbc4","655cb8bec76174f27e375d25","null","
        
        <div style=""text-align: center; position: fixed; top: 5vh; left: 40vw;"">
            <div style=""margin:0 auto; width: 20vw; top: 8vh; font-size: 2vw""> 
            <font color=""green""> Bonus : $8.85 </font>
            </div>
        </div>
    
        <img class=""stim"" src=./stimuli//pack_shapes_diff/cat_2/diff_1/ex_2_1_11.png></img>
    ","null","stimulus","","","","","","",""
"","","","","","html-keyboard-response","173","358468","0.0-7.23-2.23","60e9645361b411f90370a970","655cb802637e0dbe2941dbc4","655cb8bec76174f27e375d25","null","
        <div style=""text-align: center; position: fixed; top: 5vh; left: 40vw;"">
            <div style=""margin:0 auto; width: 20vw; top: 8vh; font-size: 2vw""> 
            <font color=""green""> Bonus : $8.85 </font>
            </div>
        </div>
    ","null","","","","","","","",""
"","","","","","html-keyboard-response","174","362470","0.0-7.23-3.23","60e9645361b411f90370a970","655cb802637e0dbe2941dbc4","655cb8bec76174f27e375d25","null","./stimuli//pack_shapes_diff/cat_2/diff_1/ex_2_1_11.png","null","response","ArrowRight","11","2","1","test","false",""
"","","","","","html-keyboard-response","175","363225","0.0-7.23-4.23","60e9645361b411f90370a970","655cb802637e0dbe2941dbc4","655cb8bec76174f27e375d25","755","<p> <font color=""red"" size=""5vw""> Time out! </font> <br> <font color=""red"" size=""7vw""> - $0.05 points </font> <br> Please try to respond as quickly as possible. </p>","f","feedback","","","","","","","8.8"
"","","","","","html-keyboard-response","176","364035","0.0-7.24-0.24","60e9645361b411f90370a970","655cb802637e0dbe2941dbc4","655cb8bec76174f27e375d25","808","
            
        <div style=""text-align: center; position: fixed; top: 5vh; left: 40vw;"">
            <div style=""margin:0 auto; width: 20vw; top: 8vh; font-size: 2vw""> 
            <font color=""green""> Bonus : $8.8 </font>
            </div>
        </div>
    
            <div> Please press any key to continue to the next image.</div>
        ","f","ITI","","","","","","",""
"","","","","","html-keyboard-response","177","364637","0.0-7.24-1.24","60e9645361b411f90370a970","655cb802637e0dbe2941dbc4","655cb8bec76174f27e375d25","null","
        
        <div style=""text-align: center; position: fixed; top: 5vh; left: 40vw;"">
            <div style=""margin:0 auto; width: 20vw; top: 8vh; font-size: 2vw""> 
            <font color=""green""> Bonus : $8.8 </font>
            </div>
        </div>
    
        <img class=""stim"" src=./stimuli//pack_shapes_diff/cat_1/diff_1/ex_1_1_13.png></img>
    ","null","stimulus","","","","","","",""
"","","","","","html-keyboard-response","178","365641","0.0-7.24-2.24","60e9645361b411f90370a970","655cb802637e0dbe2941dbc4","655cb8bec76174f27e375d25","null","
        <div style=""text-align: center; position: fixed; top: 5vh; left: 40vw;"">
            <div style=""margin:0 auto; width: 20vw; top: 8vh; font-size: 2vw""> 
            <font color=""green""> Bonus : $8.8 </font>
            </div>
        </div>
    ","null","","","","","","","",""
"","","","","","html-keyboard-response","179","369642","0.0-7.24-3.24","60e9645361b411f90370a970","655cb802637e0dbe2941dbc4","655cb8bec76174f27e375d25","null","./stimuli//pack_shapes_diff/cat_1/diff_1/ex_1_1_13.png","null","response","ArrowLeft","13","1","1","test","false",""
"","","","","","html-keyboard-response","180","371145","0.0-7.24-4.24","60e9645361b411f90370a970","655cb802637e0dbe2941dbc4","655cb8bec76174f27e375d25","null","<p> <font color=""red"" size=""5vw""> Time out! </font> <br> <font color=""red"" size=""7vw""> - $0.05 points </font> <br> Please try to respond as quickly as possible. </p>","null","feedback","","","","","","","8.75"
"","","","","","html-keyboard-response","181","371629","0.0-7.25-0.25","60e9645361b411f90370a970","655cb802637e0dbe2941dbc4","655cb8bec76174f27e375d25","482","
            
        <div style=""text-align: center; position: fixed; top: 5vh; left: 40vw;"">
            <div style=""margin:0 auto; width: 20vw; top: 8vh; font-size: 2vw""> 
            <font color=""green""> Bonus : $8.75 </font>
            </div>
        </div>
    
            <div> Please press any key to continue to the next image.</div>
        ","f","ITI","","","","","","",""
"","","","","","html-keyboard-response","182","372231","0.0-7.25-1.25","60e9645361b411f90370a970","655cb802637e0dbe2941dbc4","655cb8bec76174f27e375d25","null","
        
        <div style=""text-align: center; position: fixed; top: 5vh; left: 40vw;"">
            <div style=""margin:0 auto; width: 20vw; top: 8vh; font-size: 2vw""> 
            <font color=""green""> Bonus : $8.75 </font>
            </div>
        </div>
    
        <img class=""stim"" src=./stimuli//pack_shapes_diff/cat_2/diff_1/ex_2_1_16.png></img>
    ","null","stimulus","","","","","","",""
"","","","","","html-keyboard-response","183","373233","0.0-7.25-2.25","60e9645361b411f90370a970","655cb802637e0dbe2941dbc4","655cb8bec76174f27e375d25","null","
        <div style=""text-align: center; position: fixed; top: 5vh; left: 40vw;"">
            <div style=""margin:0 auto; width: 20vw; top: 8vh; font-size: 2vw""> 
            <font color=""green""> Bonus : $8.75 </font>
            </div>
        </div>
    ","null","","","","","","","",""
"","","","","","html-keyboard-response","184","377236","0.0-7.25-3.25","60e9645361b411f90370a970","655cb802637e0dbe2941dbc4","655cb8bec76174f27e375d25","null","./stimuli//pack_shapes_diff/cat_2/diff_1/ex_2_1_16.png","null","response","ArrowRight","16","2","1","test","false",""
"","","","","","html-keyboard-response","185","378737","0.0-7.25-4.25","60e9645361b411f90370a970","655cb802637e0dbe2941dbc4","655cb8bec76174f27e375d25","null","<p> <font color=""red"" size=""5vw""> Time out! </font> <br> <font color=""red"" size=""7vw""> - $0.05 points </font> <br> Please try to respond as quickly as possible. </p>","null","feedback","","","","","","","8.7"
"","","","","","html-keyboard-response","186","383738","0.0-7.26-0.26","60e9645361b411f90370a970","655cb802637e0dbe2941dbc4","655cb8bec76174f27e375d25","null","
            
        <div style=""text-align: center; position: fixed; top: 5vh; left: 40vw;"">
            <div style=""margin:0 auto; width: 20vw; top: 8vh; font-size: 2vw""> 
            <font color=""green""> Bonus : $8.7 </font>
            </div>
        </div>
    
            <div> Please press any key to continue to the next image.</div>
        ","null","ITI","","","","","","",""
"","","","","","html-keyboard-response","187","384339","0.0-7.26-1.26","60e9645361b411f90370a970","655cb802637e0dbe2941dbc4","655cb8bec76174f27e375d25","null","
        
        <div style=""text-align: center; position: fixed; top: 5vh; left: 40vw;"">
            <div style=""margin:0 auto; width: 20vw; top: 8vh; font-size: 2vw""> 
            <font color=""green""> Bonus : $8.7 </font>
            </div>
        </div>
    
        <img class=""stim"" src=./stimuli//pack_shapes_diff/cat_1/diff_1/ex_1_1_15.png></img>
    ","null","stimulus","","","","","","",""
"","","","","","html-keyboard-response","188","385341","0.0-7.26-2.26","60e9645361b411f90370a970","655cb802637e0dbe2941dbc4","655cb8bec76174f27e375d25","null","
        <div style=""text-align: center; position: fixed; top: 5vh; left: 40vw;"">
            <div style=""margin:0 auto; width: 20vw; top: 8vh; font-size: 2vw""> 
            <font color=""green""> Bonus : $8.7 </font>
            </div>
        </div>
    ","null","","","","","","","",""
"","","","","","html-keyboard-response","189","389343","0.0-7.26-3.26","60e9645361b411f90370a970","655cb802637e0dbe2941dbc4","655cb8bec76174f27e375d25","null","./stimuli//pack_shapes_diff/cat_1/diff_1/ex_1_1_15.png","null","response","ArrowLeft","15","1","1","test","false",""
"","","","","","html-keyboard-response","190","390847","0.0-7.26-4.26","60e9645361b411f90370a970","655cb802637e0dbe2941dbc4","655cb8bec76174f27e375d25","null","<p> <font color=""red"" size=""5vw""> Time out! </font> <br> <font color=""red"" size=""7vw""> - $0.05 points </font> <br> Please try to respond as quickly as possible. </p>","null","feedback","","","","","","","8.65"
"","","","","","html-keyboard-response","191","391435","0.0-7.27-0.27","60e9645361b411f90370a970","655cb802637e0dbe2941dbc4","655cb8bec76174f27e375d25","586","
            
        <div style=""text-align: center; position: fixed; top: 5vh; left: 40vw;"">
            <div style=""margin:0 auto; width: 20vw; top: 8vh; font-size: 2vw""> 
            <font color=""green""> Bonus : $8.65 </font>
            </div>
        </div>
    
            <div> Please press any key to continue to the next image.</div>
        ","e","ITI","","","","","","",""
"","","","","","html-keyboard-response","192","392042","0.0-7.27-1.27","60e9645361b411f90370a970","655cb802637e0dbe2941dbc4","655cb8bec76174f27e375d25","null","
        
        <div style=""text-align: center; position: fixed; top: 5vh; left: 40vw;"">
            <div style=""margin:0 auto; width: 20vw; top: 8vh; font-size: 2vw""> 
            <font color=""green""> Bonus : $8.65 </font>
            </div>
        </div>
    
        <img class=""stim"" src=./stimuli//pack_shapes_diff/cat_2/diff_1/ex_2_1_15.png></img>
    ","null","stimulus","","","","","","",""
"","","","","","html-keyboard-response","193","393046","0.0-7.27-2.27","60e9645361b411f90370a970","655cb802637e0dbe2941dbc4","655cb8bec76174f27e375d25","null","
        <div style=""text-align: center; position: fixed; top: 5vh; left: 40vw;"">
            <div style=""margin:0 auto; width: 20vw; top: 8vh; font-size: 2vw""> 
            <font color=""green""> Bonus : $8.65 </font>
            </div>
        </div>
    ","null","","","","","","","",""
"","","","","","html-keyboard-response","194","397049","0.0-7.27-3.27","60e9645361b411f90370a970","655cb802637e0dbe2941dbc4","655cb8bec76174f27e375d25","null","./stimuli//pack_shapes_diff/cat_2/diff_1/ex_2_1_15.png","null","response","ArrowRight","15","2","1","test","false",""
"","","","","","html-keyboard-response","195","398371","0.0-7.27-4.27","60e9645361b411f90370a970","655cb802637e0dbe2941dbc4","655cb8bec76174f27e375d25","1322","<p> <font color=""red"" size=""5vw""> Time out! </font> <br> <font color=""red"" size=""7vw""> - $0.05 points </font> <br> Please try to respond as quickly as possible. </p>","e","feedback","","","","","","","8.6"
"","","","","","html-keyboard-response","196","404031","0.0-7.28-0.28","60e9645361b411f90370a970","655cb802637e0dbe2941dbc4","655cb8bec76174f27e375d25","null","
            
        <div style=""text-align: center; position: fixed; top: 5vh; left: 40vw;"">
            <div style=""margin:0 auto; width: 20vw; top: 8vh; font-size: 2vw""> 
            <font color=""green""> Bonus : $8.6 </font>
            </div>
        </div>
    
            <div> Please press any key to continue to the next image.</div>
        ","null","ITI","","","","","","",""
"","","","","","html-keyboard-response","197","404970","0.0-7.28-1.28","60e9645361b411f90370a970","655cb802637e0dbe2941dbc4","655cb8bec76174f27e375d25","null","
        
        <div style=""text-align: center; position: fixed; top: 5vh; left: 40vw;"">
            <div style=""margin:0 auto; width: 20vw; top: 8vh; font-size: 2vw""> 
            <font color=""green""> Bonus : $8.6 </font>
            </div>
        </div>
    
        <img class=""stim"" src=./stimuli//pack_shapes_diff/cat_1/diff_1/ex_1_1_8.png></img>
    ","null","stimulus","","","","","","",""
"","","","","","html-keyboard-response","198","405971","0.0-7.28-2.28","60e9645361b411f90370a970","655cb802637e0dbe2941dbc4","655cb8bec76174f27e375d25","null","
        <div style=""text-align: center; position: fixed; top: 5vh; left: 40vw;"">
            <div style=""margin:0 auto; width: 20vw; top: 8vh; font-size: 2vw""> 
            <font color=""green""> Bonus : $8.6 </font>
            </div>
        </div>
    ","null","","","","","","","",""
"","","","","","html-keyboard-response","199","409977","0.0-7.28-3.28","60e9645361b411f90370a970","655cb802637e0dbe2941dbc4","655cb8bec76174f27e375d25","null","./stimuli//pack_shapes_diff/cat_1/diff_1/ex_1_1_8.png","null","response","ArrowLeft","8","1","1","test","false",""
"","","","","","html-keyboard-response","200","411225","0.0-7.28-4.28","60e9645361b411f90370a970","655cb802637e0dbe2941dbc4","655cb8bec76174f27e375d25","1248","<p> <font color=""red"" size=""5vw""> Time out! </font> <br> <font color=""red"" size=""7vw""> - $0.05 points </font> <br> Please try to respond as quickly as possible. </p>","w","feedback","","","","","","","8.55"
"","","","","","html-keyboard-response","201","411906","0.0-7.29-0.29","60e9645361b411f90370a970","655cb802637e0dbe2941dbc4","655cb8bec76174f27e375d25","680","
            
        <div style=""text-align: center; position: fixed; top: 5vh; left: 40vw;"">
            <div style=""margin:0 auto; width: 20vw; top: 8vh; font-size: 2vw""> 
            <font color=""green""> Bonus : $8.55 </font>
            </div>
        </div>
    
            <div> Please press any key to continue to the next image.</div>
        ","w","ITI","","","","","","",""
"","","","","","html-keyboard-response","202","412512","0.0-7.29-1.29","60e9645361b411f90370a970","655cb802637e0dbe2941dbc4","655cb8bec76174f27e375d25","null","
        
        <div style=""text-align: center; position: fixed; top: 5vh; left: 40vw;"">
            <div style=""margin:0 auto; width: 20vw; top: 8vh; font-size: 2vw""> 
            <font color=""green""> Bonus : $8.55 </font>
            </div>
        </div>
    
        <img class=""stim"" src=./stimuli//pack_shapes_diff/cat_1/diff_1/ex_1_1_16.png></img>
    ","null","stimulus","","","","","","",""
"","","","","","html-keyboard-response","203","413515","0.0-7.29-2.29","60e9645361b411f90370a970","655cb802637e0dbe2941dbc4","655cb8bec76174f27e375d25","null","
        <div style=""text-align: center; position: fixed; top: 5vh; left: 40vw;"">
            <div style=""margin:0 auto; width: 20vw; top: 8vh; font-size: 2vw""> 
            <font color=""green""> Bonus : $8.55 </font>
            </div>
        </div>
    ","null","","","","","","","",""
"","","","","","html-keyboard-response","204","417518","0.0-7.29-3.29","60e9645361b411f90370a970","655cb802637e0dbe2941dbc4","655cb8bec76174f27e375d25","null","./stimuli//pack_shapes_diff/cat_1/diff_1/ex_1_1_16.png","null","response","ArrowLeft","16","1","1","test","false",""
"","","","","","html-keyboard-response","205","418206","0.0-7.29-4.29","60e9645361b411f90370a970","655cb802637e0dbe2941dbc4","655cb8bec76174f27e375d25","688","<p> <font color=""red"" size=""5vw""> Time out! </font> <br> <font color=""red"" size=""7vw""> - $0.05 points </font> <br> Please try to respond as quickly as possible. </p>","w","feedback","","","","","","","8.5"
"","","","","","html-keyboard-response","206","418222","0.0-7.30-0.30","60e9645361b411f90370a970","655cb802637e0dbe2941dbc4","655cb8bec76174f27e375d25","15","
            
        <div style=""text-align: center; position: fixed; top: 5vh; left: 40vw;"">
            <div style=""margin:0 auto; width: 20vw; top: 8vh; font-size: 2vw""> 
            <font color=""green""> Bonus : $8.5 </font>
            </div>
        </div>
    
            <div> Please press any key to continue to the next image.</div>
        ","r","ITI","","","","","","",""
"","","","","","html-keyboard-response","207","418828","0.0-7.30-1.30","60e9645361b411f90370a970","655cb802637e0dbe2941dbc4","655cb8bec76174f27e375d25","null","
        
        <div style=""text-align: center; position: fixed; top: 5vh; left: 40vw;"">
            <div style=""margin:0 auto; width: 20vw; top: 8vh; font-size: 2vw""> 
            <font color=""green""> Bonus : $8.5 </font>
            </div>
        </div>
    
        <img class=""stim"" src=./stimuli//pack_shapes_diff/cat_1/diff_1/ex_1_1_8.png></img>
    ","null","stimulus","","","","","","",""
"","","","","","html-keyboard-response","208","419830","0.0-7.30-2.30","60e9645361b411f90370a970","655cb802637e0dbe2941dbc4","655cb8bec76174f27e375d25","null","
        <div style=""text-align: center; position: fixed; top: 5vh; left: 40vw;"">
            <div style=""margin:0 auto; width: 20vw; top: 8vh; font-size: 2vw""> 
            <font color=""green""> Bonus : $8.5 </font>
            </div>
        </div>
    ","null","","","","","","","",""
"","","","","","html-keyboard-response","209","423833","0.0-7.30-3.30","60e9645361b411f90370a970","655cb802637e0dbe2941dbc4","655cb8bec76174f27e375d25","null","./stimuli//pack_shapes_diff/cat_1/diff_1/ex_1_1_8.png","null","response","ArrowLeft","8","1","1","test","false",""
"","","","","","html-keyboard-response","210","423840","0.0-7.30-4.30","60e9645361b411f90370a970","655cb802637e0dbe2941dbc4","655cb8bec76174f27e375d25","5","<p> <font color=""red"" size=""5vw""> Time out! </font> <br> <font color=""red"" size=""7vw""> - $0.05 points </font> <br> Please try to respond as quickly as possible. </p>","r","feedback","","","","","","","8.45"
"","","","","","html-keyboard-response","211","424573","0.0-7.31-0.31","60e9645361b411f90370a970","655cb802637e0dbe2941dbc4","655cb8bec76174f27e375d25","731","
            
        <div style=""text-align: center; position: fixed; top: 5vh; left: 40vw;"">
            <div style=""margin:0 auto; width: 20vw; top: 8vh; font-size: 2vw""> 
            <font color=""green""> Bonus : $8.45 </font>
            </div>
        </div>
    
            <div> Please press any key to continue to the next image.</div>
        ","e","ITI","","","","","","",""
"","","","","","html-keyboard-response","212","425177","0.0-7.31-1.31","60e9645361b411f90370a970","655cb802637e0dbe2941dbc4","655cb8bec76174f27e375d25","null","
        
        <div style=""text-align: center; position: fixed; top: 5vh; left: 40vw;"">
            <div style=""margin:0 auto; width: 20vw; top: 8vh; font-size: 2vw""> 
            <font color=""green""> Bonus : $8.45 </font>
            </div>
        </div>
    
        <img class=""stim"" src=./stimuli//pack_shapes_diff/cat_1/diff_1/ex_1_1_2.png></img>
    ","null","stimulus","","","","","","",""
"","","","","","html-keyboard-response","213","426182","0.0-7.31-2.31","60e9645361b411f90370a970","655cb802637e0dbe2941dbc4","655cb8bec76174f27e375d25","null","
        <div style=""text-align: center; position: fixed; top: 5vh; left: 40vw;"">
            <div style=""margin:0 auto; width: 20vw; top: 8vh; font-size: 2vw""> 
            <font color=""green""> Bonus : $8.45 </font>
            </div>
        </div>
    ","null","","","","","","","",""
"","","","","","html-keyboard-response","214","430184","0.0-7.31-3.31","60e9645361b411f90370a970","655cb802637e0dbe2941dbc4","655cb8bec76174f27e375d25","null","./stimuli//pack_shapes_diff/cat_1/diff_1/ex_1_1_2.png","null","response","ArrowLeft","2","1","1","test","false",""
"","","","","","html-keyboard-response","215","430270","0.0-7.31-4.31","60e9645361b411f90370a970","655cb802637e0dbe2941dbc4","655cb8bec76174f27e375d25","85","<p> <font color=""red"" size=""5vw""> Time out! </font> <br> <font color=""red"" size=""7vw""> - $0.05 points </font> <br> Please try to respond as quickly as possible. </p>","d","feedback","","","","","","","8.4"
"","","","","","html-keyboard-response","216","430409","0.0-7.32-0.32","60e9645361b411f90370a970","655cb802637e0dbe2941dbc4","655cb8bec76174f27e375d25","139","
            
        <div style=""text-align: center; position: fixed; top: 5vh; left: 40vw;"">
            <div style=""margin:0 auto; width: 20vw; top: 8vh; font-size: 2vw""> 
            <font color=""green""> Bonus : $8.4 </font>
            </div>
        </div>
    
            <div> Please press any key to continue to the next image.</div>
        ","f","ITI","","","","","","",""
"","","","","","html-keyboard-response","217","431013","0.0-7.32-1.32","60e9645361b411f90370a970","655cb802637e0dbe2941dbc4","655cb8bec76174f27e375d25","null","
        
        <div style=""text-align: center; position: fixed; top: 5vh; left: 40vw;"">
            <div style=""margin:0 auto; width: 20vw; top: 8vh; font-size: 2vw""> 
            <font color=""green""> Bonus : $8.4 </font>
            </div>
        </div>
    
        <img class=""stim"" src=./stimuli//pack_shapes_diff/cat_2/diff_1/ex_2_1_13.png></img>
    ","null","stimulus","","","","","","",""
"","","","","","html-keyboard-response","218","432014","0.0-7.32-2.32","60e9645361b411f90370a970","655cb802637e0dbe2941dbc4","655cb8bec76174f27e375d25","null","
        <div style=""text-align: center; position: fixed; top: 5vh; left: 40vw;"">
            <div style=""margin:0 auto; width: 20vw; top: 8vh; font-size: 2vw""> 
            <font color=""green""> Bonus : $8.4 </font>
            </div>
        </div>
    ","null","","","","","","","",""
"","","","","","html-keyboard-response","219","436016","0.0-7.32-3.32","60e9645361b411f90370a970","655cb802637e0dbe2941dbc4","655cb8bec76174f27e375d25","null","./stimuli//pack_shapes_diff/cat_2/diff_1/ex_2_1_13.png","null","response","ArrowRight","13","2","1","test","false",""
"","","","","","html-keyboard-response","220","436143","0.0-7.32-4.32","60e9645361b411f90370a970","655cb802637e0dbe2941dbc4","655cb8bec76174f27e375d25","125","<p> <font color=""red"" size=""5vw""> Time out! </font> <br> <font color=""red"" size=""7vw""> - $0.05 points </font> <br> Please try to respond as quickly as possible. </p>","r","feedback","","","","","","","8.35"
"","","","","","html-keyboard-response","221","436381","0.0-7.33-0.33","60e9645361b411f90370a970","655cb802637e0dbe2941dbc4","655cb8bec76174f27e375d25","238","
            
        <div style=""text-align: center; position: fixed; top: 5vh; left: 40vw;"">
            <div style=""margin:0 auto; width: 20vw; top: 8vh; font-size: 2vw""> 
            <font color=""green""> Bonus : $8.35 </font>
            </div>
        </div>
    
            <div> Please press any key to continue to the next image.</div>
        ","f","ITI","","","","","","",""
"","","","","","html-keyboard-response","222","436992","0.0-7.33-1.33","60e9645361b411f90370a970","655cb802637e0dbe2941dbc4","655cb8bec76174f27e375d25","null","
        
        <div style=""text-align: center; position: fixed; top: 5vh; left: 40vw;"">
            <div style=""margin:0 auto; width: 20vw; top: 8vh; font-size: 2vw""> 
            <font color=""green""> Bonus : $8.35 </font>
            </div>
        </div>
    
        <img class=""stim"" src=./stimuli//pack_shapes_diff/cat_2/diff_1/ex_2_1_2.png></img>
    ","null","stimulus","","","","","","",""
"","","","","","html-keyboard-response","223","437999","0.0-7.33-2.33","60e9645361b411f90370a970","655cb802637e0dbe2941dbc4","655cb8bec76174f27e375d25","null","
        <div style=""text-align: center; position: fixed; top: 5vh; left: 40vw;"">
            <div style=""margin:0 auto; width: 20vw; top: 8vh; font-size: 2vw""> 
            <font color=""green""> Bonus : $8.35 </font>
            </div>
        </div>
    ","null","","","","","","","",""
"","","","","","html-keyboard-response","224","442002","0.0-7.33-3.33","60e9645361b411f90370a970","655cb802637e0dbe2941dbc4","655cb8bec76174f27e375d25","null","./stimuli//pack_shapes_diff/cat_2/diff_1/ex_2_1_2.png","null","response","ArrowRight","2","2","1","test","false",""
"","","","","","html-keyboard-response","225","442083","0.0-7.33-4.33","60e9645361b411f90370a970","655cb802637e0dbe2941dbc4","655cb8bec76174f27e375d25","80","<p> <font color=""red"" size=""5vw""> Time out! </font> <br> <font color=""red"" size=""7vw""> - $0.05 points </font> <br> Please try to respond as quickly as possible. </p>","v","feedback","","","","","","","8.3"
