"success","timeout","failed_images","failed_audio","failed_video","trial_type","trial_index","time_elapsed","internal_node_id","subject_id","study_id","session_id","rt","stimulus","response","task","correct_response","exemplar_ID","category","difficulty","phase","correct","bonus"
"true","false","[]","[]","[]","preload","0","3","0.0-0.0","61277e00d79f75c1e0ef6533","656d9e5e2de4f984cfed7d4d","656d9ed19fc3b1722c61d72f","","","","","","","","","","",""
"","","","","","html-keyboard-response","1","4182","0.0-1.0","61277e00d79f75c1e0ef6533","656d9e5e2de4f984cfed7d4d","656d9ed19fc3b1722c61d72f","4178","Welcome to the Category Learning experiment! Press any key to continue.","g","welcome","","","","","","",""
"","","","","","html-keyboard-response","2","52497","0.0-2.0","61277e00d79f75c1e0ef6533","656d9e5e2de4f984cfed7d4d","656d9ed19fc3b1722c61d72f","48318","
            <p>You will be shown images of white shapes. Some are category A, some are category B.
            <br>You will not know in advance which category a specific shape belongs to.</p>
            <p>After you see an image, you will be asked to guess its category <b>(left arrow for category A, right arrow for category B)</b></p>
            <p>After you choose, the screen will show you whether you were correct or not.</p>
            <p><b>You will receive a bonus payment of $0.05 for each correct answer!</b></p>
            <p><b>You will lose $0.05 from your bonus payment for each incorrect answer! The bonus can not become less that $0.</b></p>
            <p>Press any key to continue.</p>
            ","j","introduction_1","","","","","","",""
"","","","","","html-keyboard-response","3","63585","0.0-3.0","61277e00d79f75c1e0ef6533","656d9e5e2de4f984cfed7d4d","656d9ed19fc3b1722c61d72f","11088","
            <p> <b>The first 10 trials are a practice round that will not count towards your bonus payment.</b></p>
            <p> You will be notified when practice finishes and the test begins. </p>
            <p> Press any key to begin the practice round.</p>
            ","j","introduction_2","","","","","","",""
"","","","","","html-keyboard-response","4","104574","0.0-4.0-0.0","61277e00d79f75c1e0ef6533","656d9e5e2de4f984cfed7d4d","656d9ed19fc3b1722c61d72f","40987","
            
        <div style=""text-align: center; position: fixed; top: 5vh; left: 40vw;"">
            <div style=""margin:0 auto; width: 20vw; top: 8vh; font-size: 2vw""> 
            <font color=""green""> Bonus : $0 </font>
            </div>
        </div>
    
            <div> Please press any key to continue to the next image.</div>
        ","h","ITI","","","","","","",""
"","","","","","html-keyboard-response","5","105181","0.0-4.0-1.0","61277e00d79f75c1e0ef6533","656d9e5e2de4f984cfed7d4d","656d9ed19fc3b1722c61d72f","null","
        
        <div style=""text-align: center; position: fixed; top: 5vh; left: 40vw;"">
            <div style=""margin:0 auto; width: 20vw; top: 8vh; font-size: 2vw""> 
            <font color=""green""> Bonus : $0 </font>
            </div>
        </div>
    
        <img class=""stim"" src=./stimuli//pack_shapes_1/cat_1/diff_2/ex_1_2_8.png></img>
    ","null","stimulus","","","","","","",""
"","","","","","html-keyboard-response","6","106191","0.0-4.0-2.0","61277e00d79f75c1e0ef6533","656d9e5e2de4f984cfed7d4d","656d9ed19fc3b1722c61d72f","null","
        <div style=""text-align: center; position: fixed; top: 5vh; left: 40vw;"">
            <div style=""margin:0 auto; width: 20vw; top: 8vh; font-size: 2vw""> 
            <font color=""green""> Bonus : $0 </font>
            </div>
        </div>
    ","null","","","","","","","",""
"","","","","","html-keyboard-response","7","109192","0.0-4.0-3.0","61277e00d79f75c1e0ef6533","656d9e5e2de4f984cfed7d4d","656d9ed19fc3b1722c61d72f","3000","./stimuli//pack_shapes_1/cat_1/diff_2/ex_1_2_8.png","arrowleft","response","ArrowLeft","8","1","2","train","true",""
"","","","","","html-keyboard-response","8","110710","0.0-4.0-4.0","61277e00d79f75c1e0ef6533","656d9e5e2de4f984cfed7d4d","656d9ed19fc3b1722c61d72f","null","<p><font color=""green"" size=""5vw""> Correct category! </font></p>","null","feedback","","","","","","","0"
"","","","","","html-keyboard-response","9","115310","0.0-4.0-0.1","61277e00d79f75c1e0ef6533","656d9e5e2de4f984cfed7d4d","656d9ed19fc3b1722c61d72f","4605","
            
        <div style=""text-align: center; position: fixed; top: 5vh; left: 40vw;"">
            <div style=""margin:0 auto; width: 20vw; top: 8vh; font-size: 2vw""> 
            <font color=""green""> Bonus : $0 </font>
            </div>
        </div>
    
            <div> Please press any key to continue to the next image.</div>
        ","k","ITI","","","","","","",""
"","","","","","html-keyboard-response","10","115931","0.0-4.0-1.1","61277e00d79f75c1e0ef6533","656d9e5e2de4f984cfed7d4d","656d9ed19fc3b1722c61d72f","null","
        
        <div style=""text-align: center; position: fixed; top: 5vh; left: 40vw;"">
            <div style=""margin:0 auto; width: 20vw; top: 8vh; font-size: 2vw""> 
            <font color=""green""> Bonus : $0 </font>
            </div>
        </div>
    
        <img class=""stim"" src=./stimuli//pack_shapes_1/cat_1/diff_1/ex_1_1_5.png></img>
    ","null","stimulus","","","","","","",""
"","","","","","html-keyboard-response","11","116946","0.0-4.0-2.1","61277e00d79f75c1e0ef6533","656d9e5e2de4f984cfed7d4d","656d9ed19fc3b1722c61d72f","null","
        <div style=""text-align: center; position: fixed; top: 5vh; left: 40vw;"">
            <div style=""margin:0 auto; width: 20vw; top: 8vh; font-size: 2vw""> 
            <font color=""green""> Bonus : $0 </font>
            </div>
        </div>
    ","null","","","","","","","",""
"","","","","","html-keyboard-response","12","117632","0.0-4.0-3.1","61277e00d79f75c1e0ef6533","656d9e5e2de4f984cfed7d4d","656d9ed19fc3b1722c61d72f","685","./stimuli//pack_shapes_1/cat_1/diff_1/ex_1_1_5.png","arrowleft","response","ArrowLeft","5","1","1","train","true",""
"","","","","","html-keyboard-response","13","119149","0.0-4.0-4.1","61277e00d79f75c1e0ef6533","656d9e5e2de4f984cfed7d4d","656d9ed19fc3b1722c61d72f","null","<p><font color=""green"" size=""5vw""> Correct category! </font></p>","null","feedback","","","","","","","0"
"","","","","","html-keyboard-response","14","122867","0.0-4.0-0.2","61277e00d79f75c1e0ef6533","656d9e5e2de4f984cfed7d4d","656d9ed19fc3b1722c61d72f","3717","
            
        <div style=""text-align: center; position: fixed; top: 5vh; left: 40vw;"">
            <div style=""margin:0 auto; width: 20vw; top: 8vh; font-size: 2vw""> 
            <font color=""green""> Bonus : $0 </font>
            </div>
        </div>
    
            <div> Please press any key to continue to the next image.</div>
        ","h","ITI","","","","","","",""
"","","","","","html-keyboard-response","15","123477","0.0-4.0-1.2","61277e00d79f75c1e0ef6533","656d9e5e2de4f984cfed7d4d","656d9ed19fc3b1722c61d72f","null","
        
        <div style=""text-align: center; position: fixed; top: 5vh; left: 40vw;"">
            <div style=""margin:0 auto; width: 20vw; top: 8vh; font-size: 2vw""> 
            <font color=""green""> Bonus : $0 </font>
            </div>
        </div>
    
        <img class=""stim"" src=./stimuli//pack_shapes_1/cat_1/diff_1/ex_1_1_10.png></img>
    ","null","stimulus","","","","","","",""
"","","","","","html-keyboard-response","16","124493","0.0-4.0-2.2","61277e00d79f75c1e0ef6533","656d9e5e2de4f984cfed7d4d","656d9ed19fc3b1722c61d72f","null","
        <div style=""text-align: center; position: fixed; top: 5vh; left: 40vw;"">
            <div style=""margin:0 auto; width: 20vw; top: 8vh; font-size: 2vw""> 
            <font color=""green""> Bonus : $0 </font>
            </div>
        </div>
    ","null","","","","","","","",""
"","","","","","html-keyboard-response","17","125047","0.0-4.0-3.2","61277e00d79f75c1e0ef6533","656d9e5e2de4f984cfed7d4d","656d9ed19fc3b1722c61d72f","553","./stimuli//pack_shapes_1/cat_1/diff_1/ex_1_1_10.png","arrowleft","response","ArrowLeft","10","1","1","train","true",""
"","","","","","html-keyboard-response","18","126563","0.0-4.0-4.2","61277e00d79f75c1e0ef6533","656d9e5e2de4f984cfed7d4d","656d9ed19fc3b1722c61d72f","null","<p><font color=""green"" size=""5vw""> Correct category! </font></p>","null","feedback","","","","","","","0"
"","","","","","html-keyboard-response","19","127598","0.0-4.0-0.3","61277e00d79f75c1e0ef6533","656d9e5e2de4f984cfed7d4d","656d9ed19fc3b1722c61d72f","1034","
            
        <div style=""text-align: center; position: fixed; top: 5vh; left: 40vw;"">
            <div style=""margin:0 auto; width: 20vw; top: 8vh; font-size: 2vw""> 
            <font color=""green""> Bonus : $0 </font>
            </div>
        </div>
    
            <div> Please press any key to continue to the next image.</div>
        ","k","ITI","","","","","","",""
"","","","","","html-keyboard-response","20","128211","0.0-4.0-1.3","61277e00d79f75c1e0ef6533","656d9e5e2de4f984cfed7d4d","656d9ed19fc3b1722c61d72f","null","
        
        <div style=""text-align: center; position: fixed; top: 5vh; left: 40vw;"">
            <div style=""margin:0 auto; width: 20vw; top: 8vh; font-size: 2vw""> 
            <font color=""green""> Bonus : $0 </font>
            </div>
        </div>
    
        <img class=""stim"" src=./stimuli//pack_shapes_1/cat_2/diff_2/ex_2_2_15.png></img>
    ","null","stimulus","","","","","","",""
"","","","","","html-keyboard-response","21","129225","0.0-4.0-2.3","61277e00d79f75c1e0ef6533","656d9e5e2de4f984cfed7d4d","656d9ed19fc3b1722c61d72f","null","
        <div style=""text-align: center; position: fixed; top: 5vh; left: 40vw;"">
            <div style=""margin:0 auto; width: 20vw; top: 8vh; font-size: 2vw""> 
            <font color=""green""> Bonus : $0 </font>
            </div>
        </div>
    ","null","","","","","","","",""
"","","","","","html-keyboard-response","22","129347","0.0-4.0-3.3","61277e00d79f75c1e0ef6533","656d9e5e2de4f984cfed7d4d","656d9ed19fc3b1722c61d72f","122","./stimuli//pack_shapes_1/cat_2/diff_2/ex_2_2_15.png","arrowleft","response","ArrowRight","15","2","2","train","false",""
"","","","","","html-keyboard-response","23","130854","0.0-4.0-4.3","61277e00d79f75c1e0ef6533","656d9e5e2de4f984cfed7d4d","656d9ed19fc3b1722c61d72f","1506","<p> <font color=""red"" size=""5vw""> Wrong category! </font> </p>","k","feedback","","","","","","","0"
"","","","","","html-keyboard-response","24","131861","0.0-4.0-0.4","61277e00d79f75c1e0ef6533","656d9e5e2de4f984cfed7d4d","656d9ed19fc3b1722c61d72f","1006","
            
        <div style=""text-align: center; position: fixed; top: 5vh; left: 40vw;"">
            <div style=""margin:0 auto; width: 20vw; top: 8vh; font-size: 2vw""> 
            <font color=""green""> Bonus : $0 </font>
            </div>
        </div>
    
            <div> Please press any key to continue to the next image.</div>
        ","k","ITI","","","","","","",""
"","","","","","html-keyboard-response","25","132475","0.0-4.0-1.4","61277e00d79f75c1e0ef6533","656d9e5e2de4f984cfed7d4d","656d9ed19fc3b1722c61d72f","null","
        
        <div style=""text-align: center; position: fixed; top: 5vh; left: 40vw;"">
            <div style=""margin:0 auto; width: 20vw; top: 8vh; font-size: 2vw""> 
            <font color=""green""> Bonus : $0 </font>
            </div>
        </div>
    
        <img class=""stim"" src=./stimuli//pack_shapes_1/cat_2/diff_1/ex_2_1_12.png></img>
    ","null","stimulus","","","","","","",""
"","","","","","html-keyboard-response","26","133488","0.0-4.0-2.4","61277e00d79f75c1e0ef6533","656d9e5e2de4f984cfed7d4d","656d9ed19fc3b1722c61d72f","null","
        <div style=""text-align: center; position: fixed; top: 5vh; left: 40vw;"">
            <div style=""margin:0 auto; width: 20vw; top: 8vh; font-size: 2vw""> 
            <font color=""green""> Bonus : $0 </font>
            </div>
        </div>
    ","null","","","","","","","",""
"","","","","","html-keyboard-response","27","135619","0.0-4.0-3.4","61277e00d79f75c1e0ef6533","656d9e5e2de4f984cfed7d4d","656d9ed19fc3b1722c61d72f","2131","./stimuli//pack_shapes_1/cat_2/diff_1/ex_2_1_12.png","arrowleft","response","ArrowRight","12","2","1","train","false",""
"","","","","","html-keyboard-response","28","136879","0.0-4.0-4.4","61277e00d79f75c1e0ef6533","656d9e5e2de4f984cfed7d4d","656d9ed19fc3b1722c61d72f","1259","<p> <font color=""red"" size=""5vw""> Wrong category! </font> </p>","j","feedback","","","","","","","0"
"","","","","","html-keyboard-response","29","140811","0.0-4.0-0.5","61277e00d79f75c1e0ef6533","656d9e5e2de4f984cfed7d4d","656d9ed19fc3b1722c61d72f","3932","
            
        <div style=""text-align: center; position: fixed; top: 5vh; left: 40vw;"">
            <div style=""margin:0 auto; width: 20vw; top: 8vh; font-size: 2vw""> 
            <font color=""green""> Bonus : $0 </font>
            </div>
        </div>
    
            <div> Please press any key to continue to the next image.</div>
        ","k","ITI","","","","","","",""
"","","","","","html-keyboard-response","30","141414","0.0-4.0-1.5","61277e00d79f75c1e0ef6533","656d9e5e2de4f984cfed7d4d","656d9ed19fc3b1722c61d72f","null","
        
        <div style=""text-align: center; position: fixed; top: 5vh; left: 40vw;"">
            <div style=""margin:0 auto; width: 20vw; top: 8vh; font-size: 2vw""> 
            <font color=""green""> Bonus : $0 </font>
            </div>
        </div>
    
        <img class=""stim"" src=./stimuli//pack_shapes_1/cat_1/diff_2/ex_1_2_14.png></img>
    ","null","stimulus","","","","","","",""
"","","","","","html-keyboard-response","31","142417","0.0-4.0-2.5","61277e00d79f75c1e0ef6533","656d9e5e2de4f984cfed7d4d","656d9ed19fc3b1722c61d72f","null","
        <div style=""text-align: center; position: fixed; top: 5vh; left: 40vw;"">
            <div style=""margin:0 auto; width: 20vw; top: 8vh; font-size: 2vw""> 
            <font color=""green""> Bonus : $0 </font>
            </div>
        </div>
    ","null","","","","","","","",""
"","","","","","html-keyboard-response","32","142837","0.0-4.0-3.5","61277e00d79f75c1e0ef6533","656d9e5e2de4f984cfed7d4d","656d9ed19fc3b1722c61d72f","420","./stimuli//pack_shapes_1/cat_1/diff_2/ex_1_2_14.png","arrowleft","response","ArrowLeft","14","1","2","train","true",""
"","","","","","html-keyboard-response","33","144340","0.0-4.0-4.5","61277e00d79f75c1e0ef6533","656d9e5e2de4f984cfed7d4d","656d9ed19fc3b1722c61d72f","null","<p><font color=""green"" size=""5vw""> Correct category! </font></p>","null","feedback","","","","","","","0"
"","","","","","html-keyboard-response","34","145248","0.0-4.0-0.6","61277e00d79f75c1e0ef6533","656d9e5e2de4f984cfed7d4d","656d9ed19fc3b1722c61d72f","906","
            
        <div style=""text-align: center; position: fixed; top: 5vh; left: 40vw;"">
            <div style=""margin:0 auto; width: 20vw; top: 8vh; font-size: 2vw""> 
            <font color=""green""> Bonus : $0 </font>
            </div>
        </div>
    
            <div> Please press any key to continue to the next image.</div>
        ","h","ITI","","","","","","",""
"","","","","","html-keyboard-response","35","145849","0.0-4.0-1.6","61277e00d79f75c1e0ef6533","656d9e5e2de4f984cfed7d4d","656d9ed19fc3b1722c61d72f","null","
        
        <div style=""text-align: center; position: fixed; top: 5vh; left: 40vw;"">
            <div style=""margin:0 auto; width: 20vw; top: 8vh; font-size: 2vw""> 
            <font color=""green""> Bonus : $0 </font>
            </div>
        </div>
    
        <img class=""stim"" src=./stimuli//pack_shapes_1/cat_2/diff_1/ex_2_1_16.png></img>
    ","null","stimulus","","","","","","",""
"","","","","","html-keyboard-response","36","146852","0.0-4.0-2.6","61277e00d79f75c1e0ef6533","656d9e5e2de4f984cfed7d4d","656d9ed19fc3b1722c61d72f","null","
        <div style=""text-align: center; position: fixed; top: 5vh; left: 40vw;"">
            <div style=""margin:0 auto; width: 20vw; top: 8vh; font-size: 2vw""> 
            <font color=""green""> Bonus : $0 </font>
            </div>
        </div>
    ","null","","","","","","","",""
"","","","","","html-keyboard-response","37","149842","0.0-4.0-3.6","61277e00d79f75c1e0ef6533","656d9e5e2de4f984cfed7d4d","656d9ed19fc3b1722c61d72f","2989","./stimuli//pack_shapes_1/cat_2/diff_1/ex_2_1_16.png","arrowleft","response","ArrowRight","16","2","1","train","false",""
"","","","","","html-keyboard-response","38","151301","0.0-4.0-4.6","61277e00d79f75c1e0ef6533","656d9e5e2de4f984cfed7d4d","656d9ed19fc3b1722c61d72f","1459","<p> <font color=""red"" size=""5vw""> Wrong category! </font> </p>","j","feedback","","","","","","","0"
"","","","","","html-keyboard-response","39","154274","0.0-4.0-0.7","61277e00d79f75c1e0ef6533","656d9e5e2de4f984cfed7d4d","656d9ed19fc3b1722c61d72f","2973","
            
        <div style=""text-align: center; position: fixed; top: 5vh; left: 40vw;"">
            <div style=""margin:0 auto; width: 20vw; top: 8vh; font-size: 2vw""> 
            <font color=""green""> Bonus : $0 </font>
            </div>
        </div>
    
            <div> Please press any key to continue to the next image.</div>
        ","k","ITI","","","","","","",""
"","","","","","html-keyboard-response","40","154878","0.0-4.0-1.7","61277e00d79f75c1e0ef6533","656d9e5e2de4f984cfed7d4d","656d9ed19fc3b1722c61d72f","null","
        
        <div style=""text-align: center; position: fixed; top: 5vh; left: 40vw;"">
            <div style=""margin:0 auto; width: 20vw; top: 8vh; font-size: 2vw""> 
            <font color=""green""> Bonus : $0 </font>
            </div>
        </div>
    
        <img class=""stim"" src=./stimuli//pack_shapes_1/cat_1/diff_1/ex_1_1_14.png></img>
    ","null","stimulus","","","","","","",""
"","","","","","html-keyboard-response","41","155894","0.0-4.0-2.7","61277e00d79f75c1e0ef6533","656d9e5e2de4f984cfed7d4d","656d9ed19fc3b1722c61d72f","null","
        <div style=""text-align: center; position: fixed; top: 5vh; left: 40vw;"">
            <div style=""margin:0 auto; width: 20vw; top: 8vh; font-size: 2vw""> 
            <font color=""green""> Bonus : $0 </font>
            </div>
        </div>
    ","null","","","","","","","",""
"","","","","","html-keyboard-response","42","155996","0.0-4.0-3.7","61277e00d79f75c1e0ef6533","656d9e5e2de4f984cfed7d4d","656d9ed19fc3b1722c61d72f","101","./stimuli//pack_shapes_1/cat_1/diff_1/ex_1_1_14.png","arrowleft","response","ArrowLeft","14","1","1","train","true",""
"","","","","","html-keyboard-response","43","157475","0.0-4.0-4.7","61277e00d79f75c1e0ef6533","656d9e5e2de4f984cfed7d4d","656d9ed19fc3b1722c61d72f","1479","<p><font color=""green"" size=""5vw""> Correct category! </font></p>","k","feedback","","","","","","","0"
"","","","","","html-keyboard-response","44","159605","0.0-4.0-0.8","61277e00d79f75c1e0ef6533","656d9e5e2de4f984cfed7d4d","656d9ed19fc3b1722c61d72f","2129","
            
        <div style=""text-align: center; position: fixed; top: 5vh; left: 40vw;"">
            <div style=""margin:0 auto; width: 20vw; top: 8vh; font-size: 2vw""> 
            <font color=""green""> Bonus : $0 </font>
            </div>
        </div>
    
            <div> Please press any key to continue to the next image.</div>
        ","k","ITI","","","","","","",""
"","","","","","html-keyboard-response","45","160213","0.0-4.0-1.8","61277e00d79f75c1e0ef6533","656d9e5e2de4f984cfed7d4d","656d9ed19fc3b1722c61d72f","null","
        
        <div style=""text-align: center; position: fixed; top: 5vh; left: 40vw;"">
            <div style=""margin:0 auto; width: 20vw; top: 8vh; font-size: 2vw""> 
            <font color=""green""> Bonus : $0 </font>
            </div>
        </div>
    
        <img class=""stim"" src=./stimuli//pack_shapes_1/cat_2/diff_2/ex_2_2_8.png></img>
    ","null","stimulus","","","","","","",""
"","","","","","html-keyboard-response","46","161217","0.0-4.0-2.8","61277e00d79f75c1e0ef6533","656d9e5e2de4f984cfed7d4d","656d9ed19fc3b1722c61d72f","null","
        <div style=""text-align: center; position: fixed; top: 5vh; left: 40vw;"">
            <div style=""margin:0 auto; width: 20vw; top: 8vh; font-size: 2vw""> 
            <font color=""green""> Bonus : $0 </font>
            </div>
        </div>
    ","null","","","","","","","",""
"","","","","","html-keyboard-response","47","161244","0.0-4.0-3.8","61277e00d79f75c1e0ef6533","656d9e5e2de4f984cfed7d4d","656d9ed19fc3b1722c61d72f","27","./stimuli//pack_shapes_1/cat_2/diff_2/ex_2_2_8.png","arrowright","response","ArrowRight","8","2","2","train","true",""
"","","","","","html-keyboard-response","48","162649","0.0-4.0-4.8","61277e00d79f75c1e0ef6533","656d9e5e2de4f984cfed7d4d","656d9ed19fc3b1722c61d72f","1404","<p><font color=""green"" size=""5vw""> Correct category! </font></p>","j","feedback","","","","","","","0"
"","","","","","html-keyboard-response","49","163412","0.0-4.0-0.9","61277e00d79f75c1e0ef6533","656d9e5e2de4f984cfed7d4d","656d9ed19fc3b1722c61d72f","763","
            
        <div style=""text-align: center; position: fixed; top: 5vh; left: 40vw;"">
            <div style=""margin:0 auto; width: 20vw; top: 8vh; font-size: 2vw""> 
            <font color=""green""> Bonus : $0 </font>
            </div>
        </div>
    
            <div> Please press any key to continue to the next image.</div>
        ","j","ITI","","","","","","",""
"","","","","","html-keyboard-response","50","164023","0.0-4.0-1.9","61277e00d79f75c1e0ef6533","656d9e5e2de4f984cfed7d4d","656d9ed19fc3b1722c61d72f","null","
        
        <div style=""text-align: center; position: fixed; top: 5vh; left: 40vw;"">
            <div style=""margin:0 auto; width: 20vw; top: 8vh; font-size: 2vw""> 
            <font color=""green""> Bonus : $0 </font>
            </div>
        </div>
    
        <img class=""stim"" src=./stimuli//pack_shapes_1/cat_2/diff_1/ex_2_1_17.png></img>
    ","null","stimulus","","","","","","",""
"","","","","","html-keyboard-response","51","165035","0.0-4.0-2.9","61277e00d79f75c1e0ef6533","656d9e5e2de4f984cfed7d4d","656d9ed19fc3b1722c61d72f","null","
        <div style=""text-align: center; position: fixed; top: 5vh; left: 40vw;"">
            <div style=""margin:0 auto; width: 20vw; top: 8vh; font-size: 2vw""> 
            <font color=""green""> Bonus : $0 </font>
            </div>
        </div>
    ","null","","","","","","","",""
"","","","","","html-keyboard-response","52","166562","0.0-4.0-3.9","61277e00d79f75c1e0ef6533","656d9e5e2de4f984cfed7d4d","656d9ed19fc3b1722c61d72f","1525","./stimuli//pack_shapes_1/cat_2/diff_1/ex_2_1_17.png","arrowright","response","ArrowRight","17","2","1","train","true",""
"","","","","","html-keyboard-response","53","168079","0.0-4.0-4.9","61277e00d79f75c1e0ef6533","656d9e5e2de4f984cfed7d4d","656d9ed19fc3b1722c61d72f","null","<p><font color=""green"" size=""5vw""> Correct category! </font></p>","null","feedback","","","","","","","0"
"","","","","","html-keyboard-response","54","187235","0.0-5.0","61277e00d79f75c1e0ef6533","656d9e5e2de4f984cfed7d4d","656d9ed19fc3b1722c61d72f","19157","
            <b> <p> The practice round has finished.</p>
            <p> For the rest of the experiment you will receive a $0.05 bonus for each correct answer and lose $0.05 from your bonus for each incorrect answer!</p>
            <p> The bonus can not become less than $0. </b>
            <p> Press any key to begin the test. </p>
            ","h","intermission","","","","","","",""
"","","","","","html-keyboard-response","55","191440","0.0-6.0-0.0","61277e00d79f75c1e0ef6533","656d9e5e2de4f984cfed7d4d","656d9ed19fc3b1722c61d72f","4203","
            
        <div style=""text-align: center; position: fixed; top: 5vh; left: 40vw;"">
            <div style=""margin:0 auto; width: 20vw; top: 8vh; font-size: 2vw""> 
            <font color=""green""> Bonus : $0 </font>
            </div>
        </div>
    
            <div> Please press any key to continue to the next image.</div>
        ","h","ITI","","","","","","",""
"","","","","","html-keyboard-response","56","192055","0.0-6.0-1.0","61277e00d79f75c1e0ef6533","656d9e5e2de4f984cfed7d4d","656d9ed19fc3b1722c61d72f","null","
        
        <div style=""text-align: center; position: fixed; top: 5vh; left: 40vw;"">
            <div style=""margin:0 auto; width: 20vw; top: 8vh; font-size: 2vw""> 
            <font color=""green""> Bonus : $0 </font>
            </div>
        </div>
    
        <img class=""stim"" src=./stimuli//pack_shapes_1/cat_1/diff_1/ex_1_1_11.png></img>
    ","null","stimulus","","","","","","",""
"","","","","","html-keyboard-response","57","193071","0.0-6.0-2.0","61277e00d79f75c1e0ef6533","656d9e5e2de4f984cfed7d4d","656d9ed19fc3b1722c61d72f","null","
        <div style=""text-align: center; position: fixed; top: 5vh; left: 40vw;"">
            <div style=""margin:0 auto; width: 20vw; top: 8vh; font-size: 2vw""> 
            <font color=""green""> Bonus : $0 </font>
            </div>
        </div>
    ","null","","","","","","","",""
"","","","","","html-keyboard-response","58","193652","0.0-6.0-3.0","61277e00d79f75c1e0ef6533","656d9e5e2de4f984cfed7d4d","656d9ed19fc3b1722c61d72f","579","./stimuli//pack_shapes_1/cat_1/diff_1/ex_1_1_11.png","arrowleft","response","ArrowLeft","11","1","1","test","true",""
"","","","","","html-keyboard-response","59","195156","0.0-6.0-4.0","61277e00d79f75c1e0ef6533","656d9e5e2de4f984cfed7d4d","656d9ed19fc3b1722c61d72f","null","<p> <font color=""green"" size=""5vw""> Correct category! </font> <br> <br> <font color=""green"" size=""8vw""> + $0.05 </font> </p>","null","feedback","","","","","","","0.05"
"","","","","","html-keyboard-response","60","197974","0.0-6.1-0.1","61277e00d79f75c1e0ef6533","656d9e5e2de4f984cfed7d4d","656d9ed19fc3b1722c61d72f","2816","
            
        <div style=""text-align: center; position: fixed; top: 5vh; left: 40vw;"">
            <div style=""margin:0 auto; width: 20vw; top: 8vh; font-size: 2vw""> 
            <font color=""green""> Bonus : $0.05 </font>
            </div>
        </div>
    
            <div> Please press any key to continue to the next image.</div>
        ","j","ITI","","","","","","",""
"","","","","","html-keyboard-response","61","198583","0.0-6.1-1.1","61277e00d79f75c1e0ef6533","656d9e5e2de4f984cfed7d4d","656d9ed19fc3b1722c61d72f","null","
        
        <div style=""text-align: center; position: fixed; top: 5vh; left: 40vw;"">
            <div style=""margin:0 auto; width: 20vw; top: 8vh; font-size: 2vw""> 
            <font color=""green""> Bonus : $0.05 </font>
            </div>
        </div>
    
        <img class=""stim"" src=./stimuli//pack_shapes_1/cat_1/diff_1/ex_1_1_16.png></img>
    ","null","stimulus","","","","","","",""
"","","","","","html-keyboard-response","62","199599","0.0-6.1-2.1","61277e00d79f75c1e0ef6533","656d9e5e2de4f984cfed7d4d","656d9ed19fc3b1722c61d72f","null","
        <div style=""text-align: center; position: fixed; top: 5vh; left: 40vw;"">
            <div style=""margin:0 auto; width: 20vw; top: 8vh; font-size: 2vw""> 
            <font color=""green""> Bonus : $0.05 </font>
            </div>
        </div>
    ","null","","","","","","","",""
"","","","","","html-keyboard-response","63","199715","0.0-6.1-3.1","61277e00d79f75c1e0ef6533","656d9e5e2de4f984cfed7d4d","656d9ed19fc3b1722c61d72f","115","./stimuli//pack_shapes_1/cat_1/diff_1/ex_1_1_16.png","arrowleft","response","ArrowLeft","16","1","1","test","true",""
"","","","","","html-keyboard-response","64","201232","0.0-6.1-4.1","61277e00d79f75c1e0ef6533","656d9e5e2de4f984cfed7d4d","656d9ed19fc3b1722c61d72f","null","<p> <font color=""green"" size=""5vw""> Correct category! </font> <br> <br> <font color=""green"" size=""8vw""> + $0.05 </font> </p>","null","feedback","","","","","","","0.1"
"","","","","","html-keyboard-response","65","202285","0.0-6.2-0.2","61277e00d79f75c1e0ef6533","656d9e5e2de4f984cfed7d4d","656d9ed19fc3b1722c61d72f","1053","
            
        <div style=""text-align: center; position: fixed; top: 5vh; left: 40vw;"">
            <div style=""margin:0 auto; width: 20vw; top: 8vh; font-size: 2vw""> 
            <font color=""green""> Bonus : $0.1 </font>
            </div>
        </div>
    
            <div> Please press any key to continue to the next image.</div>
        ","j","ITI","","","","","","",""
"","","","","","html-keyboard-response","66","202899","0.0-6.2-1.2","61277e00d79f75c1e0ef6533","656d9e5e2de4f984cfed7d4d","656d9ed19fc3b1722c61d72f","null","
        
        <div style=""text-align: center; position: fixed; top: 5vh; left: 40vw;"">
            <div style=""margin:0 auto; width: 20vw; top: 8vh; font-size: 2vw""> 
            <font color=""green""> Bonus : $0.1 </font>
            </div>
        </div>
    
        <img class=""stim"" src=./stimuli//pack_shapes_1/cat_1/diff_1/ex_1_1_4.png></img>
    ","null","stimulus","","","","","","",""
"","","","","","html-keyboard-response","67","203912","0.0-6.2-2.2","61277e00d79f75c1e0ef6533","656d9e5e2de4f984cfed7d4d","656d9ed19fc3b1722c61d72f","null","
        <div style=""text-align: center; position: fixed; top: 5vh; left: 40vw;"">
            <div style=""margin:0 auto; width: 20vw; top: 8vh; font-size: 2vw""> 
            <font color=""green""> Bonus : $0.1 </font>
            </div>
        </div>
    ","null","","","","","","","",""
"","","","","","html-keyboard-response","68","205293","0.0-6.2-3.2","61277e00d79f75c1e0ef6533","656d9e5e2de4f984cfed7d4d","656d9ed19fc3b1722c61d72f","1380","./stimuli//pack_shapes_1/cat_1/diff_1/ex_1_1_4.png","arrowleft","response","ArrowLeft","4","1","1","test","true",""
"","","","","","html-keyboard-response","69","206800","0.0-6.2-4.2","61277e00d79f75c1e0ef6533","656d9e5e2de4f984cfed7d4d","656d9ed19fc3b1722c61d72f","null","<p> <font color=""green"" size=""5vw""> Correct category! </font> <br> <br> <font color=""green"" size=""8vw""> + $0.05 </font> </p>","null","feedback","","","","","","","0.15"
"","","","","","html-keyboard-response","70","207923","0.0-6.3-0.3","61277e00d79f75c1e0ef6533","656d9e5e2de4f984cfed7d4d","656d9ed19fc3b1722c61d72f","1122","
            
        <div style=""text-align: center; position: fixed; top: 5vh; left: 40vw;"">
            <div style=""margin:0 auto; width: 20vw; top: 8vh; font-size: 2vw""> 
            <font color=""green""> Bonus : $0.15 </font>
            </div>
        </div>
    
            <div> Please press any key to continue to the next image.</div>
        ","j","ITI","","","","","","",""
"","","","","","html-keyboard-response","71","208530","0.0-6.3-1.3","61277e00d79f75c1e0ef6533","656d9e5e2de4f984cfed7d4d","656d9ed19fc3b1722c61d72f","null","
        
        <div style=""text-align: center; position: fixed; top: 5vh; left: 40vw;"">
            <div style=""margin:0 auto; width: 20vw; top: 8vh; font-size: 2vw""> 
            <font color=""green""> Bonus : $0.15 </font>
            </div>
        </div>
    
        <img class=""stim"" src=./stimuli//pack_shapes_1/cat_2/diff_1/ex_2_1_6.png></img>
    ","null","stimulus","","","","","","",""
"","","","","","html-keyboard-response","72","209543","0.0-6.3-2.3","61277e00d79f75c1e0ef6533","656d9e5e2de4f984cfed7d4d","656d9ed19fc3b1722c61d72f","null","
        <div style=""text-align: center; position: fixed; top: 5vh; left: 40vw;"">
            <div style=""margin:0 auto; width: 20vw; top: 8vh; font-size: 2vw""> 
            <font color=""green""> Bonus : $0.15 </font>
            </div>
        </div>
    ","null","","","","","","","",""
"","","","","","html-keyboard-response","73","210097","0.0-6.3-3.3","61277e00d79f75c1e0ef6533","656d9e5e2de4f984cfed7d4d","656d9ed19fc3b1722c61d72f","553","./stimuli//pack_shapes_1/cat_2/diff_1/ex_2_1_6.png","arrowright","response","ArrowRight","6","2","1","test","true",""
"","","","","","html-keyboard-response","74","211610","0.0-6.3-4.3","61277e00d79f75c1e0ef6533","656d9e5e2de4f984cfed7d4d","656d9ed19fc3b1722c61d72f","null","<p> <font color=""green"" size=""5vw""> Correct category! </font> <br> <br> <font color=""green"" size=""8vw""> + $0.05 </font> </p>","null","feedback","","","","","","","0.2"
"","","","","","html-keyboard-response","75","212311","0.0-6.4-0.4","61277e00d79f75c1e0ef6533","656d9e5e2de4f984cfed7d4d","656d9ed19fc3b1722c61d72f","699","
            
        <div style=""text-align: center; position: fixed; top: 5vh; left: 40vw;"">
            <div style=""margin:0 auto; width: 20vw; top: 8vh; font-size: 2vw""> 
            <font color=""green""> Bonus : $0.2 </font>
            </div>
        </div>
    
            <div> Please press any key to continue to the next image.</div>
        ","k","ITI","","","","","","",""
"","","","","","html-keyboard-response","76","212927","0.0-6.4-1.4","61277e00d79f75c1e0ef6533","656d9e5e2de4f984cfed7d4d","656d9ed19fc3b1722c61d72f","null","
        
        <div style=""text-align: center; position: fixed; top: 5vh; left: 40vw;"">
            <div style=""margin:0 auto; width: 20vw; top: 8vh; font-size: 2vw""> 
            <font color=""green""> Bonus : $0.2 </font>
            </div>
        </div>
    
        <img class=""stim"" src=./stimuli//pack_shapes_1/cat_1/diff_1/ex_1_1_6.png></img>
    ","null","stimulus","","","","","","",""
"","","","","","html-keyboard-response","77","213939","0.0-6.4-2.4","61277e00d79f75c1e0ef6533","656d9e5e2de4f984cfed7d4d","656d9ed19fc3b1722c61d72f","null","
        <div style=""text-align: center; position: fixed; top: 5vh; left: 40vw;"">
            <div style=""margin:0 auto; width: 20vw; top: 8vh; font-size: 2vw""> 
            <font color=""green""> Bonus : $0.2 </font>
            </div>
        </div>
    ","null","","","","","","","",""
"","","","","","html-keyboard-response","78","214452","0.0-6.4-3.4","61277e00d79f75c1e0ef6533","656d9e5e2de4f984cfed7d4d","656d9ed19fc3b1722c61d72f","512","./stimuli//pack_shapes_1/cat_1/diff_1/ex_1_1_6.png","arrowleft","response","ArrowLeft","6","1","1","test","true",""
"","","","","","html-keyboard-response","79","215963","0.0-6.4-4.4","61277e00d79f75c1e0ef6533","656d9e5e2de4f984cfed7d4d","656d9ed19fc3b1722c61d72f","null","<p> <font color=""green"" size=""5vw""> Correct category! </font> <br> <br> <font color=""green"" size=""8vw""> + $0.05 </font> </p>","null","feedback","","","","","","","0.25"
"","","","","","html-keyboard-response","80","217910","0.0-6.5-0.5","61277e00d79f75c1e0ef6533","656d9e5e2de4f984cfed7d4d","656d9ed19fc3b1722c61d72f","1946","
            
        <div style=""text-align: center; position: fixed; top: 5vh; left: 40vw;"">
            <div style=""margin:0 auto; width: 20vw; top: 8vh; font-size: 2vw""> 
            <font color=""green""> Bonus : $0.25 </font>
            </div>
        </div>
    
            <div> Please press any key to continue to the next image.</div>
        ","j","ITI","","","","","","",""
"","","","","","html-keyboard-response","81","218522","0.0-6.5-1.5","61277e00d79f75c1e0ef6533","656d9e5e2de4f984cfed7d4d","656d9ed19fc3b1722c61d72f","null","
        
        <div style=""text-align: center; position: fixed; top: 5vh; left: 40vw;"">
            <div style=""margin:0 auto; width: 20vw; top: 8vh; font-size: 2vw""> 
            <font color=""green""> Bonus : $0.25 </font>
            </div>
        </div>
    
        <img class=""stim"" src=./stimuli//pack_shapes_1/cat_2/diff_2/ex_2_2_17.png></img>
    ","null","stimulus","","","","","","",""
"","","","","","html-keyboard-response","82","219536","0.0-6.5-2.5","61277e00d79f75c1e0ef6533","656d9e5e2de4f984cfed7d4d","656d9ed19fc3b1722c61d72f","null","
        <div style=""text-align: center; position: fixed; top: 5vh; left: 40vw;"">
            <div style=""margin:0 auto; width: 20vw; top: 8vh; font-size: 2vw""> 
            <font color=""green""> Bonus : $0.25 </font>
            </div>
        </div>
    ","null","","","","","","","",""
"","","","","","html-keyboard-response","83","219889","0.0-6.5-3.5","61277e00d79f75c1e0ef6533","656d9e5e2de4f984cfed7d4d","656d9ed19fc3b1722c61d72f","352","./stimuli//pack_shapes_1/cat_2/diff_2/ex_2_2_17.png","arrowright","response","ArrowRight","17","2","2","test","true",""
"","","","","","html-keyboard-response","84","221395","0.0-6.5-4.5","61277e00d79f75c1e0ef6533","656d9e5e2de4f984cfed7d4d","656d9ed19fc3b1722c61d72f","null","<p> <font color=""green"" size=""5vw""> Correct category! </font> <br> <br> <font color=""green"" size=""8vw""> + $0.05 </font> </p>","null","feedback","","","","","","","0.3"
"","","","","","html-keyboard-response","85","222954","0.0-6.6-0.6","61277e00d79f75c1e0ef6533","656d9e5e2de4f984cfed7d4d","656d9ed19fc3b1722c61d72f","1558","
            
        <div style=""text-align: center; position: fixed; top: 5vh; left: 40vw;"">
            <div style=""margin:0 auto; width: 20vw; top: 8vh; font-size: 2vw""> 
            <font color=""green""> Bonus : $0.3 </font>
            </div>
        </div>
    
            <div> Please press any key to continue to the next image.</div>
        ","h","ITI","","","","","","",""
"","","","","","html-keyboard-response","86","223567","0.0-6.6-1.6","61277e00d79f75c1e0ef6533","656d9e5e2de4f984cfed7d4d","656d9ed19fc3b1722c61d72f","null","
        
        <div style=""text-align: center; position: fixed; top: 5vh; left: 40vw;"">
            <div style=""margin:0 auto; width: 20vw; top: 8vh; font-size: 2vw""> 
            <font color=""green""> Bonus : $0.3 </font>
            </div>
        </div>
    
        <img class=""stim"" src=./stimuli//pack_shapes_1/cat_1/diff_2/ex_1_2_3.png></img>
    ","null","stimulus","","","","","","",""
"","","","","","html-keyboard-response","87","224583","0.0-6.6-2.6","61277e00d79f75c1e0ef6533","656d9e5e2de4f984cfed7d4d","656d9ed19fc3b1722c61d72f","null","
        <div style=""text-align: center; position: fixed; top: 5vh; left: 40vw;"">
            <div style=""margin:0 auto; width: 20vw; top: 8vh; font-size: 2vw""> 
            <font color=""green""> Bonus : $0.3 </font>
            </div>
        </div>
    ","null","","","","","","","",""
"","","","","","html-keyboard-response","88","225158","0.0-6.6-3.6","61277e00d79f75c1e0ef6533","656d9e5e2de4f984cfed7d4d","656d9ed19fc3b1722c61d72f","575","./stimuli//pack_shapes_1/cat_1/diff_2/ex_1_2_3.png","arrowleft","response","ArrowLeft","3","1","2","test","true",""
"","","","","","html-keyboard-response","89","226665","0.0-6.6-4.6","61277e00d79f75c1e0ef6533","656d9e5e2de4f984cfed7d4d","656d9ed19fc3b1722c61d72f","null","<p> <font color=""green"" size=""5vw""> Correct category! </font> <br> <br> <font color=""green"" size=""8vw""> + $0.05 </font> </p>","null","feedback","","","","","","","0.35"
"","","","","","html-keyboard-response","90","227675","0.0-6.7-0.7","61277e00d79f75c1e0ef6533","656d9e5e2de4f984cfed7d4d","656d9ed19fc3b1722c61d72f","1009","
            
        <div style=""text-align: center; position: fixed; top: 5vh; left: 40vw;"">
            <div style=""margin:0 auto; width: 20vw; top: 8vh; font-size: 2vw""> 
            <font color=""green""> Bonus : $0.35 </font>
            </div>
        </div>
    
            <div> Please press any key to continue to the next image.</div>
        ","j","ITI","","","","","","",""
"","","","","","html-keyboard-response","91","228283","0.0-6.7-1.7","61277e00d79f75c1e0ef6533","656d9e5e2de4f984cfed7d4d","656d9ed19fc3b1722c61d72f","null","
        
        <div style=""text-align: center; position: fixed; top: 5vh; left: 40vw;"">
            <div style=""margin:0 auto; width: 20vw; top: 8vh; font-size: 2vw""> 
            <font color=""green""> Bonus : $0.35 </font>
            </div>
        </div>
    
        <img class=""stim"" src=./stimuli//pack_shapes_1/cat_2/diff_2/ex_2_2_4.png></img>
    ","null","stimulus","","","","","","",""
"","","","","","html-keyboard-response","92","229284","0.0-6.7-2.7","61277e00d79f75c1e0ef6533","656d9e5e2de4f984cfed7d4d","656d9ed19fc3b1722c61d72f","null","
        <div style=""text-align: center; position: fixed; top: 5vh; left: 40vw;"">
            <div style=""margin:0 auto; width: 20vw; top: 8vh; font-size: 2vw""> 
            <font color=""green""> Bonus : $0.35 </font>
            </div>
        </div>
    ","null","","","","","","","",""
"","","","","","html-keyboard-response","93","229528","0.0-6.7-3.7","61277e00d79f75c1e0ef6533","656d9e5e2de4f984cfed7d4d","656d9ed19fc3b1722c61d72f","243","./stimuli//pack_shapes_1/cat_2/diff_2/ex_2_2_4.png","arrowright","response","ArrowRight","4","2","2","test","true",""
"","","","","","html-keyboard-response","94","231037","0.0-6.7-4.7","61277e00d79f75c1e0ef6533","656d9e5e2de4f984cfed7d4d","656d9ed19fc3b1722c61d72f","null","<p> <font color=""green"" size=""5vw""> Correct category! </font> <br> <br> <font color=""green"" size=""8vw""> + $0.05 </font> </p>","null","feedback","","","","","","","0.4"
"","","","","","html-keyboard-response","95","231883","0.0-6.8-0.8","61277e00d79f75c1e0ef6533","656d9e5e2de4f984cfed7d4d","656d9ed19fc3b1722c61d72f","845","
            
        <div style=""text-align: center; position: fixed; top: 5vh; left: 40vw;"">
            <div style=""margin:0 auto; width: 20vw; top: 8vh; font-size: 2vw""> 
            <font color=""green""> Bonus : $0.4 </font>
            </div>
        </div>
    
            <div> Please press any key to continue to the next image.</div>
        ","k","ITI","","","","","","",""
"","","","","","html-keyboard-response","96","232496","0.0-6.8-1.8","61277e00d79f75c1e0ef6533","656d9e5e2de4f984cfed7d4d","656d9ed19fc3b1722c61d72f","null","
        
        <div style=""text-align: center; position: fixed; top: 5vh; left: 40vw;"">
            <div style=""margin:0 auto; width: 20vw; top: 8vh; font-size: 2vw""> 
            <font color=""green""> Bonus : $0.4 </font>
            </div>
        </div>
    
        <img class=""stim"" src=./stimuli//pack_shapes_1/cat_2/diff_2/ex_2_2_1.png></img>
    ","null","stimulus","","","","","","",""
"","","","","","html-keyboard-response","97","233508","0.0-6.8-2.8","61277e00d79f75c1e0ef6533","656d9e5e2de4f984cfed7d4d","656d9ed19fc3b1722c61d72f","null","
        <div style=""text-align: center; position: fixed; top: 5vh; left: 40vw;"">
            <div style=""margin:0 auto; width: 20vw; top: 8vh; font-size: 2vw""> 
            <font color=""green""> Bonus : $0.4 </font>
            </div>
        </div>
    ","null","","","","","","","",""
"","","","","","html-keyboard-response","98","234315","0.0-6.8-3.8","61277e00d79f75c1e0ef6533","656d9e5e2de4f984cfed7d4d","656d9ed19fc3b1722c61d72f","806","./stimuli//pack_shapes_1/cat_2/diff_2/ex_2_2_1.png","arrowright","response","ArrowRight","1","2","2","test","true",""
"","","","","","html-keyboard-response","99","235831","0.0-6.8-4.8","61277e00d79f75c1e0ef6533","656d9e5e2de4f984cfed7d4d","656d9ed19fc3b1722c61d72f","null","<p> <font color=""green"" size=""5vw""> Correct category! </font> <br> <br> <font color=""green"" size=""8vw""> + $0.05 </font> </p>","null","feedback","","","","","","","0.45"
"","","","","","html-keyboard-response","100","236721","0.0-6.9-0.9","61277e00d79f75c1e0ef6533","656d9e5e2de4f984cfed7d4d","656d9ed19fc3b1722c61d72f","889","
            
        <div style=""text-align: center; position: fixed; top: 5vh; left: 40vw;"">
            <div style=""margin:0 auto; width: 20vw; top: 8vh; font-size: 2vw""> 
            <font color=""green""> Bonus : $0.45 </font>
            </div>
        </div>
    
            <div> Please press any key to continue to the next image.</div>
        ",".","ITI","","","","","","",""
"","","","","","html-keyboard-response","101","237328","0.0-6.9-1.9","61277e00d79f75c1e0ef6533","656d9e5e2de4f984cfed7d4d","656d9ed19fc3b1722c61d72f","null","
        
        <div style=""text-align: center; position: fixed; top: 5vh; left: 40vw;"">
            <div style=""margin:0 auto; width: 20vw; top: 8vh; font-size: 2vw""> 
            <font color=""green""> Bonus : $0.45 </font>
            </div>
        </div>
    
        <img class=""stim"" src=./stimuli//pack_shapes_1/cat_1/diff_2/ex_1_2_13.png></img>
    ","null","stimulus","","","","","","",""
"","","","","","html-keyboard-response","102","238343","0.0-6.9-2.9","61277e00d79f75c1e0ef6533","656d9e5e2de4f984cfed7d4d","656d9ed19fc3b1722c61d72f","null","
        <div style=""text-align: center; position: fixed; top: 5vh; left: 40vw;"">
            <div style=""margin:0 auto; width: 20vw; top: 8vh; font-size: 2vw""> 
            <font color=""green""> Bonus : $0.45 </font>
            </div>
        </div>
    ","null","","","","","","","",""
"","","","","","html-keyboard-response","103","238841","0.0-6.9-3.9","61277e00d79f75c1e0ef6533","656d9e5e2de4f984cfed7d4d","656d9ed19fc3b1722c61d72f","497","./stimuli//pack_shapes_1/cat_1/diff_2/ex_1_2_13.png","arrowleft","response","ArrowLeft","13","1","2","test","true",""
"","","","","","html-keyboard-response","104","240344","0.0-6.9-4.9","61277e00d79f75c1e0ef6533","656d9e5e2de4f984cfed7d4d","656d9ed19fc3b1722c61d72f","null","<p> <font color=""green"" size=""5vw""> Correct category! </font> <br> <br> <font color=""green"" size=""8vw""> + $0.05 </font> </p>","null","feedback","","","","","","","0.5"
"","","","","","html-keyboard-response","105","241355","0.0-6.10-0.10","61277e00d79f75c1e0ef6533","656d9e5e2de4f984cfed7d4d","656d9ed19fc3b1722c61d72f","1010","
            
        <div style=""text-align: center; position: fixed; top: 5vh; left: 40vw;"">
            <div style=""margin:0 auto; width: 20vw; top: 8vh; font-size: 2vw""> 
            <font color=""green""> Bonus : $0.5 </font>
            </div>
        </div>
    
            <div> Please press any key to continue to the next image.</div>
        ","j","ITI","","","","","","",""
"","","","","","html-keyboard-response","106","241958","0.0-6.10-1.10","61277e00d79f75c1e0ef6533","656d9e5e2de4f984cfed7d4d","656d9ed19fc3b1722c61d72f","null","
        
        <div style=""text-align: center; position: fixed; top: 5vh; left: 40vw;"">
            <div style=""margin:0 auto; width: 20vw; top: 8vh; font-size: 2vw""> 
            <font color=""green""> Bonus : $0.5 </font>
            </div>
        </div>
    
        <img class=""stim"" src=./stimuli//pack_shapes_1/cat_1/diff_3/ex_1_3_13.png></img>
    ","null","stimulus","","","","","","",""
"","","","","","html-keyboard-response","107","242969","0.0-6.10-2.10","61277e00d79f75c1e0ef6533","656d9e5e2de4f984cfed7d4d","656d9ed19fc3b1722c61d72f","null","
        <div style=""text-align: center; position: fixed; top: 5vh; left: 40vw;"">
            <div style=""margin:0 auto; width: 20vw; top: 8vh; font-size: 2vw""> 
            <font color=""green""> Bonus : $0.5 </font>
            </div>
        </div>
    ","null","","","","","","","",""
"","","","","","html-keyboard-response","108","243959","0.0-6.10-3.10","61277e00d79f75c1e0ef6533","656d9e5e2de4f984cfed7d4d","656d9ed19fc3b1722c61d72f","989","./stimuli//pack_shapes_1/cat_1/diff_3/ex_1_3_13.png","arrowleft","response","ArrowLeft","13","1","3","test","true",""
"","","","","","html-keyboard-response","109","245474","0.0-6.10-4.10","61277e00d79f75c1e0ef6533","656d9e5e2de4f984cfed7d4d","656d9ed19fc3b1722c61d72f","null","<p> <font color=""green"" size=""5vw""> Correct category! </font> <br> <br> <font color=""green"" size=""8vw""> + $0.05 </font> </p>","null","feedback","","","","","","","0.55"
"","","","","","html-keyboard-response","110","246295","0.0-6.11-0.11","61277e00d79f75c1e0ef6533","656d9e5e2de4f984cfed7d4d","656d9ed19fc3b1722c61d72f","820","
            
        <div style=""text-align: center; position: fixed; top: 5vh; left: 40vw;"">
            <div style=""margin:0 auto; width: 20vw; top: 8vh; font-size: 2vw""> 
            <font color=""green""> Bonus : $0.55 </font>
            </div>
        </div>
    
            <div> Please press any key to continue to the next image.</div>
        ","j","ITI","","","","","","",""
"","","","","","html-keyboard-response","111","246903","0.0-6.11-1.11","61277e00d79f75c1e0ef6533","656d9e5e2de4f984cfed7d4d","656d9ed19fc3b1722c61d72f","null","
        
        <div style=""text-align: center; position: fixed; top: 5vh; left: 40vw;"">
            <div style=""margin:0 auto; width: 20vw; top: 8vh; font-size: 2vw""> 
            <font color=""green""> Bonus : $0.55 </font>
            </div>
        </div>
    
        <img class=""stim"" src=./stimuli//pack_shapes_1/cat_2/diff_3/ex_2_3_2.png></img>
    ","null","stimulus","","","","","","",""
"","","","","","html-keyboard-response","112","247929","0.0-6.11-2.11","61277e00d79f75c1e0ef6533","656d9e5e2de4f984cfed7d4d","656d9ed19fc3b1722c61d72f","null","
        <div style=""text-align: center; position: fixed; top: 5vh; left: 40vw;"">
            <div style=""margin:0 auto; width: 20vw; top: 8vh; font-size: 2vw""> 
            <font color=""green""> Bonus : $0.55 </font>
            </div>
        </div>
    ","null","","","","","","","",""
"","","","","","html-keyboard-response","113","248839","0.0-6.11-3.11","61277e00d79f75c1e0ef6533","656d9e5e2de4f984cfed7d4d","656d9ed19fc3b1722c61d72f","909","./stimuli//pack_shapes_1/cat_2/diff_3/ex_2_3_2.png","arrowright","response","ArrowRight","2","2","3","test","true",""
"","","","","","html-keyboard-response","114","250349","0.0-6.11-4.11","61277e00d79f75c1e0ef6533","656d9e5e2de4f984cfed7d4d","656d9ed19fc3b1722c61d72f","null","<p> <font color=""green"" size=""5vw""> Correct category! </font> <br> <br> <font color=""green"" size=""8vw""> + $0.05 </font> </p>","null","feedback","","","","","","","0.6"
"","","","","","html-keyboard-response","115","250984","0.0-6.12-0.12","61277e00d79f75c1e0ef6533","656d9e5e2de4f984cfed7d4d","656d9ed19fc3b1722c61d72f","634","
            
        <div style=""text-align: center; position: fixed; top: 5vh; left: 40vw;"">
            <div style=""margin:0 auto; width: 20vw; top: 8vh; font-size: 2vw""> 
            <font color=""green""> Bonus : $0.6 </font>
            </div>
        </div>
    
            <div> Please press any key to continue to the next image.</div>
        ","p","ITI","","","","","","",""
"","","","","","html-keyboard-response","116","251597","0.0-6.12-1.12","61277e00d79f75c1e0ef6533","656d9e5e2de4f984cfed7d4d","656d9ed19fc3b1722c61d72f","null","
        
        <div style=""text-align: center; position: fixed; top: 5vh; left: 40vw;"">
            <div style=""margin:0 auto; width: 20vw; top: 8vh; font-size: 2vw""> 
            <font color=""green""> Bonus : $0.6 </font>
            </div>
        </div>
    
        <img class=""stim"" src=./stimuli//pack_shapes_1/cat_1/diff_3/ex_1_3_3.png></img>
    ","null","stimulus","","","","","","",""
"","","","","","html-keyboard-response","117","252611","0.0-6.12-2.12","61277e00d79f75c1e0ef6533","656d9e5e2de4f984cfed7d4d","656d9ed19fc3b1722c61d72f","null","
        <div style=""text-align: center; position: fixed; top: 5vh; left: 40vw;"">
            <div style=""margin:0 auto; width: 20vw; top: 8vh; font-size: 2vw""> 
            <font color=""green""> Bonus : $0.6 </font>
            </div>
        </div>
    ","null","","","","","","","",""
"","","","","","html-keyboard-response","118","253391","0.0-6.12-3.12","61277e00d79f75c1e0ef6533","656d9e5e2de4f984cfed7d4d","656d9ed19fc3b1722c61d72f","778","./stimuli//pack_shapes_1/cat_1/diff_3/ex_1_3_3.png","arrowleft","response","ArrowLeft","3","1","3","test","true",""
"","","","","","html-keyboard-response","119","254895","0.0-6.12-4.12","61277e00d79f75c1e0ef6533","656d9e5e2de4f984cfed7d4d","656d9ed19fc3b1722c61d72f","null","<p> <font color=""green"" size=""5vw""> Correct category! </font> <br> <br> <font color=""green"" size=""8vw""> + $0.05 </font> </p>","null","feedback","","","","","","","0.65"
"","","","","","html-keyboard-response","120","255836","0.0-6.13-0.13","61277e00d79f75c1e0ef6533","656d9e5e2de4f984cfed7d4d","656d9ed19fc3b1722c61d72f","940","
            
        <div style=""text-align: center; position: fixed; top: 5vh; left: 40vw;"">
            <div style=""margin:0 auto; width: 20vw; top: 8vh; font-size: 2vw""> 
            <font color=""green""> Bonus : $0.65 </font>
            </div>
        </div>
    
            <div> Please press any key to continue to the next image.</div>
        ","j","ITI","","","","","","",""
"","","","","","html-keyboard-response","121","256443","0.0-6.13-1.13","61277e00d79f75c1e0ef6533","656d9e5e2de4f984cfed7d4d","656d9ed19fc3b1722c61d72f","null","
        
        <div style=""text-align: center; position: fixed; top: 5vh; left: 40vw;"">
            <div style=""margin:0 auto; width: 20vw; top: 8vh; font-size: 2vw""> 
            <font color=""green""> Bonus : $0.65 </font>
            </div>
        </div>
    
        <img class=""stim"" src=./stimuli//pack_shapes_1/cat_2/diff_3/ex_2_3_7.png></img>
    ","null","stimulus","","","","","","",""
"","","","","","html-keyboard-response","122","257460","0.0-6.13-2.13","61277e00d79f75c1e0ef6533","656d9e5e2de4f984cfed7d4d","656d9ed19fc3b1722c61d72f","null","
        <div style=""text-align: center; position: fixed; top: 5vh; left: 40vw;"">
            <div style=""margin:0 auto; width: 20vw; top: 8vh; font-size: 2vw""> 
            <font color=""green""> Bonus : $0.65 </font>
            </div>
        </div>
    ","null","","","","","","","",""
"","","","","","html-keyboard-response","123","258043","0.0-6.13-3.13","61277e00d79f75c1e0ef6533","656d9e5e2de4f984cfed7d4d","656d9ed19fc3b1722c61d72f","582","./stimuli//pack_shapes_1/cat_2/diff_3/ex_2_3_7.png","arrowright","response","ArrowRight","7","2","3","test","true",""
"","","","","","html-keyboard-response","124","259546","0.0-6.13-4.13","61277e00d79f75c1e0ef6533","656d9e5e2de4f984cfed7d4d","656d9ed19fc3b1722c61d72f","null","<p> <font color=""green"" size=""5vw""> Correct category! </font> <br> <br> <font color=""green"" size=""8vw""> + $0.05 </font> </p>","null","feedback","","","","","","","0.7"
"","","","","","html-keyboard-response","125","260705","0.0-6.14-0.14","61277e00d79f75c1e0ef6533","656d9e5e2de4f984cfed7d4d","656d9ed19fc3b1722c61d72f","1158","
            
        <div style=""text-align: center; position: fixed; top: 5vh; left: 40vw;"">
            <div style=""margin:0 auto; width: 20vw; top: 8vh; font-size: 2vw""> 
            <font color=""green""> Bonus : $0.7 </font>
            </div>
        </div>
    
            <div> Please press any key to continue to the next image.</div>
        ","k","ITI","","","","","","",""
"","","","","","html-keyboard-response","126","261308","0.0-6.14-1.14","61277e00d79f75c1e0ef6533","656d9e5e2de4f984cfed7d4d","656d9ed19fc3b1722c61d72f","null","
        
        <div style=""text-align: center; position: fixed; top: 5vh; left: 40vw;"">
            <div style=""margin:0 auto; width: 20vw; top: 8vh; font-size: 2vw""> 
            <font color=""green""> Bonus : $0.7 </font>
            </div>
        </div>
    
        <img class=""stim"" src=./stimuli//pack_shapes_1/cat_2/diff_3/ex_2_3_3.png></img>
    ","null","stimulus","","","","","","",""
"","","","","","html-keyboard-response","127","262323","0.0-6.14-2.14","61277e00d79f75c1e0ef6533","656d9e5e2de4f984cfed7d4d","656d9ed19fc3b1722c61d72f","null","
        <div style=""text-align: center; position: fixed; top: 5vh; left: 40vw;"">
            <div style=""margin:0 auto; width: 20vw; top: 8vh; font-size: 2vw""> 
            <font color=""green""> Bonus : $0.7 </font>
            </div>
        </div>
    ","null","","","","","","","",""
"","","","","","html-keyboard-response","128","262791","0.0-6.14-3.14","61277e00d79f75c1e0ef6533","656d9e5e2de4f984cfed7d4d","656d9ed19fc3b1722c61d72f","467","./stimuli//pack_shapes_1/cat_2/diff_3/ex_2_3_3.png","arrowright","response","ArrowRight","3","2","3","test","true",""
"","","","","","html-keyboard-response","129","264295","0.0-6.14-4.14","61277e00d79f75c1e0ef6533","656d9e5e2de4f984cfed7d4d","656d9ed19fc3b1722c61d72f","null","<p> <font color=""green"" size=""5vw""> Correct category! </font> <br> <br> <font color=""green"" size=""8vw""> + $0.05 </font> </p>","null","feedback","","","","","","","0.75"
"","","","","","html-keyboard-response","130","265027","0.0-6.15-0.15","61277e00d79f75c1e0ef6533","656d9e5e2de4f984cfed7d4d","656d9ed19fc3b1722c61d72f","731","
            
        <div style=""text-align: center; position: fixed; top: 5vh; left: 40vw;"">
            <div style=""margin:0 auto; width: 20vw; top: 8vh; font-size: 2vw""> 
            <font color=""green""> Bonus : $0.75 </font>
            </div>
        </div>
    
            <div> Please press any key to continue to the next image.</div>
        ","k","ITI","","","","","","",""
"","","","","","html-keyboard-response","131","265638","0.0-6.15-1.15","61277e00d79f75c1e0ef6533","656d9e5e2de4f984cfed7d4d","656d9ed19fc3b1722c61d72f","null","
        
        <div style=""text-align: center; position: fixed; top: 5vh; left: 40vw;"">
            <div style=""margin:0 auto; width: 20vw; top: 8vh; font-size: 2vw""> 
            <font color=""green""> Bonus : $0.75 </font>
            </div>
        </div>
    
        <img class=""stim"" src=./stimuli//pack_shapes_1/cat_1/diff_4/ex_1_4_4.png></img>
    ","null","stimulus","","","","","","",""
"","","","","","html-keyboard-response","132","266640","0.0-6.15-2.15","61277e00d79f75c1e0ef6533","656d9e5e2de4f984cfed7d4d","656d9ed19fc3b1722c61d72f","null","
        <div style=""text-align: center; position: fixed; top: 5vh; left: 40vw;"">
            <div style=""margin:0 auto; width: 20vw; top: 8vh; font-size: 2vw""> 
            <font color=""green""> Bonus : $0.75 </font>
            </div>
        </div>
    ","null","","","","","","","",""
"","","","","","html-keyboard-response","133","267132","0.0-6.15-3.15","61277e00d79f75c1e0ef6533","656d9e5e2de4f984cfed7d4d","656d9ed19fc3b1722c61d72f","492","./stimuli//pack_shapes_1/cat_1/diff_4/ex_1_4_4.png","arrowleft","response","ArrowLeft","4","1","4","test","true",""
"","","","","","html-keyboard-response","134","268643","0.0-6.15-4.15","61277e00d79f75c1e0ef6533","656d9e5e2de4f984cfed7d4d","656d9ed19fc3b1722c61d72f","null","<p> <font color=""green"" size=""5vw""> Correct category! </font> <br> <br> <font color=""green"" size=""8vw""> + $0.05 </font> </p>","null","feedback","","","","","","","0.8"
"","","","","","html-keyboard-response","135","269435","0.0-6.16-0.16","61277e00d79f75c1e0ef6533","656d9e5e2de4f984cfed7d4d","656d9ed19fc3b1722c61d72f","792","
            
        <div style=""text-align: center; position: fixed; top: 5vh; left: 40vw;"">
            <div style=""margin:0 auto; width: 20vw; top: 8vh; font-size: 2vw""> 
            <font color=""green""> Bonus : $0.8 </font>
            </div>
        </div>
    
            <div> Please press any key to continue to the next image.</div>
        ","k","ITI","","","","","","",""
"","","","","","html-keyboard-response","136","270050","0.0-6.16-1.16","61277e00d79f75c1e0ef6533","656d9e5e2de4f984cfed7d4d","656d9ed19fc3b1722c61d72f","null","
        
        <div style=""text-align: center; position: fixed; top: 5vh; left: 40vw;"">
            <div style=""margin:0 auto; width: 20vw; top: 8vh; font-size: 2vw""> 
            <font color=""green""> Bonus : $0.8 </font>
            </div>
        </div>
    
        <img class=""stim"" src=./stimuli//pack_shapes_1/cat_2/diff_4/ex_2_4_15.png></img>
    ","null","stimulus","","","","","","",""
"","","","","","html-keyboard-response","137","271053","0.0-6.16-2.16","61277e00d79f75c1e0ef6533","656d9e5e2de4f984cfed7d4d","656d9ed19fc3b1722c61d72f","null","
        <div style=""text-align: center; position: fixed; top: 5vh; left: 40vw;"">
            <div style=""margin:0 auto; width: 20vw; top: 8vh; font-size: 2vw""> 
            <font color=""green""> Bonus : $0.8 </font>
            </div>
        </div>
    ","null","","","","","","","",""
"","","","","","html-keyboard-response","138","271539","0.0-6.16-3.16","61277e00d79f75c1e0ef6533","656d9e5e2de4f984cfed7d4d","656d9ed19fc3b1722c61d72f","486","./stimuli//pack_shapes_1/cat_2/diff_4/ex_2_4_15.png","arrowleft","response","ArrowRight","15","2","4","test","false",""
"","","","","","html-keyboard-response","139","273053","0.0-6.16-4.16","61277e00d79f75c1e0ef6533","656d9e5e2de4f984cfed7d4d","656d9ed19fc3b1722c61d72f","null","<p> <font color=""red"" size=""5vw""> Wrong category! </font> <br> <br> <font color=""red"" size=""8vw""> - $0.05 </font> </p>","null","feedback","","","","","","","0.75"
"","","","","","html-keyboard-response","140","273822","0.0-6.17-0.17","61277e00d79f75c1e0ef6533","656d9e5e2de4f984cfed7d4d","656d9ed19fc3b1722c61d72f","768","
            
        <div style=""text-align: center; position: fixed; top: 5vh; left: 40vw;"">
            <div style=""margin:0 auto; width: 20vw; top: 8vh; font-size: 2vw""> 
            <font color=""green""> Bonus : $0.75 </font>
            </div>
        </div>
    
            <div> Please press any key to continue to the next image.</div>
        ","k","ITI","","","","","","",""
"","","","","","html-keyboard-response","141","274432","0.0-6.17-1.17","61277e00d79f75c1e0ef6533","656d9e5e2de4f984cfed7d4d","656d9ed19fc3b1722c61d72f","null","
        
        <div style=""text-align: center; position: fixed; top: 5vh; left: 40vw;"">
            <div style=""margin:0 auto; width: 20vw; top: 8vh; font-size: 2vw""> 
            <font color=""green""> Bonus : $0.75 </font>
            </div>
        </div>
    
        <img class=""stim"" src=./stimuli//pack_shapes_1/cat_2/diff_4/ex_2_4_3.png></img>
    ","null","stimulus","","","","","","",""
"","","","","","html-keyboard-response","142","275446","0.0-6.17-2.17","61277e00d79f75c1e0ef6533","656d9e5e2de4f984cfed7d4d","656d9ed19fc3b1722c61d72f","null","
        <div style=""text-align: center; position: fixed; top: 5vh; left: 40vw;"">
            <div style=""margin:0 auto; width: 20vw; top: 8vh; font-size: 2vw""> 
            <font color=""green""> Bonus : $0.75 </font>
            </div>
        </div>
    ","null","","","","","","","",""
"","","","","","html-keyboard-response","143","276133","0.0-6.17-3.17","61277e00d79f75c1e0ef6533","656d9e5e2de4f984cfed7d4d","656d9ed19fc3b1722c61d72f","686","./stimuli//pack_shapes_1/cat_2/diff_4/ex_2_4_3.png","arrowright","response","ArrowRight","3","2","4","test","true",""
"","","","","","html-keyboard-response","144","277649","0.0-6.17-4.17","61277e00d79f75c1e0ef6533","656d9e5e2de4f984cfed7d4d","656d9ed19fc3b1722c61d72f","null","<p> <font color=""green"" size=""5vw""> Correct category! </font> <br> <br> <font color=""green"" size=""8vw""> + $0.05 </font> </p>","null","feedback","","","","","","","0.8"
"","","","","","html-keyboard-response","145","278049","0.0-6.18-0.18","61277e00d79f75c1e0ef6533","656d9e5e2de4f984cfed7d4d","656d9ed19fc3b1722c61d72f","399","
            
        <div style=""text-align: center; position: fixed; top: 5vh; left: 40vw;"">
            <div style=""margin:0 auto; width: 20vw; top: 8vh; font-size: 2vw""> 
            <font color=""green""> Bonus : $0.8 </font>
            </div>
        </div>
    
            <div> Please press any key to continue to the next image.</div>
        ","l","ITI","","","","","","",""
"","","","","","html-keyboard-response","146","278662","0.0-6.18-1.18","61277e00d79f75c1e0ef6533","656d9e5e2de4f984cfed7d4d","656d9ed19fc3b1722c61d72f","null","
        
        <div style=""text-align: center; position: fixed; top: 5vh; left: 40vw;"">
            <div style=""margin:0 auto; width: 20vw; top: 8vh; font-size: 2vw""> 
            <font color=""green""> Bonus : $0.8 </font>
            </div>
        </div>
    
        <img class=""stim"" src=./stimuli//pack_shapes_1/cat_2/diff_4/ex_2_4_14.png></img>
    ","null","stimulus","","","","","","",""
"","","","","","html-keyboard-response","147","279675","0.0-6.18-2.18","61277e00d79f75c1e0ef6533","656d9e5e2de4f984cfed7d4d","656d9ed19fc3b1722c61d72f","null","
        <div style=""text-align: center; position: fixed; top: 5vh; left: 40vw;"">
            <div style=""margin:0 auto; width: 20vw; top: 8vh; font-size: 2vw""> 
            <font color=""green""> Bonus : $0.8 </font>
            </div>
        </div>
    ","null","","","","","","","",""
"","","","","","html-keyboard-response","148","280240","0.0-6.18-3.18","61277e00d79f75c1e0ef6533","656d9e5e2de4f984cfed7d4d","656d9ed19fc3b1722c61d72f","564","./stimuli//pack_shapes_1/cat_2/diff_4/ex_2_4_14.png","arrowright","response","ArrowRight","14","2","4","test","true",""
"","","","","","html-keyboard-response","149","281750","0.0-6.18-4.18","61277e00d79f75c1e0ef6533","656d9e5e2de4f984cfed7d4d","656d9ed19fc3b1722c61d72f","null","<p> <font color=""green"" size=""5vw""> Correct category! </font> <br> <br> <font color=""green"" size=""8vw""> + $0.05 </font> </p>","null","feedback","","","","","","","0.85"
"","","","","","html-keyboard-response","150","282263","0.0-6.19-0.19","61277e00d79f75c1e0ef6533","656d9e5e2de4f984cfed7d4d","656d9ed19fc3b1722c61d72f","512","
            
        <div style=""text-align: center; position: fixed; top: 5vh; left: 40vw;"">
            <div style=""margin:0 auto; width: 20vw; top: 8vh; font-size: 2vw""> 
            <font color=""green""> Bonus : $0.85 </font>
            </div>
        </div>
    
            <div> Please press any key to continue to the next image.</div>
        ","k","ITI","","","","","","",""
"","","","","","html-keyboard-response","151","282878","0.0-6.19-1.19","61277e00d79f75c1e0ef6533","656d9e5e2de4f984cfed7d4d","656d9ed19fc3b1722c61d72f","null","
        
        <div style=""text-align: center; position: fixed; top: 5vh; left: 40vw;"">
            <div style=""margin:0 auto; width: 20vw; top: 8vh; font-size: 2vw""> 
            <font color=""green""> Bonus : $0.85 </font>
            </div>
        </div>
    
        <img class=""stim"" src=./stimuli//pack_shapes_1/cat_2/diff_4/ex_2_4_17.png></img>
    ","null","stimulus","","","","","","",""
"","","","","","html-keyboard-response","152","283880","0.0-6.19-2.19","61277e00d79f75c1e0ef6533","656d9e5e2de4f984cfed7d4d","656d9ed19fc3b1722c61d72f","null","
        <div style=""text-align: center; position: fixed; top: 5vh; left: 40vw;"">
            <div style=""margin:0 auto; width: 20vw; top: 8vh; font-size: 2vw""> 
            <font color=""green""> Bonus : $0.85 </font>
            </div>
        </div>
    ","null","","","","","","","",""
"","","","","","html-keyboard-response","153","284321","0.0-6.19-3.19","61277e00d79f75c1e0ef6533","656d9e5e2de4f984cfed7d4d","656d9ed19fc3b1722c61d72f","440","./stimuli//pack_shapes_1/cat_2/diff_4/ex_2_4_17.png","arrowright","response","ArrowRight","17","2","4","test","true",""
"","","","","","html-keyboard-response","154","285832","0.0-6.19-4.19","61277e00d79f75c1e0ef6533","656d9e5e2de4f984cfed7d4d","656d9ed19fc3b1722c61d72f","null","<p> <font color=""green"" size=""5vw""> Correct category! </font> <br> <br> <font color=""green"" size=""8vw""> + $0.05 </font> </p>","null","feedback","","","","","","","0.9"
"","","","","","html-keyboard-response","155","286633","0.0-6.20-0.20","61277e00d79f75c1e0ef6533","656d9e5e2de4f984cfed7d4d","656d9ed19fc3b1722c61d72f","800","
            
        <div style=""text-align: center; position: fixed; top: 5vh; left: 40vw;"">
            <div style=""margin:0 auto; width: 20vw; top: 8vh; font-size: 2vw""> 
            <font color=""green""> Bonus : $0.9 </font>
            </div>
        </div>
    
            <div> Please press any key to continue to the next image.</div>
        ","l","ITI","","","","","","",""
"","","","","","html-keyboard-response","156","287240","0.0-6.20-1.20","61277e00d79f75c1e0ef6533","656d9e5e2de4f984cfed7d4d","656d9ed19fc3b1722c61d72f","null","
        
        <div style=""text-align: center; position: fixed; top: 5vh; left: 40vw;"">
            <div style=""margin:0 auto; width: 20vw; top: 8vh; font-size: 2vw""> 
            <font color=""green""> Bonus : $0.9 </font>
            </div>
        </div>
    
        <img class=""stim"" src=./stimuli//pack_shapes_1/cat_2/diff_5/ex_2_5_17.png></img>
    ","null","stimulus","","","","","","",""
"","","","","","html-keyboard-response","157","288256","0.0-6.20-2.20","61277e00d79f75c1e0ef6533","656d9e5e2de4f984cfed7d4d","656d9ed19fc3b1722c61d72f","null","
        <div style=""text-align: center; position: fixed; top: 5vh; left: 40vw;"">
            <div style=""margin:0 auto; width: 20vw; top: 8vh; font-size: 2vw""> 
            <font color=""green""> Bonus : $0.9 </font>
            </div>
        </div>
    ","null","","","","","","","",""
"","","","","","html-keyboard-response","158","288693","0.0-6.20-3.20","61277e00d79f75c1e0ef6533","656d9e5e2de4f984cfed7d4d","656d9ed19fc3b1722c61d72f","437","./stimuli//pack_shapes_1/cat_2/diff_5/ex_2_5_17.png","arrowright","response","ArrowRight","17","2","5","test","true",""
"","","","","","html-keyboard-response","159","290206","0.0-6.20-4.20","61277e00d79f75c1e0ef6533","656d9e5e2de4f984cfed7d4d","656d9ed19fc3b1722c61d72f","null","<p> <font color=""green"" size=""5vw""> Correct category! </font> <br> <br> <font color=""green"" size=""8vw""> + $0.05 </font> </p>","null","feedback","","","","","","","0.95"
"","","","","","html-keyboard-response","160","291168","0.0-6.21-0.21","61277e00d79f75c1e0ef6533","656d9e5e2de4f984cfed7d4d","656d9ed19fc3b1722c61d72f","961","
            
        <div style=""text-align: center; position: fixed; top: 5vh; left: 40vw;"">
            <div style=""margin:0 auto; width: 20vw; top: 8vh; font-size: 2vw""> 
            <font color=""green""> Bonus : $0.95 </font>
            </div>
        </div>
    
            <div> Please press any key to continue to the next image.</div>
        ","l","ITI","","","","","","",""
"","","","","","html-keyboard-response","161","291771","0.0-6.21-1.21","61277e00d79f75c1e0ef6533","656d9e5e2de4f984cfed7d4d","656d9ed19fc3b1722c61d72f","null","
        
        <div style=""text-align: center; position: fixed; top: 5vh; left: 40vw;"">
            <div style=""margin:0 auto; width: 20vw; top: 8vh; font-size: 2vw""> 
            <font color=""green""> Bonus : $0.95 </font>
            </div>
        </div>
    
        <img class=""stim"" src=./stimuli//pack_shapes_1/cat_1/diff_5/ex_1_5_1.png></img>
    ","null","stimulus","","","","","","",""
"","","","","","html-keyboard-response","162","292773","0.0-6.21-2.21","61277e00d79f75c1e0ef6533","656d9e5e2de4f984cfed7d4d","656d9ed19fc3b1722c61d72f","null","
        <div style=""text-align: center; position: fixed; top: 5vh; left: 40vw;"">
            <div style=""margin:0 auto; width: 20vw; top: 8vh; font-size: 2vw""> 
            <font color=""green""> Bonus : $0.95 </font>
            </div>
        </div>
    ","null","","","","","","","",""
"","","","","","html-keyboard-response","163","293252","0.0-6.21-3.21","61277e00d79f75c1e0ef6533","656d9e5e2de4f984cfed7d4d","656d9ed19fc3b1722c61d72f","477","./stimuli//pack_shapes_1/cat_1/diff_5/ex_1_5_1.png","arrowright","response","ArrowLeft","1","1","5","test","false",""
"","","","","","html-keyboard-response","164","294761","0.0-6.21-4.21","61277e00d79f75c1e0ef6533","656d9e5e2de4f984cfed7d4d","656d9ed19fc3b1722c61d72f","null","<p> <font color=""red"" size=""5vw""> Wrong category! </font> <br> <br> <font color=""red"" size=""8vw""> - $0.05 </font> </p>","null","feedback","","","","","","","0.9"
"","","","","","html-keyboard-response","165","295429","0.0-6.22-0.22","61277e00d79f75c1e0ef6533","656d9e5e2de4f984cfed7d4d","656d9ed19fc3b1722c61d72f","667","
            
        <div style=""text-align: center; position: fixed; top: 5vh; left: 40vw;"">
            <div style=""margin:0 auto; width: 20vw; top: 8vh; font-size: 2vw""> 
            <font color=""green""> Bonus : $0.9 </font>
            </div>
        </div>
    
            <div> Please press any key to continue to the next image.</div>
        ","j","ITI","","","","","","",""
"","","","","","html-keyboard-response","166","296037","0.0-6.22-1.22","61277e00d79f75c1e0ef6533","656d9e5e2de4f984cfed7d4d","656d9ed19fc3b1722c61d72f","null","
        
        <div style=""text-align: center; position: fixed; top: 5vh; left: 40vw;"">
            <div style=""margin:0 auto; width: 20vw; top: 8vh; font-size: 2vw""> 
            <font color=""green""> Bonus : $0.9 </font>
            </div>
        </div>
    
        <img class=""stim"" src=./stimuli//pack_shapes_1/cat_2/diff_5/ex_2_5_11.png></img>
    ","null","stimulus","","","","","","",""
"","","","","","html-keyboard-response","167","297045","0.0-6.22-2.22","61277e00d79f75c1e0ef6533","656d9e5e2de4f984cfed7d4d","656d9ed19fc3b1722c61d72f","null","
        <div style=""text-align: center; position: fixed; top: 5vh; left: 40vw;"">
            <div style=""margin:0 auto; width: 20vw; top: 8vh; font-size: 2vw""> 
            <font color=""green""> Bonus : $0.9 </font>
            </div>
        </div>
    ","null","","","","","","","",""
"","","","","","html-keyboard-response","168","297434","0.0-6.22-3.22","61277e00d79f75c1e0ef6533","656d9e5e2de4f984cfed7d4d","656d9ed19fc3b1722c61d72f","389","./stimuli//pack_shapes_1/cat_2/diff_5/ex_2_5_11.png","arrowright","response","ArrowRight","11","2","5","test","true",""
"","","","","","html-keyboard-response","169","298937","0.0-6.22-4.22","61277e00d79f75c1e0ef6533","656d9e5e2de4f984cfed7d4d","656d9ed19fc3b1722c61d72f","null","<p> <font color=""green"" size=""5vw""> Correct category! </font> <br> <br> <font color=""green"" size=""8vw""> + $0.05 </font> </p>","null","feedback","","","","","","","0.95"
"","","","","","html-keyboard-response","170","299590","0.0-6.23-0.23","61277e00d79f75c1e0ef6533","656d9e5e2de4f984cfed7d4d","656d9ed19fc3b1722c61d72f","652","
            
        <div style=""text-align: center; position: fixed; top: 5vh; left: 40vw;"">
            <div style=""margin:0 auto; width: 20vw; top: 8vh; font-size: 2vw""> 
            <font color=""green""> Bonus : $0.95 </font>
            </div>
        </div>
    
            <div> Please press any key to continue to the next image.</div>
        ","j","ITI","","","","","","",""
"","","","","","html-keyboard-response","171","300199","0.0-6.23-1.23","61277e00d79f75c1e0ef6533","656d9e5e2de4f984cfed7d4d","656d9ed19fc3b1722c61d72f","null","
        
        <div style=""text-align: center; position: fixed; top: 5vh; left: 40vw;"">
            <div style=""margin:0 auto; width: 20vw; top: 8vh; font-size: 2vw""> 
            <font color=""green""> Bonus : $0.95 </font>
            </div>
        </div>
    
        <img class=""stim"" src=./stimuli//pack_shapes_1/cat_1/diff_5/ex_1_5_12.png></img>
    ","null","stimulus","","","","","","",""
"","","","","","html-keyboard-response","172","301209","0.0-6.23-2.23","61277e00d79f75c1e0ef6533","656d9e5e2de4f984cfed7d4d","656d9ed19fc3b1722c61d72f","null","
        <div style=""text-align: center; position: fixed; top: 5vh; left: 40vw;"">
            <div style=""margin:0 auto; width: 20vw; top: 8vh; font-size: 2vw""> 
            <font color=""green""> Bonus : $0.95 </font>
            </div>
        </div>
    ","null","","","","","","","",""
"","","","","","html-keyboard-response","173","301666","0.0-6.23-3.23","61277e00d79f75c1e0ef6533","656d9e5e2de4f984cfed7d4d","656d9ed19fc3b1722c61d72f","456","./stimuli//pack_shapes_1/cat_1/diff_5/ex_1_5_12.png","arrowright","response","ArrowLeft","12","1","5","test","false",""
"","","","","","html-keyboard-response","174","303170","0.0-6.23-4.23","61277e00d79f75c1e0ef6533","656d9e5e2de4f984cfed7d4d","656d9ed19fc3b1722c61d72f","null","<p> <font color=""red"" size=""5vw""> Wrong category! </font> <br> <br> <font color=""red"" size=""8vw""> - $0.05 </font> </p>","null","feedback","","","","","","","0.9"
"","","","","","html-keyboard-response","175","303951","0.0-6.24-0.24","61277e00d79f75c1e0ef6533","656d9e5e2de4f984cfed7d4d","656d9ed19fc3b1722c61d72f","780","
            
        <div style=""text-align: center; position: fixed; top: 5vh; left: 40vw;"">
            <div style=""margin:0 auto; width: 20vw; top: 8vh; font-size: 2vw""> 
            <font color=""green""> Bonus : $0.9 </font>
            </div>
        </div>
    
            <div> Please press any key to continue to the next image.</div>
        ","j","ITI","","","","","","",""
"","","","","","html-keyboard-response","176","304565","0.0-6.24-1.24","61277e00d79f75c1e0ef6533","656d9e5e2de4f984cfed7d4d","656d9ed19fc3b1722c61d72f","null","
        
        <div style=""text-align: center; position: fixed; top: 5vh; left: 40vw;"">
            <div style=""margin:0 auto; width: 20vw; top: 8vh; font-size: 2vw""> 
            <font color=""green""> Bonus : $0.9 </font>
            </div>
        </div>
    
        <img class=""stim"" src=./stimuli//pack_shapes_1/cat_2/diff_5/ex_2_5_8.png></img>
    ","null","stimulus","","","","","","",""
"","","","","","html-keyboard-response","177","305579","0.0-6.24-2.24","61277e00d79f75c1e0ef6533","656d9e5e2de4f984cfed7d4d","656d9ed19fc3b1722c61d72f","null","
        <div style=""text-align: center; position: fixed; top: 5vh; left: 40vw;"">
            <div style=""margin:0 auto; width: 20vw; top: 8vh; font-size: 2vw""> 
            <font color=""green""> Bonus : $0.9 </font>
            </div>
        </div>
    ","null","","","","","","","",""
"","","","","","html-keyboard-response","178","306147","0.0-6.24-3.24","61277e00d79f75c1e0ef6533","656d9e5e2de4f984cfed7d4d","656d9ed19fc3b1722c61d72f","567","./stimuli//pack_shapes_1/cat_2/diff_5/ex_2_5_8.png","arrowright","response","ArrowRight","8","2","5","test","true",""
"","","","","","html-keyboard-response","179","307653","0.0-6.24-4.24","61277e00d79f75c1e0ef6533","656d9e5e2de4f984cfed7d4d","656d9ed19fc3b1722c61d72f","null","<p> <font color=""green"" size=""5vw""> Correct category! </font> <br> <br> <font color=""green"" size=""8vw""> + $0.05 </font> </p>","null","feedback","","","","","","","0.95"
"","","","","","html-keyboard-response","180","308663","0.0-6.25-0.25","61277e00d79f75c1e0ef6533","656d9e5e2de4f984cfed7d4d","656d9ed19fc3b1722c61d72f","1011","
            
        <div style=""text-align: center; position: fixed; top: 5vh; left: 40vw;"">
            <div style=""margin:0 auto; width: 20vw; top: 8vh; font-size: 2vw""> 
            <font color=""green""> Bonus : $0.95 </font>
            </div>
        </div>
    
            <div> Please press any key to continue to the next image.</div>
        ","j","ITI","","","","","","",""
"","","","","","html-keyboard-response","181","309277","0.0-6.25-1.25","61277e00d79f75c1e0ef6533","656d9e5e2de4f984cfed7d4d","656d9ed19fc3b1722c61d72f","null","
        
        <div style=""text-align: center; position: fixed; top: 5vh; left: 40vw;"">
            <div style=""margin:0 auto; width: 20vw; top: 8vh; font-size: 2vw""> 
            <font color=""green""> Bonus : $0.95 </font>
            </div>
        </div>
    
        <img class=""stim"" src=./stimuli//pack_shapes_1/cat_1/diff_4/ex_1_4_15.png></img>
    ","null","stimulus","","","","","","",""
"","","","","","html-keyboard-response","182","310292","0.0-6.25-2.25","61277e00d79f75c1e0ef6533","656d9e5e2de4f984cfed7d4d","656d9ed19fc3b1722c61d72f","null","
        <div style=""text-align: center; position: fixed; top: 5vh; left: 40vw;"">
            <div style=""margin:0 auto; width: 20vw; top: 8vh; font-size: 2vw""> 
            <font color=""green""> Bonus : $0.95 </font>
            </div>
        </div>
    ","null","","","","","","","",""
"","","","","","html-keyboard-response","183","310768","0.0-6.25-3.25","61277e00d79f75c1e0ef6533","656d9e5e2de4f984cfed7d4d","656d9ed19fc3b1722c61d72f","476","./stimuli//pack_shapes_1/cat_1/diff_4/ex_1_4_15.png","arrowright","response","ArrowLeft","15","1","4","test","false",""
"","","","","","html-keyboard-response","184","312276","0.0-6.25-4.25","61277e00d79f75c1e0ef6533","656d9e5e2de4f984cfed7d4d","656d9ed19fc3b1722c61d72f","null","<p> <font color=""red"" size=""5vw""> Wrong category! </font> <br> <br> <font color=""red"" size=""8vw""> - $0.05 </font> </p>","null","feedback","","","","","","","0.9"
"","","","","","html-keyboard-response","185","313035","0.0-6.26-0.26","61277e00d79f75c1e0ef6533","656d9e5e2de4f984cfed7d4d","656d9ed19fc3b1722c61d72f","758","
            
        <div style=""text-align: center; position: fixed; top: 5vh; left: 40vw;"">
            <div style=""margin:0 auto; width: 20vw; top: 8vh; font-size: 2vw""> 
            <font color=""green""> Bonus : $0.9 </font>
            </div>
        </div>
    
            <div> Please press any key to continue to the next image.</div>
        ","j","ITI","","","","","","",""
"","","","","","html-keyboard-response","186","313640","0.0-6.26-1.26","61277e00d79f75c1e0ef6533","656d9e5e2de4f984cfed7d4d","656d9ed19fc3b1722c61d72f","null","
        
        <div style=""text-align: center; position: fixed; top: 5vh; left: 40vw;"">
            <div style=""margin:0 auto; width: 20vw; top: 8vh; font-size: 2vw""> 
            <font color=""green""> Bonus : $0.9 </font>
            </div>
        </div>
    
        <img class=""stim"" src=./stimuli//pack_shapes_1/cat_2/diff_4/ex_2_4_10.png></img>
    ","null","stimulus","","","","","","",""
"","","","","","html-keyboard-response","187","314655","0.0-6.26-2.26","61277e00d79f75c1e0ef6533","656d9e5e2de4f984cfed7d4d","656d9ed19fc3b1722c61d72f","null","
        <div style=""text-align: center; position: fixed; top: 5vh; left: 40vw;"">
            <div style=""margin:0 auto; width: 20vw; top: 8vh; font-size: 2vw""> 
            <font color=""green""> Bonus : $0.9 </font>
            </div>
        </div>
    ","null","","","","","","","",""
"","","","","","html-keyboard-response","188","315073","0.0-6.26-3.26","61277e00d79f75c1e0ef6533","656d9e5e2de4f984cfed7d4d","656d9ed19fc3b1722c61d72f","418","./stimuli//pack_shapes_1/cat_2/diff_4/ex_2_4_10.png","arrowright","response","ArrowRight","10","2","4","test","true",""
"","","","","","html-keyboard-response","189","316578","0.0-6.26-4.26","61277e00d79f75c1e0ef6533","656d9e5e2de4f984cfed7d4d","656d9ed19fc3b1722c61d72f","null","<p> <font color=""green"" size=""5vw""> Correct category! </font> <br> <br> <font color=""green"" size=""8vw""> + $0.05 </font> </p>","null","feedback","","","","","","","0.95"
"","","","","","html-keyboard-response","190","317286","0.0-6.27-0.27","61277e00d79f75c1e0ef6533","656d9e5e2de4f984cfed7d4d","656d9ed19fc3b1722c61d72f","707","
            
        <div style=""text-align: center; position: fixed; top: 5vh; left: 40vw;"">
            <div style=""margin:0 auto; width: 20vw; top: 8vh; font-size: 2vw""> 
            <font color=""green""> Bonus : $0.95 </font>
            </div>
        </div>
    
            <div> Please press any key to continue to the next image.</div>
        ","h","ITI","","","","","","",""
"","","","","","html-keyboard-response","191","317891","0.0-6.27-1.27","61277e00d79f75c1e0ef6533","656d9e5e2de4f984cfed7d4d","656d9ed19fc3b1722c61d72f","null","
        
        <div style=""text-align: center; position: fixed; top: 5vh; left: 40vw;"">
            <div style=""margin:0 auto; width: 20vw; top: 8vh; font-size: 2vw""> 
            <font color=""green""> Bonus : $0.95 </font>
            </div>
        </div>
    
        <img class=""stim"" src=./stimuli//pack_shapes_1/cat_1/diff_4/ex_1_4_15.png></img>
    ","null","stimulus","","","","","","",""
"","","","","","html-keyboard-response","192","318902","0.0-6.27-2.27","61277e00d79f75c1e0ef6533","656d9e5e2de4f984cfed7d4d","656d9ed19fc3b1722c61d72f","null","
        <div style=""text-align: center; position: fixed; top: 5vh; left: 40vw;"">
            <div style=""margin:0 auto; width: 20vw; top: 8vh; font-size: 2vw""> 
            <font color=""green""> Bonus : $0.95 </font>
            </div>
        </div>
    ","null","","","","","","","",""
"","","","","","html-keyboard-response","193","319321","0.0-6.27-3.27","61277e00d79f75c1e0ef6533","656d9e5e2de4f984cfed7d4d","656d9ed19fc3b1722c61d72f","418","./stimuli//pack_shapes_1/cat_1/diff_4/ex_1_4_15.png","arrowright","response","ArrowLeft","15","1","4","test","false",""
"","","","","","html-keyboard-response","194","320823","0.0-6.27-4.27","61277e00d79f75c1e0ef6533","656d9e5e2de4f984cfed7d4d","656d9ed19fc3b1722c61d72f","null","<p> <font color=""red"" size=""5vw""> Wrong category! </font> <br> <br> <font color=""red"" size=""8vw""> - $0.05 </font> </p>","null","feedback","","","","","","","0.9"
"","","","","","html-keyboard-response","195","321277","0.0-6.28-0.28","61277e00d79f75c1e0ef6533","656d9e5e2de4f984cfed7d4d","656d9ed19fc3b1722c61d72f","454","
            
        <div style=""text-align: center; position: fixed; top: 5vh; left: 40vw;"">
            <div style=""margin:0 auto; width: 20vw; top: 8vh; font-size: 2vw""> 
            <font color=""green""> Bonus : $0.9 </font>
            </div>
        </div>
    
            <div> Please press any key to continue to the next image.</div>
        ","j","ITI","","","","","","",""
"","","","","","html-keyboard-response","196","321887","0.0-6.28-1.28","61277e00d79f75c1e0ef6533","656d9e5e2de4f984cfed7d4d","656d9ed19fc3b1722c61d72f","null","
        
        <div style=""text-align: center; position: fixed; top: 5vh; left: 40vw;"">
            <div style=""margin:0 auto; width: 20vw; top: 8vh; font-size: 2vw""> 
            <font color=""green""> Bonus : $0.9 </font>
            </div>
        </div>
    
        <img class=""stim"" src=./stimuli//pack_shapes_1/cat_1/diff_4/ex_1_4_12.png></img>
    ","null","stimulus","","","","","","",""
"","","","","","html-keyboard-response","197","322901","0.0-6.28-2.28","61277e00d79f75c1e0ef6533","656d9e5e2de4f984cfed7d4d","656d9ed19fc3b1722c61d72f","null","
        <div style=""text-align: center; position: fixed; top: 5vh; left: 40vw;"">
            <div style=""margin:0 auto; width: 20vw; top: 8vh; font-size: 2vw""> 
            <font color=""green""> Bonus : $0.9 </font>
            </div>
        </div>
    ","null","","","","","","","",""
"","","","","","html-keyboard-response","198","323520","0.0-6.28-3.28","61277e00d79f75c1e0ef6533","656d9e5e2de4f984cfed7d4d","656d9ed19fc3b1722c61d72f","618","./stimuli//pack_shapes_1/cat_1/diff_4/ex_1_4_12.png","arrowleft","response","ArrowLeft","12","1","4","test","true",""
"","","","","","html-keyboard-response","199","325022","0.0-6.28-4.28","61277e00d79f75c1e0ef6533","656d9e5e2de4f984cfed7d4d","656d9ed19fc3b1722c61d72f","null","<p> <font color=""green"" size=""5vw""> Correct category! </font> <br> <br> <font color=""green"" size=""8vw""> + $0.05 </font> </p>","null","feedback","","","","","","","0.95"
"","","","","","html-keyboard-response","200","325557","0.0-6.29-0.29","61277e00d79f75c1e0ef6533","656d9e5e2de4f984cfed7d4d","656d9ed19fc3b1722c61d72f","535","
            
        <div style=""text-align: center; position: fixed; top: 5vh; left: 40vw;"">
            <div style=""margin:0 auto; width: 20vw; top: 8vh; font-size: 2vw""> 
            <font color=""green""> Bonus : $0.95 </font>
            </div>
        </div>
    
            <div> Please press any key to continue to the next image.</div>
        ","h","ITI","","","","","","",""
"","","","","","html-keyboard-response","201","326163","0.0-6.29-1.29","61277e00d79f75c1e0ef6533","656d9e5e2de4f984cfed7d4d","656d9ed19fc3b1722c61d72f","null","
        
        <div style=""text-align: center; position: fixed; top: 5vh; left: 40vw;"">
            <div style=""margin:0 auto; width: 20vw; top: 8vh; font-size: 2vw""> 
            <font color=""green""> Bonus : $0.95 </font>
            </div>
        </div>
    
        <img class=""stim"" src=./stimuli//pack_shapes_1/cat_2/diff_4/ex_2_4_13.png></img>
    ","null","stimulus","","","","","","",""
"","","","","","html-keyboard-response","202","327166","0.0-6.29-2.29","61277e00d79f75c1e0ef6533","656d9e5e2de4f984cfed7d4d","656d9ed19fc3b1722c61d72f","null","
        <div style=""text-align: center; position: fixed; top: 5vh; left: 40vw;"">
            <div style=""margin:0 auto; width: 20vw; top: 8vh; font-size: 2vw""> 
            <font color=""green""> Bonus : $0.95 </font>
            </div>
        </div>
    ","null","","","","","","","",""
"","","","","","html-keyboard-response","203","327585","0.0-6.29-3.29","61277e00d79f75c1e0ef6533","656d9e5e2de4f984cfed7d4d","656d9ed19fc3b1722c61d72f","418","./stimuli//pack_shapes_1/cat_2/diff_4/ex_2_4_13.png","arrowright","response","ArrowRight","13","2","4","test","true",""
"","","","","","html-keyboard-response","204","329089","0.0-6.29-4.29","61277e00d79f75c1e0ef6533","656d9e5e2de4f984cfed7d4d","656d9ed19fc3b1722c61d72f","null","<p> <font color=""green"" size=""5vw""> Correct category! </font> <br> <br> <font color=""green"" size=""8vw""> + $0.05 </font> </p>","null","feedback","","","","","","","1"
"","","","","","html-keyboard-response","205","329596","0.0-6.30-0.30","61277e00d79f75c1e0ef6533","656d9e5e2de4f984cfed7d4d","656d9ed19fc3b1722c61d72f","506","
            
        <div style=""text-align: center; position: fixed; top: 5vh; left: 40vw;"">
            <div style=""margin:0 auto; width: 20vw; top: 8vh; font-size: 2vw""> 
            <font color=""green""> Bonus : $1 </font>
            </div>
        </div>
    
            <div> Please press any key to continue to the next image.</div>
        ","h","ITI","","","","","","",""
"","","","","","html-keyboard-response","206","330203","0.0-6.30-1.30","61277e00d79f75c1e0ef6533","656d9e5e2de4f984cfed7d4d","656d9ed19fc3b1722c61d72f","null","
        
        <div style=""text-align: center; position: fixed; top: 5vh; left: 40vw;"">
            <div style=""margin:0 auto; width: 20vw; top: 8vh; font-size: 2vw""> 
            <font color=""green""> Bonus : $1 </font>
            </div>
        </div>
    
        <img class=""stim"" src=./stimuli//pack_shapes_1/cat_2/diff_3/ex_2_3_8.png></img>
    ","null","stimulus","","","","","","",""
"","","","","","html-keyboard-response","207","331205","0.0-6.30-2.30","61277e00d79f75c1e0ef6533","656d9e5e2de4f984cfed7d4d","656d9ed19fc3b1722c61d72f","null","
        <div style=""text-align: center; position: fixed; top: 5vh; left: 40vw;"">
            <div style=""margin:0 auto; width: 20vw; top: 8vh; font-size: 2vw""> 
            <font color=""green""> Bonus : $1 </font>
            </div>
        </div>
    ","null","","","","","","","",""
"","","","","","html-keyboard-response","208","331509","0.0-6.30-3.30","61277e00d79f75c1e0ef6533","656d9e5e2de4f984cfed7d4d","656d9ed19fc3b1722c61d72f","303","./stimuli//pack_shapes_1/cat_2/diff_3/ex_2_3_8.png","arrowright","response","ArrowRight","8","2","3","test","true",""
"","","","","","html-keyboard-response","209","333015","0.0-6.30-4.30","61277e00d79f75c1e0ef6533","656d9e5e2de4f984cfed7d4d","656d9ed19fc3b1722c61d72f","null","<p> <font color=""green"" size=""5vw""> Correct category! </font> <br> <br> <font color=""green"" size=""8vw""> + $0.05 </font> </p>","null","feedback","","","","","","","1.05"
"","","","","","html-keyboard-response","210","333769","0.0-6.31-0.31","61277e00d79f75c1e0ef6533","656d9e5e2de4f984cfed7d4d","656d9ed19fc3b1722c61d72f","753","
            
        <div style=""text-align: center; position: fixed; top: 5vh; left: 40vw;"">
            <div style=""margin:0 auto; width: 20vw; top: 8vh; font-size: 2vw""> 
            <font color=""green""> Bonus : $1.05 </font>
            </div>
        </div>
    
            <div> Please press any key to continue to the next image.</div>
        ","h","ITI","","","","","","",""
"","","","","","html-keyboard-response","211","334378","0.0-6.31-1.31","61277e00d79f75c1e0ef6533","656d9e5e2de4f984cfed7d4d","656d9ed19fc3b1722c61d72f","null","
        
        <div style=""text-align: center; position: fixed; top: 5vh; left: 40vw;"">
            <div style=""margin:0 auto; width: 20vw; top: 8vh; font-size: 2vw""> 
            <font color=""green""> Bonus : $1.05 </font>
            </div>
        </div>
    
        <img class=""stim"" src=./stimuli//pack_shapes_1/cat_2/diff_3/ex_2_3_9.png></img>
    ","null","stimulus","","","","","","",""
"","","","","","html-keyboard-response","212","335389","0.0-6.31-2.31","61277e00d79f75c1e0ef6533","656d9e5e2de4f984cfed7d4d","656d9ed19fc3b1722c61d72f","null","
        <div style=""text-align: center; position: fixed; top: 5vh; left: 40vw;"">
            <div style=""margin:0 auto; width: 20vw; top: 8vh; font-size: 2vw""> 
            <font color=""green""> Bonus : $1.05 </font>
            </div>
        </div>
    ","null","","","","","","","",""
"","","","","","html-keyboard-response","213","335860","0.0-6.31-3.31","61277e00d79f75c1e0ef6533","656d9e5e2de4f984cfed7d4d","656d9ed19fc3b1722c61d72f","471","./stimuli//pack_shapes_1/cat_2/diff_3/ex_2_3_9.png","arrowright","response","ArrowRight","9","2","3","test","true",""
"","","","","","html-keyboard-response","214","337368","0.0-6.31-4.31","61277e00d79f75c1e0ef6533","656d9e5e2de4f984cfed7d4d","656d9ed19fc3b1722c61d72f","null","<p> <font color=""green"" size=""5vw""> Correct category! </font> <br> <br> <font color=""green"" size=""8vw""> + $0.05 </font> </p>","null","feedback","","","","","","","1.1"
"","","","","","html-keyboard-response","215","338184","0.0-6.32-0.32","61277e00d79f75c1e0ef6533","656d9e5e2de4f984cfed7d4d","656d9ed19fc3b1722c61d72f","815","
            
        <div style=""text-align: center; position: fixed; top: 5vh; left: 40vw;"">
            <div style=""margin:0 auto; width: 20vw; top: 8vh; font-size: 2vw""> 
            <font color=""green""> Bonus : $1.1 </font>
            </div>
        </div>
    
            <div> Please press any key to continue to the next image.</div>
        ","j","ITI","","","","","","",""
"","","","","","html-keyboard-response","216","338793","0.0-6.32-1.32","61277e00d79f75c1e0ef6533","656d9e5e2de4f984cfed7d4d","656d9ed19fc3b1722c61d72f","null","
        
        <div style=""text-align: center; position: fixed; top: 5vh; left: 40vw;"">
            <div style=""margin:0 auto; width: 20vw; top: 8vh; font-size: 2vw""> 
            <font color=""green""> Bonus : $1.1 </font>
            </div>
        </div>
    
        <img class=""stim"" src=./stimuli//pack_shapes_1/cat_1/diff_3/ex_1_3_4.png></img>
    ","null","stimulus","","","","","","",""
"","","","","","html-keyboard-response","217","339804","0.0-6.32-2.32","61277e00d79f75c1e0ef6533","656d9e5e2de4f984cfed7d4d","656d9ed19fc3b1722c61d72f","null","
        <div style=""text-align: center; position: fixed; top: 5vh; left: 40vw;"">
            <div style=""margin:0 auto; width: 20vw; top: 8vh; font-size: 2vw""> 
            <font color=""green""> Bonus : $1.1 </font>
            </div>
        </div>
    ","null","","","","","","","",""
"","","","","","html-keyboard-response","218","340203","0.0-6.32-3.32","61277e00d79f75c1e0ef6533","656d9e5e2de4f984cfed7d4d","656d9ed19fc3b1722c61d72f","399","./stimuli//pack_shapes_1/cat_1/diff_3/ex_1_3_4.png","arrowleft","response","ArrowLeft","4","1","3","test","true",""
"","","","","","html-keyboard-response","219","341711","0.0-6.32-4.32","61277e00d79f75c1e0ef6533","656d9e5e2de4f984cfed7d4d","656d9ed19fc3b1722c61d72f","null","<p> <font color=""green"" size=""5vw""> Correct category! </font> <br> <br> <font color=""green"" size=""8vw""> + $0.05 </font> </p>","null","feedback","","","","","","","1.15"
"","","","","","html-keyboard-response","220","342262","0.0-6.33-0.33","61277e00d79f75c1e0ef6533","656d9e5e2de4f984cfed7d4d","656d9ed19fc3b1722c61d72f","549","
            
        <div style=""text-align: center; position: fixed; top: 5vh; left: 40vw;"">
            <div style=""margin:0 auto; width: 20vw; top: 8vh; font-size: 2vw""> 
            <font color=""green""> Bonus : $1.15 </font>
            </div>
        </div>
    
            <div> Please press any key to continue to the next image.</div>
        ","h","ITI","","","","","","",""
"","","","","","html-keyboard-response","221","342871","0.0-6.33-1.33","61277e00d79f75c1e0ef6533","656d9e5e2de4f984cfed7d4d","656d9ed19fc3b1722c61d72f","null","
        
        <div style=""text-align: center; position: fixed; top: 5vh; left: 40vw;"">
            <div style=""margin:0 auto; width: 20vw; top: 8vh; font-size: 2vw""> 
            <font color=""green""> Bonus : $1.15 </font>
            </div>
        </div>
    
        <img class=""stim"" src=./stimuli//pack_shapes_1/cat_2/diff_3/ex_2_3_1.png></img>
    ","null","stimulus","","","","","","",""
"","","","","","html-keyboard-response","222","343886","0.0-6.33-2.33","61277e00d79f75c1e0ef6533","656d9e5e2de4f984cfed7d4d","656d9ed19fc3b1722c61d72f","null","
        <div style=""text-align: center; position: fixed; top: 5vh; left: 40vw;"">
            <div style=""margin:0 auto; width: 20vw; top: 8vh; font-size: 2vw""> 
            <font color=""green""> Bonus : $1.15 </font>
            </div>
        </div>
    ","null","","","","","","","",""
"","","","","","html-keyboard-response","223","344271","0.0-6.33-3.33","61277e00d79f75c1e0ef6533","656d9e5e2de4f984cfed7d4d","656d9ed19fc3b1722c61d72f","384","./stimuli//pack_shapes_1/cat_2/diff_3/ex_2_3_1.png","arrowright","response","ArrowRight","1","2","3","test","true",""
"","","","","","html-keyboard-response","224","345788","0.0-6.33-4.33","61277e00d79f75c1e0ef6533","656d9e5e2de4f984cfed7d4d","656d9ed19fc3b1722c61d72f","null","<p> <font color=""green"" size=""5vw""> Correct category! </font> <br> <br> <font color=""green"" size=""8vw""> + $0.05 </font> </p>","null","feedback","","","","","","","1.2"
"","","","","","html-keyboard-response","225","346475","0.0-6.34-0.34","61277e00d79f75c1e0ef6533","656d9e5e2de4f984cfed7d4d","656d9ed19fc3b1722c61d72f","686","
            
        <div style=""text-align: center; position: fixed; top: 5vh; left: 40vw;"">
            <div style=""margin:0 auto; width: 20vw; top: 8vh; font-size: 2vw""> 
            <font color=""green""> Bonus : $1.2 </font>
            </div>
        </div>
    
            <div> Please press any key to continue to the next image.</div>
        ","3","ITI","","","","","","",""
"","","","","","html-keyboard-response","226","347087","0.0-6.34-1.34","61277e00d79f75c1e0ef6533","656d9e5e2de4f984cfed7d4d","656d9ed19fc3b1722c61d72f","null","
        
        <div style=""text-align: center; position: fixed; top: 5vh; left: 40vw;"">
            <div style=""margin:0 auto; width: 20vw; top: 8vh; font-size: 2vw""> 
            <font color=""green""> Bonus : $1.2 </font>
            </div>
        </div>
    
        <img class=""stim"" src=./stimuli//pack_shapes_1/cat_2/diff_3/ex_2_3_4.png></img>
    ","null","stimulus","","","","","","",""
"","","","","","html-keyboard-response","227","348100","0.0-6.34-2.34","61277e00d79f75c1e0ef6533","656d9e5e2de4f984cfed7d4d","656d9ed19fc3b1722c61d72f","null","
        <div style=""text-align: center; position: fixed; top: 5vh; left: 40vw;"">
            <div style=""margin:0 auto; width: 20vw; top: 8vh; font-size: 2vw""> 
            <font color=""green""> Bonus : $1.2 </font>
            </div>
        </div>
    ","null","","","","","","","",""
"","","","","","html-keyboard-response","228","348629","0.0-6.34-3.34","61277e00d79f75c1e0ef6533","656d9e5e2de4f984cfed7d4d","656d9ed19fc3b1722c61d72f","528","./stimuli//pack_shapes_1/cat_2/diff_3/ex_2_3_4.png","arrowright","response","ArrowRight","4","2","3","test","true",""
"","","","","","html-keyboard-response","229","350140","0.0-6.34-4.34","61277e00d79f75c1e0ef6533","656d9e5e2de4f984cfed7d4d","656d9ed19fc3b1722c61d72f","null","<p> <font color=""green"" size=""5vw""> Correct category! </font> <br> <br> <font color=""green"" size=""8vw""> + $0.05 </font> </p>","null","feedback","","","","","","","1.25"
