"success","timeout","failed_images","failed_audio","failed_video","trial_type","trial_index","time_elapsed","internal_node_id","subject_id","study_id","session_id","rt","stimulus","response","task","correct_response","exemplar_ID","category","difficulty","phase","correct","bonus"
"true","false","[]","[]","[]","preload","0","3","0.0-0.0","5be39428dd850e0001d2d401","656d9e5e2de4f984cfed7d4d","656d9ef59480f266f2f07c21","","","","","","","","","","",""
"","","","","","html-keyboard-response","1","6172","0.0-1.0","5be39428dd850e0001d2d401","656d9e5e2de4f984cfed7d4d","656d9ef59480f266f2f07c21","6169","Welcome to the Category Learning experiment! Press any key to continue.","arrowdown","welcome","","","","","","",""
"","","","","","html-keyboard-response","2","20893","0.0-2.0","5be39428dd850e0001d2d401","656d9e5e2de4f984cfed7d4d","656d9ef59480f266f2f07c21","14720","
            <p>You will be shown images of white shapes. Some are category A, some are category B.
            <br>You will not know in advance which category a specific shape belongs to.</p>
            <p>After you see an image, you will be asked to guess its category <b>(left arrow for category A, right arrow for category B)</b></p>
            <p>After you choose, the screen will show you whether you were correct or not.</p>
            <p><b>You will receive a bonus payment of $0.05 for each correct answer!</b></p>
            <p><b>You will lose $0.05 from your bonus payment for each incorrect answer! The bonus can not become less that $0.</b></p>
            <p>Press any key to continue.</p>
            ","arrowright","introduction_1","","","","","","",""
"","","","","","html-keyboard-response","3","46031","0.0-3.0","5be39428dd850e0001d2d401","656d9e5e2de4f984cfed7d4d","656d9ef59480f266f2f07c21","25137","
            <p> <b>The first 10 trials are a practice round that will not count towards your bonus payment.</b></p>
            <p> You will be notified when practice finishes and the test begins. </p>
            <p> Press any key to begin the practice round.</p>
            ","arrowright","introduction_2","","","","","","",""
"","","","","","html-keyboard-response","4","47514","0.0-4.0-0.0","5be39428dd850e0001d2d401","656d9e5e2de4f984cfed7d4d","656d9ef59480f266f2f07c21","1481","
            
        <div style=""text-align: center; position: fixed; top: 5vh; left: 40vw;"">
            <div style=""margin:0 auto; width: 20vw; top: 8vh; font-size: 2vw""> 
            <font color=""green""> Bonus : $0 </font>
            </div>
        </div>
    
            <div> Please press any key to continue to the next image.</div>
        ","arrowright","ITI","","","","","","",""
"","","","","","html-keyboard-response","5","48116","0.0-4.0-1.0","5be39428dd850e0001d2d401","656d9e5e2de4f984cfed7d4d","656d9ef59480f266f2f07c21","null","
        
        <div style=""text-align: center; position: fixed; top: 5vh; left: 40vw;"">
            <div style=""margin:0 auto; width: 20vw; top: 8vh; font-size: 2vw""> 
            <font color=""green""> Bonus : $0 </font>
            </div>
        </div>
    
        <img class=""stim"" src=./stimuli//pack_shapes_1/cat_2/diff_1/ex_2_1_10.png></img>
    ","null","stimulus","","","","","","",""
"","","","","","html-keyboard-response","6","49118","0.0-4.0-2.0","5be39428dd850e0001d2d401","656d9e5e2de4f984cfed7d4d","656d9ef59480f266f2f07c21","null","
        <div style=""text-align: center; position: fixed; top: 5vh; left: 40vw;"">
            <div style=""margin:0 auto; width: 20vw; top: 8vh; font-size: 2vw""> 
            <font color=""green""> Bonus : $0 </font>
            </div>
        </div>
    ","null","","","","","","","",""
"","","","","","html-keyboard-response","7","49817","0.0-4.0-3.0","5be39428dd850e0001d2d401","656d9e5e2de4f984cfed7d4d","656d9ef59480f266f2f07c21","698","./stimuli//pack_shapes_1/cat_2/diff_1/ex_2_1_10.png","arrowright","response","ArrowRight","10","2","1","train","true",""
"","","","","","html-keyboard-response","8","51322","0.0-4.0-4.0","5be39428dd850e0001d2d401","656d9e5e2de4f984cfed7d4d","656d9ef59480f266f2f07c21","null","<p><font color=""green"" size=""5vw""> Correct category! </font></p>","null","feedback","","","","","","","0"
"","","","","","html-keyboard-response","9","52324","0.0-4.0-0.1","5be39428dd850e0001d2d401","656d9e5e2de4f984cfed7d4d","656d9ef59480f266f2f07c21","1000","
            
        <div style=""text-align: center; position: fixed; top: 5vh; left: 40vw;"">
            <div style=""margin:0 auto; width: 20vw; top: 8vh; font-size: 2vw""> 
            <font color=""green""> Bonus : $0 </font>
            </div>
        </div>
    
            <div> Please press any key to continue to the next image.</div>
        ","arrowright","ITI","","","","","","",""
"","","","","","html-keyboard-response","10","52926","0.0-4.0-1.1","5be39428dd850e0001d2d401","656d9e5e2de4f984cfed7d4d","656d9ef59480f266f2f07c21","null","
        
        <div style=""text-align: center; position: fixed; top: 5vh; left: 40vw;"">
            <div style=""margin:0 auto; width: 20vw; top: 8vh; font-size: 2vw""> 
            <font color=""green""> Bonus : $0 </font>
            </div>
        </div>
    
        <img class=""stim"" src=./stimuli//pack_shapes_1/cat_2/diff_1/ex_2_1_1.png></img>
    ","null","stimulus","","","","","","",""
"","","","","","html-keyboard-response","11","53930","0.0-4.0-2.1","5be39428dd850e0001d2d401","656d9e5e2de4f984cfed7d4d","656d9ef59480f266f2f07c21","null","
        <div style=""text-align: center; position: fixed; top: 5vh; left: 40vw;"">
            <div style=""margin:0 auto; width: 20vw; top: 8vh; font-size: 2vw""> 
            <font color=""green""> Bonus : $0 </font>
            </div>
        </div>
    ","null","","","","","","","",""
"","","","","","html-keyboard-response","12","54443","0.0-4.0-3.1","5be39428dd850e0001d2d401","656d9e5e2de4f984cfed7d4d","656d9ef59480f266f2f07c21","512","./stimuli//pack_shapes_1/cat_2/diff_1/ex_2_1_1.png","arrowright","response","ArrowRight","1","2","1","train","true",""
"","","","","","html-keyboard-response","13","55947","0.0-4.0-4.1","5be39428dd850e0001d2d401","656d9e5e2de4f984cfed7d4d","656d9ef59480f266f2f07c21","null","<p><font color=""green"" size=""5vw""> Correct category! </font></p>","null","feedback","","","","","","","0"
"","","","","","html-keyboard-response","14","56607","0.0-4.0-0.2","5be39428dd850e0001d2d401","656d9e5e2de4f984cfed7d4d","656d9ef59480f266f2f07c21","659","
            
        <div style=""text-align: center; position: fixed; top: 5vh; left: 40vw;"">
            <div style=""margin:0 auto; width: 20vw; top: 8vh; font-size: 2vw""> 
            <font color=""green""> Bonus : $0 </font>
            </div>
        </div>
    
            <div> Please press any key to continue to the next image.</div>
        ","arrowright","ITI","","","","","","",""
"","","","","","html-keyboard-response","15","57210","0.0-4.0-1.2","5be39428dd850e0001d2d401","656d9e5e2de4f984cfed7d4d","656d9ef59480f266f2f07c21","null","
        
        <div style=""text-align: center; position: fixed; top: 5vh; left: 40vw;"">
            <div style=""margin:0 auto; width: 20vw; top: 8vh; font-size: 2vw""> 
            <font color=""green""> Bonus : $0 </font>
            </div>
        </div>
    
        <img class=""stim"" src=./stimuli//pack_shapes_1/cat_1/diff_1/ex_1_1_8.png></img>
    ","null","stimulus","","","","","","",""
"","","","","","html-keyboard-response","16","58214","0.0-4.0-2.2","5be39428dd850e0001d2d401","656d9e5e2de4f984cfed7d4d","656d9ef59480f266f2f07c21","null","
        <div style=""text-align: center; position: fixed; top: 5vh; left: 40vw;"">
            <div style=""margin:0 auto; width: 20vw; top: 8vh; font-size: 2vw""> 
            <font color=""green""> Bonus : $0 </font>
            </div>
        </div>
    ","null","","","","","","","",""
"","","","","","html-keyboard-response","17","58586","0.0-4.0-3.2","5be39428dd850e0001d2d401","656d9e5e2de4f984cfed7d4d","656d9ef59480f266f2f07c21","371","./stimuli//pack_shapes_1/cat_1/diff_1/ex_1_1_8.png","arrowleft","response","ArrowLeft","8","1","1","train","true",""
"","","","","","html-keyboard-response","18","60091","0.0-4.0-4.2","5be39428dd850e0001d2d401","656d9e5e2de4f984cfed7d4d","656d9ef59480f266f2f07c21","null","<p><font color=""green"" size=""5vw""> Correct category! </font></p>","null","feedback","","","","","","","0"
"","","","","","html-keyboard-response","19","60771","0.0-4.0-0.3","5be39428dd850e0001d2d401","656d9e5e2de4f984cfed7d4d","656d9ef59480f266f2f07c21","680","
            
        <div style=""text-align: center; position: fixed; top: 5vh; left: 40vw;"">
            <div style=""margin:0 auto; width: 20vw; top: 8vh; font-size: 2vw""> 
            <font color=""green""> Bonus : $0 </font>
            </div>
        </div>
    
            <div> Please press any key to continue to the next image.</div>
        ","arrowleft","ITI","","","","","","",""
"","","","","","html-keyboard-response","20","61373","0.0-4.0-1.3","5be39428dd850e0001d2d401","656d9e5e2de4f984cfed7d4d","656d9ef59480f266f2f07c21","null","
        
        <div style=""text-align: center; position: fixed; top: 5vh; left: 40vw;"">
            <div style=""margin:0 auto; width: 20vw; top: 8vh; font-size: 2vw""> 
            <font color=""green""> Bonus : $0 </font>
            </div>
        </div>
    
        <img class=""stim"" src=./stimuli//pack_shapes_1/cat_2/diff_2/ex_2_2_2.png></img>
    ","null","stimulus","","","","","","",""
"","","","","","html-keyboard-response","21","62377","0.0-4.0-2.3","5be39428dd850e0001d2d401","656d9e5e2de4f984cfed7d4d","656d9ef59480f266f2f07c21","null","
        <div style=""text-align: center; position: fixed; top: 5vh; left: 40vw;"">
            <div style=""margin:0 auto; width: 20vw; top: 8vh; font-size: 2vw""> 
            <font color=""green""> Bonus : $0 </font>
            </div>
        </div>
    ","null","","","","","","","",""
"","","","","","html-keyboard-response","22","62667","0.0-4.0-3.3","5be39428dd850e0001d2d401","656d9e5e2de4f984cfed7d4d","656d9ef59480f266f2f07c21","290","./stimuli//pack_shapes_1/cat_2/diff_2/ex_2_2_2.png","arrowright","response","ArrowRight","2","2","2","train","true",""
"","","","","","html-keyboard-response","23","64170","0.0-4.0-4.3","5be39428dd850e0001d2d401","656d9e5e2de4f984cfed7d4d","656d9ef59480f266f2f07c21","null","<p><font color=""green"" size=""5vw""> Correct category! </font></p>","null","feedback","","","","","","","0"
"","","","","","html-keyboard-response","24","64706","0.0-4.0-0.4","5be39428dd850e0001d2d401","656d9e5e2de4f984cfed7d4d","656d9ef59480f266f2f07c21","535","
            
        <div style=""text-align: center; position: fixed; top: 5vh; left: 40vw;"">
            <div style=""margin:0 auto; width: 20vw; top: 8vh; font-size: 2vw""> 
            <font color=""green""> Bonus : $0 </font>
            </div>
        </div>
    
            <div> Please press any key to continue to the next image.</div>
        ","arrowright","ITI","","","","","","",""
"","","","","","html-keyboard-response","25","65308","0.0-4.0-1.4","5be39428dd850e0001d2d401","656d9e5e2de4f984cfed7d4d","656d9ef59480f266f2f07c21","null","
        
        <div style=""text-align: center; position: fixed; top: 5vh; left: 40vw;"">
            <div style=""margin:0 auto; width: 20vw; top: 8vh; font-size: 2vw""> 
            <font color=""green""> Bonus : $0 </font>
            </div>
        </div>
    
        <img class=""stim"" src=./stimuli//pack_shapes_1/cat_1/diff_1/ex_1_1_4.png></img>
    ","null","stimulus","","","","","","",""
"","","","","","html-keyboard-response","26","66310","0.0-4.0-2.4","5be39428dd850e0001d2d401","656d9e5e2de4f984cfed7d4d","656d9ef59480f266f2f07c21","null","
        <div style=""text-align: center; position: fixed; top: 5vh; left: 40vw;"">
            <div style=""margin:0 auto; width: 20vw; top: 8vh; font-size: 2vw""> 
            <font color=""green""> Bonus : $0 </font>
            </div>
        </div>
    ","null","","","","","","","",""
"","","","","","html-keyboard-response","27","66685","0.0-4.0-3.4","5be39428dd850e0001d2d401","656d9e5e2de4f984cfed7d4d","656d9ef59480f266f2f07c21","374","./stimuli//pack_shapes_1/cat_1/diff_1/ex_1_1_4.png","arrowleft","response","ArrowLeft","4","1","1","train","true",""
"","","","","","html-keyboard-response","28","68187","0.0-4.0-4.4","5be39428dd850e0001d2d401","656d9e5e2de4f984cfed7d4d","656d9ef59480f266f2f07c21","null","<p><font color=""green"" size=""5vw""> Correct category! </font></p>","null","feedback","","","","","","","0"
"","","","","","html-keyboard-response","29","68653","0.0-4.0-0.5","5be39428dd850e0001d2d401","656d9e5e2de4f984cfed7d4d","656d9ef59480f266f2f07c21","466","
            
        <div style=""text-align: center; position: fixed; top: 5vh; left: 40vw;"">
            <div style=""margin:0 auto; width: 20vw; top: 8vh; font-size: 2vw""> 
            <font color=""green""> Bonus : $0 </font>
            </div>
        </div>
    
            <div> Please press any key to continue to the next image.</div>
        ","arrowleft","ITI","","","","","","",""
"","","","","","html-keyboard-response","30","69255","0.0-4.0-1.5","5be39428dd850e0001d2d401","656d9e5e2de4f984cfed7d4d","656d9ef59480f266f2f07c21","null","
        
        <div style=""text-align: center; position: fixed; top: 5vh; left: 40vw;"">
            <div style=""margin:0 auto; width: 20vw; top: 8vh; font-size: 2vw""> 
            <font color=""green""> Bonus : $0 </font>
            </div>
        </div>
    
        <img class=""stim"" src=./stimuli//pack_shapes_1/cat_1/diff_1/ex_1_1_11.png></img>
    ","null","stimulus","","","","","","",""
"","","","","","html-keyboard-response","31","70260","0.0-4.0-2.5","5be39428dd850e0001d2d401","656d9e5e2de4f984cfed7d4d","656d9ef59480f266f2f07c21","null","
        <div style=""text-align: center; position: fixed; top: 5vh; left: 40vw;"">
            <div style=""margin:0 auto; width: 20vw; top: 8vh; font-size: 2vw""> 
            <font color=""green""> Bonus : $0 </font>
            </div>
        </div>
    ","null","","","","","","","",""
"","","","","","html-keyboard-response","32","70543","0.0-4.0-3.5","5be39428dd850e0001d2d401","656d9e5e2de4f984cfed7d4d","656d9ef59480f266f2f07c21","283","./stimuli//pack_shapes_1/cat_1/diff_1/ex_1_1_11.png","arrowleft","response","ArrowLeft","11","1","1","train","true",""
"","","","","","html-keyboard-response","33","72047","0.0-4.0-4.5","5be39428dd850e0001d2d401","656d9e5e2de4f984cfed7d4d","656d9ef59480f266f2f07c21","null","<p><font color=""green"" size=""5vw""> Correct category! </font></p>","null","feedback","","","","","","","0"
"","","","","","html-keyboard-response","34","72614","0.0-4.0-0.6","5be39428dd850e0001d2d401","656d9e5e2de4f984cfed7d4d","656d9ef59480f266f2f07c21","567","
            
        <div style=""text-align: center; position: fixed; top: 5vh; left: 40vw;"">
            <div style=""margin:0 auto; width: 20vw; top: 8vh; font-size: 2vw""> 
            <font color=""green""> Bonus : $0 </font>
            </div>
        </div>
    
            <div> Please press any key to continue to the next image.</div>
        ","arrowleft","ITI","","","","","","",""
"","","","","","html-keyboard-response","35","73217","0.0-4.0-1.6","5be39428dd850e0001d2d401","656d9e5e2de4f984cfed7d4d","656d9ef59480f266f2f07c21","null","
        
        <div style=""text-align: center; position: fixed; top: 5vh; left: 40vw;"">
            <div style=""margin:0 auto; width: 20vw; top: 8vh; font-size: 2vw""> 
            <font color=""green""> Bonus : $0 </font>
            </div>
        </div>
    
        <img class=""stim"" src=./stimuli//pack_shapes_1/cat_1/diff_2/ex_1_2_12.png></img>
    ","null","stimulus","","","","","","",""
"","","","","","html-keyboard-response","36","74222","0.0-4.0-2.6","5be39428dd850e0001d2d401","656d9e5e2de4f984cfed7d4d","656d9ef59480f266f2f07c21","null","
        <div style=""text-align: center; position: fixed; top: 5vh; left: 40vw;"">
            <div style=""margin:0 auto; width: 20vw; top: 8vh; font-size: 2vw""> 
            <font color=""green""> Bonus : $0 </font>
            </div>
        </div>
    ","null","","","","","","","",""
"","","","","","html-keyboard-response","37","74495","0.0-4.0-3.6","5be39428dd850e0001d2d401","656d9e5e2de4f984cfed7d4d","656d9ef59480f266f2f07c21","272","./stimuli//pack_shapes_1/cat_1/diff_2/ex_1_2_12.png","arrowleft","response","ArrowLeft","12","1","2","train","true",""
"","","","","","html-keyboard-response","38","75998","0.0-4.0-4.6","5be39428dd850e0001d2d401","656d9e5e2de4f984cfed7d4d","656d9ef59480f266f2f07c21","null","<p><font color=""green"" size=""5vw""> Correct category! </font></p>","null","feedback","","","","","","","0"
"","","","","","html-keyboard-response","39","76496","0.0-4.0-0.7","5be39428dd850e0001d2d401","656d9e5e2de4f984cfed7d4d","656d9ef59480f266f2f07c21","497","
            
        <div style=""text-align: center; position: fixed; top: 5vh; left: 40vw;"">
            <div style=""margin:0 auto; width: 20vw; top: 8vh; font-size: 2vw""> 
            <font color=""green""> Bonus : $0 </font>
            </div>
        </div>
    
            <div> Please press any key to continue to the next image.</div>
        ","arrowleft","ITI","","","","","","",""
"","","","","","html-keyboard-response","40","77097","0.0-4.0-1.7","5be39428dd850e0001d2d401","656d9e5e2de4f984cfed7d4d","656d9ef59480f266f2f07c21","null","
        
        <div style=""text-align: center; position: fixed; top: 5vh; left: 40vw;"">
            <div style=""margin:0 auto; width: 20vw; top: 8vh; font-size: 2vw""> 
            <font color=""green""> Bonus : $0 </font>
            </div>
        </div>
    
        <img class=""stim"" src=./stimuli//pack_shapes_1/cat_2/diff_1/ex_2_1_15.png></img>
    ","null","stimulus","","","","","","",""
"","","","","","html-keyboard-response","41","78099","0.0-4.0-2.7","5be39428dd850e0001d2d401","656d9e5e2de4f984cfed7d4d","656d9ef59480f266f2f07c21","null","
        <div style=""text-align: center; position: fixed; top: 5vh; left: 40vw;"">
            <div style=""margin:0 auto; width: 20vw; top: 8vh; font-size: 2vw""> 
            <font color=""green""> Bonus : $0 </font>
            </div>
        </div>
    ","null","","","","","","","",""
"","","","","","html-keyboard-response","42","78409","0.0-4.0-3.7","5be39428dd850e0001d2d401","656d9e5e2de4f984cfed7d4d","656d9ef59480f266f2f07c21","309","./stimuli//pack_shapes_1/cat_2/diff_1/ex_2_1_15.png","arrowright","response","ArrowRight","15","2","1","train","true",""
"","","","","","html-keyboard-response","43","79912","0.0-4.0-4.7","5be39428dd850e0001d2d401","656d9e5e2de4f984cfed7d4d","656d9ef59480f266f2f07c21","null","<p><font color=""green"" size=""5vw""> Correct category! </font></p>","null","feedback","","","","","","","0"
"","","","","","html-keyboard-response","44","80934","0.0-4.0-0.8","5be39428dd850e0001d2d401","656d9e5e2de4f984cfed7d4d","656d9ef59480f266f2f07c21","1021","
            
        <div style=""text-align: center; position: fixed; top: 5vh; left: 40vw;"">
            <div style=""margin:0 auto; width: 20vw; top: 8vh; font-size: 2vw""> 
            <font color=""green""> Bonus : $0 </font>
            </div>
        </div>
    
            <div> Please press any key to continue to the next image.</div>
        ","arrowleft","ITI","","","","","","",""
"","","","","","html-keyboard-response","45","81537","0.0-4.0-1.8","5be39428dd850e0001d2d401","656d9e5e2de4f984cfed7d4d","656d9ef59480f266f2f07c21","null","
        
        <div style=""text-align: center; position: fixed; top: 5vh; left: 40vw;"">
            <div style=""margin:0 auto; width: 20vw; top: 8vh; font-size: 2vw""> 
            <font color=""green""> Bonus : $0 </font>
            </div>
        </div>
    
        <img class=""stim"" src=./stimuli//pack_shapes_1/cat_1/diff_2/ex_1_2_5.png></img>
    ","null","stimulus","","","","","","",""
"","","","","","html-keyboard-response","46","82542","0.0-4.0-2.8","5be39428dd850e0001d2d401","656d9e5e2de4f984cfed7d4d","656d9ef59480f266f2f07c21","null","
        <div style=""text-align: center; position: fixed; top: 5vh; left: 40vw;"">
            <div style=""margin:0 auto; width: 20vw; top: 8vh; font-size: 2vw""> 
            <font color=""green""> Bonus : $0 </font>
            </div>
        </div>
    ","null","","","","","","","",""
"","","","","","html-keyboard-response","47","82899","0.0-4.0-3.8","5be39428dd850e0001d2d401","656d9e5e2de4f984cfed7d4d","656d9ef59480f266f2f07c21","356","./stimuli//pack_shapes_1/cat_1/diff_2/ex_1_2_5.png","arrowleft","response","ArrowLeft","5","1","2","train","true",""
"","","","","","html-keyboard-response","48","84402","0.0-4.0-4.8","5be39428dd850e0001d2d401","656d9e5e2de4f984cfed7d4d","656d9ef59480f266f2f07c21","null","<p><font color=""green"" size=""5vw""> Correct category! </font></p>","null","feedback","","","","","","","0"
"","","","","","html-keyboard-response","49","84910","0.0-4.0-0.9","5be39428dd850e0001d2d401","656d9e5e2de4f984cfed7d4d","656d9ef59480f266f2f07c21","507","
            
        <div style=""text-align: center; position: fixed; top: 5vh; left: 40vw;"">
            <div style=""margin:0 auto; width: 20vw; top: 8vh; font-size: 2vw""> 
            <font color=""green""> Bonus : $0 </font>
            </div>
        </div>
    
            <div> Please press any key to continue to the next image.</div>
        ","arrowleft","ITI","","","","","","",""
"","","","","","html-keyboard-response","50","85514","0.0-4.0-1.9","5be39428dd850e0001d2d401","656d9e5e2de4f984cfed7d4d","656d9ef59480f266f2f07c21","null","
        
        <div style=""text-align: center; position: fixed; top: 5vh; left: 40vw;"">
            <div style=""margin:0 auto; width: 20vw; top: 8vh; font-size: 2vw""> 
            <font color=""green""> Bonus : $0 </font>
            </div>
        </div>
    
        <img class=""stim"" src=./stimuli//pack_shapes_1/cat_2/diff_2/ex_2_2_14.png></img>
    ","null","stimulus","","","","","","",""
"","","","","","html-keyboard-response","51","86517","0.0-4.0-2.9","5be39428dd850e0001d2d401","656d9e5e2de4f984cfed7d4d","656d9ef59480f266f2f07c21","null","
        <div style=""text-align: center; position: fixed; top: 5vh; left: 40vw;"">
            <div style=""margin:0 auto; width: 20vw; top: 8vh; font-size: 2vw""> 
            <font color=""green""> Bonus : $0 </font>
            </div>
        </div>
    ","null","","","","","","","",""
"","","","","","html-keyboard-response","52","86864","0.0-4.0-3.9","5be39428dd850e0001d2d401","656d9e5e2de4f984cfed7d4d","656d9ef59480f266f2f07c21","347","./stimuli//pack_shapes_1/cat_2/diff_2/ex_2_2_14.png","arrowright","response","ArrowRight","14","2","2","train","true",""
"","","","","","html-keyboard-response","53","88370","0.0-4.0-4.9","5be39428dd850e0001d2d401","656d9e5e2de4f984cfed7d4d","656d9ef59480f266f2f07c21","null","<p><font color=""green"" size=""5vw""> Correct category! </font></p>","null","feedback","","","","","","","0"
"","","","","","html-keyboard-response","54","94322","0.0-5.0","5be39428dd850e0001d2d401","656d9e5e2de4f984cfed7d4d","656d9ef59480f266f2f07c21","5952","
            <b> <p> The practice round has finished.</p>
            <p> For the rest of the experiment you will receive a $0.05 bonus for each correct answer and lose $0.05 from your bonus for each incorrect answer!</p>
            <p> The bonus can not become less than $0. </b>
            <p> Press any key to begin the test. </p>
            ","arrowright","intermission","","","","","","",""
"","","","","","html-keyboard-response","55","94847","0.0-6.0-0.0","5be39428dd850e0001d2d401","656d9e5e2de4f984cfed7d4d","656d9ef59480f266f2f07c21","524","
            
        <div style=""text-align: center; position: fixed; top: 5vh; left: 40vw;"">
            <div style=""margin:0 auto; width: 20vw; top: 8vh; font-size: 2vw""> 
            <font color=""green""> Bonus : $0 </font>
            </div>
        </div>
    
            <div> Please press any key to continue to the next image.</div>
        ","arrowright","ITI","","","","","","",""
"","","","","","html-keyboard-response","56","95450","0.0-6.0-1.0","5be39428dd850e0001d2d401","656d9e5e2de4f984cfed7d4d","656d9ef59480f266f2f07c21","null","
        
        <div style=""text-align: center; position: fixed; top: 5vh; left: 40vw;"">
            <div style=""margin:0 auto; width: 20vw; top: 8vh; font-size: 2vw""> 
            <font color=""green""> Bonus : $0 </font>
            </div>
        </div>
    
        <img class=""stim"" src=./stimuli//pack_shapes_1/cat_2/diff_1/ex_2_1_3.png></img>
    ","null","stimulus","","","","","","",""
"","","","","","html-keyboard-response","57","96456","0.0-6.0-2.0","5be39428dd850e0001d2d401","656d9e5e2de4f984cfed7d4d","656d9ef59480f266f2f07c21","null","
        <div style=""text-align: center; position: fixed; top: 5vh; left: 40vw;"">
            <div style=""margin:0 auto; width: 20vw; top: 8vh; font-size: 2vw""> 
            <font color=""green""> Bonus : $0 </font>
            </div>
        </div>
    ","null","","","","","","","",""
"","","","","","html-keyboard-response","58","96764","0.0-6.0-3.0","5be39428dd850e0001d2d401","656d9e5e2de4f984cfed7d4d","656d9ef59480f266f2f07c21","307","./stimuli//pack_shapes_1/cat_2/diff_1/ex_2_1_3.png","arrowright","response","ArrowRight","3","2","1","test","true",""
"","","","","","html-keyboard-response","59","98267","0.0-6.0-4.0","5be39428dd850e0001d2d401","656d9e5e2de4f984cfed7d4d","656d9ef59480f266f2f07c21","null","<p> <font color=""green"" size=""5vw""> Correct category! </font> <br> <br> <font color=""green"" size=""8vw""> + $0.05 </font> </p>","null","feedback","","","","","","","0.05"
"","","","","","html-keyboard-response","60","98849","0.0-6.1-0.1","5be39428dd850e0001d2d401","656d9e5e2de4f984cfed7d4d","656d9ef59480f266f2f07c21","581","
            
        <div style=""text-align: center; position: fixed; top: 5vh; left: 40vw;"">
            <div style=""margin:0 auto; width: 20vw; top: 8vh; font-size: 2vw""> 
            <font color=""green""> Bonus : $0.05 </font>
            </div>
        </div>
    
            <div> Please press any key to continue to the next image.</div>
        ","arrowright","ITI","","","","","","",""
"","","","","","html-keyboard-response","61","99452","0.0-6.1-1.1","5be39428dd850e0001d2d401","656d9e5e2de4f984cfed7d4d","656d9ef59480f266f2f07c21","null","
        
        <div style=""text-align: center; position: fixed; top: 5vh; left: 40vw;"">
            <div style=""margin:0 auto; width: 20vw; top: 8vh; font-size: 2vw""> 
            <font color=""green""> Bonus : $0.05 </font>
            </div>
        </div>
    
        <img class=""stim"" src=./stimuli//pack_shapes_1/cat_1/diff_1/ex_1_1_6.png></img>
    ","null","stimulus","","","","","","",""
"","","","","","html-keyboard-response","62","100458","0.0-6.1-2.1","5be39428dd850e0001d2d401","656d9e5e2de4f984cfed7d4d","656d9ef59480f266f2f07c21","null","
        <div style=""text-align: center; position: fixed; top: 5vh; left: 40vw;"">
            <div style=""margin:0 auto; width: 20vw; top: 8vh; font-size: 2vw""> 
            <font color=""green""> Bonus : $0.05 </font>
            </div>
        </div>
    ","null","","","","","","","",""
"","","","","","html-keyboard-response","63","100854","0.0-6.1-3.1","5be39428dd850e0001d2d401","656d9e5e2de4f984cfed7d4d","656d9ef59480f266f2f07c21","396","./stimuli//pack_shapes_1/cat_1/diff_1/ex_1_1_6.png","arrowleft","response","ArrowLeft","6","1","1","test","true",""
"","","","","","html-keyboard-response","64","102359","0.0-6.1-4.1","5be39428dd850e0001d2d401","656d9e5e2de4f984cfed7d4d","656d9ef59480f266f2f07c21","null","<p> <font color=""green"" size=""5vw""> Correct category! </font> <br> <br> <font color=""green"" size=""8vw""> + $0.05 </font> </p>","null","feedback","","","","","","","0.1"
"","","","","","html-keyboard-response","65","102888","0.0-6.2-0.2","5be39428dd850e0001d2d401","656d9e5e2de4f984cfed7d4d","656d9ef59480f266f2f07c21","528","
            
        <div style=""text-align: center; position: fixed; top: 5vh; left: 40vw;"">
            <div style=""margin:0 auto; width: 20vw; top: 8vh; font-size: 2vw""> 
            <font color=""green""> Bonus : $0.1 </font>
            </div>
        </div>
    
            <div> Please press any key to continue to the next image.</div>
        ","arrowleft","ITI","","","","","","",""
"","","","","","html-keyboard-response","66","103491","0.0-6.2-1.2","5be39428dd850e0001d2d401","656d9e5e2de4f984cfed7d4d","656d9ef59480f266f2f07c21","null","
        
        <div style=""text-align: center; position: fixed; top: 5vh; left: 40vw;"">
            <div style=""margin:0 auto; width: 20vw; top: 8vh; font-size: 2vw""> 
            <font color=""green""> Bonus : $0.1 </font>
            </div>
        </div>
    
        <img class=""stim"" src=./stimuli//pack_shapes_1/cat_2/diff_1/ex_2_1_2.png></img>
    ","null","stimulus","","","","","","",""
"","","","","","html-keyboard-response","67","104492","0.0-6.2-2.2","5be39428dd850e0001d2d401","656d9e5e2de4f984cfed7d4d","656d9ef59480f266f2f07c21","null","
        <div style=""text-align: center; position: fixed; top: 5vh; left: 40vw;"">
            <div style=""margin:0 auto; width: 20vw; top: 8vh; font-size: 2vw""> 
            <font color=""green""> Bonus : $0.1 </font>
            </div>
        </div>
    ","null","","","","","","","",""
"","","","","","html-keyboard-response","68","104822","0.0-6.2-3.2","5be39428dd850e0001d2d401","656d9e5e2de4f984cfed7d4d","656d9ef59480f266f2f07c21","328","./stimuli//pack_shapes_1/cat_2/diff_1/ex_2_1_2.png","arrowright","response","ArrowRight","2","2","1","test","true",""
"","","","","","html-keyboard-response","69","106328","0.0-6.2-4.2","5be39428dd850e0001d2d401","656d9e5e2de4f984cfed7d4d","656d9ef59480f266f2f07c21","null","<p> <font color=""green"" size=""5vw""> Correct category! </font> <br> <br> <font color=""green"" size=""8vw""> + $0.05 </font> </p>","null","feedback","","","","","","","0.15"
"","","","","","html-keyboard-response","70","106727","0.0-6.3-0.3","5be39428dd850e0001d2d401","656d9e5e2de4f984cfed7d4d","656d9ef59480f266f2f07c21","398","
            
        <div style=""text-align: center; position: fixed; top: 5vh; left: 40vw;"">
            <div style=""margin:0 auto; width: 20vw; top: 8vh; font-size: 2vw""> 
            <font color=""green""> Bonus : $0.15 </font>
            </div>
        </div>
    
            <div> Please press any key to continue to the next image.</div>
        ","arrowright","ITI","","","","","","",""
"","","","","","html-keyboard-response","71","107332","0.0-6.3-1.3","5be39428dd850e0001d2d401","656d9e5e2de4f984cfed7d4d","656d9ef59480f266f2f07c21","null","
        
        <div style=""text-align: center; position: fixed; top: 5vh; left: 40vw;"">
            <div style=""margin:0 auto; width: 20vw; top: 8vh; font-size: 2vw""> 
            <font color=""green""> Bonus : $0.15 </font>
            </div>
        </div>
    
        <img class=""stim"" src=./stimuli//pack_shapes_1/cat_2/diff_1/ex_2_1_3.png></img>
    ","null","stimulus","","","","","","",""
"","","","","","html-keyboard-response","72","108339","0.0-6.3-2.3","5be39428dd850e0001d2d401","656d9e5e2de4f984cfed7d4d","656d9ef59480f266f2f07c21","null","
        <div style=""text-align: center; position: fixed; top: 5vh; left: 40vw;"">
            <div style=""margin:0 auto; width: 20vw; top: 8vh; font-size: 2vw""> 
            <font color=""green""> Bonus : $0.15 </font>
            </div>
        </div>
    ","null","","","","","","","",""
"","","","","","html-keyboard-response","73","108630","0.0-6.3-3.3","5be39428dd850e0001d2d401","656d9e5e2de4f984cfed7d4d","656d9ef59480f266f2f07c21","290","./stimuli//pack_shapes_1/cat_2/diff_1/ex_2_1_3.png","arrowright","response","ArrowRight","3","2","1","test","true",""
"","","","","","html-keyboard-response","74","110134","0.0-6.3-4.3","5be39428dd850e0001d2d401","656d9e5e2de4f984cfed7d4d","656d9ef59480f266f2f07c21","null","<p> <font color=""green"" size=""5vw""> Correct category! </font> <br> <br> <font color=""green"" size=""8vw""> + $0.05 </font> </p>","null","feedback","","","","","","","0.2"
"","","","","","html-keyboard-response","75","110761","0.0-6.4-0.4","5be39428dd850e0001d2d401","656d9e5e2de4f984cfed7d4d","656d9ef59480f266f2f07c21","626","
            
        <div style=""text-align: center; position: fixed; top: 5vh; left: 40vw;"">
            <div style=""margin:0 auto; width: 20vw; top: 8vh; font-size: 2vw""> 
            <font color=""green""> Bonus : $0.2 </font>
            </div>
        </div>
    
            <div> Please press any key to continue to the next image.</div>
        ","arrowright","ITI","","","","","","",""
"","","","","","html-keyboard-response","76","111363","0.0-6.4-1.4","5be39428dd850e0001d2d401","656d9e5e2de4f984cfed7d4d","656d9ef59480f266f2f07c21","null","
        
        <div style=""text-align: center; position: fixed; top: 5vh; left: 40vw;"">
            <div style=""margin:0 auto; width: 20vw; top: 8vh; font-size: 2vw""> 
            <font color=""green""> Bonus : $0.2 </font>
            </div>
        </div>
    
        <img class=""stim"" src=./stimuli//pack_shapes_1/cat_1/diff_1/ex_1_1_2.png></img>
    ","null","stimulus","","","","","","",""
"","","","","","html-keyboard-response","77","112365","0.0-6.4-2.4","5be39428dd850e0001d2d401","656d9e5e2de4f984cfed7d4d","656d9ef59480f266f2f07c21","null","
        <div style=""text-align: center; position: fixed; top: 5vh; left: 40vw;"">
            <div style=""margin:0 auto; width: 20vw; top: 8vh; font-size: 2vw""> 
            <font color=""green""> Bonus : $0.2 </font>
            </div>
        </div>
    ","null","","","","","","","",""
"","","","","","html-keyboard-response","78","112709","0.0-6.4-3.4","5be39428dd850e0001d2d401","656d9e5e2de4f984cfed7d4d","656d9ef59480f266f2f07c21","343","./stimuli//pack_shapes_1/cat_1/diff_1/ex_1_1_2.png","arrowleft","response","ArrowLeft","2","1","1","test","true",""
"","","","","","html-keyboard-response","79","114210","0.0-6.4-4.4","5be39428dd850e0001d2d401","656d9e5e2de4f984cfed7d4d","656d9ef59480f266f2f07c21","null","<p> <font color=""green"" size=""5vw""> Correct category! </font> <br> <br> <font color=""green"" size=""8vw""> + $0.05 </font> </p>","null","feedback","","","","","","","0.25"
"","","","","","html-keyboard-response","80","114748","0.0-6.5-0.5","5be39428dd850e0001d2d401","656d9e5e2de4f984cfed7d4d","656d9ef59480f266f2f07c21","537","
            
        <div style=""text-align: center; position: fixed; top: 5vh; left: 40vw;"">
            <div style=""margin:0 auto; width: 20vw; top: 8vh; font-size: 2vw""> 
            <font color=""green""> Bonus : $0.25 </font>
            </div>
        </div>
    
            <div> Please press any key to continue to the next image.</div>
        ","arrowleft","ITI","","","","","","",""
"","","","","","html-keyboard-response","81","115352","0.0-6.5-1.5","5be39428dd850e0001d2d401","656d9e5e2de4f984cfed7d4d","656d9ef59480f266f2f07c21","null","
        
        <div style=""text-align: center; position: fixed; top: 5vh; left: 40vw;"">
            <div style=""margin:0 auto; width: 20vw; top: 8vh; font-size: 2vw""> 
            <font color=""green""> Bonus : $0.25 </font>
            </div>
        </div>
    
        <img class=""stim"" src=./stimuli//pack_shapes_1/cat_1/diff_2/ex_1_2_2.png></img>
    ","null","stimulus","","","","","","",""
"","","","","","html-keyboard-response","82","116358","0.0-6.5-2.5","5be39428dd850e0001d2d401","656d9e5e2de4f984cfed7d4d","656d9ef59480f266f2f07c21","null","
        <div style=""text-align: center; position: fixed; top: 5vh; left: 40vw;"">
            <div style=""margin:0 auto; width: 20vw; top: 8vh; font-size: 2vw""> 
            <font color=""green""> Bonus : $0.25 </font>
            </div>
        </div>
    ","null","","","","","","","",""
"","","","","","html-keyboard-response","83","116660","0.0-6.5-3.5","5be39428dd850e0001d2d401","656d9e5e2de4f984cfed7d4d","656d9ef59480f266f2f07c21","301","./stimuli//pack_shapes_1/cat_1/diff_2/ex_1_2_2.png","arrowleft","response","ArrowLeft","2","1","2","test","true",""
"","","","","","html-keyboard-response","84","118166","0.0-6.5-4.5","5be39428dd850e0001d2d401","656d9e5e2de4f984cfed7d4d","656d9ef59480f266f2f07c21","null","<p> <font color=""green"" size=""5vw""> Correct category! </font> <br> <br> <font color=""green"" size=""8vw""> + $0.05 </font> </p>","null","feedback","","","","","","","0.3"
"","","","","","html-keyboard-response","85","118611","0.0-6.6-0.6","5be39428dd850e0001d2d401","656d9e5e2de4f984cfed7d4d","656d9ef59480f266f2f07c21","443","
            
        <div style=""text-align: center; position: fixed; top: 5vh; left: 40vw;"">
            <div style=""margin:0 auto; width: 20vw; top: 8vh; font-size: 2vw""> 
            <font color=""green""> Bonus : $0.3 </font>
            </div>
        </div>
    
            <div> Please press any key to continue to the next image.</div>
        ","arrowleft","ITI","","","","","","",""
"","","","","","html-keyboard-response","86","119213","0.0-6.6-1.6","5be39428dd850e0001d2d401","656d9e5e2de4f984cfed7d4d","656d9ef59480f266f2f07c21","null","
        
        <div style=""text-align: center; position: fixed; top: 5vh; left: 40vw;"">
            <div style=""margin:0 auto; width: 20vw; top: 8vh; font-size: 2vw""> 
            <font color=""green""> Bonus : $0.3 </font>
            </div>
        </div>
    
        <img class=""stim"" src=./stimuli//pack_shapes_1/cat_2/diff_2/ex_2_2_1.png></img>
    ","null","stimulus","","","","","","",""
"","","","","","html-keyboard-response","87","120218","0.0-6.6-2.6","5be39428dd850e0001d2d401","656d9e5e2de4f984cfed7d4d","656d9ef59480f266f2f07c21","null","
        <div style=""text-align: center; position: fixed; top: 5vh; left: 40vw;"">
            <div style=""margin:0 auto; width: 20vw; top: 8vh; font-size: 2vw""> 
            <font color=""green""> Bonus : $0.3 </font>
            </div>
        </div>
    ","null","","","","","","","",""
"","","","","","html-keyboard-response","88","120531","0.0-6.6-3.6","5be39428dd850e0001d2d401","656d9e5e2de4f984cfed7d4d","656d9ef59480f266f2f07c21","312","./stimuli//pack_shapes_1/cat_2/diff_2/ex_2_2_1.png","arrowright","response","ArrowRight","1","2","2","test","true",""
"","","","","","html-keyboard-response","89","122033","0.0-6.6-4.6","5be39428dd850e0001d2d401","656d9e5e2de4f984cfed7d4d","656d9ef59480f266f2f07c21","null","<p> <font color=""green"" size=""5vw""> Correct category! </font> <br> <br> <font color=""green"" size=""8vw""> + $0.05 </font> </p>","null","feedback","","","","","","","0.35"
"","","","","","html-keyboard-response","90","122321","0.0-6.7-0.7","5be39428dd850e0001d2d401","656d9e5e2de4f984cfed7d4d","656d9ef59480f266f2f07c21","287","
            
        <div style=""text-align: center; position: fixed; top: 5vh; left: 40vw;"">
            <div style=""margin:0 auto; width: 20vw; top: 8vh; font-size: 2vw""> 
            <font color=""green""> Bonus : $0.35 </font>
            </div>
        </div>
    
            <div> Please press any key to continue to the next image.</div>
        ","arrowright","ITI","","","","","","",""
"","","","","","html-keyboard-response","91","122925","0.0-6.7-1.7","5be39428dd850e0001d2d401","656d9e5e2de4f984cfed7d4d","656d9ef59480f266f2f07c21","null","
        
        <div style=""text-align: center; position: fixed; top: 5vh; left: 40vw;"">
            <div style=""margin:0 auto; width: 20vw; top: 8vh; font-size: 2vw""> 
            <font color=""green""> Bonus : $0.35 </font>
            </div>
        </div>
    
        <img class=""stim"" src=./stimuli//pack_shapes_1/cat_1/diff_2/ex_1_2_9.png></img>
    ","null","stimulus","","","","","","",""
"","","","","","html-keyboard-response","92","123931","0.0-6.7-2.7","5be39428dd850e0001d2d401","656d9e5e2de4f984cfed7d4d","656d9ef59480f266f2f07c21","null","
        <div style=""text-align: center; position: fixed; top: 5vh; left: 40vw;"">
            <div style=""margin:0 auto; width: 20vw; top: 8vh; font-size: 2vw""> 
            <font color=""green""> Bonus : $0.35 </font>
            </div>
        </div>
    ","null","","","","","","","",""
"","","","","","html-keyboard-response","93","124328","0.0-6.7-3.7","5be39428dd850e0001d2d401","656d9e5e2de4f984cfed7d4d","656d9ef59480f266f2f07c21","395","./stimuli//pack_shapes_1/cat_1/diff_2/ex_1_2_9.png","arrowleft","response","ArrowLeft","9","1","2","test","true",""
"","","","","","html-keyboard-response","94","125833","0.0-6.7-4.7","5be39428dd850e0001d2d401","656d9e5e2de4f984cfed7d4d","656d9ef59480f266f2f07c21","null","<p> <font color=""green"" size=""5vw""> Correct category! </font> <br> <br> <font color=""green"" size=""8vw""> + $0.05 </font> </p>","null","feedback","","","","","","","0.4"
"","","","","","html-keyboard-response","95","126583","0.0-6.8-0.8","5be39428dd850e0001d2d401","656d9e5e2de4f984cfed7d4d","656d9ef59480f266f2f07c21","749","
            
        <div style=""text-align: center; position: fixed; top: 5vh; left: 40vw;"">
            <div style=""margin:0 auto; width: 20vw; top: 8vh; font-size: 2vw""> 
            <font color=""green""> Bonus : $0.4 </font>
            </div>
        </div>
    
            <div> Please press any key to continue to the next image.</div>
        ","arrowleft","ITI","","","","","","",""
"","","","","","html-keyboard-response","96","127185","0.0-6.8-1.8","5be39428dd850e0001d2d401","656d9e5e2de4f984cfed7d4d","656d9ef59480f266f2f07c21","null","
        
        <div style=""text-align: center; position: fixed; top: 5vh; left: 40vw;"">
            <div style=""margin:0 auto; width: 20vw; top: 8vh; font-size: 2vw""> 
            <font color=""green""> Bonus : $0.4 </font>
            </div>
        </div>
    
        <img class=""stim"" src=./stimuli//pack_shapes_1/cat_2/diff_2/ex_2_2_15.png></img>
    ","null","stimulus","","","","","","",""
"","","","","","html-keyboard-response","97","128191","0.0-6.8-2.8","5be39428dd850e0001d2d401","656d9e5e2de4f984cfed7d4d","656d9ef59480f266f2f07c21","null","
        <div style=""text-align: center; position: fixed; top: 5vh; left: 40vw;"">
            <div style=""margin:0 auto; width: 20vw; top: 8vh; font-size: 2vw""> 
            <font color=""green""> Bonus : $0.4 </font>
            </div>
        </div>
    ","null","","","","","","","",""
"","","","","","html-keyboard-response","98","128610","0.0-6.8-3.8","5be39428dd850e0001d2d401","656d9e5e2de4f984cfed7d4d","656d9ef59480f266f2f07c21","417","./stimuli//pack_shapes_1/cat_2/diff_2/ex_2_2_15.png","arrowright","response","ArrowRight","15","2","2","test","true",""
"","","","","","html-keyboard-response","99","130114","0.0-6.8-4.8","5be39428dd850e0001d2d401","656d9e5e2de4f984cfed7d4d","656d9ef59480f266f2f07c21","null","<p> <font color=""green"" size=""5vw""> Correct category! </font> <br> <br> <font color=""green"" size=""8vw""> + $0.05 </font> </p>","null","feedback","","","","","","","0.45"
"","","","","","html-keyboard-response","100","130612","0.0-6.9-0.9","5be39428dd850e0001d2d401","656d9e5e2de4f984cfed7d4d","656d9ef59480f266f2f07c21","497","
            
        <div style=""text-align: center; position: fixed; top: 5vh; left: 40vw;"">
            <div style=""margin:0 auto; width: 20vw; top: 8vh; font-size: 2vw""> 
            <font color=""green""> Bonus : $0.45 </font>
            </div>
        </div>
    
            <div> Please press any key to continue to the next image.</div>
        ","arrowright","ITI","","","","","","",""
"","","","","","html-keyboard-response","101","131214","0.0-6.9-1.9","5be39428dd850e0001d2d401","656d9e5e2de4f984cfed7d4d","656d9ef59480f266f2f07c21","null","
        
        <div style=""text-align: center; position: fixed; top: 5vh; left: 40vw;"">
            <div style=""margin:0 auto; width: 20vw; top: 8vh; font-size: 2vw""> 
            <font color=""green""> Bonus : $0.45 </font>
            </div>
        </div>
    
        <img class=""stim"" src=./stimuli//pack_shapes_1/cat_2/diff_2/ex_2_2_4.png></img>
    ","null","stimulus","","","","","","",""
"","","","","","html-keyboard-response","102","132216","0.0-6.9-2.9","5be39428dd850e0001d2d401","656d9e5e2de4f984cfed7d4d","656d9ef59480f266f2f07c21","null","
        <div style=""text-align: center; position: fixed; top: 5vh; left: 40vw;"">
            <div style=""margin:0 auto; width: 20vw; top: 8vh; font-size: 2vw""> 
            <font color=""green""> Bonus : $0.45 </font>
            </div>
        </div>
    ","null","","","","","","","",""
"","","","","","html-keyboard-response","103","132498","0.0-6.9-3.9","5be39428dd850e0001d2d401","656d9e5e2de4f984cfed7d4d","656d9ef59480f266f2f07c21","281","./stimuli//pack_shapes_1/cat_2/diff_2/ex_2_2_4.png","arrowright","response","ArrowRight","4","2","2","test","true",""
"","","","","","html-keyboard-response","104","134002","0.0-6.9-4.9","5be39428dd850e0001d2d401","656d9e5e2de4f984cfed7d4d","656d9ef59480f266f2f07c21","null","<p> <font color=""green"" size=""5vw""> Correct category! </font> <br> <br> <font color=""green"" size=""8vw""> + $0.05 </font> </p>","null","feedback","","","","","","","0.5"
"","","","","","html-keyboard-response","105","134498","0.0-6.10-0.10","5be39428dd850e0001d2d401","656d9e5e2de4f984cfed7d4d","656d9ef59480f266f2f07c21","495","
            
        <div style=""text-align: center; position: fixed; top: 5vh; left: 40vw;"">
            <div style=""margin:0 auto; width: 20vw; top: 8vh; font-size: 2vw""> 
            <font color=""green""> Bonus : $0.5 </font>
            </div>
        </div>
    
            <div> Please press any key to continue to the next image.</div>
        ","arrowright","ITI","","","","","","",""
"","","","","","html-keyboard-response","106","135102","0.0-6.10-1.10","5be39428dd850e0001d2d401","656d9e5e2de4f984cfed7d4d","656d9ef59480f266f2f07c21","null","
        
        <div style=""text-align: center; position: fixed; top: 5vh; left: 40vw;"">
            <div style=""margin:0 auto; width: 20vw; top: 8vh; font-size: 2vw""> 
            <font color=""green""> Bonus : $0.5 </font>
            </div>
        </div>
    
        <img class=""stim"" src=./stimuli//pack_shapes_1/cat_2/diff_3/ex_2_3_12.png></img>
    ","null","stimulus","","","","","","",""
"","","","","","html-keyboard-response","107","136107","0.0-6.10-2.10","5be39428dd850e0001d2d401","656d9e5e2de4f984cfed7d4d","656d9ef59480f266f2f07c21","null","
        <div style=""text-align: center; position: fixed; top: 5vh; left: 40vw;"">
            <div style=""margin:0 auto; width: 20vw; top: 8vh; font-size: 2vw""> 
            <font color=""green""> Bonus : $0.5 </font>
            </div>
        </div>
    ","null","","","","","","","",""
"","","","","","html-keyboard-response","108","136430","0.0-6.10-3.10","5be39428dd850e0001d2d401","656d9e5e2de4f984cfed7d4d","656d9ef59480f266f2f07c21","322","./stimuli//pack_shapes_1/cat_2/diff_3/ex_2_3_12.png","arrowright","response","ArrowRight","12","2","3","test","true",""
"","","","","","html-keyboard-response","109","137933","0.0-6.10-4.10","5be39428dd850e0001d2d401","656d9e5e2de4f984cfed7d4d","656d9ef59480f266f2f07c21","null","<p> <font color=""green"" size=""5vw""> Correct category! </font> <br> <br> <font color=""green"" size=""8vw""> + $0.05 </font> </p>","null","feedback","","","","","","","0.55"
"","","","","","html-keyboard-response","110","138256","0.0-6.11-0.11","5be39428dd850e0001d2d401","656d9e5e2de4f984cfed7d4d","656d9ef59480f266f2f07c21","323","
            
        <div style=""text-align: center; position: fixed; top: 5vh; left: 40vw;"">
            <div style=""margin:0 auto; width: 20vw; top: 8vh; font-size: 2vw""> 
            <font color=""green""> Bonus : $0.55 </font>
            </div>
        </div>
    
            <div> Please press any key to continue to the next image.</div>
        ","arrowright","ITI","","","","","","",""
"","","","","","html-keyboard-response","111","138857","0.0-6.11-1.11","5be39428dd850e0001d2d401","656d9e5e2de4f984cfed7d4d","656d9ef59480f266f2f07c21","null","
        
        <div style=""text-align: center; position: fixed; top: 5vh; left: 40vw;"">
            <div style=""margin:0 auto; width: 20vw; top: 8vh; font-size: 2vw""> 
            <font color=""green""> Bonus : $0.55 </font>
            </div>
        </div>
    
        <img class=""stim"" src=./stimuli//pack_shapes_1/cat_1/diff_3/ex_1_3_11.png></img>
    ","null","stimulus","","","","","","",""
"","","","","","html-keyboard-response","112","139863","0.0-6.11-2.11","5be39428dd850e0001d2d401","656d9e5e2de4f984cfed7d4d","656d9ef59480f266f2f07c21","null","
        <div style=""text-align: center; position: fixed; top: 5vh; left: 40vw;"">
            <div style=""margin:0 auto; width: 20vw; top: 8vh; font-size: 2vw""> 
            <font color=""green""> Bonus : $0.55 </font>
            </div>
        </div>
    ","null","","","","","","","",""
"","","","","","html-keyboard-response","113","140239","0.0-6.11-3.11","5be39428dd850e0001d2d401","656d9e5e2de4f984cfed7d4d","656d9ef59480f266f2f07c21","375","./stimuli//pack_shapes_1/cat_1/diff_3/ex_1_3_11.png","arrowleft","response","ArrowLeft","11","1","3","test","true",""
"","","","","","html-keyboard-response","114","141743","0.0-6.11-4.11","5be39428dd850e0001d2d401","656d9e5e2de4f984cfed7d4d","656d9ef59480f266f2f07c21","null","<p> <font color=""green"" size=""5vw""> Correct category! </font> <br> <br> <font color=""green"" size=""8vw""> + $0.05 </font> </p>","null","feedback","","","","","","","0.6"
"","","","","","html-keyboard-response","115","142183","0.0-6.12-0.12","5be39428dd850e0001d2d401","656d9e5e2de4f984cfed7d4d","656d9ef59480f266f2f07c21","439","
            
        <div style=""text-align: center; position: fixed; top: 5vh; left: 40vw;"">
            <div style=""margin:0 auto; width: 20vw; top: 8vh; font-size: 2vw""> 
            <font color=""green""> Bonus : $0.6 </font>
            </div>
        </div>
    
            <div> Please press any key to continue to the next image.</div>
        ","arrowleft","ITI","","","","","","",""
"","","","","","html-keyboard-response","116","142786","0.0-6.12-1.12","5be39428dd850e0001d2d401","656d9e5e2de4f984cfed7d4d","656d9ef59480f266f2f07c21","null","
        
        <div style=""text-align: center; position: fixed; top: 5vh; left: 40vw;"">
            <div style=""margin:0 auto; width: 20vw; top: 8vh; font-size: 2vw""> 
            <font color=""green""> Bonus : $0.6 </font>
            </div>
        </div>
    
        <img class=""stim"" src=./stimuli//pack_shapes_1/cat_2/diff_3/ex_2_3_15.png></img>
    ","null","stimulus","","","","","","",""
"","","","","","html-keyboard-response","117","143791","0.0-6.12-2.12","5be39428dd850e0001d2d401","656d9e5e2de4f984cfed7d4d","656d9ef59480f266f2f07c21","null","
        <div style=""text-align: center; position: fixed; top: 5vh; left: 40vw;"">
            <div style=""margin:0 auto; width: 20vw; top: 8vh; font-size: 2vw""> 
            <font color=""green""> Bonus : $0.6 </font>
            </div>
        </div>
    ","null","","","","","","","",""
"","","","","","html-keyboard-response","118","144159","0.0-6.12-3.12","5be39428dd850e0001d2d401","656d9e5e2de4f984cfed7d4d","656d9ef59480f266f2f07c21","366","./stimuli//pack_shapes_1/cat_2/diff_3/ex_2_3_15.png","arrowright","response","ArrowRight","15","2","3","test","true",""
"","","","","","html-keyboard-response","119","145661","0.0-6.12-4.12","5be39428dd850e0001d2d401","656d9e5e2de4f984cfed7d4d","656d9ef59480f266f2f07c21","null","<p> <font color=""green"" size=""5vw""> Correct category! </font> <br> <br> <font color=""green"" size=""8vw""> + $0.05 </font> </p>","null","feedback","","","","","","","0.65"
"","","","","","html-keyboard-response","120","146022","0.0-6.13-0.13","5be39428dd850e0001d2d401","656d9e5e2de4f984cfed7d4d","656d9ef59480f266f2f07c21","360","
            
        <div style=""text-align: center; position: fixed; top: 5vh; left: 40vw;"">
            <div style=""margin:0 auto; width: 20vw; top: 8vh; font-size: 2vw""> 
            <font color=""green""> Bonus : $0.65 </font>
            </div>
        </div>
    
            <div> Please press any key to continue to the next image.</div>
        ","arrowright","ITI","","","","","","",""
"","","","","","html-keyboard-response","121","146626","0.0-6.13-1.13","5be39428dd850e0001d2d401","656d9e5e2de4f984cfed7d4d","656d9ef59480f266f2f07c21","null","
        
        <div style=""text-align: center; position: fixed; top: 5vh; left: 40vw;"">
            <div style=""margin:0 auto; width: 20vw; top: 8vh; font-size: 2vw""> 
            <font color=""green""> Bonus : $0.65 </font>
            </div>
        </div>
    
        <img class=""stim"" src=./stimuli//pack_shapes_1/cat_1/diff_3/ex_1_3_8.png></img>
    ","null","stimulus","","","","","","",""
"","","","","","html-keyboard-response","122","147629","0.0-6.13-2.13","5be39428dd850e0001d2d401","656d9e5e2de4f984cfed7d4d","656d9ef59480f266f2f07c21","null","
        <div style=""text-align: center; position: fixed; top: 5vh; left: 40vw;"">
            <div style=""margin:0 auto; width: 20vw; top: 8vh; font-size: 2vw""> 
            <font color=""green""> Bonus : $0.65 </font>
            </div>
        </div>
    ","null","","","","","","","",""
"","","","","","html-keyboard-response","123","148152","0.0-6.13-3.13","5be39428dd850e0001d2d401","656d9e5e2de4f984cfed7d4d","656d9ef59480f266f2f07c21","522","./stimuli//pack_shapes_1/cat_1/diff_3/ex_1_3_8.png","arrowleft","response","ArrowLeft","8","1","3","test","true",""
"","","","","","html-keyboard-response","124","149658","0.0-6.13-4.13","5be39428dd850e0001d2d401","656d9e5e2de4f984cfed7d4d","656d9ef59480f266f2f07c21","null","<p> <font color=""green"" size=""5vw""> Correct category! </font> <br> <br> <font color=""green"" size=""8vw""> + $0.05 </font> </p>","null","feedback","","","","","","","0.7"
"","","","","","html-keyboard-response","125","150100","0.0-6.14-0.14","5be39428dd850e0001d2d401","656d9e5e2de4f984cfed7d4d","656d9ef59480f266f2f07c21","441","
            
        <div style=""text-align: center; position: fixed; top: 5vh; left: 40vw;"">
            <div style=""margin:0 auto; width: 20vw; top: 8vh; font-size: 2vw""> 
            <font color=""green""> Bonus : $0.7 </font>
            </div>
        </div>
    
            <div> Please press any key to continue to the next image.</div>
        ","arrowleft","ITI","","","","","","",""
"","","","","","html-keyboard-response","126","150701","0.0-6.14-1.14","5be39428dd850e0001d2d401","656d9e5e2de4f984cfed7d4d","656d9ef59480f266f2f07c21","null","
        
        <div style=""text-align: center; position: fixed; top: 5vh; left: 40vw;"">
            <div style=""margin:0 auto; width: 20vw; top: 8vh; font-size: 2vw""> 
            <font color=""green""> Bonus : $0.7 </font>
            </div>
        </div>
    
        <img class=""stim"" src=./stimuli//pack_shapes_1/cat_2/diff_3/ex_2_3_1.png></img>
    ","null","stimulus","","","","","","",""
"","","","","","html-keyboard-response","127","151706","0.0-6.14-2.14","5be39428dd850e0001d2d401","656d9e5e2de4f984cfed7d4d","656d9ef59480f266f2f07c21","null","
        <div style=""text-align: center; position: fixed; top: 5vh; left: 40vw;"">
            <div style=""margin:0 auto; width: 20vw; top: 8vh; font-size: 2vw""> 
            <font color=""green""> Bonus : $0.7 </font>
            </div>
        </div>
    ","null","","","","","","","",""
"","","","","","html-keyboard-response","128","152099","0.0-6.14-3.14","5be39428dd850e0001d2d401","656d9e5e2de4f984cfed7d4d","656d9ef59480f266f2f07c21","392","./stimuli//pack_shapes_1/cat_2/diff_3/ex_2_3_1.png","arrowright","response","ArrowRight","1","2","3","test","true",""
"","","","","","html-keyboard-response","129","153601","0.0-6.14-4.14","5be39428dd850e0001d2d401","656d9e5e2de4f984cfed7d4d","656d9ef59480f266f2f07c21","null","<p> <font color=""green"" size=""5vw""> Correct category! </font> <br> <br> <font color=""green"" size=""8vw""> + $0.05 </font> </p>","null","feedback","","","","","","","0.75"
"","","","","","html-keyboard-response","130","162165","0.0-6.15-0.15","5be39428dd850e0001d2d401","656d9e5e2de4f984cfed7d4d","656d9ef59480f266f2f07c21","8563","
            
        <div style=""text-align: center; position: fixed; top: 5vh; left: 40vw;"">
            <div style=""margin:0 auto; width: 20vw; top: 8vh; font-size: 2vw""> 
            <font color=""green""> Bonus : $0.75 </font>
            </div>
        </div>
    
            <div> Please press any key to continue to the next image.</div>
        ","arrowleft","ITI","","","","","","",""
"","","","","","html-keyboard-response","131","162767","0.0-6.15-1.15","5be39428dd850e0001d2d401","656d9e5e2de4f984cfed7d4d","656d9ef59480f266f2f07c21","null","
        
        <div style=""text-align: center; position: fixed; top: 5vh; left: 40vw;"">
            <div style=""margin:0 auto; width: 20vw; top: 8vh; font-size: 2vw""> 
            <font color=""green""> Bonus : $0.75 </font>
            </div>
        </div>
    
        <img class=""stim"" src=./stimuli//pack_shapes_1/cat_1/diff_4/ex_1_4_3.png></img>
    ","null","stimulus","","","","","","",""
"","","","","","html-keyboard-response","132","163770","0.0-6.15-2.15","5be39428dd850e0001d2d401","656d9e5e2de4f984cfed7d4d","656d9ef59480f266f2f07c21","null","
        <div style=""text-align: center; position: fixed; top: 5vh; left: 40vw;"">
            <div style=""margin:0 auto; width: 20vw; top: 8vh; font-size: 2vw""> 
            <font color=""green""> Bonus : $0.75 </font>
            </div>
        </div>
    ","null","","","","","","","",""
"","","","","","html-keyboard-response","133","164167","0.0-6.15-3.15","5be39428dd850e0001d2d401","656d9e5e2de4f984cfed7d4d","656d9ef59480f266f2f07c21","396","./stimuli//pack_shapes_1/cat_1/diff_4/ex_1_4_3.png","arrowleft","response","ArrowLeft","3","1","4","test","true",""
"","","","","","html-keyboard-response","134","165673","0.0-6.15-4.15","5be39428dd850e0001d2d401","656d9e5e2de4f984cfed7d4d","656d9ef59480f266f2f07c21","null","<p> <font color=""green"" size=""5vw""> Correct category! </font> <br> <br> <font color=""green"" size=""8vw""> + $0.05 </font> </p>","null","feedback","","","","","","","0.8"
"","","","","","html-keyboard-response","135","166356","0.0-6.16-0.16","5be39428dd850e0001d2d401","656d9e5e2de4f984cfed7d4d","656d9ef59480f266f2f07c21","682","
            
        <div style=""text-align: center; position: fixed; top: 5vh; left: 40vw;"">
            <div style=""margin:0 auto; width: 20vw; top: 8vh; font-size: 2vw""> 
            <font color=""green""> Bonus : $0.8 </font>
            </div>
        </div>
    
            <div> Please press any key to continue to the next image.</div>
        ","arrowright","ITI","","","","","","",""
"","","","","","html-keyboard-response","136","166958","0.0-6.16-1.16","5be39428dd850e0001d2d401","656d9e5e2de4f984cfed7d4d","656d9ef59480f266f2f07c21","null","
        
        <div style=""text-align: center; position: fixed; top: 5vh; left: 40vw;"">
            <div style=""margin:0 auto; width: 20vw; top: 8vh; font-size: 2vw""> 
            <font color=""green""> Bonus : $0.8 </font>
            </div>
        </div>
    
        <img class=""stim"" src=./stimuli//pack_shapes_1/cat_2/diff_4/ex_2_4_10.png></img>
    ","null","stimulus","","","","","","",""
"","","","","","html-keyboard-response","137","167959","0.0-6.16-2.16","5be39428dd850e0001d2d401","656d9e5e2de4f984cfed7d4d","656d9ef59480f266f2f07c21","null","
        <div style=""text-align: center; position: fixed; top: 5vh; left: 40vw;"">
            <div style=""margin:0 auto; width: 20vw; top: 8vh; font-size: 2vw""> 
            <font color=""green""> Bonus : $0.8 </font>
            </div>
        </div>
    ","null","","","","","","","",""
"","","","","","html-keyboard-response","138","168263","0.0-6.16-3.16","5be39428dd850e0001d2d401","656d9e5e2de4f984cfed7d4d","656d9ef59480f266f2f07c21","303","./stimuli//pack_shapes_1/cat_2/diff_4/ex_2_4_10.png","arrowright","response","ArrowRight","10","2","4","test","true",""
"","","","","","html-keyboard-response","139","169765","0.0-6.16-4.16","5be39428dd850e0001d2d401","656d9e5e2de4f984cfed7d4d","656d9ef59480f266f2f07c21","null","<p> <font color=""green"" size=""5vw""> Correct category! </font> <br> <br> <font color=""green"" size=""8vw""> + $0.05 </font> </p>","null","feedback","","","","","","","0.85"
"","","","","","html-keyboard-response","140","170223","0.0-6.17-0.17","5be39428dd850e0001d2d401","656d9e5e2de4f984cfed7d4d","656d9ef59480f266f2f07c21","458","
            
        <div style=""text-align: center; position: fixed; top: 5vh; left: 40vw;"">
            <div style=""margin:0 auto; width: 20vw; top: 8vh; font-size: 2vw""> 
            <font color=""green""> Bonus : $0.85 </font>
            </div>
        </div>
    
            <div> Please press any key to continue to the next image.</div>
        ","arrowright","ITI","","","","","","",""
"","","","","","html-keyboard-response","141","170825","0.0-6.17-1.17","5be39428dd850e0001d2d401","656d9e5e2de4f984cfed7d4d","656d9ef59480f266f2f07c21","null","
        
        <div style=""text-align: center; position: fixed; top: 5vh; left: 40vw;"">
            <div style=""margin:0 auto; width: 20vw; top: 8vh; font-size: 2vw""> 
            <font color=""green""> Bonus : $0.85 </font>
            </div>
        </div>
    
        <img class=""stim"" src=./stimuli//pack_shapes_1/cat_1/diff_4/ex_1_4_12.png></img>
    ","null","stimulus","","","","","","",""
"","","","","","html-keyboard-response","142","171829","0.0-6.17-2.17","5be39428dd850e0001d2d401","656d9e5e2de4f984cfed7d4d","656d9ef59480f266f2f07c21","null","
        <div style=""text-align: center; position: fixed; top: 5vh; left: 40vw;"">
            <div style=""margin:0 auto; width: 20vw; top: 8vh; font-size: 2vw""> 
            <font color=""green""> Bonus : $0.85 </font>
            </div>
        </div>
    ","null","","","","","","","",""
"","","","","","html-keyboard-response","143","172210","0.0-6.17-3.17","5be39428dd850e0001d2d401","656d9e5e2de4f984cfed7d4d","656d9ef59480f266f2f07c21","380","./stimuli//pack_shapes_1/cat_1/diff_4/ex_1_4_12.png","arrowleft","response","ArrowLeft","12","1","4","test","true",""
"","","","","","html-keyboard-response","144","173712","0.0-6.17-4.17","5be39428dd850e0001d2d401","656d9e5e2de4f984cfed7d4d","656d9ef59480f266f2f07c21","null","<p> <font color=""green"" size=""5vw""> Correct category! </font> <br> <br> <font color=""green"" size=""8vw""> + $0.05 </font> </p>","null","feedback","","","","","","","0.9"
"","","","","","html-keyboard-response","145","174908","0.0-6.18-0.18","5be39428dd850e0001d2d401","656d9e5e2de4f984cfed7d4d","656d9ef59480f266f2f07c21","1195","
            
        <div style=""text-align: center; position: fixed; top: 5vh; left: 40vw;"">
            <div style=""margin:0 auto; width: 20vw; top: 8vh; font-size: 2vw""> 
            <font color=""green""> Bonus : $0.9 </font>
            </div>
        </div>
    
            <div> Please press any key to continue to the next image.</div>
        ","arrowleft","ITI","","","","","","",""
"","","","","","html-keyboard-response","146","175510","0.0-6.18-1.18","5be39428dd850e0001d2d401","656d9e5e2de4f984cfed7d4d","656d9ef59480f266f2f07c21","null","
        
        <div style=""text-align: center; position: fixed; top: 5vh; left: 40vw;"">
            <div style=""margin:0 auto; width: 20vw; top: 8vh; font-size: 2vw""> 
            <font color=""green""> Bonus : $0.9 </font>
            </div>
        </div>
    
        <img class=""stim"" src=./stimuli//pack_shapes_1/cat_1/diff_4/ex_1_4_5.png></img>
    ","null","stimulus","","","","","","",""
"","","","","","html-keyboard-response","147","176516","0.0-6.18-2.18","5be39428dd850e0001d2d401","656d9e5e2de4f984cfed7d4d","656d9ef59480f266f2f07c21","null","
        <div style=""text-align: center; position: fixed; top: 5vh; left: 40vw;"">
            <div style=""margin:0 auto; width: 20vw; top: 8vh; font-size: 2vw""> 
            <font color=""green""> Bonus : $0.9 </font>
            </div>
        </div>
    ","null","","","","","","","",""
"","","","","","html-keyboard-response","148","176847","0.0-6.18-3.18","5be39428dd850e0001d2d401","656d9e5e2de4f984cfed7d4d","656d9ef59480f266f2f07c21","330","./stimuli//pack_shapes_1/cat_1/diff_4/ex_1_4_5.png","arrowleft","response","ArrowLeft","5","1","4","test","true",""
"","","","","","html-keyboard-response","149","178348","0.0-6.18-4.18","5be39428dd850e0001d2d401","656d9e5e2de4f984cfed7d4d","656d9ef59480f266f2f07c21","null","<p> <font color=""green"" size=""5vw""> Correct category! </font> <br> <br> <font color=""green"" size=""8vw""> + $0.05 </font> </p>","null","feedback","","","","","","","0.95"
"","","","","","html-keyboard-response","150","181650","0.0-6.19-0.19","5be39428dd850e0001d2d401","656d9e5e2de4f984cfed7d4d","656d9ef59480f266f2f07c21","3301","
            
        <div style=""text-align: center; position: fixed; top: 5vh; left: 40vw;"">
            <div style=""margin:0 auto; width: 20vw; top: 8vh; font-size: 2vw""> 
            <font color=""green""> Bonus : $0.95 </font>
            </div>
        </div>
    
            <div> Please press any key to continue to the next image.</div>
        ","arrowleft","ITI","","","","","","",""
"","","","","","html-keyboard-response","151","182251","0.0-6.19-1.19","5be39428dd850e0001d2d401","656d9e5e2de4f984cfed7d4d","656d9ef59480f266f2f07c21","null","
        
        <div style=""text-align: center; position: fixed; top: 5vh; left: 40vw;"">
            <div style=""margin:0 auto; width: 20vw; top: 8vh; font-size: 2vw""> 
            <font color=""green""> Bonus : $0.95 </font>
            </div>
        </div>
    
        <img class=""stim"" src=./stimuli//pack_shapes_1/cat_1/diff_4/ex_1_4_6.png></img>
    ","null","stimulus","","","","","","",""
"","","","","","html-keyboard-response","152","183252","0.0-6.19-2.19","5be39428dd850e0001d2d401","656d9e5e2de4f984cfed7d4d","656d9ef59480f266f2f07c21","null","
        <div style=""text-align: center; position: fixed; top: 5vh; left: 40vw;"">
            <div style=""margin:0 auto; width: 20vw; top: 8vh; font-size: 2vw""> 
            <font color=""green""> Bonus : $0.95 </font>
            </div>
        </div>
    ","null","","","","","","","",""
"","","","","","html-keyboard-response","153","183532","0.0-6.19-3.19","5be39428dd850e0001d2d401","656d9e5e2de4f984cfed7d4d","656d9ef59480f266f2f07c21","279","./stimuli//pack_shapes_1/cat_1/diff_4/ex_1_4_6.png","arrowleft","response","ArrowLeft","6","1","4","test","true",""
"","","","","","html-keyboard-response","154","185035","0.0-6.19-4.19","5be39428dd850e0001d2d401","656d9e5e2de4f984cfed7d4d","656d9ef59480f266f2f07c21","null","<p> <font color=""green"" size=""5vw""> Correct category! </font> <br> <br> <font color=""green"" size=""8vw""> + $0.05 </font> </p>","null","feedback","","","","","","","1"
"","","","","","html-keyboard-response","155","185404","0.0-6.20-0.20","5be39428dd850e0001d2d401","656d9e5e2de4f984cfed7d4d","656d9ef59480f266f2f07c21","368","
            
        <div style=""text-align: center; position: fixed; top: 5vh; left: 40vw;"">
            <div style=""margin:0 auto; width: 20vw; top: 8vh; font-size: 2vw""> 
            <font color=""green""> Bonus : $1 </font>
            </div>
        </div>
    
            <div> Please press any key to continue to the next image.</div>
        ","arrowleft","ITI","","","","","","",""
"","","","","","html-keyboard-response","156","186006","0.0-6.20-1.20","5be39428dd850e0001d2d401","656d9e5e2de4f984cfed7d4d","656d9ef59480f266f2f07c21","null","
        
        <div style=""text-align: center; position: fixed; top: 5vh; left: 40vw;"">
            <div style=""margin:0 auto; width: 20vw; top: 8vh; font-size: 2vw""> 
            <font color=""green""> Bonus : $1 </font>
            </div>
        </div>
    
        <img class=""stim"" src=./stimuli//pack_shapes_1/cat_1/diff_5/ex_1_5_1.png></img>
    ","null","stimulus","","","","","","",""
"","","","","","html-keyboard-response","157","187009","0.0-6.20-2.20","5be39428dd850e0001d2d401","656d9e5e2de4f984cfed7d4d","656d9ef59480f266f2f07c21","null","
        <div style=""text-align: center; position: fixed; top: 5vh; left: 40vw;"">
            <div style=""margin:0 auto; width: 20vw; top: 8vh; font-size: 2vw""> 
            <font color=""green""> Bonus : $1 </font>
            </div>
        </div>
    ","null","","","","","","","",""
"","","","","","html-keyboard-response","158","187265","0.0-6.20-3.20","5be39428dd850e0001d2d401","656d9e5e2de4f984cfed7d4d","656d9ef59480f266f2f07c21","255","./stimuli//pack_shapes_1/cat_1/diff_5/ex_1_5_1.png","arrowleft","response","ArrowLeft","1","1","5","test","true",""
"","","","","","html-keyboard-response","159","188770","0.0-6.20-4.20","5be39428dd850e0001d2d401","656d9e5e2de4f984cfed7d4d","656d9ef59480f266f2f07c21","null","<p> <font color=""green"" size=""5vw""> Correct category! </font> <br> <br> <font color=""green"" size=""8vw""> + $0.05 </font> </p>","null","feedback","","","","","","","1.05"
"","","","","","html-keyboard-response","160","189339","0.0-6.21-0.21","5be39428dd850e0001d2d401","656d9e5e2de4f984cfed7d4d","656d9ef59480f266f2f07c21","568","
            
        <div style=""text-align: center; position: fixed; top: 5vh; left: 40vw;"">
            <div style=""margin:0 auto; width: 20vw; top: 8vh; font-size: 2vw""> 
            <font color=""green""> Bonus : $1.05 </font>
            </div>
        </div>
    
            <div> Please press any key to continue to the next image.</div>
        ","arrowleft","ITI","","","","","","",""
"","","","","","html-keyboard-response","161","189942","0.0-6.21-1.21","5be39428dd850e0001d2d401","656d9e5e2de4f984cfed7d4d","656d9ef59480f266f2f07c21","null","
        
        <div style=""text-align: center; position: fixed; top: 5vh; left: 40vw;"">
            <div style=""margin:0 auto; width: 20vw; top: 8vh; font-size: 2vw""> 
            <font color=""green""> Bonus : $1.05 </font>
            </div>
        </div>
    
        <img class=""stim"" src=./stimuli//pack_shapes_1/cat_1/diff_5/ex_1_5_8.png></img>
    ","null","stimulus","","","","","","",""
"","","","","","html-keyboard-response","162","190946","0.0-6.21-2.21","5be39428dd850e0001d2d401","656d9e5e2de4f984cfed7d4d","656d9ef59480f266f2f07c21","null","
        <div style=""text-align: center; position: fixed; top: 5vh; left: 40vw;"">
            <div style=""margin:0 auto; width: 20vw; top: 8vh; font-size: 2vw""> 
            <font color=""green""> Bonus : $1.05 </font>
            </div>
        </div>
    ","null","","","","","","","",""
"","","","","","html-keyboard-response","163","191358","0.0-6.21-3.21","5be39428dd850e0001d2d401","656d9e5e2de4f984cfed7d4d","656d9ef59480f266f2f07c21","411","./stimuli//pack_shapes_1/cat_1/diff_5/ex_1_5_8.png","arrowleft","response","ArrowLeft","8","1","5","test","true",""
"","","","","","html-keyboard-response","164","192864","0.0-6.21-4.21","5be39428dd850e0001d2d401","656d9e5e2de4f984cfed7d4d","656d9ef59480f266f2f07c21","null","<p> <font color=""green"" size=""5vw""> Correct category! </font> <br> <br> <font color=""green"" size=""8vw""> + $0.05 </font> </p>","null","feedback","","","","","","","1.1"
"","","","","","html-keyboard-response","165","193335","0.0-6.22-0.22","5be39428dd850e0001d2d401","656d9e5e2de4f984cfed7d4d","656d9ef59480f266f2f07c21","470","
            
        <div style=""text-align: center; position: fixed; top: 5vh; left: 40vw;"">
            <div style=""margin:0 auto; width: 20vw; top: 8vh; font-size: 2vw""> 
            <font color=""green""> Bonus : $1.1 </font>
            </div>
        </div>
    
            <div> Please press any key to continue to the next image.</div>
        ","arrowleft","ITI","","","","","","",""
"","","","","","html-keyboard-response","166","193940","0.0-6.22-1.22","5be39428dd850e0001d2d401","656d9e5e2de4f984cfed7d4d","656d9ef59480f266f2f07c21","null","
        
        <div style=""text-align: center; position: fixed; top: 5vh; left: 40vw;"">
            <div style=""margin:0 auto; width: 20vw; top: 8vh; font-size: 2vw""> 
            <font color=""green""> Bonus : $1.1 </font>
            </div>
        </div>
    
        <img class=""stim"" src=./stimuli//pack_shapes_1/cat_1/diff_5/ex_1_5_9.png></img>
    ","null","stimulus","","","","","","",""
"","","","","","html-keyboard-response","167","194945","0.0-6.22-2.22","5be39428dd850e0001d2d401","656d9e5e2de4f984cfed7d4d","656d9ef59480f266f2f07c21","null","
        <div style=""text-align: center; position: fixed; top: 5vh; left: 40vw;"">
            <div style=""margin:0 auto; width: 20vw; top: 8vh; font-size: 2vw""> 
            <font color=""green""> Bonus : $1.1 </font>
            </div>
        </div>
    ","null","","","","","","","",""
"","","","","","html-keyboard-response","168","195251","0.0-6.22-3.22","5be39428dd850e0001d2d401","656d9e5e2de4f984cfed7d4d","656d9ef59480f266f2f07c21","305","./stimuli//pack_shapes_1/cat_1/diff_5/ex_1_5_9.png","arrowleft","response","ArrowLeft","9","1","5","test","true",""
"","","","","","html-keyboard-response","169","196756","0.0-6.22-4.22","5be39428dd850e0001d2d401","656d9e5e2de4f984cfed7d4d","656d9ef59480f266f2f07c21","null","<p> <font color=""green"" size=""5vw""> Correct category! </font> <br> <br> <font color=""green"" size=""8vw""> + $0.05 </font> </p>","null","feedback","","","","","","","1.15"
"","","","","","html-keyboard-response","170","197211","0.0-6.23-0.23","5be39428dd850e0001d2d401","656d9e5e2de4f984cfed7d4d","656d9ef59480f266f2f07c21","453","
            
        <div style=""text-align: center; position: fixed; top: 5vh; left: 40vw;"">
            <div style=""margin:0 auto; width: 20vw; top: 8vh; font-size: 2vw""> 
            <font color=""green""> Bonus : $1.15 </font>
            </div>
        </div>
    
            <div> Please press any key to continue to the next image.</div>
        ","arrowleft","ITI","","","","","","",""
"","","","","","html-keyboard-response","171","197812","0.0-6.23-1.23","5be39428dd850e0001d2d401","656d9e5e2de4f984cfed7d4d","656d9ef59480f266f2f07c21","null","
        
        <div style=""text-align: center; position: fixed; top: 5vh; left: 40vw;"">
            <div style=""margin:0 auto; width: 20vw; top: 8vh; font-size: 2vw""> 
            <font color=""green""> Bonus : $1.15 </font>
            </div>
        </div>
    
        <img class=""stim"" src=./stimuli//pack_shapes_1/cat_1/diff_5/ex_1_5_13.png></img>
    ","null","stimulus","","","","","","",""
"","","","","","html-keyboard-response","172","198813","0.0-6.23-2.23","5be39428dd850e0001d2d401","656d9e5e2de4f984cfed7d4d","656d9ef59480f266f2f07c21","null","
        <div style=""text-align: center; position: fixed; top: 5vh; left: 40vw;"">
            <div style=""margin:0 auto; width: 20vw; top: 8vh; font-size: 2vw""> 
            <font color=""green""> Bonus : $1.15 </font>
            </div>
        </div>
    ","null","","","","","","","",""
"","","","","","html-keyboard-response","173","199109","0.0-6.23-3.23","5be39428dd850e0001d2d401","656d9e5e2de4f984cfed7d4d","656d9ef59480f266f2f07c21","295","./stimuli//pack_shapes_1/cat_1/diff_5/ex_1_5_13.png","arrowleft","response","ArrowLeft","13","1","5","test","true",""
"","","","","","html-keyboard-response","174","200614","0.0-6.23-4.23","5be39428dd850e0001d2d401","656d9e5e2de4f984cfed7d4d","656d9ef59480f266f2f07c21","null","<p> <font color=""green"" size=""5vw""> Correct category! </font> <br> <br> <font color=""green"" size=""8vw""> + $0.05 </font> </p>","null","feedback","","","","","","","1.2"
"","","","","","html-keyboard-response","175","200938","0.0-6.24-0.24","5be39428dd850e0001d2d401","656d9e5e2de4f984cfed7d4d","656d9ef59480f266f2f07c21","324","
            
        <div style=""text-align: center; position: fixed; top: 5vh; left: 40vw;"">
            <div style=""margin:0 auto; width: 20vw; top: 8vh; font-size: 2vw""> 
            <font color=""green""> Bonus : $1.2 </font>
            </div>
        </div>
    
            <div> Please press any key to continue to the next image.</div>
        ","arrowleft","ITI","","","","","","",""
"","","","","","html-keyboard-response","176","201542","0.0-6.24-1.24","5be39428dd850e0001d2d401","656d9e5e2de4f984cfed7d4d","656d9ef59480f266f2f07c21","null","
        
        <div style=""text-align: center; position: fixed; top: 5vh; left: 40vw;"">
            <div style=""margin:0 auto; width: 20vw; top: 8vh; font-size: 2vw""> 
            <font color=""green""> Bonus : $1.2 </font>
            </div>
        </div>
    
        <img class=""stim"" src=./stimuli//pack_shapes_1/cat_2/diff_5/ex_2_5_12.png></img>
    ","null","stimulus","","","","","","",""
"","","","","","html-keyboard-response","177","202546","0.0-6.24-2.24","5be39428dd850e0001d2d401","656d9e5e2de4f984cfed7d4d","656d9ef59480f266f2f07c21","null","
        <div style=""text-align: center; position: fixed; top: 5vh; left: 40vw;"">
            <div style=""margin:0 auto; width: 20vw; top: 8vh; font-size: 2vw""> 
            <font color=""green""> Bonus : $1.2 </font>
            </div>
        </div>
    ","null","","","","","","","",""
"","","","","","html-keyboard-response","178","202838","0.0-6.24-3.24","5be39428dd850e0001d2d401","656d9e5e2de4f984cfed7d4d","656d9ef59480f266f2f07c21","291","./stimuli//pack_shapes_1/cat_2/diff_5/ex_2_5_12.png","arrowright","response","ArrowRight","12","2","5","test","true",""
"","","","","","html-keyboard-response","179","204342","0.0-6.24-4.24","5be39428dd850e0001d2d401","656d9e5e2de4f984cfed7d4d","656d9ef59480f266f2f07c21","null","<p> <font color=""green"" size=""5vw""> Correct category! </font> <br> <br> <font color=""green"" size=""8vw""> + $0.05 </font> </p>","null","feedback","","","","","","","1.25"
"","","","","","html-keyboard-response","180","204739","0.0-6.25-0.25","5be39428dd850e0001d2d401","656d9e5e2de4f984cfed7d4d","656d9ef59480f266f2f07c21","396","
            
        <div style=""text-align: center; position: fixed; top: 5vh; left: 40vw;"">
            <div style=""margin:0 auto; width: 20vw; top: 8vh; font-size: 2vw""> 
            <font color=""green""> Bonus : $1.25 </font>
            </div>
        </div>
    
            <div> Please press any key to continue to the next image.</div>
        ","arrowright","ITI","","","","","","",""
"","","","","","html-keyboard-response","181","205342","0.0-6.25-1.25","5be39428dd850e0001d2d401","656d9e5e2de4f984cfed7d4d","656d9ef59480f266f2f07c21","null","
        
        <div style=""text-align: center; position: fixed; top: 5vh; left: 40vw;"">
            <div style=""margin:0 auto; width: 20vw; top: 8vh; font-size: 2vw""> 
            <font color=""green""> Bonus : $1.25 </font>
            </div>
        </div>
    
        <img class=""stim"" src=./stimuli//pack_shapes_1/cat_2/diff_5/ex_2_5_6.png></img>
    ","null","stimulus","","","","","","",""
"","","","","","html-keyboard-response","182","206346","0.0-6.25-2.25","5be39428dd850e0001d2d401","656d9e5e2de4f984cfed7d4d","656d9ef59480f266f2f07c21","null","
        <div style=""text-align: center; position: fixed; top: 5vh; left: 40vw;"">
            <div style=""margin:0 auto; width: 20vw; top: 8vh; font-size: 2vw""> 
            <font color=""green""> Bonus : $1.25 </font>
            </div>
        </div>
    ","null","","","","","","","",""
"","","","","","html-keyboard-response","183","206708","0.0-6.25-3.25","5be39428dd850e0001d2d401","656d9e5e2de4f984cfed7d4d","656d9ef59480f266f2f07c21","362","./stimuli//pack_shapes_1/cat_2/diff_5/ex_2_5_6.png","arrowright","response","ArrowRight","6","2","5","test","true",""
"","","","","","html-keyboard-response","184","208213","0.0-6.25-4.25","5be39428dd850e0001d2d401","656d9e5e2de4f984cfed7d4d","656d9ef59480f266f2f07c21","null","<p> <font color=""green"" size=""5vw""> Correct category! </font> <br> <br> <font color=""green"" size=""8vw""> + $0.05 </font> </p>","null","feedback","","","","","","","1.3"
"","","","","","html-keyboard-response","185","209123","0.0-6.26-0.26","5be39428dd850e0001d2d401","656d9e5e2de4f984cfed7d4d","656d9ef59480f266f2f07c21","909","
            
        <div style=""text-align: center; position: fixed; top: 5vh; left: 40vw;"">
            <div style=""margin:0 auto; width: 20vw; top: 8vh; font-size: 2vw""> 
            <font color=""green""> Bonus : $1.3 </font>
            </div>
        </div>
    
            <div> Please press any key to continue to the next image.</div>
        ","arrowright","ITI","","","","","","",""
"","","","","","html-keyboard-response","186","209727","0.0-6.26-1.26","5be39428dd850e0001d2d401","656d9e5e2de4f984cfed7d4d","656d9ef59480f266f2f07c21","null","
        
        <div style=""text-align: center; position: fixed; top: 5vh; left: 40vw;"">
            <div style=""margin:0 auto; width: 20vw; top: 8vh; font-size: 2vw""> 
            <font color=""green""> Bonus : $1.3 </font>
            </div>
        </div>
    
        <img class=""stim"" src=./stimuli//pack_shapes_1/cat_2/diff_5/ex_2_5_13.png></img>
    ","null","stimulus","","","","","","",""
"","","","","","html-keyboard-response","187","210728","0.0-6.26-2.26","5be39428dd850e0001d2d401","656d9e5e2de4f984cfed7d4d","656d9ef59480f266f2f07c21","null","
        <div style=""text-align: center; position: fixed; top: 5vh; left: 40vw;"">
            <div style=""margin:0 auto; width: 20vw; top: 8vh; font-size: 2vw""> 
            <font color=""green""> Bonus : $1.3 </font>
            </div>
        </div>
    ","null","","","","","","","",""
"","","","","","html-keyboard-response","188","211004","0.0-6.26-3.26","5be39428dd850e0001d2d401","656d9e5e2de4f984cfed7d4d","656d9ef59480f266f2f07c21","275","./stimuli//pack_shapes_1/cat_2/diff_5/ex_2_5_13.png","arrowleft","response","ArrowRight","13","2","5","test","false",""
"","","","","","html-keyboard-response","189","212508","0.0-6.26-4.26","5be39428dd850e0001d2d401","656d9e5e2de4f984cfed7d4d","656d9ef59480f266f2f07c21","null","<p> <font color=""red"" size=""5vw""> Wrong category! </font> <br> <br> <font color=""red"" size=""8vw""> - $0.05 </font> </p>","null","feedback","","","","","","","1.25"
"","","","","","html-keyboard-response","190","212920","0.0-6.27-0.27","5be39428dd850e0001d2d401","656d9e5e2de4f984cfed7d4d","656d9ef59480f266f2f07c21","411","
            
        <div style=""text-align: center; position: fixed; top: 5vh; left: 40vw;"">
            <div style=""margin:0 auto; width: 20vw; top: 8vh; font-size: 2vw""> 
            <font color=""green""> Bonus : $1.25 </font>
            </div>
        </div>
    
            <div> Please press any key to continue to the next image.</div>
        ","arrowright","ITI","","","","","","",""
"","","","","","html-keyboard-response","191","213523","0.0-6.27-1.27","5be39428dd850e0001d2d401","656d9e5e2de4f984cfed7d4d","656d9ef59480f266f2f07c21","null","
        
        <div style=""text-align: center; position: fixed; top: 5vh; left: 40vw;"">
            <div style=""margin:0 auto; width: 20vw; top: 8vh; font-size: 2vw""> 
            <font color=""green""> Bonus : $1.25 </font>
            </div>
        </div>
    
        <img class=""stim"" src=./stimuli//pack_shapes_1/cat_2/diff_5/ex_2_5_6.png></img>
    ","null","stimulus","","","","","","",""
"","","","","","html-keyboard-response","192","214525","0.0-6.27-2.27","5be39428dd850e0001d2d401","656d9e5e2de4f984cfed7d4d","656d9ef59480f266f2f07c21","null","
        <div style=""text-align: center; position: fixed; top: 5vh; left: 40vw;"">
            <div style=""margin:0 auto; width: 20vw; top: 8vh; font-size: 2vw""> 
            <font color=""green""> Bonus : $1.25 </font>
            </div>
        </div>
    ","null","","","","","","","",""
"","","","","","html-keyboard-response","193","214900","0.0-6.27-3.27","5be39428dd850e0001d2d401","656d9e5e2de4f984cfed7d4d","656d9ef59480f266f2f07c21","375","./stimuli//pack_shapes_1/cat_2/diff_5/ex_2_5_6.png","arrowright","response","ArrowRight","6","2","5","test","true",""
"","","","","","html-keyboard-response","194","216405","0.0-6.27-4.27","5be39428dd850e0001d2d401","656d9e5e2de4f984cfed7d4d","656d9ef59480f266f2f07c21","null","<p> <font color=""green"" size=""5vw""> Correct category! </font> <br> <br> <font color=""green"" size=""8vw""> + $0.05 </font> </p>","null","feedback","","","","","","","1.3"
"","","","","","html-keyboard-response","195","216975","0.0-6.28-0.28","5be39428dd850e0001d2d401","656d9e5e2de4f984cfed7d4d","656d9ef59480f266f2f07c21","569","
            
        <div style=""text-align: center; position: fixed; top: 5vh; left: 40vw;"">
            <div style=""margin:0 auto; width: 20vw; top: 8vh; font-size: 2vw""> 
            <font color=""green""> Bonus : $1.3 </font>
            </div>
        </div>
    
            <div> Please press any key to continue to the next image.</div>
        ","arrowright","ITI","","","","","","",""
"","","","","","html-keyboard-response","196","217581","0.0-6.28-1.28","5be39428dd850e0001d2d401","656d9e5e2de4f984cfed7d4d","656d9ef59480f266f2f07c21","null","
        
        <div style=""text-align: center; position: fixed; top: 5vh; left: 40vw;"">
            <div style=""margin:0 auto; width: 20vw; top: 8vh; font-size: 2vw""> 
            <font color=""green""> Bonus : $1.3 </font>
            </div>
        </div>
    
        <img class=""stim"" src=./stimuli//pack_shapes_1/cat_2/diff_5/ex_2_5_6.png></img>
    ","null","stimulus","","","","","","",""
"","","","","","html-keyboard-response","197","218583","0.0-6.28-2.28","5be39428dd850e0001d2d401","656d9e5e2de4f984cfed7d4d","656d9ef59480f266f2f07c21","null","
        <div style=""text-align: center; position: fixed; top: 5vh; left: 40vw;"">
            <div style=""margin:0 auto; width: 20vw; top: 8vh; font-size: 2vw""> 
            <font color=""green""> Bonus : $1.3 </font>
            </div>
        </div>
    ","null","","","","","","","",""
"","","","","","html-keyboard-response","198","218851","0.0-6.28-3.28","5be39428dd850e0001d2d401","656d9e5e2de4f984cfed7d4d","656d9ef59480f266f2f07c21","266","./stimuli//pack_shapes_1/cat_2/diff_5/ex_2_5_6.png","arrowright","response","ArrowRight","6","2","5","test","true",""
"","","","","","html-keyboard-response","199","220352","0.0-6.28-4.28","5be39428dd850e0001d2d401","656d9e5e2de4f984cfed7d4d","656d9ef59480f266f2f07c21","null","<p> <font color=""green"" size=""5vw""> Correct category! </font> <br> <br> <font color=""green"" size=""8vw""> + $0.05 </font> </p>","null","feedback","","","","","","","1.35"
"","","","","","html-keyboard-response","200","220700","0.0-6.29-0.29","5be39428dd850e0001d2d401","656d9e5e2de4f984cfed7d4d","656d9ef59480f266f2f07c21","347","
            
        <div style=""text-align: center; position: fixed; top: 5vh; left: 40vw;"">
            <div style=""margin:0 auto; width: 20vw; top: 8vh; font-size: 2vw""> 
            <font color=""green""> Bonus : $1.35 </font>
            </div>
        </div>
    
            <div> Please press any key to continue to the next image.</div>
        ","arrowright","ITI","","","","","","",""
"","","","","","html-keyboard-response","201","221303","0.0-6.29-1.29","5be39428dd850e0001d2d401","656d9e5e2de4f984cfed7d4d","656d9ef59480f266f2f07c21","null","
        
        <div style=""text-align: center; position: fixed; top: 5vh; left: 40vw;"">
            <div style=""margin:0 auto; width: 20vw; top: 8vh; font-size: 2vw""> 
            <font color=""green""> Bonus : $1.35 </font>
            </div>
        </div>
    
        <img class=""stim"" src=./stimuli//pack_shapes_1/cat_2/diff_5/ex_2_5_6.png></img>
    ","null","stimulus","","","","","","",""
"","","","","","html-keyboard-response","202","222308","0.0-6.29-2.29","5be39428dd850e0001d2d401","656d9e5e2de4f984cfed7d4d","656d9ef59480f266f2f07c21","null","
        <div style=""text-align: center; position: fixed; top: 5vh; left: 40vw;"">
            <div style=""margin:0 auto; width: 20vw; top: 8vh; font-size: 2vw""> 
            <font color=""green""> Bonus : $1.35 </font>
            </div>
        </div>
    ","null","","","","","","","",""
"","","","","","html-keyboard-response","203","222566","0.0-6.29-3.29","5be39428dd850e0001d2d401","656d9e5e2de4f984cfed7d4d","656d9ef59480f266f2f07c21","257","./stimuli//pack_shapes_1/cat_2/diff_5/ex_2_5_6.png","arrowright","response","ArrowRight","6","2","5","test","true",""
"","","","","","html-keyboard-response","204","224067","0.0-6.29-4.29","5be39428dd850e0001d2d401","656d9e5e2de4f984cfed7d4d","656d9ef59480f266f2f07c21","null","<p> <font color=""green"" size=""5vw""> Correct category! </font> <br> <br> <font color=""green"" size=""8vw""> + $0.05 </font> </p>","null","feedback","","","","","","","1.4"
"","","","","","html-keyboard-response","205","224325","0.0-6.30-0.30","5be39428dd850e0001d2d401","656d9e5e2de4f984cfed7d4d","656d9ef59480f266f2f07c21","257","
            
        <div style=""text-align: center; position: fixed; top: 5vh; left: 40vw;"">
            <div style=""margin:0 auto; width: 20vw; top: 8vh; font-size: 2vw""> 
            <font color=""green""> Bonus : $1.4 </font>
            </div>
        </div>
    
            <div> Please press any key to continue to the next image.</div>
        ","arrowright","ITI","","","","","","",""
"","","","","","html-keyboard-response","206","224928","0.0-6.30-1.30","5be39428dd850e0001d2d401","656d9e5e2de4f984cfed7d4d","656d9ef59480f266f2f07c21","null","
        
        <div style=""text-align: center; position: fixed; top: 5vh; left: 40vw;"">
            <div style=""margin:0 auto; width: 20vw; top: 8vh; font-size: 2vw""> 
            <font color=""green""> Bonus : $1.4 </font>
            </div>
        </div>
    
        <img class=""stim"" src=./stimuli//pack_shapes_1/cat_2/diff_5/ex_2_5_12.png></img>
    ","null","stimulus","","","","","","",""
"","","","","","html-keyboard-response","207","225931","0.0-6.30-2.30","5be39428dd850e0001d2d401","656d9e5e2de4f984cfed7d4d","656d9ef59480f266f2f07c21","null","
        <div style=""text-align: center; position: fixed; top: 5vh; left: 40vw;"">
            <div style=""margin:0 auto; width: 20vw; top: 8vh; font-size: 2vw""> 
            <font color=""green""> Bonus : $1.4 </font>
            </div>
        </div>
    ","null","","","","","","","",""
"","","","","","html-keyboard-response","208","226183","0.0-6.30-3.30","5be39428dd850e0001d2d401","656d9e5e2de4f984cfed7d4d","656d9ef59480f266f2f07c21","252","./stimuli//pack_shapes_1/cat_2/diff_5/ex_2_5_12.png","arrowleft","response","ArrowRight","12","2","5","test","false",""
"","","","","","html-keyboard-response","209","227685","0.0-6.30-4.30","5be39428dd850e0001d2d401","656d9e5e2de4f984cfed7d4d","656d9ef59480f266f2f07c21","null","<p> <font color=""red"" size=""5vw""> Wrong category! </font> <br> <br> <font color=""red"" size=""8vw""> - $0.05 </font> </p>","null","feedback","","","","","","","1.35"
"","","","","","html-keyboard-response","210","228027","0.0-6.31-0.31","5be39428dd850e0001d2d401","656d9e5e2de4f984cfed7d4d","656d9ef59480f266f2f07c21","342","
            
        <div style=""text-align: center; position: fixed; top: 5vh; left: 40vw;"">
            <div style=""margin:0 auto; width: 20vw; top: 8vh; font-size: 2vw""> 
            <font color=""green""> Bonus : $1.35 </font>
            </div>
        </div>
    
            <div> Please press any key to continue to the next image.</div>
        ","arrowright","ITI","","","","","","",""
"","","","","","html-keyboard-response","211","228631","0.0-6.31-1.31","5be39428dd850e0001d2d401","656d9e5e2de4f984cfed7d4d","656d9ef59480f266f2f07c21","null","
        
        <div style=""text-align: center; position: fixed; top: 5vh; left: 40vw;"">
            <div style=""margin:0 auto; width: 20vw; top: 8vh; font-size: 2vw""> 
            <font color=""green""> Bonus : $1.35 </font>
            </div>
        </div>
    
        <img class=""stim"" src=./stimuli//pack_shapes_1/cat_2/diff_4/ex_2_4_7.png></img>
    ","null","stimulus","","","","","","",""
"","","","","","html-keyboard-response","212","229634","0.0-6.31-2.31","5be39428dd850e0001d2d401","656d9e5e2de4f984cfed7d4d","656d9ef59480f266f2f07c21","null","
        <div style=""text-align: center; position: fixed; top: 5vh; left: 40vw;"">
            <div style=""margin:0 auto; width: 20vw; top: 8vh; font-size: 2vw""> 
            <font color=""green""> Bonus : $1.35 </font>
            </div>
        </div>
    ","null","","","","","","","",""
"","","","","","html-keyboard-response","213","229906","0.0-6.31-3.31","5be39428dd850e0001d2d401","656d9e5e2de4f984cfed7d4d","656d9ef59480f266f2f07c21","272","./stimuli//pack_shapes_1/cat_2/diff_4/ex_2_4_7.png","arrowright","response","ArrowRight","7","2","4","test","true",""
"","","","","","html-keyboard-response","214","231410","0.0-6.31-4.31","5be39428dd850e0001d2d401","656d9e5e2de4f984cfed7d4d","656d9ef59480f266f2f07c21","null","<p> <font color=""green"" size=""5vw""> Correct category! </font> <br> <br> <font color=""green"" size=""8vw""> + $0.05 </font> </p>","null","feedback","","","","","","","1.4"
"","","","","","html-keyboard-response","215","231699","0.0-6.32-0.32","5be39428dd850e0001d2d401","656d9e5e2de4f984cfed7d4d","656d9ef59480f266f2f07c21","288","
            
        <div style=""text-align: center; position: fixed; top: 5vh; left: 40vw;"">
            <div style=""margin:0 auto; width: 20vw; top: 8vh; font-size: 2vw""> 
            <font color=""green""> Bonus : $1.4 </font>
            </div>
        </div>
    
            <div> Please press any key to continue to the next image.</div>
        ","arrowright","ITI","","","","","","",""
"","","","","","html-keyboard-response","216","232302","0.0-6.32-1.32","5be39428dd850e0001d2d401","656d9e5e2de4f984cfed7d4d","656d9ef59480f266f2f07c21","null","
        
        <div style=""text-align: center; position: fixed; top: 5vh; left: 40vw;"">
            <div style=""margin:0 auto; width: 20vw; top: 8vh; font-size: 2vw""> 
            <font color=""green""> Bonus : $1.4 </font>
            </div>
        </div>
    
        <img class=""stim"" src=./stimuli//pack_shapes_1/cat_2/diff_4/ex_2_4_10.png></img>
    ","null","stimulus","","","","","","",""
"","","","","","html-keyboard-response","217","233306","0.0-6.32-2.32","5be39428dd850e0001d2d401","656d9e5e2de4f984cfed7d4d","656d9ef59480f266f2f07c21","null","
        <div style=""text-align: center; position: fixed; top: 5vh; left: 40vw;"">
            <div style=""margin:0 auto; width: 20vw; top: 8vh; font-size: 2vw""> 
            <font color=""green""> Bonus : $1.4 </font>
            </div>
        </div>
    ","null","","","","","","","",""
"","","","","","html-keyboard-response","218","233573","0.0-6.32-3.32","5be39428dd850e0001d2d401","656d9e5e2de4f984cfed7d4d","656d9ef59480f266f2f07c21","266","./stimuli//pack_shapes_1/cat_2/diff_4/ex_2_4_10.png","arrowright","response","ArrowRight","10","2","4","test","true",""
"","","","","","html-keyboard-response","219","235075","0.0-6.32-4.32","5be39428dd850e0001d2d401","656d9e5e2de4f984cfed7d4d","656d9ef59480f266f2f07c21","null","<p> <font color=""green"" size=""5vw""> Correct category! </font> <br> <br> <font color=""green"" size=""8vw""> + $0.05 </font> </p>","null","feedback","","","","","","","1.45"
"","","","","","html-keyboard-response","220","235382","0.0-6.33-0.33","5be39428dd850e0001d2d401","656d9e5e2de4f984cfed7d4d","656d9ef59480f266f2f07c21","306","
            
        <div style=""text-align: center; position: fixed; top: 5vh; left: 40vw;"">
            <div style=""margin:0 auto; width: 20vw; top: 8vh; font-size: 2vw""> 
            <font color=""green""> Bonus : $1.45 </font>
            </div>
        </div>
    
            <div> Please press any key to continue to the next image.</div>
        ","arrowright","ITI","","","","","","",""
"","","","","","html-keyboard-response","221","235986","0.0-6.33-1.33","5be39428dd850e0001d2d401","656d9e5e2de4f984cfed7d4d","656d9ef59480f266f2f07c21","null","
        
        <div style=""text-align: center; position: fixed; top: 5vh; left: 40vw;"">
            <div style=""margin:0 auto; width: 20vw; top: 8vh; font-size: 2vw""> 
            <font color=""green""> Bonus : $1.45 </font>
            </div>
        </div>
    
        <img class=""stim"" src=./stimuli//pack_shapes_1/cat_1/diff_4/ex_1_4_8.png></img>
    ","null","stimulus","","","","","","",""
"","","","","","html-keyboard-response","222","236991","0.0-6.33-2.33","5be39428dd850e0001d2d401","656d9e5e2de4f984cfed7d4d","656d9ef59480f266f2f07c21","null","
        <div style=""text-align: center; position: fixed; top: 5vh; left: 40vw;"">
            <div style=""margin:0 auto; width: 20vw; top: 8vh; font-size: 2vw""> 
            <font color=""green""> Bonus : $1.45 </font>
            </div>
        </div>
    ","null","","","","","","","",""
"","","","","","html-keyboard-response","223","237103","0.0-6.33-3.33","5be39428dd850e0001d2d401","656d9e5e2de4f984cfed7d4d","656d9ef59480f266f2f07c21","111","./stimuli//pack_shapes_1/cat_1/diff_4/ex_1_4_8.png","arrowleft","response","ArrowLeft","8","1","4","test","true",""
"","","","","","html-keyboard-response","224","238606","0.0-6.33-4.33","5be39428dd850e0001d2d401","656d9e5e2de4f984cfed7d4d","656d9ef59480f266f2f07c21","null","<p> <font color=""green"" size=""5vw""> Correct category! </font> <br> <br> <font color=""green"" size=""8vw""> + $0.05 </font> </p>","null","feedback","","","","","","","1.5"
"","","","","","html-keyboard-response","225","239859","0.0-6.34-0.34","5be39428dd850e0001d2d401","656d9e5e2de4f984cfed7d4d","656d9ef59480f266f2f07c21","1252","
            
        <div style=""text-align: center; position: fixed; top: 5vh; left: 40vw;"">
            <div style=""margin:0 auto; width: 20vw; top: 8vh; font-size: 2vw""> 
            <font color=""green""> Bonus : $1.5 </font>
            </div>
        </div>
    
            <div> Please press any key to continue to the next image.</div>
        ","arrowleft","ITI","","","","","","",""
"","","","","","html-keyboard-response","226","240464","0.0-6.34-1.34","5be39428dd850e0001d2d401","656d9e5e2de4f984cfed7d4d","656d9ef59480f266f2f07c21","null","
        
        <div style=""text-align: center; position: fixed; top: 5vh; left: 40vw;"">
            <div style=""margin:0 auto; width: 20vw; top: 8vh; font-size: 2vw""> 
            <font color=""green""> Bonus : $1.5 </font>
            </div>
        </div>
    
        <img class=""stim"" src=./stimuli//pack_shapes_1/cat_2/diff_4/ex_2_4_14.png></img>
    ","null","stimulus","","","","","","",""
"","","","","","html-keyboard-response","227","241468","0.0-6.34-2.34","5be39428dd850e0001d2d401","656d9e5e2de4f984cfed7d4d","656d9ef59480f266f2f07c21","null","
        <div style=""text-align: center; position: fixed; top: 5vh; left: 40vw;"">
            <div style=""margin:0 auto; width: 20vw; top: 8vh; font-size: 2vw""> 
            <font color=""green""> Bonus : $1.5 </font>
            </div>
        </div>
    ","null","","","","","","","",""
"","","","","","html-keyboard-response","228","241657","0.0-6.34-3.34","5be39428dd850e0001d2d401","656d9e5e2de4f984cfed7d4d","656d9ef59480f266f2f07c21","188","./stimuli//pack_shapes_1/cat_2/diff_4/ex_2_4_14.png","arrowright","response","ArrowRight","14","2","4","test","true",""
