"success","timeout","failed_images","failed_audio","failed_video","trial_type","trial_index","time_elapsed","internal_node_id","subject_id","study_id","session_id","rt","stimulus","response","task","correct_response","exemplar_ID","category","difficulty","phase","correct","bonus"
"true","false","[]","[]","[]","preload","0","10","0.0-0.0","64e905e3eea5a5ce019a1f88","656d9e5e2de4f984cfed7d4d","656d9efedcacc13a8f17fb1d","","","","","","","","","","",""
"","","","","","html-keyboard-response","1","28374","0.0-1.0","64e905e3eea5a5ce019a1f88","656d9e5e2de4f984cfed7d4d","656d9efedcacc13a8f17fb1d","28360","Welcome to the Category Learning experiment! Press any key to continue."," ","welcome","","","","","","",""
"","","","","","html-keyboard-response","2","115593","0.0-2.0","64e905e3eea5a5ce019a1f88","656d9e5e2de4f984cfed7d4d","656d9efedcacc13a8f17fb1d","87215","
            <p>You will be shown images of white shapes. Some are category A, some are category B.
            <br>You will not know in advance which category a specific shape belongs to.</p>
            <p>After you see an image, you will be asked to guess its category <b>(left arrow for category A, right arrow for category B)</b></p>
            <p>After you choose, the screen will show you whether you were correct or not.</p>
            <p><b>You will receive a bonus payment of $0.05 for each correct answer!</b></p>
            <p><b>You will lose $0.05 from your bonus payment for each incorrect answer! The bonus can not become less that $0.</b></p>
            <p>Press any key to continue.</p>
            ","meta","introduction_1","","","","","","",""
"","","","","","html-keyboard-response","3","133839","0.0-3.0","64e905e3eea5a5ce019a1f88","656d9e5e2de4f984cfed7d4d","656d9efedcacc13a8f17fb1d","18244","
            <p> <b>The first 10 trials are a practice round that will not count towards your bonus payment.</b></p>
            <p> You will be notified when practice finishes and the test begins. </p>
            <p> Press any key to begin the practice round.</p>
            "," ","introduction_2","","","","","","",""
"","","","","","html-keyboard-response","4","137787","0.0-4.0-0.0","64e905e3eea5a5ce019a1f88","656d9e5e2de4f984cfed7d4d","656d9efedcacc13a8f17fb1d","3944","
            
        <div style=""text-align: center; position: fixed; top: 5vh; left: 40vw;"">
            <div style=""margin:0 auto; width: 20vw; top: 8vh; font-size: 2vw""> 
            <font color=""green""> Bonus : $0 </font>
            </div>
        </div>
    
            <div> Please press any key to continue to the next image.</div>
        "," ","ITI","","","","","","",""
"","","","","","html-keyboard-response","5","138403","0.0-4.0-1.0","64e905e3eea5a5ce019a1f88","656d9e5e2de4f984cfed7d4d","656d9efedcacc13a8f17fb1d","null","
        
        <div style=""text-align: center; position: fixed; top: 5vh; left: 40vw;"">
            <div style=""margin:0 auto; width: 20vw; top: 8vh; font-size: 2vw""> 
            <font color=""green""> Bonus : $0 </font>
            </div>
        </div>
    
        <img class=""stim"" src=./stimuli//pack_shapes_1/cat_2/diff_2/ex_2_2_17.png></img>
    ","null","stimulus","","","","","","",""
"","","","","","html-keyboard-response","6","139421","0.0-4.0-2.0","64e905e3eea5a5ce019a1f88","656d9e5e2de4f984cfed7d4d","656d9efedcacc13a8f17fb1d","null","
        <div style=""text-align: center; position: fixed; top: 5vh; left: 40vw;"">
            <div style=""margin:0 auto; width: 20vw; top: 8vh; font-size: 2vw""> 
            <font color=""green""> Bonus : $0 </font>
            </div>
        </div>
    ","null","","","","","","","",""
"","","","","","html-keyboard-response","7","143427","0.0-4.0-3.0","64e905e3eea5a5ce019a1f88","656d9e5e2de4f984cfed7d4d","656d9efedcacc13a8f17fb1d","null","./stimuli//pack_shapes_1/cat_2/diff_2/ex_2_2_17.png","null","response","ArrowRight","17","2","2","train","false",""
"","","","","","html-keyboard-response","8","144939","0.0-4.0-4.0","64e905e3eea5a5ce019a1f88","656d9e5e2de4f984cfed7d4d","656d9efedcacc13a8f17fb1d","null","<p> <font color=""red"" size=""5vw""> Time out! </font> <br> <br> Please try to respond as quickly as possible. </p>","null","feedback","","","","","","","0"
"","","","","","html-keyboard-response","9","146767","0.0-4.0-0.1","64e905e3eea5a5ce019a1f88","656d9e5e2de4f984cfed7d4d","656d9efedcacc13a8f17fb1d","1826","
            
        <div style=""text-align: center; position: fixed; top: 5vh; left: 40vw;"">
            <div style=""margin:0 auto; width: 20vw; top: 8vh; font-size: 2vw""> 
            <font color=""green""> Bonus : $0 </font>
            </div>
        </div>
    
            <div> Please press any key to continue to the next image.</div>
        ","a","ITI","","","","","","",""
"","","","","","html-keyboard-response","10","147381","0.0-4.0-1.1","64e905e3eea5a5ce019a1f88","656d9e5e2de4f984cfed7d4d","656d9efedcacc13a8f17fb1d","null","
        
        <div style=""text-align: center; position: fixed; top: 5vh; left: 40vw;"">
            <div style=""margin:0 auto; width: 20vw; top: 8vh; font-size: 2vw""> 
            <font color=""green""> Bonus : $0 </font>
            </div>
        </div>
    
        <img class=""stim"" src=./stimuli//pack_shapes_1/cat_2/diff_1/ex_2_1_10.png></img>
    ","null","stimulus","","","","","","",""
"","","","","","html-keyboard-response","11","148396","0.0-4.0-2.1","64e905e3eea5a5ce019a1f88","656d9e5e2de4f984cfed7d4d","656d9efedcacc13a8f17fb1d","null","
        <div style=""text-align: center; position: fixed; top: 5vh; left: 40vw;"">
            <div style=""margin:0 auto; width: 20vw; top: 8vh; font-size: 2vw""> 
            <font color=""green""> Bonus : $0 </font>
            </div>
        </div>
    ","null","","","","","","","",""
"","","","","","html-keyboard-response","12","152411","0.0-4.0-3.1","64e905e3eea5a5ce019a1f88","656d9e5e2de4f984cfed7d4d","656d9efedcacc13a8f17fb1d","null","./stimuli//pack_shapes_1/cat_2/diff_1/ex_2_1_10.png","null","response","ArrowRight","10","2","1","train","false",""
"","","","","","html-keyboard-response","13","153925","0.0-4.0-4.1","64e905e3eea5a5ce019a1f88","656d9e5e2de4f984cfed7d4d","656d9efedcacc13a8f17fb1d","null","<p> <font color=""red"" size=""5vw""> Time out! </font> <br> <br> Please try to respond as quickly as possible. </p>","null","feedback","","","","","","","0"
"","","","","","html-keyboard-response","14","156754","0.0-4.0-0.2","64e905e3eea5a5ce019a1f88","656d9e5e2de4f984cfed7d4d","656d9efedcacc13a8f17fb1d","2826","
            
        <div style=""text-align: center; position: fixed; top: 5vh; left: 40vw;"">
            <div style=""margin:0 auto; width: 20vw; top: 8vh; font-size: 2vw""> 
            <font color=""green""> Bonus : $0 </font>
            </div>
        </div>
    
            <div> Please press any key to continue to the next image.</div>
        ","l","ITI","","","","","","",""
"","","","","","html-keyboard-response","15","157359","0.0-4.0-1.2","64e905e3eea5a5ce019a1f88","656d9e5e2de4f984cfed7d4d","656d9efedcacc13a8f17fb1d","null","
        
        <div style=""text-align: center; position: fixed; top: 5vh; left: 40vw;"">
            <div style=""margin:0 auto; width: 20vw; top: 8vh; font-size: 2vw""> 
            <font color=""green""> Bonus : $0 </font>
            </div>
        </div>
    
        <img class=""stim"" src=./stimuli//pack_shapes_1/cat_2/diff_1/ex_2_1_17.png></img>
    ","null","stimulus","","","","","","",""
"","","","","","html-keyboard-response","16","158376","0.0-4.0-2.2","64e905e3eea5a5ce019a1f88","656d9e5e2de4f984cfed7d4d","656d9efedcacc13a8f17fb1d","null","
        <div style=""text-align: center; position: fixed; top: 5vh; left: 40vw;"">
            <div style=""margin:0 auto; width: 20vw; top: 8vh; font-size: 2vw""> 
            <font color=""green""> Bonus : $0 </font>
            </div>
        </div>
    ","null","","","","","","","",""
"","","","","","html-keyboard-response","17","162386","0.0-4.0-3.2","64e905e3eea5a5ce019a1f88","656d9e5e2de4f984cfed7d4d","656d9efedcacc13a8f17fb1d","null","./stimuli//pack_shapes_1/cat_2/diff_1/ex_2_1_17.png","null","response","ArrowRight","17","2","1","train","false",""
"","","","","","html-keyboard-response","18","163901","0.0-4.0-4.2","64e905e3eea5a5ce019a1f88","656d9e5e2de4f984cfed7d4d","656d9efedcacc13a8f17fb1d","null","<p> <font color=""red"" size=""5vw""> Time out! </font> <br> <br> Please try to respond as quickly as possible. </p>","null","feedback","","","","","","","0"
"","","","","","html-keyboard-response","19","167868","0.0-4.0-0.3","64e905e3eea5a5ce019a1f88","656d9e5e2de4f984cfed7d4d","656d9efedcacc13a8f17fb1d","3965","
            
        <div style=""text-align: center; position: fixed; top: 5vh; left: 40vw;"">
            <div style=""margin:0 auto; width: 20vw; top: 8vh; font-size: 2vw""> 
            <font color=""green""> Bonus : $0 </font>
            </div>
        </div>
    
            <div> Please press any key to continue to the next image.</div>
        "," ","ITI","","","","","","",""
"","","","","","html-keyboard-response","20","168487","0.0-4.0-1.3","64e905e3eea5a5ce019a1f88","656d9e5e2de4f984cfed7d4d","656d9efedcacc13a8f17fb1d","null","
        
        <div style=""text-align: center; position: fixed; top: 5vh; left: 40vw;"">
            <div style=""margin:0 auto; width: 20vw; top: 8vh; font-size: 2vw""> 
            <font color=""green""> Bonus : $0 </font>
            </div>
        </div>
    
        <img class=""stim"" src=./stimuli//pack_shapes_1/cat_1/diff_2/ex_1_2_3.png></img>
    ","null","stimulus","","","","","","",""
"","","","","","html-keyboard-response","21","169491","0.0-4.0-2.3","64e905e3eea5a5ce019a1f88","656d9e5e2de4f984cfed7d4d","656d9efedcacc13a8f17fb1d","null","
        <div style=""text-align: center; position: fixed; top: 5vh; left: 40vw;"">
            <div style=""margin:0 auto; width: 20vw; top: 8vh; font-size: 2vw""> 
            <font color=""green""> Bonus : $0 </font>
            </div>
        </div>
    ","null","","","","","","","",""
"","","","","","html-keyboard-response","22","173498","0.0-4.0-3.3","64e905e3eea5a5ce019a1f88","656d9e5e2de4f984cfed7d4d","656d9efedcacc13a8f17fb1d","null","./stimuli//pack_shapes_1/cat_1/diff_2/ex_1_2_3.png","null","response","ArrowLeft","3","1","2","train","false",""
"","","","","","html-keyboard-response","23","175002","0.0-4.0-4.3","64e905e3eea5a5ce019a1f88","656d9e5e2de4f984cfed7d4d","656d9efedcacc13a8f17fb1d","null","<p> <font color=""red"" size=""5vw""> Time out! </font> <br> <br> Please try to respond as quickly as possible. </p>","null","feedback","","","","","","","0"
"","","","","","html-keyboard-response","24","176657","0.0-4.0-0.4","64e905e3eea5a5ce019a1f88","656d9e5e2de4f984cfed7d4d","656d9efedcacc13a8f17fb1d","1653","
            
        <div style=""text-align: center; position: fixed; top: 5vh; left: 40vw;"">
            <div style=""margin:0 auto; width: 20vw; top: 8vh; font-size: 2vw""> 
            <font color=""green""> Bonus : $0 </font>
            </div>
        </div>
    
            <div> Please press any key to continue to the next image.</div>
        "," ","ITI","","","","","","",""
"","","","","","html-keyboard-response","25","177269","0.0-4.0-1.4","64e905e3eea5a5ce019a1f88","656d9e5e2de4f984cfed7d4d","656d9efedcacc13a8f17fb1d","null","
        
        <div style=""text-align: center; position: fixed; top: 5vh; left: 40vw;"">
            <div style=""margin:0 auto; width: 20vw; top: 8vh; font-size: 2vw""> 
            <font color=""green""> Bonus : $0 </font>
            </div>
        </div>
    
        <img class=""stim"" src=./stimuli//pack_shapes_1/cat_1/diff_1/ex_1_1_15.png></img>
    ","null","stimulus","","","","","","",""
"","","","","","html-keyboard-response","26","178277","0.0-4.0-2.4","64e905e3eea5a5ce019a1f88","656d9e5e2de4f984cfed7d4d","656d9efedcacc13a8f17fb1d","null","
        <div style=""text-align: center; position: fixed; top: 5vh; left: 40vw;"">
            <div style=""margin:0 auto; width: 20vw; top: 8vh; font-size: 2vw""> 
            <font color=""green""> Bonus : $0 </font>
            </div>
        </div>
    ","null","","","","","","","",""
"","","","","","html-keyboard-response","27","181063","0.0-4.0-3.4","64e905e3eea5a5ce019a1f88","656d9e5e2de4f984cfed7d4d","656d9efedcacc13a8f17fb1d","2784","./stimuli//pack_shapes_1/cat_1/diff_1/ex_1_1_15.png","arrowright","response","ArrowLeft","15","1","1","train","false",""
"","","","","","html-keyboard-response","28","182567","0.0-4.0-4.4","64e905e3eea5a5ce019a1f88","656d9e5e2de4f984cfed7d4d","656d9efedcacc13a8f17fb1d","null","<p> <font color=""red"" size=""5vw""> Wrong category! </font> </p>","null","feedback","","","","","","","0"
"","","","","","html-keyboard-response","29","184350","0.0-4.0-0.5","64e905e3eea5a5ce019a1f88","656d9e5e2de4f984cfed7d4d","656d9efedcacc13a8f17fb1d","1780","
            
        <div style=""text-align: center; position: fixed; top: 5vh; left: 40vw;"">
            <div style=""margin:0 auto; width: 20vw; top: 8vh; font-size: 2vw""> 
            <font color=""green""> Bonus : $0 </font>
            </div>
        </div>
    
            <div> Please press any key to continue to the next image.</div>
        "," ","ITI","","","","","","",""
"","","","","","html-keyboard-response","30","184956","0.0-4.0-1.5","64e905e3eea5a5ce019a1f88","656d9e5e2de4f984cfed7d4d","656d9efedcacc13a8f17fb1d","null","
        
        <div style=""text-align: center; position: fixed; top: 5vh; left: 40vw;"">
            <div style=""margin:0 auto; width: 20vw; top: 8vh; font-size: 2vw""> 
            <font color=""green""> Bonus : $0 </font>
            </div>
        </div>
    
        <img class=""stim"" src=./stimuli//pack_shapes_1/cat_2/diff_2/ex_2_2_12.png></img>
    ","null","stimulus","","","","","","",""
"","","","","","html-keyboard-response","31","185966","0.0-4.0-2.5","64e905e3eea5a5ce019a1f88","656d9e5e2de4f984cfed7d4d","656d9efedcacc13a8f17fb1d","null","
        <div style=""text-align: center; position: fixed; top: 5vh; left: 40vw;"">
            <div style=""margin:0 auto; width: 20vw; top: 8vh; font-size: 2vw""> 
            <font color=""green""> Bonus : $0 </font>
            </div>
        </div>
    ","null","","","","","","","",""
"","","","","","html-keyboard-response","32","186420","0.0-4.0-3.5","64e905e3eea5a5ce019a1f88","656d9e5e2de4f984cfed7d4d","656d9efedcacc13a8f17fb1d","451","./stimuli//pack_shapes_1/cat_2/diff_2/ex_2_2_12.png","arrowleft","response","ArrowRight","12","2","2","train","false",""
"","","","","","html-keyboard-response","33","187733","0.0-4.0-4.5","64e905e3eea5a5ce019a1f88","656d9e5e2de4f984cfed7d4d","656d9efedcacc13a8f17fb1d","1311","<p> <font color=""red"" size=""5vw""> Wrong category! </font> </p>"," ","feedback","","","","","","","0"
"","","","","","html-keyboard-response","34","189197","0.0-4.0-0.6","64e905e3eea5a5ce019a1f88","656d9e5e2de4f984cfed7d4d","656d9efedcacc13a8f17fb1d","1462","
            
        <div style=""text-align: center; position: fixed; top: 5vh; left: 40vw;"">
            <div style=""margin:0 auto; width: 20vw; top: 8vh; font-size: 2vw""> 
            <font color=""green""> Bonus : $0 </font>
            </div>
        </div>
    
            <div> Please press any key to continue to the next image.</div>
        "," ","ITI","","","","","","",""
"","","","","","html-keyboard-response","35","189809","0.0-4.0-1.6","64e905e3eea5a5ce019a1f88","656d9e5e2de4f984cfed7d4d","656d9efedcacc13a8f17fb1d","null","
        
        <div style=""text-align: center; position: fixed; top: 5vh; left: 40vw;"">
            <div style=""margin:0 auto; width: 20vw; top: 8vh; font-size: 2vw""> 
            <font color=""green""> Bonus : $0 </font>
            </div>
        </div>
    
        <img class=""stim"" src=./stimuli//pack_shapes_1/cat_1/diff_1/ex_1_1_11.png></img>
    ","null","stimulus","","","","","","",""
"","","","","","html-keyboard-response","36","190822","0.0-4.0-2.6","64e905e3eea5a5ce019a1f88","656d9e5e2de4f984cfed7d4d","656d9efedcacc13a8f17fb1d","null","
        <div style=""text-align: center; position: fixed; top: 5vh; left: 40vw;"">
            <div style=""margin:0 auto; width: 20vw; top: 8vh; font-size: 2vw""> 
            <font color=""green""> Bonus : $0 </font>
            </div>
        </div>
    ","null","","","","","","","",""
"","","","","","html-keyboard-response","37","191196","0.0-4.0-3.6","64e905e3eea5a5ce019a1f88","656d9e5e2de4f984cfed7d4d","656d9efedcacc13a8f17fb1d","373","./stimuli//pack_shapes_1/cat_1/diff_1/ex_1_1_11.png","arrowleft","response","ArrowLeft","11","1","1","train","true",""
"","","","","","html-keyboard-response","38","192590","0.0-4.0-4.6","64e905e3eea5a5ce019a1f88","656d9e5e2de4f984cfed7d4d","656d9efedcacc13a8f17fb1d","1393","<p><font color=""green"" size=""5vw""> Correct category! </font></p>"," ","feedback","","","","","","","0"
"","","","","","html-keyboard-response","39","193276","0.0-4.0-0.7","64e905e3eea5a5ce019a1f88","656d9e5e2de4f984cfed7d4d","656d9efedcacc13a8f17fb1d","684","
            
        <div style=""text-align: center; position: fixed; top: 5vh; left: 40vw;"">
            <div style=""margin:0 auto; width: 20vw; top: 8vh; font-size: 2vw""> 
            <font color=""green""> Bonus : $0 </font>
            </div>
        </div>
    
            <div> Please press any key to continue to the next image.</div>
        ","arrowright","ITI","","","","","","",""
"","","","","","html-keyboard-response","40","193891","0.0-4.0-1.7","64e905e3eea5a5ce019a1f88","656d9e5e2de4f984cfed7d4d","656d9efedcacc13a8f17fb1d","null","
        
        <div style=""text-align: center; position: fixed; top: 5vh; left: 40vw;"">
            <div style=""margin:0 auto; width: 20vw; top: 8vh; font-size: 2vw""> 
            <font color=""green""> Bonus : $0 </font>
            </div>
        </div>
    
        <img class=""stim"" src=./stimuli//pack_shapes_1/cat_1/diff_2/ex_1_2_2.png></img>
    ","null","stimulus","","","","","","",""
"","","","","","html-keyboard-response","41","194904","0.0-4.0-2.7","64e905e3eea5a5ce019a1f88","656d9e5e2de4f984cfed7d4d","656d9efedcacc13a8f17fb1d","null","
        <div style=""text-align: center; position: fixed; top: 5vh; left: 40vw;"">
            <div style=""margin:0 auto; width: 20vw; top: 8vh; font-size: 2vw""> 
            <font color=""green""> Bonus : $0 </font>
            </div>
        </div>
    ","null","","","","","","","",""
"","","","","","html-keyboard-response","42","195574","0.0-4.0-3.7","64e905e3eea5a5ce019a1f88","656d9e5e2de4f984cfed7d4d","656d9efedcacc13a8f17fb1d","669","./stimuli//pack_shapes_1/cat_1/diff_2/ex_1_2_2.png","arrowright","response","ArrowLeft","2","1","2","train","false",""
"","","","","","html-keyboard-response","43","196825","0.0-4.0-4.7","64e905e3eea5a5ce019a1f88","656d9e5e2de4f984cfed7d4d","656d9efedcacc13a8f17fb1d","1249","<p> <font color=""red"" size=""5vw""> Wrong category! </font> </p>"," ","feedback","","","","","","","0"
"","","","","","html-keyboard-response","44","198110","0.0-4.0-0.8","64e905e3eea5a5ce019a1f88","656d9e5e2de4f984cfed7d4d","656d9efedcacc13a8f17fb1d","1284","
            
        <div style=""text-align: center; position: fixed; top: 5vh; left: 40vw;"">
            <div style=""margin:0 auto; width: 20vw; top: 8vh; font-size: 2vw""> 
            <font color=""green""> Bonus : $0 </font>
            </div>
        </div>
    
            <div> Please press any key to continue to the next image.</div>
        "," ","ITI","","","","","","",""
"","","","","","html-keyboard-response","45","198714","0.0-4.0-1.8","64e905e3eea5a5ce019a1f88","656d9e5e2de4f984cfed7d4d","656d9efedcacc13a8f17fb1d","null","
        
        <div style=""text-align: center; position: fixed; top: 5vh; left: 40vw;"">
            <div style=""margin:0 auto; width: 20vw; top: 8vh; font-size: 2vw""> 
            <font color=""green""> Bonus : $0 </font>
            </div>
        </div>
    
        <img class=""stim"" src=./stimuli//pack_shapes_1/cat_2/diff_1/ex_2_1_16.png></img>
    ","null","stimulus","","","","","","",""
"","","","","","html-keyboard-response","46","199722","0.0-4.0-2.8","64e905e3eea5a5ce019a1f88","656d9e5e2de4f984cfed7d4d","656d9efedcacc13a8f17fb1d","null","
        <div style=""text-align: center; position: fixed; top: 5vh; left: 40vw;"">
            <div style=""margin:0 auto; width: 20vw; top: 8vh; font-size: 2vw""> 
            <font color=""green""> Bonus : $0 </font>
            </div>
        </div>
    ","null","","","","","","","",""
"","","","","","html-keyboard-response","47","200433","0.0-4.0-3.8","64e905e3eea5a5ce019a1f88","656d9e5e2de4f984cfed7d4d","656d9efedcacc13a8f17fb1d","709","./stimuli//pack_shapes_1/cat_2/diff_1/ex_2_1_16.png","arrowright","response","ArrowRight","16","2","1","train","true",""
"","","","","","html-keyboard-response","48","201943","0.0-4.0-4.8","64e905e3eea5a5ce019a1f88","656d9e5e2de4f984cfed7d4d","656d9efedcacc13a8f17fb1d","null","<p><font color=""green"" size=""5vw""> Correct category! </font></p>","null","feedback","","","","","","","0"
"","","","","","html-keyboard-response","49","202863","0.0-4.0-0.9","64e905e3eea5a5ce019a1f88","656d9e5e2de4f984cfed7d4d","656d9efedcacc13a8f17fb1d","918","
            
        <div style=""text-align: center; position: fixed; top: 5vh; left: 40vw;"">
            <div style=""margin:0 auto; width: 20vw; top: 8vh; font-size: 2vw""> 
            <font color=""green""> Bonus : $0 </font>
            </div>
        </div>
    
            <div> Please press any key to continue to the next image.</div>
        "," ","ITI","","","","","","",""
"","","","","","html-keyboard-response","50","203479","0.0-4.0-1.9","64e905e3eea5a5ce019a1f88","656d9e5e2de4f984cfed7d4d","656d9efedcacc13a8f17fb1d","null","
        
        <div style=""text-align: center; position: fixed; top: 5vh; left: 40vw;"">
            <div style=""margin:0 auto; width: 20vw; top: 8vh; font-size: 2vw""> 
            <font color=""green""> Bonus : $0 </font>
            </div>
        </div>
    
        <img class=""stim"" src=./stimuli//pack_shapes_1/cat_1/diff_1/ex_1_1_7.png></img>
    ","null","stimulus","","","","","","",""
"","","","","","html-keyboard-response","51","204492","0.0-4.0-2.9","64e905e3eea5a5ce019a1f88","656d9e5e2de4f984cfed7d4d","656d9efedcacc13a8f17fb1d","null","
        <div style=""text-align: center; position: fixed; top: 5vh; left: 40vw;"">
            <div style=""margin:0 auto; width: 20vw; top: 8vh; font-size: 2vw""> 
            <font color=""green""> Bonus : $0 </font>
            </div>
        </div>
    ","null","","","","","","","",""
"","","","","","html-keyboard-response","52","204858","0.0-4.0-3.9","64e905e3eea5a5ce019a1f88","656d9e5e2de4f984cfed7d4d","656d9efedcacc13a8f17fb1d","364","./stimuli//pack_shapes_1/cat_1/diff_1/ex_1_1_7.png","arrowright","response","ArrowLeft","7","1","1","train","false",""
"","","","","","html-keyboard-response","53","206371","0.0-4.0-4.9","64e905e3eea5a5ce019a1f88","656d9e5e2de4f984cfed7d4d","656d9efedcacc13a8f17fb1d","null","<p> <font color=""red"" size=""5vw""> Wrong category! </font> </p>","null","feedback","","","","","","","0"
"","","","","","html-keyboard-response","54","223133","0.0-5.0","64e905e3eea5a5ce019a1f88","656d9e5e2de4f984cfed7d4d","656d9efedcacc13a8f17fb1d","16749","
            <b> <p> The practice round has finished.</p>
            <p> For the rest of the experiment you will receive a $0.05 bonus for each correct answer and lose $0.05 from your bonus for each incorrect answer!</p>
            <p> The bonus can not become less than $0. </b>
            <p> Press any key to begin the test. </p>
            "," ","intermission","","","","","","",""
"","","","","","html-keyboard-response","55","226086","0.0-6.0-0.0","64e905e3eea5a5ce019a1f88","656d9e5e2de4f984cfed7d4d","656d9efedcacc13a8f17fb1d","2950","
            
        <div style=""text-align: center; position: fixed; top: 5vh; left: 40vw;"">
            <div style=""margin:0 auto; width: 20vw; top: 8vh; font-size: 2vw""> 
            <font color=""green""> Bonus : $0 </font>
            </div>
        </div>
    
            <div> Please press any key to continue to the next image.</div>
        "," ","ITI","","","","","","",""
"","","","","","html-keyboard-response","56","226705","0.0-6.0-1.0","64e905e3eea5a5ce019a1f88","656d9e5e2de4f984cfed7d4d","656d9efedcacc13a8f17fb1d","null","
        
        <div style=""text-align: center; position: fixed; top: 5vh; left: 40vw;"">
            <div style=""margin:0 auto; width: 20vw; top: 8vh; font-size: 2vw""> 
            <font color=""green""> Bonus : $0 </font>
            </div>
        </div>
    
        <img class=""stim"" src=./stimuli//pack_shapes_1/cat_1/diff_1/ex_1_1_14.png></img>
    ","null","stimulus","","","","","","",""
"","","","","","html-keyboard-response","57","227715","0.0-6.0-2.0","64e905e3eea5a5ce019a1f88","656d9e5e2de4f984cfed7d4d","656d9efedcacc13a8f17fb1d","null","
        <div style=""text-align: center; position: fixed; top: 5vh; left: 40vw;"">
            <div style=""margin:0 auto; width: 20vw; top: 8vh; font-size: 2vw""> 
            <font color=""green""> Bonus : $0 </font>
            </div>
        </div>
    ","null","","","","","","","",""
"","","","","","html-keyboard-response","58","228209","0.0-6.0-3.0","64e905e3eea5a5ce019a1f88","656d9e5e2de4f984cfed7d4d","656d9efedcacc13a8f17fb1d","491","./stimuli//pack_shapes_1/cat_1/diff_1/ex_1_1_14.png","arrowleft","response","ArrowLeft","14","1","1","test","true",""
"","","","","","html-keyboard-response","59","229724","0.0-6.0-4.0","64e905e3eea5a5ce019a1f88","656d9e5e2de4f984cfed7d4d","656d9efedcacc13a8f17fb1d","null","<p> <font color=""green"" size=""5vw""> Correct category! </font> <br> <br> <font color=""green"" size=""8vw""> + $0.05 </font> </p>","null","feedback","","","","","","","0.05"
"","","","","","html-keyboard-response","60","230748","0.0-6.1-0.1","64e905e3eea5a5ce019a1f88","656d9e5e2de4f984cfed7d4d","656d9efedcacc13a8f17fb1d","1021","
            
        <div style=""text-align: center; position: fixed; top: 5vh; left: 40vw;"">
            <div style=""margin:0 auto; width: 20vw; top: 8vh; font-size: 2vw""> 
            <font color=""green""> Bonus : $0.05 </font>
            </div>
        </div>
    
            <div> Please press any key to continue to the next image.</div>
        "," ","ITI","","","","","","",""
"","","","","","html-keyboard-response","61","231365","0.0-6.1-1.1","64e905e3eea5a5ce019a1f88","656d9e5e2de4f984cfed7d4d","656d9efedcacc13a8f17fb1d","null","
        
        <div style=""text-align: center; position: fixed; top: 5vh; left: 40vw;"">
            <div style=""margin:0 auto; width: 20vw; top: 8vh; font-size: 2vw""> 
            <font color=""green""> Bonus : $0.05 </font>
            </div>
        </div>
    
        <img class=""stim"" src=./stimuli//pack_shapes_1/cat_2/diff_1/ex_2_1_11.png></img>
    ","null","stimulus","","","","","","",""
"","","","","","html-keyboard-response","62","232370","0.0-6.1-2.1","64e905e3eea5a5ce019a1f88","656d9e5e2de4f984cfed7d4d","656d9efedcacc13a8f17fb1d","null","
        <div style=""text-align: center; position: fixed; top: 5vh; left: 40vw;"">
            <div style=""margin:0 auto; width: 20vw; top: 8vh; font-size: 2vw""> 
            <font color=""green""> Bonus : $0.05 </font>
            </div>
        </div>
    ","null","","","","","","","",""
"","","","","","html-keyboard-response","63","232785","0.0-6.1-3.1","64e905e3eea5a5ce019a1f88","656d9e5e2de4f984cfed7d4d","656d9efedcacc13a8f17fb1d","413","./stimuli//pack_shapes_1/cat_2/diff_1/ex_2_1_11.png","arrowleft","response","ArrowRight","11","2","1","test","false",""
"","","","","","html-keyboard-response","64","234304","0.0-6.1-4.1","64e905e3eea5a5ce019a1f88","656d9e5e2de4f984cfed7d4d","656d9efedcacc13a8f17fb1d","null","<p> <font color=""red"" size=""5vw""> Wrong category! </font> <br> <br> <font color=""red"" size=""8vw""> - $0.05 </font> </p>","null","feedback","","","","","","","0"
"","","","","","html-keyboard-response","65","234439","0.0-6.2-0.2","64e905e3eea5a5ce019a1f88","656d9e5e2de4f984cfed7d4d","656d9efedcacc13a8f17fb1d","133","
            
        <div style=""text-align: center; position: fixed; top: 5vh; left: 40vw;"">
            <div style=""margin:0 auto; width: 20vw; top: 8vh; font-size: 2vw""> 
            <font color=""green""> Bonus : $0 </font>
            </div>
        </div>
    
            <div> Please press any key to continue to the next image.</div>
        "," ","ITI","","","","","","",""
"","","","","","html-keyboard-response","66","235052","0.0-6.2-1.2","64e905e3eea5a5ce019a1f88","656d9e5e2de4f984cfed7d4d","656d9efedcacc13a8f17fb1d","null","
        
        <div style=""text-align: center; position: fixed; top: 5vh; left: 40vw;"">
            <div style=""margin:0 auto; width: 20vw; top: 8vh; font-size: 2vw""> 
            <font color=""green""> Bonus : $0 </font>
            </div>
        </div>
    
        <img class=""stim"" src=./stimuli//pack_shapes_1/cat_2/diff_1/ex_2_1_9.png></img>
    ","null","stimulus","","","","","","",""
"","","","","","html-keyboard-response","67","236072","0.0-6.2-2.2","64e905e3eea5a5ce019a1f88","656d9e5e2de4f984cfed7d4d","656d9efedcacc13a8f17fb1d","null","
        <div style=""text-align: center; position: fixed; top: 5vh; left: 40vw;"">
            <div style=""margin:0 auto; width: 20vw; top: 8vh; font-size: 2vw""> 
            <font color=""green""> Bonus : $0 </font>
            </div>
        </div>
    ","null","","","","","","","",""
"","","","","","html-keyboard-response","68","236444","0.0-6.2-3.2","64e905e3eea5a5ce019a1f88","656d9e5e2de4f984cfed7d4d","656d9efedcacc13a8f17fb1d","370","./stimuli//pack_shapes_1/cat_2/diff_1/ex_2_1_9.png","arrowleft","response","ArrowRight","9","2","1","test","false",""
"","","","","","html-keyboard-response","69","237947","0.0-6.2-4.2","64e905e3eea5a5ce019a1f88","656d9e5e2de4f984cfed7d4d","656d9efedcacc13a8f17fb1d","null","<p> <font color=""red"" size=""5vw""> Wrong category! </font> </p>","null","feedback","","","","","","","0"
"","","","","","html-keyboard-response","70","238465","0.0-6.3-0.3","64e905e3eea5a5ce019a1f88","656d9e5e2de4f984cfed7d4d","656d9efedcacc13a8f17fb1d","517","
            
        <div style=""text-align: center; position: fixed; top: 5vh; left: 40vw;"">
            <div style=""margin:0 auto; width: 20vw; top: 8vh; font-size: 2vw""> 
            <font color=""green""> Bonus : $0 </font>
            </div>
        </div>
    
            <div> Please press any key to continue to the next image.</div>
        ","arrowleft","ITI","","","","","","",""
"","","","","","html-keyboard-response","71","239081","0.0-6.3-1.3","64e905e3eea5a5ce019a1f88","656d9e5e2de4f984cfed7d4d","656d9efedcacc13a8f17fb1d","null","
        
        <div style=""text-align: center; position: fixed; top: 5vh; left: 40vw;"">
            <div style=""margin:0 auto; width: 20vw; top: 8vh; font-size: 2vw""> 
            <font color=""green""> Bonus : $0 </font>
            </div>
        </div>
    
        <img class=""stim"" src=./stimuli//pack_shapes_1/cat_2/diff_1/ex_2_1_7.png></img>
    ","null","stimulus","","","","","","",""
"","","","","","html-keyboard-response","72","240088","0.0-6.3-2.3","64e905e3eea5a5ce019a1f88","656d9e5e2de4f984cfed7d4d","656d9efedcacc13a8f17fb1d","null","
        <div style=""text-align: center; position: fixed; top: 5vh; left: 40vw;"">
            <div style=""margin:0 auto; width: 20vw; top: 8vh; font-size: 2vw""> 
            <font color=""green""> Bonus : $0 </font>
            </div>
        </div>
    ","null","","","","","","","",""
"","","","","","html-keyboard-response","73","240442","0.0-6.3-3.3","64e905e3eea5a5ce019a1f88","656d9e5e2de4f984cfed7d4d","656d9efedcacc13a8f17fb1d","352","./stimuli//pack_shapes_1/cat_2/diff_1/ex_2_1_7.png","arrowleft","response","ArrowRight","7","2","1","test","false",""
"","","","","","html-keyboard-response","74","241946","0.0-6.3-4.3","64e905e3eea5a5ce019a1f88","656d9e5e2de4f984cfed7d4d","656d9efedcacc13a8f17fb1d","null","<p> <font color=""red"" size=""5vw""> Wrong category! </font> </p>","null","feedback","","","","","","","0"
"","","","","","html-keyboard-response","75","242538","0.0-6.4-0.4","64e905e3eea5a5ce019a1f88","656d9e5e2de4f984cfed7d4d","656d9efedcacc13a8f17fb1d","590","
            
        <div style=""text-align: center; position: fixed; top: 5vh; left: 40vw;"">
            <div style=""margin:0 auto; width: 20vw; top: 8vh; font-size: 2vw""> 
            <font color=""green""> Bonus : $0 </font>
            </div>
        </div>
    
            <div> Please press any key to continue to the next image.</div>
        "," ","ITI","","","","","","",""
"","","","","","html-keyboard-response","76","243149","0.0-6.4-1.4","64e905e3eea5a5ce019a1f88","656d9e5e2de4f984cfed7d4d","656d9efedcacc13a8f17fb1d","null","
        
        <div style=""text-align: center; position: fixed; top: 5vh; left: 40vw;"">
            <div style=""margin:0 auto; width: 20vw; top: 8vh; font-size: 2vw""> 
            <font color=""green""> Bonus : $0 </font>
            </div>
        </div>
    
        <img class=""stim"" src=./stimuli//pack_shapes_1/cat_2/diff_1/ex_2_1_13.png></img>
    ","null","stimulus","","","","","","",""
"","","","","","html-keyboard-response","77","244158","0.0-6.4-2.4","64e905e3eea5a5ce019a1f88","656d9e5e2de4f984cfed7d4d","656d9efedcacc13a8f17fb1d","null","
        <div style=""text-align: center; position: fixed; top: 5vh; left: 40vw;"">
            <div style=""margin:0 auto; width: 20vw; top: 8vh; font-size: 2vw""> 
            <font color=""green""> Bonus : $0 </font>
            </div>
        </div>
    ","null","","","","","","","",""
"","","","","","html-keyboard-response","78","244470","0.0-6.4-3.4","64e905e3eea5a5ce019a1f88","656d9e5e2de4f984cfed7d4d","656d9efedcacc13a8f17fb1d","307","./stimuli//pack_shapes_1/cat_2/diff_1/ex_2_1_13.png","arrowright","response","ArrowRight","13","2","1","test","true",""
"","","","","","html-keyboard-response","79","245976","0.0-6.4-4.4","64e905e3eea5a5ce019a1f88","656d9e5e2de4f984cfed7d4d","656d9efedcacc13a8f17fb1d","null","<p> <font color=""green"" size=""5vw""> Correct category! </font> <br> <br> <font color=""green"" size=""8vw""> + $0.05 </font> </p>","null","feedback","","","","","","","0.05"
"","","","","","html-keyboard-response","80","246915","0.0-6.5-0.5","64e905e3eea5a5ce019a1f88","656d9e5e2de4f984cfed7d4d","656d9efedcacc13a8f17fb1d","938","
            
        <div style=""text-align: center; position: fixed; top: 5vh; left: 40vw;"">
            <div style=""margin:0 auto; width: 20vw; top: 8vh; font-size: 2vw""> 
            <font color=""green""> Bonus : $0.05 </font>
            </div>
        </div>
    
            <div> Please press any key to continue to the next image.</div>
        "," ","ITI","","","","","","",""
"","","","","","html-keyboard-response","81","247520","0.0-6.5-1.5","64e905e3eea5a5ce019a1f88","656d9e5e2de4f984cfed7d4d","656d9efedcacc13a8f17fb1d","null","
        
        <div style=""text-align: center; position: fixed; top: 5vh; left: 40vw;"">
            <div style=""margin:0 auto; width: 20vw; top: 8vh; font-size: 2vw""> 
            <font color=""green""> Bonus : $0.05 </font>
            </div>
        </div>
    
        <img class=""stim"" src=./stimuli//pack_shapes_1/cat_2/diff_1/ex_2_1_5.png></img>
    ","null","stimulus","","","","","","",""
"","","","","","html-keyboard-response","82","248533","0.0-6.5-2.5","64e905e3eea5a5ce019a1f88","656d9e5e2de4f984cfed7d4d","656d9efedcacc13a8f17fb1d","null","
        <div style=""text-align: center; position: fixed; top: 5vh; left: 40vw;"">
            <div style=""margin:0 auto; width: 20vw; top: 8vh; font-size: 2vw""> 
            <font color=""green""> Bonus : $0.05 </font>
            </div>
        </div>
    ","null","","","","","","","",""
"","","","","","html-keyboard-response","83","248830","0.0-6.5-3.5","64e905e3eea5a5ce019a1f88","656d9e5e2de4f984cfed7d4d","656d9efedcacc13a8f17fb1d","294","./stimuli//pack_shapes_1/cat_2/diff_1/ex_2_1_5.png","arrowright","response","ArrowRight","5","2","1","test","true",""
"","","","","","html-keyboard-response","84","250336","0.0-6.5-4.5","64e905e3eea5a5ce019a1f88","656d9e5e2de4f984cfed7d4d","656d9efedcacc13a8f17fb1d","null","<p> <font color=""green"" size=""5vw""> Correct category! </font> <br> <br> <font color=""green"" size=""8vw""> + $0.05 </font> </p>","null","feedback","","","","","","","0.1"
"","","","","","html-keyboard-response","85","250934","0.0-6.6-0.6","64e905e3eea5a5ce019a1f88","656d9e5e2de4f984cfed7d4d","656d9efedcacc13a8f17fb1d","596","
            
        <div style=""text-align: center; position: fixed; top: 5vh; left: 40vw;"">
            <div style=""margin:0 auto; width: 20vw; top: 8vh; font-size: 2vw""> 
            <font color=""green""> Bonus : $0.1 </font>
            </div>
        </div>
    
            <div> Please press any key to continue to the next image.</div>
        "," ","ITI","","","","","","",""
"","","","","","html-keyboard-response","86","251545","0.0-6.6-1.6","64e905e3eea5a5ce019a1f88","656d9e5e2de4f984cfed7d4d","656d9efedcacc13a8f17fb1d","null","
        
        <div style=""text-align: center; position: fixed; top: 5vh; left: 40vw;"">
            <div style=""margin:0 auto; width: 20vw; top: 8vh; font-size: 2vw""> 
            <font color=""green""> Bonus : $0.1 </font>
            </div>
        </div>
    
        <img class=""stim"" src=./stimuli//pack_shapes_1/cat_1/diff_1/ex_1_1_5.png></img>
    ","null","stimulus","","","","","","",""
"","","","","","html-keyboard-response","87","252554","0.0-6.6-2.6","64e905e3eea5a5ce019a1f88","656d9e5e2de4f984cfed7d4d","656d9efedcacc13a8f17fb1d","null","
        <div style=""text-align: center; position: fixed; top: 5vh; left: 40vw;"">
            <div style=""margin:0 auto; width: 20vw; top: 8vh; font-size: 2vw""> 
            <font color=""green""> Bonus : $0.1 </font>
            </div>
        </div>
    ","null","","","","","","","",""
"","","","","","html-keyboard-response","88","252623","0.0-6.6-3.6","64e905e3eea5a5ce019a1f88","656d9e5e2de4f984cfed7d4d","656d9efedcacc13a8f17fb1d","67","./stimuli//pack_shapes_1/cat_1/diff_1/ex_1_1_5.png","arrowright","response","ArrowLeft","5","1","1","test","false",""
"","","","","","html-keyboard-response","89","254128","0.0-6.6-4.6","64e905e3eea5a5ce019a1f88","656d9e5e2de4f984cfed7d4d","656d9efedcacc13a8f17fb1d","null","<p> <font color=""red"" size=""5vw""> Wrong category! </font> <br> <br> <font color=""red"" size=""8vw""> - $0.05 </font> </p>","null","feedback","","","","","","","0.05"
"","","","","","html-keyboard-response","90","254829","0.0-6.7-0.7","64e905e3eea5a5ce019a1f88","656d9e5e2de4f984cfed7d4d","656d9efedcacc13a8f17fb1d","700","
            
        <div style=""text-align: center; position: fixed; top: 5vh; left: 40vw;"">
            <div style=""margin:0 auto; width: 20vw; top: 8vh; font-size: 2vw""> 
            <font color=""green""> Bonus : $0.05 </font>
            </div>
        </div>
    
            <div> Please press any key to continue to the next image.</div>
        "," ","ITI","","","","","","",""
"","","","","","html-keyboard-response","91","255446","0.0-6.7-1.7","64e905e3eea5a5ce019a1f88","656d9e5e2de4f984cfed7d4d","656d9efedcacc13a8f17fb1d","null","
        
        <div style=""text-align: center; position: fixed; top: 5vh; left: 40vw;"">
            <div style=""margin:0 auto; width: 20vw; top: 8vh; font-size: 2vw""> 
            <font color=""green""> Bonus : $0.05 </font>
            </div>
        </div>
    
        <img class=""stim"" src=./stimuli//pack_shapes_1/cat_1/diff_1/ex_1_1_16.png></img>
    ","null","stimulus","","","","","","",""
"","","","","","html-keyboard-response","92","256459","0.0-6.7-2.7","64e905e3eea5a5ce019a1f88","656d9e5e2de4f984cfed7d4d","656d9efedcacc13a8f17fb1d","null","
        <div style=""text-align: center; position: fixed; top: 5vh; left: 40vw;"">
            <div style=""margin:0 auto; width: 20vw; top: 8vh; font-size: 2vw""> 
            <font color=""green""> Bonus : $0.05 </font>
            </div>
        </div>
    ","null","","","","","","","",""
"","","","","","html-keyboard-response","93","256722","0.0-6.7-3.7","64e905e3eea5a5ce019a1f88","656d9e5e2de4f984cfed7d4d","656d9efedcacc13a8f17fb1d","259","./stimuli//pack_shapes_1/cat_1/diff_1/ex_1_1_16.png","arrowleft","response","ArrowLeft","16","1","1","test","true",""
"","","","","","html-keyboard-response","94","258238","0.0-6.7-4.7","64e905e3eea5a5ce019a1f88","656d9e5e2de4f984cfed7d4d","656d9efedcacc13a8f17fb1d","null","<p> <font color=""green"" size=""5vw""> Correct category! </font> <br> <br> <font color=""green"" size=""8vw""> + $0.05 </font> </p>","null","feedback","","","","","","","0.1"
"","","","","","html-keyboard-response","95","258441","0.0-6.8-0.8","64e905e3eea5a5ce019a1f88","656d9e5e2de4f984cfed7d4d","656d9efedcacc13a8f17fb1d","201","
            
        <div style=""text-align: center; position: fixed; top: 5vh; left: 40vw;"">
            <div style=""margin:0 auto; width: 20vw; top: 8vh; font-size: 2vw""> 
            <font color=""green""> Bonus : $0.1 </font>
            </div>
        </div>
    
            <div> Please press any key to continue to the next image.</div>
        ","arrowleft","ITI","","","","","","",""
"","","","","","html-keyboard-response","96","259056","0.0-6.8-1.8","64e905e3eea5a5ce019a1f88","656d9e5e2de4f984cfed7d4d","656d9efedcacc13a8f17fb1d","null","
        
        <div style=""text-align: center; position: fixed; top: 5vh; left: 40vw;"">
            <div style=""margin:0 auto; width: 20vw; top: 8vh; font-size: 2vw""> 
            <font color=""green""> Bonus : $0.1 </font>
            </div>
        </div>
    
        <img class=""stim"" src=./stimuli//pack_shapes_1/cat_2/diff_1/ex_2_1_8.png></img>
    ","null","stimulus","","","","","","",""
"","","","","","html-keyboard-response","97","260069","0.0-6.8-2.8","64e905e3eea5a5ce019a1f88","656d9e5e2de4f984cfed7d4d","656d9efedcacc13a8f17fb1d","null","
        <div style=""text-align: center; position: fixed; top: 5vh; left: 40vw;"">
            <div style=""margin:0 auto; width: 20vw; top: 8vh; font-size: 2vw""> 
            <font color=""green""> Bonus : $0.1 </font>
            </div>
        </div>
    ","null","","","","","","","",""
"","","","","","html-keyboard-response","98","260624","0.0-6.8-3.8","64e905e3eea5a5ce019a1f88","656d9e5e2de4f984cfed7d4d","656d9efedcacc13a8f17fb1d","552","./stimuli//pack_shapes_1/cat_2/diff_1/ex_2_1_8.png","arrowleft","response","ArrowRight","8","2","1","test","false",""
"","","","","","html-keyboard-response","99","262133","0.0-6.8-4.8","64e905e3eea5a5ce019a1f88","656d9e5e2de4f984cfed7d4d","656d9efedcacc13a8f17fb1d","null","<p> <font color=""red"" size=""5vw""> Wrong category! </font> <br> <br> <font color=""red"" size=""8vw""> - $0.05 </font> </p>","null","feedback","","","","","","","0.05"
"","","","","","html-keyboard-response","100","262893","0.0-6.9-0.9","64e905e3eea5a5ce019a1f88","656d9e5e2de4f984cfed7d4d","656d9efedcacc13a8f17fb1d","758","
            
        <div style=""text-align: center; position: fixed; top: 5vh; left: 40vw;"">
            <div style=""margin:0 auto; width: 20vw; top: 8vh; font-size: 2vw""> 
            <font color=""green""> Bonus : $0.05 </font>
            </div>
        </div>
    
            <div> Please press any key to continue to the next image.</div>
        "," ","ITI","","","","","","",""
"","","","","","html-keyboard-response","101","263508","0.0-6.9-1.9","64e905e3eea5a5ce019a1f88","656d9e5e2de4f984cfed7d4d","656d9efedcacc13a8f17fb1d","null","
        
        <div style=""text-align: center; position: fixed; top: 5vh; left: 40vw;"">
            <div style=""margin:0 auto; width: 20vw; top: 8vh; font-size: 2vw""> 
            <font color=""green""> Bonus : $0.05 </font>
            </div>
        </div>
    
        <img class=""stim"" src=./stimuli//pack_shapes_1/cat_1/diff_1/ex_1_1_16.png></img>
    ","null","stimulus","","","","","","",""
"","","","","","html-keyboard-response","102","264521","0.0-6.9-2.9","64e905e3eea5a5ce019a1f88","656d9e5e2de4f984cfed7d4d","656d9efedcacc13a8f17fb1d","null","
        <div style=""text-align: center; position: fixed; top: 5vh; left: 40vw;"">
            <div style=""margin:0 auto; width: 20vw; top: 8vh; font-size: 2vw""> 
            <font color=""green""> Bonus : $0.05 </font>
            </div>
        </div>
    ","null","","","","","","","",""
"","","","","","html-keyboard-response","103","265100","0.0-6.9-3.9","64e905e3eea5a5ce019a1f88","656d9e5e2de4f984cfed7d4d","656d9efedcacc13a8f17fb1d","577","./stimuli//pack_shapes_1/cat_1/diff_1/ex_1_1_16.png","arrowright","response","ArrowLeft","16","1","1","test","false",""
"","","","","","html-keyboard-response","104","266609","0.0-6.9-4.9","64e905e3eea5a5ce019a1f88","656d9e5e2de4f984cfed7d4d","656d9efedcacc13a8f17fb1d","null","<p> <font color=""red"" size=""5vw""> Wrong category! </font> <br> <br> <font color=""red"" size=""8vw""> - $0.05 </font> </p>","null","feedback","","","","","","","0"
"","","","","","html-keyboard-response","105","267218","0.0-6.10-0.10","64e905e3eea5a5ce019a1f88","656d9e5e2de4f984cfed7d4d","656d9efedcacc13a8f17fb1d","607","
            
        <div style=""text-align: center; position: fixed; top: 5vh; left: 40vw;"">
            <div style=""margin:0 auto; width: 20vw; top: 8vh; font-size: 2vw""> 
            <font color=""green""> Bonus : $0 </font>
            </div>
        </div>
    
            <div> Please press any key to continue to the next image.</div>
        "," ","ITI","","","","","","",""
"","","","","","html-keyboard-response","106","267826","0.0-6.10-1.10","64e905e3eea5a5ce019a1f88","656d9e5e2de4f984cfed7d4d","656d9efedcacc13a8f17fb1d","null","
        
        <div style=""text-align: center; position: fixed; top: 5vh; left: 40vw;"">
            <div style=""margin:0 auto; width: 20vw; top: 8vh; font-size: 2vw""> 
            <font color=""green""> Bonus : $0 </font>
            </div>
        </div>
    
        <img class=""stim"" src=./stimuli//pack_shapes_1/cat_2/diff_1/ex_2_1_2.png></img>
    ","null","stimulus","","","","","","",""
"","","","","","html-keyboard-response","107","268842","0.0-6.10-2.10","64e905e3eea5a5ce019a1f88","656d9e5e2de4f984cfed7d4d","656d9efedcacc13a8f17fb1d","null","
        <div style=""text-align: center; position: fixed; top: 5vh; left: 40vw;"">
            <div style=""margin:0 auto; width: 20vw; top: 8vh; font-size: 2vw""> 
            <font color=""green""> Bonus : $0 </font>
            </div>
        </div>
    ","null","","","","","","","",""
"","","","","","html-keyboard-response","108","268968","0.0-6.10-3.10","64e905e3eea5a5ce019a1f88","656d9e5e2de4f984cfed7d4d","656d9efedcacc13a8f17fb1d","124","./stimuli//pack_shapes_1/cat_2/diff_1/ex_2_1_2.png","arrowleft","response","ArrowRight","2","2","1","test","false",""
"","","","","","html-keyboard-response","109","270486","0.0-6.10-4.10","64e905e3eea5a5ce019a1f88","656d9e5e2de4f984cfed7d4d","656d9efedcacc13a8f17fb1d","null","<p> <font color=""red"" size=""5vw""> Wrong category! </font> </p>","null","feedback","","","","","","","0"
"","","","","","html-keyboard-response","110","270916","0.0-6.11-0.11","64e905e3eea5a5ce019a1f88","656d9e5e2de4f984cfed7d4d","656d9efedcacc13a8f17fb1d","429","
            
        <div style=""text-align: center; position: fixed; top: 5vh; left: 40vw;"">
            <div style=""margin:0 auto; width: 20vw; top: 8vh; font-size: 2vw""> 
            <font color=""green""> Bonus : $0 </font>
            </div>
        </div>
    
            <div> Please press any key to continue to the next image.</div>
        "," ","ITI","","","","","","",""
"","","","","","html-keyboard-response","111","271528","0.0-6.11-1.11","64e905e3eea5a5ce019a1f88","656d9e5e2de4f984cfed7d4d","656d9efedcacc13a8f17fb1d","null","
        
        <div style=""text-align: center; position: fixed; top: 5vh; left: 40vw;"">
            <div style=""margin:0 auto; width: 20vw; top: 8vh; font-size: 2vw""> 
            <font color=""green""> Bonus : $0 </font>
            </div>
        </div>
    
        <img class=""stim"" src=./stimuli//pack_shapes_1/cat_1/diff_1/ex_1_1_3.png></img>
    ","null","stimulus","","","","","","",""
"","","","","","html-keyboard-response","112","272536","0.0-6.11-2.11","64e905e3eea5a5ce019a1f88","656d9e5e2de4f984cfed7d4d","656d9efedcacc13a8f17fb1d","null","
        <div style=""text-align: center; position: fixed; top: 5vh; left: 40vw;"">
            <div style=""margin:0 auto; width: 20vw; top: 8vh; font-size: 2vw""> 
            <font color=""green""> Bonus : $0 </font>
            </div>
        </div>
    ","null","","","","","","","",""
"","","","","","html-keyboard-response","113","273091","0.0-6.11-3.11","64e905e3eea5a5ce019a1f88","656d9e5e2de4f984cfed7d4d","656d9efedcacc13a8f17fb1d","552","./stimuli//pack_shapes_1/cat_1/diff_1/ex_1_1_3.png","arrowright","response","ArrowLeft","3","1","1","test","false",""
"","","","","","html-keyboard-response","114","274608","0.0-6.11-4.11","64e905e3eea5a5ce019a1f88","656d9e5e2de4f984cfed7d4d","656d9efedcacc13a8f17fb1d","null","<p> <font color=""red"" size=""5vw""> Wrong category! </font> </p>","null","feedback","","","","","","","0"
"","","","","","html-keyboard-response","115","275098","0.0-6.12-0.12","64e905e3eea5a5ce019a1f88","656d9e5e2de4f984cfed7d4d","656d9efedcacc13a8f17fb1d","489","
            
        <div style=""text-align: center; position: fixed; top: 5vh; left: 40vw;"">
            <div style=""margin:0 auto; width: 20vw; top: 8vh; font-size: 2vw""> 
            <font color=""green""> Bonus : $0 </font>
            </div>
        </div>
    
            <div> Please press any key to continue to the next image.</div>
        "," ","ITI","","","","","","",""
"","","","","","html-keyboard-response","116","275709","0.0-6.12-1.12","64e905e3eea5a5ce019a1f88","656d9e5e2de4f984cfed7d4d","656d9efedcacc13a8f17fb1d","null","
        
        <div style=""text-align: center; position: fixed; top: 5vh; left: 40vw;"">
            <div style=""margin:0 auto; width: 20vw; top: 8vh; font-size: 2vw""> 
            <font color=""green""> Bonus : $0 </font>
            </div>
        </div>
    
        <img class=""stim"" src=./stimuli//pack_shapes_1/cat_2/diff_1/ex_2_1_9.png></img>
    ","null","stimulus","","","","","","",""
"","","","","","html-keyboard-response","117","276718","0.0-6.12-2.12","64e905e3eea5a5ce019a1f88","656d9e5e2de4f984cfed7d4d","656d9efedcacc13a8f17fb1d","null","
        <div style=""text-align: center; position: fixed; top: 5vh; left: 40vw;"">
            <div style=""margin:0 auto; width: 20vw; top: 8vh; font-size: 2vw""> 
            <font color=""green""> Bonus : $0 </font>
            </div>
        </div>
    ","null","","","","","","","",""
"","","","","","html-keyboard-response","118","276794","0.0-6.12-3.12","64e905e3eea5a5ce019a1f88","656d9e5e2de4f984cfed7d4d","656d9efedcacc13a8f17fb1d","74","./stimuli//pack_shapes_1/cat_2/diff_1/ex_2_1_9.png","arrowright","response","ArrowRight","9","2","1","test","true",""
"","","","","","html-keyboard-response","119","278305","0.0-6.12-4.12","64e905e3eea5a5ce019a1f88","656d9e5e2de4f984cfed7d4d","656d9efedcacc13a8f17fb1d","null","<p> <font color=""green"" size=""5vw""> Correct category! </font> <br> <br> <font color=""green"" size=""8vw""> + $0.05 </font> </p>","null","feedback","","","","","","","0.05"
"","","","","","html-keyboard-response","120","278949","0.0-6.13-0.13","64e905e3eea5a5ce019a1f88","656d9e5e2de4f984cfed7d4d","656d9efedcacc13a8f17fb1d","644","
            
        <div style=""text-align: center; position: fixed; top: 5vh; left: 40vw;"">
            <div style=""margin:0 auto; width: 20vw; top: 8vh; font-size: 2vw""> 
            <font color=""green""> Bonus : $0.05 </font>
            </div>
        </div>
    
            <div> Please press any key to continue to the next image.</div>
        "," ","ITI","","","","","","",""
"","","","","","html-keyboard-response","121","279559","0.0-6.13-1.13","64e905e3eea5a5ce019a1f88","656d9e5e2de4f984cfed7d4d","656d9efedcacc13a8f17fb1d","null","
        
        <div style=""text-align: center; position: fixed; top: 5vh; left: 40vw;"">
            <div style=""margin:0 auto; width: 20vw; top: 8vh; font-size: 2vw""> 
            <font color=""green""> Bonus : $0.05 </font>
            </div>
        </div>
    
        <img class=""stim"" src=./stimuli//pack_shapes_1/cat_2/diff_1/ex_2_1_15.png></img>
    ","null","stimulus","","","","","","",""
"","","","","","html-keyboard-response","122","280571","0.0-6.13-2.13","64e905e3eea5a5ce019a1f88","656d9e5e2de4f984cfed7d4d","656d9efedcacc13a8f17fb1d","null","
        <div style=""text-align: center; position: fixed; top: 5vh; left: 40vw;"">
            <div style=""margin:0 auto; width: 20vw; top: 8vh; font-size: 2vw""> 
            <font color=""green""> Bonus : $0.05 </font>
            </div>
        </div>
    ","null","","","","","","","",""
"","","","","","html-keyboard-response","123","281666","0.0-6.13-3.13","64e905e3eea5a5ce019a1f88","656d9e5e2de4f984cfed7d4d","656d9efedcacc13a8f17fb1d","1093","./stimuli//pack_shapes_1/cat_2/diff_1/ex_2_1_15.png","arrowright","response","ArrowRight","15","2","1","test","true",""
"","","","","","html-keyboard-response","124","283177","0.0-6.13-4.13","64e905e3eea5a5ce019a1f88","656d9e5e2de4f984cfed7d4d","656d9efedcacc13a8f17fb1d","null","<p> <font color=""green"" size=""5vw""> Correct category! </font> <br> <br> <font color=""green"" size=""8vw""> + $0.05 </font> </p>","null","feedback","","","","","","","0.1"
"","","","","","html-keyboard-response","125","283693","0.0-6.14-0.14","64e905e3eea5a5ce019a1f88","656d9e5e2de4f984cfed7d4d","656d9efedcacc13a8f17fb1d","513","
            
        <div style=""text-align: center; position: fixed; top: 5vh; left: 40vw;"">
            <div style=""margin:0 auto; width: 20vw; top: 8vh; font-size: 2vw""> 
            <font color=""green""> Bonus : $0.1 </font>
            </div>
        </div>
    
            <div> Please press any key to continue to the next image.</div>
        ","arrowleft","ITI","","","","","","",""
"","","","","","html-keyboard-response","126","284311","0.0-6.14-1.14","64e905e3eea5a5ce019a1f88","656d9e5e2de4f984cfed7d4d","656d9efedcacc13a8f17fb1d","null","
        
        <div style=""text-align: center; position: fixed; top: 5vh; left: 40vw;"">
            <div style=""margin:0 auto; width: 20vw; top: 8vh; font-size: 2vw""> 
            <font color=""green""> Bonus : $0.1 </font>
            </div>
        </div>
    
        <img class=""stim"" src=./stimuli//pack_shapes_1/cat_1/diff_1/ex_1_1_17.png></img>
    ","null","stimulus","","","","","","",""
"","","","","","html-keyboard-response","127","285325","0.0-6.14-2.14","64e905e3eea5a5ce019a1f88","656d9e5e2de4f984cfed7d4d","656d9efedcacc13a8f17fb1d","null","
        <div style=""text-align: center; position: fixed; top: 5vh; left: 40vw;"">
            <div style=""margin:0 auto; width: 20vw; top: 8vh; font-size: 2vw""> 
            <font color=""green""> Bonus : $0.1 </font>
            </div>
        </div>
    ","null","","","","","","","",""
"","","","","","html-keyboard-response","128","285728","0.0-6.14-3.14","64e905e3eea5a5ce019a1f88","656d9e5e2de4f984cfed7d4d","656d9efedcacc13a8f17fb1d","401","./stimuli//pack_shapes_1/cat_1/diff_1/ex_1_1_17.png","arrowleft","response","ArrowLeft","17","1","1","test","true",""
"","","","","","html-keyboard-response","129","287245","0.0-6.14-4.14","64e905e3eea5a5ce019a1f88","656d9e5e2de4f984cfed7d4d","656d9efedcacc13a8f17fb1d","null","<p> <font color=""green"" size=""5vw""> Correct category! </font> <br> <br> <font color=""green"" size=""8vw""> + $0.05 </font> </p>","null","feedback","","","","","","","0.15"
"","","","","","html-keyboard-response","130","287749","0.0-6.15-0.15","64e905e3eea5a5ce019a1f88","656d9e5e2de4f984cfed7d4d","656d9efedcacc13a8f17fb1d","502","
            
        <div style=""text-align: center; position: fixed; top: 5vh; left: 40vw;"">
            <div style=""margin:0 auto; width: 20vw; top: 8vh; font-size: 2vw""> 
            <font color=""green""> Bonus : $0.15 </font>
            </div>
        </div>
    
            <div> Please press any key to continue to the next image.</div>
        "," ","ITI","","","","","","",""
"","","","","","html-keyboard-response","131","288353","0.0-6.15-1.15","64e905e3eea5a5ce019a1f88","656d9e5e2de4f984cfed7d4d","656d9efedcacc13a8f17fb1d","null","
        
        <div style=""text-align: center; position: fixed; top: 5vh; left: 40vw;"">
            <div style=""margin:0 auto; width: 20vw; top: 8vh; font-size: 2vw""> 
            <font color=""green""> Bonus : $0.15 </font>
            </div>
        </div>
    
        <img class=""stim"" src=./stimuli//pack_shapes_1/cat_2/diff_1/ex_2_1_5.png></img>
    ","null","stimulus","","","","","","",""
"","","","","","html-keyboard-response","132","289371","0.0-6.15-2.15","64e905e3eea5a5ce019a1f88","656d9e5e2de4f984cfed7d4d","656d9efedcacc13a8f17fb1d","null","
        <div style=""text-align: center; position: fixed; top: 5vh; left: 40vw;"">
            <div style=""margin:0 auto; width: 20vw; top: 8vh; font-size: 2vw""> 
            <font color=""green""> Bonus : $0.15 </font>
            </div>
        </div>
    ","null","","","","","","","",""
"","","","","","html-keyboard-response","133","289469","0.0-6.15-3.15","64e905e3eea5a5ce019a1f88","656d9e5e2de4f984cfed7d4d","656d9efedcacc13a8f17fb1d","96","./stimuli//pack_shapes_1/cat_2/diff_1/ex_2_1_5.png","arrowright","response","ArrowRight","5","2","1","test","true",""
"","","","","","html-keyboard-response","134","290978","0.0-6.15-4.15","64e905e3eea5a5ce019a1f88","656d9e5e2de4f984cfed7d4d","656d9efedcacc13a8f17fb1d","null","<p> <font color=""green"" size=""5vw""> Correct category! </font> <br> <br> <font color=""green"" size=""8vw""> + $0.05 </font> </p>","null","feedback","","","","","","","0.2"
"","","","","","html-keyboard-response","135","291547","0.0-6.16-0.16","64e905e3eea5a5ce019a1f88","656d9e5e2de4f984cfed7d4d","656d9efedcacc13a8f17fb1d","567","
            
        <div style=""text-align: center; position: fixed; top: 5vh; left: 40vw;"">
            <div style=""margin:0 auto; width: 20vw; top: 8vh; font-size: 2vw""> 
            <font color=""green""> Bonus : $0.2 </font>
            </div>
        </div>
    
            <div> Please press any key to continue to the next image.</div>
        "," ","ITI","","","","","","",""
"","","","","","html-keyboard-response","136","292152","0.0-6.16-1.16","64e905e3eea5a5ce019a1f88","656d9e5e2de4f984cfed7d4d","656d9efedcacc13a8f17fb1d","null","
        
        <div style=""text-align: center; position: fixed; top: 5vh; left: 40vw;"">
            <div style=""margin:0 auto; width: 20vw; top: 8vh; font-size: 2vw""> 
            <font color=""green""> Bonus : $0.2 </font>
            </div>
        </div>
    
        <img class=""stim"" src=./stimuli//pack_shapes_1/cat_2/diff_2/ex_2_2_4.png></img>
    ","null","stimulus","","","","","","",""
"","","","","","html-keyboard-response","137","293161","0.0-6.16-2.16","64e905e3eea5a5ce019a1f88","656d9e5e2de4f984cfed7d4d","656d9efedcacc13a8f17fb1d","null","
        <div style=""text-align: center; position: fixed; top: 5vh; left: 40vw;"">
            <div style=""margin:0 auto; width: 20vw; top: 8vh; font-size: 2vw""> 
            <font color=""green""> Bonus : $0.2 </font>
            </div>
        </div>
    ","null","","","","","","","",""
"","","","","","html-keyboard-response","138","293878","0.0-6.16-3.16","64e905e3eea5a5ce019a1f88","656d9e5e2de4f984cfed7d4d","656d9efedcacc13a8f17fb1d","716","./stimuli//pack_shapes_1/cat_2/diff_2/ex_2_2_4.png","arrowright","response","ArrowRight","4","2","2","test","true",""
"","","","","","html-keyboard-response","139","295313","0.0-6.16-4.16","64e905e3eea5a5ce019a1f88","656d9e5e2de4f984cfed7d4d","656d9efedcacc13a8f17fb1d","1433","<p> <font color=""green"" size=""5vw""> Correct category! </font> <br> <br> <font color=""green"" size=""8vw""> + $0.05 </font> </p>"," ","feedback","","","","","","","0.25"
"","","","","","html-keyboard-response","140","297493","0.0-6.17-0.17","64e905e3eea5a5ce019a1f88","656d9e5e2de4f984cfed7d4d","656d9efedcacc13a8f17fb1d","2177","
            
        <div style=""text-align: center; position: fixed; top: 5vh; left: 40vw;"">
            <div style=""margin:0 auto; width: 20vw; top: 8vh; font-size: 2vw""> 
            <font color=""green""> Bonus : $0.25 </font>
            </div>
        </div>
    
            <div> Please press any key to continue to the next image.</div>
        "," ","ITI","","","","","","",""
"","","","","","html-keyboard-response","141","298104","0.0-6.17-1.17","64e905e3eea5a5ce019a1f88","656d9e5e2de4f984cfed7d4d","656d9efedcacc13a8f17fb1d","null","
        
        <div style=""text-align: center; position: fixed; top: 5vh; left: 40vw;"">
            <div style=""margin:0 auto; width: 20vw; top: 8vh; font-size: 2vw""> 
            <font color=""green""> Bonus : $0.25 </font>
            </div>
        </div>
    
        <img class=""stim"" src=./stimuli//pack_shapes_1/cat_1/diff_2/ex_1_2_14.png></img>
    ","null","stimulus","","","","","","",""
"","","","","","html-keyboard-response","142","299111","0.0-6.17-2.17","64e905e3eea5a5ce019a1f88","656d9e5e2de4f984cfed7d4d","656d9efedcacc13a8f17fb1d","null","
        <div style=""text-align: center; position: fixed; top: 5vh; left: 40vw;"">
            <div style=""margin:0 auto; width: 20vw; top: 8vh; font-size: 2vw""> 
            <font color=""green""> Bonus : $0.25 </font>
            </div>
        </div>
    ","null","","","","","","","",""
"","","","","","html-keyboard-response","143","299621","0.0-6.17-3.17","64e905e3eea5a5ce019a1f88","656d9e5e2de4f984cfed7d4d","656d9efedcacc13a8f17fb1d","508","./stimuli//pack_shapes_1/cat_1/diff_2/ex_1_2_14.png","arrowleft","response","ArrowLeft","14","1","2","test","true",""
"","","","","","html-keyboard-response","144","301134","0.0-6.17-4.17","64e905e3eea5a5ce019a1f88","656d9e5e2de4f984cfed7d4d","656d9efedcacc13a8f17fb1d","null","<p> <font color=""green"" size=""5vw""> Correct category! </font> <br> <br> <font color=""green"" size=""8vw""> + $0.05 </font> </p>","null","feedback","","","","","","","0.3"
"","","","","","html-keyboard-response","145","301368","0.0-6.18-0.18","64e905e3eea5a5ce019a1f88","656d9e5e2de4f984cfed7d4d","656d9efedcacc13a8f17fb1d","233","
            
        <div style=""text-align: center; position: fixed; top: 5vh; left: 40vw;"">
            <div style=""margin:0 auto; width: 20vw; top: 8vh; font-size: 2vw""> 
            <font color=""green""> Bonus : $0.3 </font>
            </div>
        </div>
    
            <div> Please press any key to continue to the next image.</div>
        ","arrowleft","ITI","","","","","","",""
"","","","","","html-keyboard-response","146","301986","0.0-6.18-1.18","64e905e3eea5a5ce019a1f88","656d9e5e2de4f984cfed7d4d","656d9efedcacc13a8f17fb1d","null","
        
        <div style=""text-align: center; position: fixed; top: 5vh; left: 40vw;"">
            <div style=""margin:0 auto; width: 20vw; top: 8vh; font-size: 2vw""> 
            <font color=""green""> Bonus : $0.3 </font>
            </div>
        </div>
    
        <img class=""stim"" src=./stimuli//pack_shapes_1/cat_1/diff_2/ex_1_2_6.png></img>
    ","null","stimulus","","","","","","",""
"","","","","","html-keyboard-response","147","303001","0.0-6.18-2.18","64e905e3eea5a5ce019a1f88","656d9e5e2de4f984cfed7d4d","656d9efedcacc13a8f17fb1d","null","
        <div style=""text-align: center; position: fixed; top: 5vh; left: 40vw;"">
            <div style=""margin:0 auto; width: 20vw; top: 8vh; font-size: 2vw""> 
            <font color=""green""> Bonus : $0.3 </font>
            </div>
        </div>
    ","null","","","","","","","",""
"","","","","","html-keyboard-response","148","303865","0.0-6.18-3.18","64e905e3eea5a5ce019a1f88","656d9e5e2de4f984cfed7d4d","656d9efedcacc13a8f17fb1d","862","./stimuli//pack_shapes_1/cat_1/diff_2/ex_1_2_6.png","arrowright","response","ArrowLeft","6","1","2","test","false",""
"","","","","","html-keyboard-response","149","305230","0.0-6.18-4.18","64e905e3eea5a5ce019a1f88","656d9e5e2de4f984cfed7d4d","656d9efedcacc13a8f17fb1d","1364","<p> <font color=""red"" size=""5vw""> Wrong category! </font> <br> <br> <font color=""red"" size=""8vw""> - $0.05 </font> </p>"," ","feedback","","","","","","","0.25"
"","","","","","html-keyboard-response","150","305976","0.0-6.19-0.19","64e905e3eea5a5ce019a1f88","656d9e5e2de4f984cfed7d4d","656d9efedcacc13a8f17fb1d","744","
            
        <div style=""text-align: center; position: fixed; top: 5vh; left: 40vw;"">
            <div style=""margin:0 auto; width: 20vw; top: 8vh; font-size: 2vw""> 
            <font color=""green""> Bonus : $0.25 </font>
            </div>
        </div>
    
            <div> Please press any key to continue to the next image.</div>
        ","arrowleft","ITI","","","","","","",""
"","","","","","html-keyboard-response","151","306594","0.0-6.19-1.19","64e905e3eea5a5ce019a1f88","656d9e5e2de4f984cfed7d4d","656d9efedcacc13a8f17fb1d","null","
        
        <div style=""text-align: center; position: fixed; top: 5vh; left: 40vw;"">
            <div style=""margin:0 auto; width: 20vw; top: 8vh; font-size: 2vw""> 
            <font color=""green""> Bonus : $0.25 </font>
            </div>
        </div>
    
        <img class=""stim"" src=./stimuli//pack_shapes_1/cat_1/diff_2/ex_1_2_4.png></img>
    ","null","stimulus","","","","","","",""
"","","","","","html-keyboard-response","152","307612","0.0-6.19-2.19","64e905e3eea5a5ce019a1f88","656d9e5e2de4f984cfed7d4d","656d9efedcacc13a8f17fb1d","null","
        <div style=""text-align: center; position: fixed; top: 5vh; left: 40vw;"">
            <div style=""margin:0 auto; width: 20vw; top: 8vh; font-size: 2vw""> 
            <font color=""green""> Bonus : $0.25 </font>
            </div>
        </div>
    ","null","","","","","","","",""
"","","","","","html-keyboard-response","153","307809","0.0-6.19-3.19","64e905e3eea5a5ce019a1f88","656d9e5e2de4f984cfed7d4d","656d9efedcacc13a8f17fb1d","195","./stimuli//pack_shapes_1/cat_1/diff_2/ex_1_2_4.png","arrowright","response","ArrowLeft","4","1","2","test","false",""
"","","","","","html-keyboard-response","154","309284","0.0-6.19-4.19","64e905e3eea5a5ce019a1f88","656d9e5e2de4f984cfed7d4d","656d9efedcacc13a8f17fb1d","1473","<p> <font color=""red"" size=""5vw""> Wrong category! </font> <br> <br> <font color=""red"" size=""8vw""> - $0.05 </font> </p>"," ","feedback","","","","","","","0.2"
"","","","","","html-keyboard-response","155","310803","0.0-6.20-0.20","64e905e3eea5a5ce019a1f88","656d9e5e2de4f984cfed7d4d","656d9efedcacc13a8f17fb1d","1517","
            
        <div style=""text-align: center; position: fixed; top: 5vh; left: 40vw;"">
            <div style=""margin:0 auto; width: 20vw; top: 8vh; font-size: 2vw""> 
            <font color=""green""> Bonus : $0.2 </font>
            </div>
        </div>
    
            <div> Please press any key to continue to the next image.</div>
        "," ","ITI","","","","","","",""
"","","","","","html-keyboard-response","156","311421","0.0-6.20-1.20","64e905e3eea5a5ce019a1f88","656d9e5e2de4f984cfed7d4d","656d9efedcacc13a8f17fb1d","null","
        
        <div style=""text-align: center; position: fixed; top: 5vh; left: 40vw;"">
            <div style=""margin:0 auto; width: 20vw; top: 8vh; font-size: 2vw""> 
            <font color=""green""> Bonus : $0.2 </font>
            </div>
        </div>
    
        <img class=""stim"" src=./stimuli//pack_shapes_1/cat_1/diff_2/ex_1_2_14.png></img>
    ","null","stimulus","","","","","","",""
"","","","","","html-keyboard-response","157","312435","0.0-6.20-2.20","64e905e3eea5a5ce019a1f88","656d9e5e2de4f984cfed7d4d","656d9efedcacc13a8f17fb1d","null","
        <div style=""text-align: center; position: fixed; top: 5vh; left: 40vw;"">
            <div style=""margin:0 auto; width: 20vw; top: 8vh; font-size: 2vw""> 
            <font color=""green""> Bonus : $0.2 </font>
            </div>
        </div>
    ","null","","","","","","","",""
"","","","","","html-keyboard-response","158","313096","0.0-6.20-3.20","64e905e3eea5a5ce019a1f88","656d9e5e2de4f984cfed7d4d","656d9efedcacc13a8f17fb1d","660","./stimuli//pack_shapes_1/cat_1/diff_2/ex_1_2_14.png","arrowleft","response","ArrowLeft","14","1","2","test","true",""
"","","","","","html-keyboard-response","159","314599","0.0-6.20-4.20","64e905e3eea5a5ce019a1f88","656d9e5e2de4f984cfed7d4d","656d9efedcacc13a8f17fb1d","null","<p> <font color=""green"" size=""5vw""> Correct category! </font> <br> <br> <font color=""green"" size=""8vw""> + $0.05 </font> </p>","null","feedback","","","","","","","0.25"
"","","","","","html-keyboard-response","160","315019","0.0-6.21-0.21","64e905e3eea5a5ce019a1f88","656d9e5e2de4f984cfed7d4d","656d9efedcacc13a8f17fb1d","418","
            
        <div style=""text-align: center; position: fixed; top: 5vh; left: 40vw;"">
            <div style=""margin:0 auto; width: 20vw; top: 8vh; font-size: 2vw""> 
            <font color=""green""> Bonus : $0.25 </font>
            </div>
        </div>
    
            <div> Please press any key to continue to the next image.</div>
        "," ","ITI","","","","","","",""
"","","","","","html-keyboard-response","161","315623","0.0-6.21-1.21","64e905e3eea5a5ce019a1f88","656d9e5e2de4f984cfed7d4d","656d9efedcacc13a8f17fb1d","null","
        
        <div style=""text-align: center; position: fixed; top: 5vh; left: 40vw;"">
            <div style=""margin:0 auto; width: 20vw; top: 8vh; font-size: 2vw""> 
            <font color=""green""> Bonus : $0.25 </font>
            </div>
        </div>
    
        <img class=""stim"" src=./stimuli//pack_shapes_1/cat_2/diff_1/ex_2_1_12.png></img>
    ","null","stimulus","","","","","","",""
"","","","","","html-keyboard-response","162","316638","0.0-6.21-2.21","64e905e3eea5a5ce019a1f88","656d9e5e2de4f984cfed7d4d","656d9efedcacc13a8f17fb1d","null","
        <div style=""text-align: center; position: fixed; top: 5vh; left: 40vw;"">
            <div style=""margin:0 auto; width: 20vw; top: 8vh; font-size: 2vw""> 
            <font color=""green""> Bonus : $0.25 </font>
            </div>
        </div>
    ","null","","","","","","","",""
"","","","","","html-keyboard-response","163","317677","0.0-6.21-3.21","64e905e3eea5a5ce019a1f88","656d9e5e2de4f984cfed7d4d","656d9efedcacc13a8f17fb1d","1037","./stimuli//pack_shapes_1/cat_2/diff_1/ex_2_1_12.png","arrowright","response","ArrowRight","12","2","1","test","true",""
"","","","","","html-keyboard-response","164","318872","0.0-6.21-4.21","64e905e3eea5a5ce019a1f88","656d9e5e2de4f984cfed7d4d","656d9efedcacc13a8f17fb1d","1193","<p> <font color=""green"" size=""5vw""> Correct category! </font> <br> <br> <font color=""green"" size=""8vw""> + $0.05 </font> </p>"," ","feedback","","","","","","","0.3"
"","","","","","html-keyboard-response","165","319654","0.0-6.22-0.22","64e905e3eea5a5ce019a1f88","656d9e5e2de4f984cfed7d4d","656d9efedcacc13a8f17fb1d","780","
            
        <div style=""text-align: center; position: fixed; top: 5vh; left: 40vw;"">
            <div style=""margin:0 auto; width: 20vw; top: 8vh; font-size: 2vw""> 
            <font color=""green""> Bonus : $0.3 </font>
            </div>
        </div>
    
            <div> Please press any key to continue to the next image.</div>
        "," ","ITI","","","","","","",""
"","","","","","html-keyboard-response","166","320260","0.0-6.22-1.22","64e905e3eea5a5ce019a1f88","656d9e5e2de4f984cfed7d4d","656d9efedcacc13a8f17fb1d","null","
        
        <div style=""text-align: center; position: fixed; top: 5vh; left: 40vw;"">
            <div style=""margin:0 auto; width: 20vw; top: 8vh; font-size: 2vw""> 
            <font color=""green""> Bonus : $0.3 </font>
            </div>
        </div>
    
        <img class=""stim"" src=./stimuli//pack_shapes_1/cat_2/diff_1/ex_2_1_2.png></img>
    ","null","stimulus","","","","","","",""
"","","","","","html-keyboard-response","167","321267","0.0-6.22-2.22","64e905e3eea5a5ce019a1f88","656d9e5e2de4f984cfed7d4d","656d9efedcacc13a8f17fb1d","null","
        <div style=""text-align: center; position: fixed; top: 5vh; left: 40vw;"">
            <div style=""margin:0 auto; width: 20vw; top: 8vh; font-size: 2vw""> 
            <font color=""green""> Bonus : $0.3 </font>
            </div>
        </div>
    ","null","","","","","","","",""
"","","","","","html-keyboard-response","168","321924","0.0-6.22-3.22","64e905e3eea5a5ce019a1f88","656d9e5e2de4f984cfed7d4d","656d9efedcacc13a8f17fb1d","654","./stimuli//pack_shapes_1/cat_2/diff_1/ex_2_1_2.png","arrowleft","response","ArrowRight","2","2","1","test","false",""
"","","","","","html-keyboard-response","169","323428","0.0-6.22-4.22","64e905e3eea5a5ce019a1f88","656d9e5e2de4f984cfed7d4d","656d9efedcacc13a8f17fb1d","null","<p> <font color=""red"" size=""5vw""> Wrong category! </font> <br> <br> <font color=""red"" size=""8vw""> - $0.05 </font> </p>","null","feedback","","","","","","","0.25"
"","","","","","html-keyboard-response","170","323456","0.0-6.23-0.23","64e905e3eea5a5ce019a1f88","656d9e5e2de4f984cfed7d4d","656d9efedcacc13a8f17fb1d","27","
            
        <div style=""text-align: center; position: fixed; top: 5vh; left: 40vw;"">
            <div style=""margin:0 auto; width: 20vw; top: 8vh; font-size: 2vw""> 
            <font color=""green""> Bonus : $0.25 </font>
            </div>
        </div>
    
            <div> Please press any key to continue to the next image.</div>
        "," ","ITI","","","","","","",""
"","","","","","html-keyboard-response","171","324062","0.0-6.23-1.23","64e905e3eea5a5ce019a1f88","656d9e5e2de4f984cfed7d4d","656d9efedcacc13a8f17fb1d","null","
        
        <div style=""text-align: center; position: fixed; top: 5vh; left: 40vw;"">
            <div style=""margin:0 auto; width: 20vw; top: 8vh; font-size: 2vw""> 
            <font color=""green""> Bonus : $0.25 </font>
            </div>
        </div>
    
        <img class=""stim"" src=./stimuli//pack_shapes_1/cat_2/diff_1/ex_2_1_11.png></img>
    ","null","stimulus","","","","","","",""
"","","","","","html-keyboard-response","172","325080","0.0-6.23-2.23","64e905e3eea5a5ce019a1f88","656d9e5e2de4f984cfed7d4d","656d9efedcacc13a8f17fb1d","null","
        <div style=""text-align: center; position: fixed; top: 5vh; left: 40vw;"">
            <div style=""margin:0 auto; width: 20vw; top: 8vh; font-size: 2vw""> 
            <font color=""green""> Bonus : $0.25 </font>
            </div>
        </div>
    ","null","","","","","","","",""
"","","","","","html-keyboard-response","173","325498","0.0-6.23-3.23","64e905e3eea5a5ce019a1f88","656d9e5e2de4f984cfed7d4d","656d9efedcacc13a8f17fb1d","416","./stimuli//pack_shapes_1/cat_2/diff_1/ex_2_1_11.png","arrowright","response","ArrowRight","11","2","1","test","true",""
"","","","","","html-keyboard-response","174","326524","0.0-6.23-4.23","64e905e3eea5a5ce019a1f88","656d9e5e2de4f984cfed7d4d","656d9efedcacc13a8f17fb1d","1023","<p> <font color=""green"" size=""5vw""> Correct category! </font> <br> <br> <font color=""green"" size=""8vw""> + $0.05 </font> </p>"," ","feedback","","","","","","","0.3"
"","","","","","html-keyboard-response","175","327176","0.0-6.24-0.24","64e905e3eea5a5ce019a1f88","656d9e5e2de4f984cfed7d4d","656d9efedcacc13a8f17fb1d","650","
            
        <div style=""text-align: center; position: fixed; top: 5vh; left: 40vw;"">
            <div style=""margin:0 auto; width: 20vw; top: 8vh; font-size: 2vw""> 
            <font color=""green""> Bonus : $0.3 </font>
            </div>
        </div>
    
            <div> Please press any key to continue to the next image.</div>
        "," ","ITI","","","","","","",""
"","","","","","html-keyboard-response","176","327794","0.0-6.24-1.24","64e905e3eea5a5ce019a1f88","656d9e5e2de4f984cfed7d4d","656d9efedcacc13a8f17fb1d","null","
        
        <div style=""text-align: center; position: fixed; top: 5vh; left: 40vw;"">
            <div style=""margin:0 auto; width: 20vw; top: 8vh; font-size: 2vw""> 
            <font color=""green""> Bonus : $0.3 </font>
            </div>
        </div>
    
        <img class=""stim"" src=./stimuli//pack_shapes_1/cat_2/diff_1/ex_2_1_3.png></img>
    ","null","stimulus","","","","","","",""
"","","","","","html-keyboard-response","177","328810","0.0-6.24-2.24","64e905e3eea5a5ce019a1f88","656d9e5e2de4f984cfed7d4d","656d9efedcacc13a8f17fb1d","null","
        <div style=""text-align: center; position: fixed; top: 5vh; left: 40vw;"">
            <div style=""margin:0 auto; width: 20vw; top: 8vh; font-size: 2vw""> 
            <font color=""green""> Bonus : $0.3 </font>
            </div>
        </div>
    ","null","","","","","","","",""
"","","","","","html-keyboard-response","178","329168","0.0-6.24-3.24","64e905e3eea5a5ce019a1f88","656d9e5e2de4f984cfed7d4d","656d9efedcacc13a8f17fb1d","356","./stimuli//pack_shapes_1/cat_2/diff_1/ex_2_1_3.png","arrowright","response","ArrowRight","3","2","1","test","true",""
"","","","","","html-keyboard-response","179","330277","0.0-6.24-4.24","64e905e3eea5a5ce019a1f88","656d9e5e2de4f984cfed7d4d","656d9efedcacc13a8f17fb1d","1107","<p> <font color=""green"" size=""5vw""> Correct category! </font> <br> <br> <font color=""green"" size=""8vw""> + $0.05 </font> </p>"," ","feedback","","","","","","","0.35"
"","","","","","html-keyboard-response","180","330851","0.0-6.25-0.25","64e905e3eea5a5ce019a1f88","656d9e5e2de4f984cfed7d4d","656d9efedcacc13a8f17fb1d","572","
            
        <div style=""text-align: center; position: fixed; top: 5vh; left: 40vw;"">
            <div style=""margin:0 auto; width: 20vw; top: 8vh; font-size: 2vw""> 
            <font color=""green""> Bonus : $0.35 </font>
            </div>
        </div>
    
            <div> Please press any key to continue to the next image.</div>
        "," ","ITI","","","","","","",""
"","","","","","html-keyboard-response","181","331459","0.0-6.25-1.25","64e905e3eea5a5ce019a1f88","656d9e5e2de4f984cfed7d4d","656d9efedcacc13a8f17fb1d","null","
        
        <div style=""text-align: center; position: fixed; top: 5vh; left: 40vw;"">
            <div style=""margin:0 auto; width: 20vw; top: 8vh; font-size: 2vw""> 
            <font color=""green""> Bonus : $0.35 </font>
            </div>
        </div>
    
        <img class=""stim"" src=./stimuli//pack_shapes_1/cat_2/diff_1/ex_2_1_5.png></img>
    ","null","stimulus","","","","","","",""
"","","","","","html-keyboard-response","182","332462","0.0-6.25-2.25","64e905e3eea5a5ce019a1f88","656d9e5e2de4f984cfed7d4d","656d9efedcacc13a8f17fb1d","null","
        <div style=""text-align: center; position: fixed; top: 5vh; left: 40vw;"">
            <div style=""margin:0 auto; width: 20vw; top: 8vh; font-size: 2vw""> 
            <font color=""green""> Bonus : $0.35 </font>
            </div>
        </div>
    ","null","","","","","","","",""
"","","","","","html-keyboard-response","183","332816","0.0-6.25-3.25","64e905e3eea5a5ce019a1f88","656d9e5e2de4f984cfed7d4d","656d9efedcacc13a8f17fb1d","352","./stimuli//pack_shapes_1/cat_2/diff_1/ex_2_1_5.png","arrowright","response","ArrowRight","5","2","1","test","true",""
"","","","","","html-keyboard-response","184","333797","0.0-6.25-4.25","64e905e3eea5a5ce019a1f88","656d9e5e2de4f984cfed7d4d","656d9efedcacc13a8f17fb1d","980","<p> <font color=""green"" size=""5vw""> Correct category! </font> <br> <br> <font color=""green"" size=""8vw""> + $0.05 </font> </p>"," ","feedback","","","","","","","0.4"
"","","","","","html-keyboard-response","185","334611","0.0-6.26-0.26","64e905e3eea5a5ce019a1f88","656d9e5e2de4f984cfed7d4d","656d9efedcacc13a8f17fb1d","811","
            
        <div style=""text-align: center; position: fixed; top: 5vh; left: 40vw;"">
            <div style=""margin:0 auto; width: 20vw; top: 8vh; font-size: 2vw""> 
            <font color=""green""> Bonus : $0.4 </font>
            </div>
        </div>
    
            <div> Please press any key to continue to the next image.</div>
        "," ","ITI","","","","","","",""
"","","","","","html-keyboard-response","186","335216","0.0-6.26-1.26","64e905e3eea5a5ce019a1f88","656d9e5e2de4f984cfed7d4d","656d9efedcacc13a8f17fb1d","null","
        
        <div style=""text-align: center; position: fixed; top: 5vh; left: 40vw;"">
            <div style=""margin:0 auto; width: 20vw; top: 8vh; font-size: 2vw""> 
            <font color=""green""> Bonus : $0.4 </font>
            </div>
        </div>
    
        <img class=""stim"" src=./stimuli//pack_shapes_1/cat_1/diff_2/ex_1_2_8.png></img>
    ","null","stimulus","","","","","","",""
"","","","","","html-keyboard-response","187","336225","0.0-6.26-2.26","64e905e3eea5a5ce019a1f88","656d9e5e2de4f984cfed7d4d","656d9efedcacc13a8f17fb1d","null","
        <div style=""text-align: center; position: fixed; top: 5vh; left: 40vw;"">
            <div style=""margin:0 auto; width: 20vw; top: 8vh; font-size: 2vw""> 
            <font color=""green""> Bonus : $0.4 </font>
            </div>
        </div>
    ","null","","","","","","","",""
"","","","","","html-keyboard-response","188","336683","0.0-6.26-3.26","64e905e3eea5a5ce019a1f88","656d9e5e2de4f984cfed7d4d","656d9efedcacc13a8f17fb1d","455","./stimuli//pack_shapes_1/cat_1/diff_2/ex_1_2_8.png","arrowright","response","ArrowLeft","8","1","2","test","false",""
"","","","","","html-keyboard-response","189","337798","0.0-6.26-4.26","64e905e3eea5a5ce019a1f88","656d9e5e2de4f984cfed7d4d","656d9efedcacc13a8f17fb1d","1114","<p> <font color=""red"" size=""5vw""> Wrong category! </font> <br> <br> <font color=""red"" size=""8vw""> - $0.05 </font> </p>"," ","feedback","","","","","","","0.35"
"","","","","","html-keyboard-response","190","338606","0.0-6.27-0.27","64e905e3eea5a5ce019a1f88","656d9e5e2de4f984cfed7d4d","656d9efedcacc13a8f17fb1d","806","
            
        <div style=""text-align: center; position: fixed; top: 5vh; left: 40vw;"">
            <div style=""margin:0 auto; width: 20vw; top: 8vh; font-size: 2vw""> 
            <font color=""green""> Bonus : $0.35 </font>
            </div>
        </div>
    
            <div> Please press any key to continue to the next image.</div>
        "," ","ITI","","","","","","",""
"","","","","","html-keyboard-response","191","339212","0.0-6.27-1.27","64e905e3eea5a5ce019a1f88","656d9e5e2de4f984cfed7d4d","656d9efedcacc13a8f17fb1d","null","
        
        <div style=""text-align: center; position: fixed; top: 5vh; left: 40vw;"">
            <div style=""margin:0 auto; width: 20vw; top: 8vh; font-size: 2vw""> 
            <font color=""green""> Bonus : $0.35 </font>
            </div>
        </div>
    
        <img class=""stim"" src=./stimuli//pack_shapes_1/cat_1/diff_2/ex_1_2_17.png></img>
    ","null","stimulus","","","","","","",""
"","","","","","html-keyboard-response","192","340225","0.0-6.27-2.27","64e905e3eea5a5ce019a1f88","656d9e5e2de4f984cfed7d4d","656d9efedcacc13a8f17fb1d","null","
        <div style=""text-align: center; position: fixed; top: 5vh; left: 40vw;"">
            <div style=""margin:0 auto; width: 20vw; top: 8vh; font-size: 2vw""> 
            <font color=""green""> Bonus : $0.35 </font>
            </div>
        </div>
    ","null","","","","","","","",""
"","","","","","html-keyboard-response","193","340548","0.0-6.27-3.27","64e905e3eea5a5ce019a1f88","656d9e5e2de4f984cfed7d4d","656d9efedcacc13a8f17fb1d","320","./stimuli//pack_shapes_1/cat_1/diff_2/ex_1_2_17.png","arrowleft","response","ArrowLeft","17","1","2","test","true",""
"","","","","","html-keyboard-response","194","341881","0.0-6.27-4.27","64e905e3eea5a5ce019a1f88","656d9e5e2de4f984cfed7d4d","656d9efedcacc13a8f17fb1d","1331","<p> <font color=""green"" size=""5vw""> Correct category! </font> <br> <br> <font color=""green"" size=""8vw""> + $0.05 </font> </p>"," ","feedback","","","","","","","0.4"
"","","","","","html-keyboard-response","195","342470","0.0-6.28-0.28","64e905e3eea5a5ce019a1f88","656d9e5e2de4f984cfed7d4d","656d9efedcacc13a8f17fb1d","586","
            
        <div style=""text-align: center; position: fixed; top: 5vh; left: 40vw;"">
            <div style=""margin:0 auto; width: 20vw; top: 8vh; font-size: 2vw""> 
            <font color=""green""> Bonus : $0.4 </font>
            </div>
        </div>
    
            <div> Please press any key to continue to the next image.</div>
        "," ","ITI","","","","","","",""
"","","","","","html-keyboard-response","196","343087","0.0-6.28-1.28","64e905e3eea5a5ce019a1f88","656d9e5e2de4f984cfed7d4d","656d9efedcacc13a8f17fb1d","null","
        
        <div style=""text-align: center; position: fixed; top: 5vh; left: 40vw;"">
            <div style=""margin:0 auto; width: 20vw; top: 8vh; font-size: 2vw""> 
            <font color=""green""> Bonus : $0.4 </font>
            </div>
        </div>
    
        <img class=""stim"" src=./stimuli//pack_shapes_1/cat_1/diff_2/ex_1_2_16.png></img>
    ","null","stimulus","","","","","","",""
"","","","","","html-keyboard-response","197","344090","0.0-6.28-2.28","64e905e3eea5a5ce019a1f88","656d9e5e2de4f984cfed7d4d","656d9efedcacc13a8f17fb1d","null","
        <div style=""text-align: center; position: fixed; top: 5vh; left: 40vw;"">
            <div style=""margin:0 auto; width: 20vw; top: 8vh; font-size: 2vw""> 
            <font color=""green""> Bonus : $0.4 </font>
            </div>
        </div>
    ","null","","","","","","","",""
"","","","","","html-keyboard-response","198","344462","0.0-6.28-3.28","64e905e3eea5a5ce019a1f88","656d9e5e2de4f984cfed7d4d","656d9efedcacc13a8f17fb1d","370","./stimuli//pack_shapes_1/cat_1/diff_2/ex_1_2_16.png","arrowleft","response","ArrowLeft","16","1","2","test","true",""
"","","","","","html-keyboard-response","199","345700","0.0-6.28-4.28","64e905e3eea5a5ce019a1f88","656d9e5e2de4f984cfed7d4d","656d9efedcacc13a8f17fb1d","1236","<p> <font color=""green"" size=""5vw""> Correct category! </font> <br> <br> <font color=""green"" size=""8vw""> + $0.05 </font> </p>"," ","feedback","","","","","","","0.45"
"","","","","","html-keyboard-response","200","346309","0.0-6.29-0.29","64e905e3eea5a5ce019a1f88","656d9e5e2de4f984cfed7d4d","656d9efedcacc13a8f17fb1d","606","
            
        <div style=""text-align: center; position: fixed; top: 5vh; left: 40vw;"">
            <div style=""margin:0 auto; width: 20vw; top: 8vh; font-size: 2vw""> 
            <font color=""green""> Bonus : $0.45 </font>
            </div>
        </div>
    
            <div> Please press any key to continue to the next image.</div>
        "," ","ITI","","","","","","",""
"","","","","","html-keyboard-response","201","346922","0.0-6.29-1.29","64e905e3eea5a5ce019a1f88","656d9e5e2de4f984cfed7d4d","656d9efedcacc13a8f17fb1d","null","
        
        <div style=""text-align: center; position: fixed; top: 5vh; left: 40vw;"">
            <div style=""margin:0 auto; width: 20vw; top: 8vh; font-size: 2vw""> 
            <font color=""green""> Bonus : $0.45 </font>
            </div>
        </div>
    
        <img class=""stim"" src=./stimuli//pack_shapes_1/cat_1/diff_2/ex_1_2_9.png></img>
    ","null","stimulus","","","","","","",""
"","","","","","html-keyboard-response","202","347939","0.0-6.29-2.29","64e905e3eea5a5ce019a1f88","656d9e5e2de4f984cfed7d4d","656d9efedcacc13a8f17fb1d","null","
        <div style=""text-align: center; position: fixed; top: 5vh; left: 40vw;"">
            <div style=""margin:0 auto; width: 20vw; top: 8vh; font-size: 2vw""> 
            <font color=""green""> Bonus : $0.45 </font>
            </div>
        </div>
    ","null","","","","","","","",""
"","","","","","html-keyboard-response","203","348261","0.0-6.29-3.29","64e905e3eea5a5ce019a1f88","656d9e5e2de4f984cfed7d4d","656d9efedcacc13a8f17fb1d","321","./stimuli//pack_shapes_1/cat_1/diff_2/ex_1_2_9.png","arrowleft","response","ArrowLeft","9","1","2","test","true",""
"","","","","","html-keyboard-response","204","349268","0.0-6.29-4.29","64e905e3eea5a5ce019a1f88","656d9e5e2de4f984cfed7d4d","656d9efedcacc13a8f17fb1d","1004","<p> <font color=""green"" size=""5vw""> Correct category! </font> <br> <br> <font color=""green"" size=""8vw""> + $0.05 </font> </p>"," ","feedback","","","","","","","0.5"
"","","","","","html-keyboard-response","205","349898","0.0-6.30-0.30","64e905e3eea5a5ce019a1f88","656d9e5e2de4f984cfed7d4d","656d9efedcacc13a8f17fb1d","629","
            
        <div style=""text-align: center; position: fixed; top: 5vh; left: 40vw;"">
            <div style=""margin:0 auto; width: 20vw; top: 8vh; font-size: 2vw""> 
            <font color=""green""> Bonus : $0.5 </font>
            </div>
        </div>
    
            <div> Please press any key to continue to the next image.</div>
        "," ","ITI","","","","","","",""
"","","","","","html-keyboard-response","206","350508","0.0-6.30-1.30","64e905e3eea5a5ce019a1f88","656d9e5e2de4f984cfed7d4d","656d9efedcacc13a8f17fb1d","null","
        
        <div style=""text-align: center; position: fixed; top: 5vh; left: 40vw;"">
            <div style=""margin:0 auto; width: 20vw; top: 8vh; font-size: 2vw""> 
            <font color=""green""> Bonus : $0.5 </font>
            </div>
        </div>
    
        <img class=""stim"" src=./stimuli//pack_shapes_1/cat_2/diff_2/ex_2_2_14.png></img>
    ","null","stimulus","","","","","","",""
"","","","","","html-keyboard-response","207","351516","0.0-6.30-2.30","64e905e3eea5a5ce019a1f88","656d9e5e2de4f984cfed7d4d","656d9efedcacc13a8f17fb1d","null","
        <div style=""text-align: center; position: fixed; top: 5vh; left: 40vw;"">
            <div style=""margin:0 auto; width: 20vw; top: 8vh; font-size: 2vw""> 
            <font color=""green""> Bonus : $0.5 </font>
            </div>
        </div>
    ","null","","","","","","","",""
"","","","","","html-keyboard-response","208","352383","0.0-6.30-3.30","64e905e3eea5a5ce019a1f88","656d9e5e2de4f984cfed7d4d","656d9efedcacc13a8f17fb1d","864","./stimuli//pack_shapes_1/cat_2/diff_2/ex_2_2_14.png","arrowright","response","ArrowRight","14","2","2","test","true",""
"","","","","","html-keyboard-response","209","353296","0.0-6.30-4.30","64e905e3eea5a5ce019a1f88","656d9e5e2de4f984cfed7d4d","656d9efedcacc13a8f17fb1d","910","<p> <font color=""green"" size=""5vw""> Correct category! </font> <br> <br> <font color=""green"" size=""8vw""> + $0.05 </font> </p>"," ","feedback","","","","","","","0.55"
"","","","","","html-keyboard-response","210","353952","0.0-6.31-0.31","64e905e3eea5a5ce019a1f88","656d9e5e2de4f984cfed7d4d","656d9efedcacc13a8f17fb1d","654","
            
        <div style=""text-align: center; position: fixed; top: 5vh; left: 40vw;"">
            <div style=""margin:0 auto; width: 20vw; top: 8vh; font-size: 2vw""> 
            <font color=""green""> Bonus : $0.55 </font>
            </div>
        </div>
    
            <div> Please press any key to continue to the next image.</div>
        "," ","ITI","","","","","","",""
"","","","","","html-keyboard-response","211","354558","0.0-6.31-1.31","64e905e3eea5a5ce019a1f88","656d9e5e2de4f984cfed7d4d","656d9efedcacc13a8f17fb1d","null","
        
        <div style=""text-align: center; position: fixed; top: 5vh; left: 40vw;"">
            <div style=""margin:0 auto; width: 20vw; top: 8vh; font-size: 2vw""> 
            <font color=""green""> Bonus : $0.55 </font>
            </div>
        </div>
    
        <img class=""stim"" src=./stimuli//pack_shapes_1/cat_1/diff_3/ex_1_3_8.png></img>
    ","null","stimulus","","","","","","",""
"","","","","","html-keyboard-response","212","355564","0.0-6.31-2.31","64e905e3eea5a5ce019a1f88","656d9e5e2de4f984cfed7d4d","656d9efedcacc13a8f17fb1d","null","
        <div style=""text-align: center; position: fixed; top: 5vh; left: 40vw;"">
            <div style=""margin:0 auto; width: 20vw; top: 8vh; font-size: 2vw""> 
            <font color=""green""> Bonus : $0.55 </font>
            </div>
        </div>
    ","null","","","","","","","",""
"","","","","","html-keyboard-response","213","355769","0.0-6.31-3.31","64e905e3eea5a5ce019a1f88","656d9e5e2de4f984cfed7d4d","656d9efedcacc13a8f17fb1d","202","./stimuli//pack_shapes_1/cat_1/diff_3/ex_1_3_8.png","arrowleft","response","ArrowLeft","8","1","3","test","true",""
"","","","","","html-keyboard-response","214","356705","0.0-6.31-4.31","64e905e3eea5a5ce019a1f88","656d9e5e2de4f984cfed7d4d","656d9efedcacc13a8f17fb1d","934","<p> <font color=""green"" size=""5vw""> Correct category! </font> <br> <br> <font color=""green"" size=""8vw""> + $0.05 </font> </p>"," ","feedback","","","","","","","0.6"
"","","","","","html-keyboard-response","215","357465","0.0-6.32-0.32","64e905e3eea5a5ce019a1f88","656d9e5e2de4f984cfed7d4d","656d9efedcacc13a8f17fb1d","758","
            
        <div style=""text-align: center; position: fixed; top: 5vh; left: 40vw;"">
            <div style=""margin:0 auto; width: 20vw; top: 8vh; font-size: 2vw""> 
            <font color=""green""> Bonus : $0.6 </font>
            </div>
        </div>
    
            <div> Please press any key to continue to the next image.</div>
        "," ","ITI","","","","","","",""
"","","","","","html-keyboard-response","216","358075","0.0-6.32-1.32","64e905e3eea5a5ce019a1f88","656d9e5e2de4f984cfed7d4d","656d9efedcacc13a8f17fb1d","null","
        
        <div style=""text-align: center; position: fixed; top: 5vh; left: 40vw;"">
            <div style=""margin:0 auto; width: 20vw; top: 8vh; font-size: 2vw""> 
            <font color=""green""> Bonus : $0.6 </font>
            </div>
        </div>
    
        <img class=""stim"" src=./stimuli//pack_shapes_1/cat_2/diff_3/ex_2_3_3.png></img>
    ","null","stimulus","","","","","","",""
"","","","","","html-keyboard-response","217","359082","0.0-6.32-2.32","64e905e3eea5a5ce019a1f88","656d9e5e2de4f984cfed7d4d","656d9efedcacc13a8f17fb1d","null","
        <div style=""text-align: center; position: fixed; top: 5vh; left: 40vw;"">
            <div style=""margin:0 auto; width: 20vw; top: 8vh; font-size: 2vw""> 
            <font color=""green""> Bonus : $0.6 </font>
            </div>
        </div>
    ","null","","","","","","","",""
"","","","","","html-keyboard-response","218","359439","0.0-6.32-3.32","64e905e3eea5a5ce019a1f88","656d9e5e2de4f984cfed7d4d","656d9efedcacc13a8f17fb1d","355","./stimuli//pack_shapes_1/cat_2/diff_3/ex_2_3_3.png","arrowleft","response","ArrowRight","3","2","3","test","false",""
"","","","","","html-keyboard-response","219","360425","0.0-6.32-4.32","64e905e3eea5a5ce019a1f88","656d9e5e2de4f984cfed7d4d","656d9efedcacc13a8f17fb1d","984","<p> <font color=""red"" size=""5vw""> Wrong category! </font> <br> <br> <font color=""red"" size=""8vw""> - $0.05 </font> </p>"," ","feedback","","","","","","","0.55"
"","","","","","html-keyboard-response","220","360959","0.0-6.33-0.33","64e905e3eea5a5ce019a1f88","656d9e5e2de4f984cfed7d4d","656d9efedcacc13a8f17fb1d","531","
            
        <div style=""text-align: center; position: fixed; top: 5vh; left: 40vw;"">
            <div style=""margin:0 auto; width: 20vw; top: 8vh; font-size: 2vw""> 
            <font color=""green""> Bonus : $0.55 </font>
            </div>
        </div>
    
            <div> Please press any key to continue to the next image.</div>
        "," ","ITI","","","","","","",""
"","","","","","html-keyboard-response","221","361569","0.0-6.33-1.33","64e905e3eea5a5ce019a1f88","656d9e5e2de4f984cfed7d4d","656d9efedcacc13a8f17fb1d","null","
        
        <div style=""text-align: center; position: fixed; top: 5vh; left: 40vw;"">
            <div style=""margin:0 auto; width: 20vw; top: 8vh; font-size: 2vw""> 
            <font color=""green""> Bonus : $0.55 </font>
            </div>
        </div>
    
        <img class=""stim"" src=./stimuli//pack_shapes_1/cat_2/diff_3/ex_2_3_13.png></img>
    ","null","stimulus","","","","","","",""
"","","","","","html-keyboard-response","222","362582","0.0-6.33-2.33","64e905e3eea5a5ce019a1f88","656d9e5e2de4f984cfed7d4d","656d9efedcacc13a8f17fb1d","null","
        <div style=""text-align: center; position: fixed; top: 5vh; left: 40vw;"">
            <div style=""margin:0 auto; width: 20vw; top: 8vh; font-size: 2vw""> 
            <font color=""green""> Bonus : $0.55 </font>
            </div>
        </div>
    ","null","","","","","","","",""
"","","","","","html-keyboard-response","223","362629","0.0-6.33-3.33","64e905e3eea5a5ce019a1f88","656d9e5e2de4f984cfed7d4d","656d9efedcacc13a8f17fb1d","45","./stimuli//pack_shapes_1/cat_2/diff_3/ex_2_3_13.png","arrowright","response","ArrowRight","13","2","3","test","true",""
"","","","","","html-keyboard-response","224","363548","0.0-6.33-4.33","64e905e3eea5a5ce019a1f88","656d9e5e2de4f984cfed7d4d","656d9efedcacc13a8f17fb1d","917","<p> <font color=""green"" size=""5vw""> Correct category! </font> <br> <br> <font color=""green"" size=""8vw""> + $0.05 </font> </p>"," ","feedback","","","","","","","0.6"
"","","","","","html-keyboard-response","225","364733","0.0-6.34-0.34","64e905e3eea5a5ce019a1f88","656d9e5e2de4f984cfed7d4d","656d9efedcacc13a8f17fb1d","1183","
            
        <div style=""text-align: center; position: fixed; top: 5vh; left: 40vw;"">
            <div style=""margin:0 auto; width: 20vw; top: 8vh; font-size: 2vw""> 
            <font color=""green""> Bonus : $0.6 </font>
            </div>
        </div>
    
            <div> Please press any key to continue to the next image.</div>
        "," ","ITI","","","","","","",""
"","","","","","html-keyboard-response","226","365351","0.0-6.34-1.34","64e905e3eea5a5ce019a1f88","656d9e5e2de4f984cfed7d4d","656d9efedcacc13a8f17fb1d","null","
        
        <div style=""text-align: center; position: fixed; top: 5vh; left: 40vw;"">
            <div style=""margin:0 auto; width: 20vw; top: 8vh; font-size: 2vw""> 
            <font color=""green""> Bonus : $0.6 </font>
            </div>
        </div>
    
        <img class=""stim"" src=./stimuli//pack_shapes_1/cat_1/diff_3/ex_1_3_4.png></img>
    ","null","stimulus","","","","","","",""
"","","","","","html-keyboard-response","227","366364","0.0-6.34-2.34","64e905e3eea5a5ce019a1f88","656d9e5e2de4f984cfed7d4d","656d9efedcacc13a8f17fb1d","null","
        <div style=""text-align: center; position: fixed; top: 5vh; left: 40vw;"">
            <div style=""margin:0 auto; width: 20vw; top: 8vh; font-size: 2vw""> 
            <font color=""green""> Bonus : $0.6 </font>
            </div>
        </div>
    ","null","","","","","","","",""
"","","","","","html-keyboard-response","228","366677","0.0-6.34-3.34","64e905e3eea5a5ce019a1f88","656d9e5e2de4f984cfed7d4d","656d9efedcacc13a8f17fb1d","311","./stimuli//pack_shapes_1/cat_1/diff_3/ex_1_3_4.png","arrowright","response","ArrowLeft","4","1","3","test","false",""
"","","","","","html-keyboard-response","229","368008","0.0-6.34-4.34","64e905e3eea5a5ce019a1f88","656d9e5e2de4f984cfed7d4d","656d9efedcacc13a8f17fb1d","1330","<p> <font color=""red"" size=""5vw""> Wrong category! </font> <br> <br> <font color=""red"" size=""8vw""> - $0.05 </font> </p>","arrowleft","feedback","","","","","","","0.55"
"","","","","","html-keyboard-response","230","368422","0.0-6.35-0.35","64e905e3eea5a5ce019a1f88","656d9e5e2de4f984cfed7d4d","656d9efedcacc13a8f17fb1d","411","
            
        <div style=""text-align: center; position: fixed; top: 5vh; left: 40vw;"">
