"success","timeout","failed_images","failed_audio","failed_video","trial_type","trial_index","time_elapsed","internal_node_id","subject_id","study_id","session_id","rt","stimulus","response","task","correct_response","exemplar_ID","category","difficulty","phase","correct","bonus"
"true","false","[]","[]","[]","preload","0","4","0.0-0.0","5d00d65e6645240019b98b0a","656d9e5e2de4f984cfed7d4d","656d9ef36599eb729c0b0fe0","","","","","","","","","","",""
"","","","","","html-keyboard-response","1","9216","0.0-1.0","5d00d65e6645240019b98b0a","656d9e5e2de4f984cfed7d4d","656d9ef36599eb729c0b0fe0","9210","Welcome to the Category Learning experiment! Press any key to continue.","c","welcome","","","","","","",""
"","","","","","html-keyboard-response","2","17360","0.0-2.0","5d00d65e6645240019b98b0a","656d9e5e2de4f984cfed7d4d","656d9ef36599eb729c0b0fe0","8143","
            <p>You will be shown images of white shapes. Some are category A, some are category B.
            <br>You will not know in advance which category a specific shape belongs to.</p>
            <p>After you see an image, you will be asked to guess its category <b>(left arrow for category A, right arrow for category B)</b></p>
            <p>After you choose, the screen will show you whether you were correct or not.</p>
            <p><b>You will receive a bonus payment of $0.05 for each correct answer!</b></p>
            <p><b>You will lose $0.05 from your bonus payment for each incorrect answer! The bonus can not become less that $0.</b></p>
            <p>Press any key to continue.</p>
            ","v","introduction_1","","","","","","",""
"","","","","","html-keyboard-response","3","20106","0.0-3.0","5d00d65e6645240019b98b0a","656d9e5e2de4f984cfed7d4d","656d9ef36599eb729c0b0fe0","2745","
            <p> <b>The first 10 trials are a practice round that will not count towards your bonus payment.</b></p>
            <p> You will be notified when practice finishes and the test begins. </p>
            <p> Press any key to begin the practice round.</p>
            ","h","introduction_2","","","","","","",""
"","","","","","html-keyboard-response","4","22041","0.0-4.0-0.0","5d00d65e6645240019b98b0a","656d9e5e2de4f984cfed7d4d","656d9ef36599eb729c0b0fe0","1933","
            
        <div style=""text-align: center; position: fixed; top: 5vh; left: 40vw;"">
            <div style=""margin:0 auto; width: 20vw; top: 8vh; font-size: 2vw""> 
            <font color=""green""> Bonus : $0 </font>
            </div>
        </div>
    
            <div> Please press any key to continue to the next image.</div>
        ","h","ITI","","","","","","",""
"","","","","","html-keyboard-response","5","22650","0.0-4.0-1.0","5d00d65e6645240019b98b0a","656d9e5e2de4f984cfed7d4d","656d9ef36599eb729c0b0fe0","null","
        
        <div style=""text-align: center; position: fixed; top: 5vh; left: 40vw;"">
            <div style=""margin:0 auto; width: 20vw; top: 8vh; font-size: 2vw""> 
            <font color=""green""> Bonus : $0 </font>
            </div>
        </div>
    
        <img class=""stim"" src=./stimuli//pack_shapes_1/cat_2/diff_1/ex_2_1_16.png></img>
    ","null","stimulus","","","","","","",""
"","","","","","html-keyboard-response","6","23663","0.0-4.0-2.0","5d00d65e6645240019b98b0a","656d9e5e2de4f984cfed7d4d","656d9ef36599eb729c0b0fe0","null","
        <div style=""text-align: center; position: fixed; top: 5vh; left: 40vw;"">
            <div style=""margin:0 auto; width: 20vw; top: 8vh; font-size: 2vw""> 
            <font color=""green""> Bonus : $0 </font>
            </div>
        </div>
    ","null","","","","","","","",""
"","","","","","html-keyboard-response","7","27666","0.0-4.0-3.0","5d00d65e6645240019b98b0a","656d9e5e2de4f984cfed7d4d","656d9ef36599eb729c0b0fe0","null","./stimuli//pack_shapes_1/cat_2/diff_1/ex_2_1_16.png","null","response","ArrowRight","16","2","1","train","false",""
"","","","","","html-keyboard-response","8","29169","0.0-4.0-4.0","5d00d65e6645240019b98b0a","656d9e5e2de4f984cfed7d4d","656d9ef36599eb729c0b0fe0","null","<p> <font color=""red"" size=""5vw""> Time out! </font> <br> <br> Please try to respond as quickly as possible. </p>","null","feedback","","","","","","","0"
"","","","","","html-keyboard-response","9","30546","0.0-4.0-0.1","5d00d65e6645240019b98b0a","656d9e5e2de4f984cfed7d4d","656d9ef36599eb729c0b0fe0","1376","
            
        <div style=""text-align: center; position: fixed; top: 5vh; left: 40vw;"">
            <div style=""margin:0 auto; width: 20vw; top: 8vh; font-size: 2vw""> 
            <font color=""green""> Bonus : $0 </font>
            </div>
        </div>
    
            <div> Please press any key to continue to the next image.</div>
        ","b","ITI","","","","","","",""
"","","","","","html-keyboard-response","10","31148","0.0-4.0-1.1","5d00d65e6645240019b98b0a","656d9e5e2de4f984cfed7d4d","656d9ef36599eb729c0b0fe0","null","
        
        <div style=""text-align: center; position: fixed; top: 5vh; left: 40vw;"">
            <div style=""margin:0 auto; width: 20vw; top: 8vh; font-size: 2vw""> 
            <font color=""green""> Bonus : $0 </font>
            </div>
        </div>
    
        <img class=""stim"" src=./stimuli//pack_shapes_1/cat_1/diff_1/ex_1_1_5.png></img>
    ","null","stimulus","","","","","","",""
"","","","","","html-keyboard-response","11","32160","0.0-4.0-2.1","5d00d65e6645240019b98b0a","656d9e5e2de4f984cfed7d4d","656d9ef36599eb729c0b0fe0","null","
        <div style=""text-align: center; position: fixed; top: 5vh; left: 40vw;"">
            <div style=""margin:0 auto; width: 20vw; top: 8vh; font-size: 2vw""> 
            <font color=""green""> Bonus : $0 </font>
            </div>
        </div>
    ","null","","","","","","","",""
"","","","","","html-keyboard-response","12","36167","0.0-4.0-3.1","5d00d65e6645240019b98b0a","656d9e5e2de4f984cfed7d4d","656d9ef36599eb729c0b0fe0","null","./stimuli//pack_shapes_1/cat_1/diff_1/ex_1_1_5.png","null","response","ArrowLeft","5","1","1","train","false",""
"","","","","","html-keyboard-response","13","36284","0.0-4.0-4.1","5d00d65e6645240019b98b0a","656d9e5e2de4f984cfed7d4d","656d9ef36599eb729c0b0fe0","116","<p> <font color=""red"" size=""5vw""> Time out! </font> <br> <br> Please try to respond as quickly as possible. </p>","a","feedback","","","","","","","0"
"","","","","","html-keyboard-response","14","37408","0.0-4.0-0.2","5d00d65e6645240019b98b0a","656d9e5e2de4f984cfed7d4d","656d9ef36599eb729c0b0fe0","1123","
            
        <div style=""text-align: center; position: fixed; top: 5vh; left: 40vw;"">
            <div style=""margin:0 auto; width: 20vw; top: 8vh; font-size: 2vw""> 
            <font color=""green""> Bonus : $0 </font>
            </div>
        </div>
    
            <div> Please press any key to continue to the next image.</div>
        ","a","ITI","","","","","","",""
"","","","","","html-keyboard-response","15","38040","0.0-4.0-1.2","5d00d65e6645240019b98b0a","656d9e5e2de4f984cfed7d4d","656d9ef36599eb729c0b0fe0","null","
        
        <div style=""text-align: center; position: fixed; top: 5vh; left: 40vw;"">
            <div style=""margin:0 auto; width: 20vw; top: 8vh; font-size: 2vw""> 
            <font color=""green""> Bonus : $0 </font>
            </div>
        </div>
    
        <img class=""stim"" src=./stimuli//pack_shapes_1/cat_2/diff_1/ex_2_1_13.png></img>
    ","null","stimulus","","","","","","",""
"","","","","","html-keyboard-response","16","39055","0.0-4.0-2.2","5d00d65e6645240019b98b0a","656d9e5e2de4f984cfed7d4d","656d9ef36599eb729c0b0fe0","null","
        <div style=""text-align: center; position: fixed; top: 5vh; left: 40vw;"">
            <div style=""margin:0 auto; width: 20vw; top: 8vh; font-size: 2vw""> 
            <font color=""green""> Bonus : $0 </font>
            </div>
        </div>
    ","null","","","","","","","",""
"","","","","","html-keyboard-response","17","39911","0.0-4.0-3.2","5d00d65e6645240019b98b0a","656d9e5e2de4f984cfed7d4d","656d9ef36599eb729c0b0fe0","856","./stimuli//pack_shapes_1/cat_2/diff_1/ex_2_1_13.png","arrowleft","response","ArrowRight","13","2","1","train","false",""
"","","","","","html-keyboard-response","18","41416","0.0-4.0-4.2","5d00d65e6645240019b98b0a","656d9e5e2de4f984cfed7d4d","656d9ef36599eb729c0b0fe0","null","<p> <font color=""red"" size=""5vw""> Wrong category! </font> </p>","null","feedback","","","","","","","0"
"","","","","","html-keyboard-response","19","43702","0.0-4.0-0.3","5d00d65e6645240019b98b0a","656d9e5e2de4f984cfed7d4d","656d9ef36599eb729c0b0fe0","2286","
            
        <div style=""text-align: center; position: fixed; top: 5vh; left: 40vw;"">
            <div style=""margin:0 auto; width: 20vw; top: 8vh; font-size: 2vw""> 
            <font color=""green""> Bonus : $0 </font>
            </div>
        </div>
    
            <div> Please press any key to continue to the next image.</div>
        ","0","ITI","","","","","","",""
"","","","","","html-keyboard-response","20","44316","0.0-4.0-1.3","5d00d65e6645240019b98b0a","656d9e5e2de4f984cfed7d4d","656d9ef36599eb729c0b0fe0","null","
        
        <div style=""text-align: center; position: fixed; top: 5vh; left: 40vw;"">
            <div style=""margin:0 auto; width: 20vw; top: 8vh; font-size: 2vw""> 
            <font color=""green""> Bonus : $0 </font>
            </div>
        </div>
    
        <img class=""stim"" src=./stimuli//pack_shapes_1/cat_1/diff_2/ex_1_2_7.png></img>
    ","null","stimulus","","","","","","",""
"","","","","","html-keyboard-response","21","45325","0.0-4.0-2.3","5d00d65e6645240019b98b0a","656d9e5e2de4f984cfed7d4d","656d9ef36599eb729c0b0fe0","null","
        <div style=""text-align: center; position: fixed; top: 5vh; left: 40vw;"">
            <div style=""margin:0 auto; width: 20vw; top: 8vh; font-size: 2vw""> 
            <font color=""green""> Bonus : $0 </font>
            </div>
        </div>
    ","null","","","","","","","",""
"","","","","","html-keyboard-response","22","45396","0.0-4.0-3.3","5d00d65e6645240019b98b0a","656d9e5e2de4f984cfed7d4d","656d9ef36599eb729c0b0fe0","70","./stimuli//pack_shapes_1/cat_1/diff_2/ex_1_2_7.png","arrowright","response","ArrowLeft","7","1","2","train","false",""
"","","","","","html-keyboard-response","23","46910","0.0-4.0-4.3","5d00d65e6645240019b98b0a","656d9e5e2de4f984cfed7d4d","656d9ef36599eb729c0b0fe0","null","<p> <font color=""red"" size=""5vw""> Wrong category! </font> </p>","null","feedback","","","","","","","0"
"","","","","","html-keyboard-response","24","49641","0.0-4.0-0.4","5d00d65e6645240019b98b0a","656d9e5e2de4f984cfed7d4d","656d9ef36599eb729c0b0fe0","2730","
            
        <div style=""text-align: center; position: fixed; top: 5vh; left: 40vw;"">
            <div style=""margin:0 auto; width: 20vw; top: 8vh; font-size: 2vw""> 
            <font color=""green""> Bonus : $0 </font>
            </div>
        </div>
    
            <div> Please press any key to continue to the next image.</div>
        ","h","ITI","","","","","","",""
"","","","","","html-keyboard-response","25","50255","0.0-4.0-1.4","5d00d65e6645240019b98b0a","656d9e5e2de4f984cfed7d4d","656d9ef36599eb729c0b0fe0","null","
        
        <div style=""text-align: center; position: fixed; top: 5vh; left: 40vw;"">
            <div style=""margin:0 auto; width: 20vw; top: 8vh; font-size: 2vw""> 
            <font color=""green""> Bonus : $0 </font>
            </div>
        </div>
    
        <img class=""stim"" src=./stimuli//pack_shapes_1/cat_1/diff_1/ex_1_1_13.png></img>
    ","null","stimulus","","","","","","",""
"","","","","","html-keyboard-response","26","51266","0.0-4.0-2.4","5d00d65e6645240019b98b0a","656d9e5e2de4f984cfed7d4d","656d9ef36599eb729c0b0fe0","null","
        <div style=""text-align: center; position: fixed; top: 5vh; left: 40vw;"">
            <div style=""margin:0 auto; width: 20vw; top: 8vh; font-size: 2vw""> 
            <font color=""green""> Bonus : $0 </font>
            </div>
        </div>
    ","null","","","","","","","",""
"","","","","","html-keyboard-response","27","52592","0.0-4.0-3.4","5d00d65e6645240019b98b0a","656d9e5e2de4f984cfed7d4d","656d9ef36599eb729c0b0fe0","1325","./stimuli//pack_shapes_1/cat_1/diff_1/ex_1_1_13.png","arrowleft","response","ArrowLeft","13","1","1","train","true",""
"","","","","","html-keyboard-response","28","54107","0.0-4.0-4.4","5d00d65e6645240019b98b0a","656d9e5e2de4f984cfed7d4d","656d9ef36599eb729c0b0fe0","null","<p><font color=""green"" size=""5vw""> Correct category! </font></p>","null","feedback","","","","","","","0"
"","","","","","html-keyboard-response","29","55467","0.0-4.0-0.5","5d00d65e6645240019b98b0a","656d9e5e2de4f984cfed7d4d","656d9ef36599eb729c0b0fe0","1358","
            
        <div style=""text-align: center; position: fixed; top: 5vh; left: 40vw;"">
            <div style=""margin:0 auto; width: 20vw; top: 8vh; font-size: 2vw""> 
            <font color=""green""> Bonus : $0 </font>
            </div>
        </div>
    
            <div> Please press any key to continue to the next image.</div>
        ","h","ITI","","","","","","",""
"","","","","","html-keyboard-response","30","56083","0.0-4.0-1.5","5d00d65e6645240019b98b0a","656d9e5e2de4f984cfed7d4d","656d9ef36599eb729c0b0fe0","null","
        
        <div style=""text-align: center; position: fixed; top: 5vh; left: 40vw;"">
            <div style=""margin:0 auto; width: 20vw; top: 8vh; font-size: 2vw""> 
            <font color=""green""> Bonus : $0 </font>
            </div>
        </div>
    
        <img class=""stim"" src=./stimuli//pack_shapes_1/cat_2/diff_1/ex_2_1_1.png></img>
    ","null","stimulus","","","","","","",""
"","","","","","html-keyboard-response","31","57094","0.0-4.0-2.5","5d00d65e6645240019b98b0a","656d9e5e2de4f984cfed7d4d","656d9ef36599eb729c0b0fe0","null","
        <div style=""text-align: center; position: fixed; top: 5vh; left: 40vw;"">
            <div style=""margin:0 auto; width: 20vw; top: 8vh; font-size: 2vw""> 
            <font color=""green""> Bonus : $0 </font>
            </div>
        </div>
    ","null","","","","","","","",""
"","","","","","html-keyboard-response","32","57523","0.0-4.0-3.5","5d00d65e6645240019b98b0a","656d9e5e2de4f984cfed7d4d","656d9ef36599eb729c0b0fe0","428","./stimuli//pack_shapes_1/cat_2/diff_1/ex_2_1_1.png","arrowright","response","ArrowRight","1","2","1","train","true",""
"","","","","","html-keyboard-response","33","59035","0.0-4.0-4.5","5d00d65e6645240019b98b0a","656d9e5e2de4f984cfed7d4d","656d9ef36599eb729c0b0fe0","null","<p><font color=""green"" size=""5vw""> Correct category! </font></p>","null","feedback","","","","","","","0"
"","","","","","html-keyboard-response","34","60014","0.0-4.0-0.6","5d00d65e6645240019b98b0a","656d9e5e2de4f984cfed7d4d","656d9ef36599eb729c0b0fe0","978","
            
        <div style=""text-align: center; position: fixed; top: 5vh; left: 40vw;"">
            <div style=""margin:0 auto; width: 20vw; top: 8vh; font-size: 2vw""> 
            <font color=""green""> Bonus : $0 </font>
            </div>
        </div>
    
            <div> Please press any key to continue to the next image.</div>
        ","h","ITI","","","","","","",""
"","","","","","html-keyboard-response","35","60616","0.0-4.0-1.6","5d00d65e6645240019b98b0a","656d9e5e2de4f984cfed7d4d","656d9ef36599eb729c0b0fe0","null","
        
        <div style=""text-align: center; position: fixed; top: 5vh; left: 40vw;"">
            <div style=""margin:0 auto; width: 20vw; top: 8vh; font-size: 2vw""> 
            <font color=""green""> Bonus : $0 </font>
            </div>
        </div>
    
        <img class=""stim"" src=./stimuli//pack_shapes_1/cat_2/diff_2/ex_2_2_15.png></img>
    ","null","stimulus","","","","","","",""
"","","","","","html-keyboard-response","36","61619","0.0-4.0-2.6","5d00d65e6645240019b98b0a","656d9e5e2de4f984cfed7d4d","656d9ef36599eb729c0b0fe0","null","
        <div style=""text-align: center; position: fixed; top: 5vh; left: 40vw;"">
            <div style=""margin:0 auto; width: 20vw; top: 8vh; font-size: 2vw""> 
            <font color=""green""> Bonus : $0 </font>
            </div>
        </div>
    ","null","","","","","","","",""
"","","","","","html-keyboard-response","37","61843","0.0-4.0-3.6","5d00d65e6645240019b98b0a","656d9e5e2de4f984cfed7d4d","656d9ef36599eb729c0b0fe0","224","./stimuli//pack_shapes_1/cat_2/diff_2/ex_2_2_15.png","arrowright","response","ArrowRight","15","2","2","train","true",""
"","","","","","html-keyboard-response","38","63356","0.0-4.0-4.6","5d00d65e6645240019b98b0a","656d9e5e2de4f984cfed7d4d","656d9ef36599eb729c0b0fe0","null","<p><font color=""green"" size=""5vw""> Correct category! </font></p>","null","feedback","","","","","","","0"
"","","","","","html-keyboard-response","39","63824","0.0-4.0-0.7","5d00d65e6645240019b98b0a","656d9e5e2de4f984cfed7d4d","656d9ef36599eb729c0b0fe0","467","
            
        <div style=""text-align: center; position: fixed; top: 5vh; left: 40vw;"">
            <div style=""margin:0 auto; width: 20vw; top: 8vh; font-size: 2vw""> 
            <font color=""green""> Bonus : $0 </font>
            </div>
        </div>
    
            <div> Please press any key to continue to the next image.</div>
        "," ","ITI","","","","","","",""
"","","","","","html-keyboard-response","40","64436","0.0-4.0-1.7","5d00d65e6645240019b98b0a","656d9e5e2de4f984cfed7d4d","656d9ef36599eb729c0b0fe0","null","
        
        <div style=""text-align: center; position: fixed; top: 5vh; left: 40vw;"">
            <div style=""margin:0 auto; width: 20vw; top: 8vh; font-size: 2vw""> 
            <font color=""green""> Bonus : $0 </font>
            </div>
        </div>
    
        <img class=""stim"" src=./stimuli//pack_shapes_1/cat_1/diff_2/ex_1_2_17.png></img>
    ","null","stimulus","","","","","","",""
"","","","","","html-keyboard-response","41","65441","0.0-4.0-2.7","5d00d65e6645240019b98b0a","656d9e5e2de4f984cfed7d4d","656d9ef36599eb729c0b0fe0","null","
        <div style=""text-align: center; position: fixed; top: 5vh; left: 40vw;"">
            <div style=""margin:0 auto; width: 20vw; top: 8vh; font-size: 2vw""> 
            <font color=""green""> Bonus : $0 </font>
            </div>
        </div>
    ","null","","","","","","","",""
"","","","","","html-keyboard-response","42","65984","0.0-4.0-3.7","5d00d65e6645240019b98b0a","656d9e5e2de4f984cfed7d4d","656d9ef36599eb729c0b0fe0","542","./stimuli//pack_shapes_1/cat_1/diff_2/ex_1_2_17.png","arrowleft","response","ArrowLeft","17","1","2","train","true",""
"","","","","","html-keyboard-response","43","67498","0.0-4.0-4.7","5d00d65e6645240019b98b0a","656d9e5e2de4f984cfed7d4d","656d9ef36599eb729c0b0fe0","null","<p><font color=""green"" size=""5vw""> Correct category! </font></p>","null","feedback","","","","","","","0"
"","","","","","html-keyboard-response","44","68448","0.0-4.0-0.8","5d00d65e6645240019b98b0a","656d9e5e2de4f984cfed7d4d","656d9ef36599eb729c0b0fe0","949","
            
        <div style=""text-align: center; position: fixed; top: 5vh; left: 40vw;"">
            <div style=""margin:0 auto; width: 20vw; top: 8vh; font-size: 2vw""> 
            <font color=""green""> Bonus : $0 </font>
            </div>
        </div>
    
            <div> Please press any key to continue to the next image.</div>
        ","h","ITI","","","","","","",""
"","","","","","html-keyboard-response","45","69066","0.0-4.0-1.8","5d00d65e6645240019b98b0a","656d9e5e2de4f984cfed7d4d","656d9ef36599eb729c0b0fe0","null","
        
        <div style=""text-align: center; position: fixed; top: 5vh; left: 40vw;"">
            <div style=""margin:0 auto; width: 20vw; top: 8vh; font-size: 2vw""> 
            <font color=""green""> Bonus : $0 </font>
            </div>
        </div>
    
        <img class=""stim"" src=./stimuli//pack_shapes_1/cat_1/diff_1/ex_1_1_6.png></img>
    ","null","stimulus","","","","","","",""
"","","","","","html-keyboard-response","46","70072","0.0-4.0-2.8","5d00d65e6645240019b98b0a","656d9e5e2de4f984cfed7d4d","656d9ef36599eb729c0b0fe0","null","
        <div style=""text-align: center; position: fixed; top: 5vh; left: 40vw;"">
            <div style=""margin:0 auto; width: 20vw; top: 8vh; font-size: 2vw""> 
            <font color=""green""> Bonus : $0 </font>
            </div>
        </div>
    ","null","","","","","","","",""
"","","","","","html-keyboard-response","47","70283","0.0-4.0-3.8","5d00d65e6645240019b98b0a","656d9e5e2de4f984cfed7d4d","656d9ef36599eb729c0b0fe0","211","./stimuli//pack_shapes_1/cat_1/diff_1/ex_1_1_6.png","arrowleft","response","ArrowLeft","6","1","1","train","true",""
"","","","","","html-keyboard-response","48","71798","0.0-4.0-4.8","5d00d65e6645240019b98b0a","656d9e5e2de4f984cfed7d4d","656d9ef36599eb729c0b0fe0","null","<p><font color=""green"" size=""5vw""> Correct category! </font></p>","null","feedback","","","","","","","0"
"","","","","","html-keyboard-response","49","72654","0.0-4.0-0.9","5d00d65e6645240019b98b0a","656d9e5e2de4f984cfed7d4d","656d9ef36599eb729c0b0fe0","855","
            
        <div style=""text-align: center; position: fixed; top: 5vh; left: 40vw;"">
            <div style=""margin:0 auto; width: 20vw; top: 8vh; font-size: 2vw""> 
            <font color=""green""> Bonus : $0 </font>
            </div>
        </div>
    
            <div> Please press any key to continue to the next image.</div>
        ","h","ITI","","","","","","",""
"","","","","","html-keyboard-response","50","73259","0.0-4.0-1.9","5d00d65e6645240019b98b0a","656d9e5e2de4f984cfed7d4d","656d9ef36599eb729c0b0fe0","null","
        
        <div style=""text-align: center; position: fixed; top: 5vh; left: 40vw;"">
            <div style=""margin:0 auto; width: 20vw; top: 8vh; font-size: 2vw""> 
            <font color=""green""> Bonus : $0 </font>
            </div>
        </div>
    
        <img class=""stim"" src=./stimuli//pack_shapes_1/cat_2/diff_2/ex_2_2_13.png></img>
    ","null","stimulus","","","","","","",""
"","","","","","html-keyboard-response","51","74282","0.0-4.0-2.9","5d00d65e6645240019b98b0a","656d9e5e2de4f984cfed7d4d","656d9ef36599eb729c0b0fe0","null","
        <div style=""text-align: center; position: fixed; top: 5vh; left: 40vw;"">
            <div style=""margin:0 auto; width: 20vw; top: 8vh; font-size: 2vw""> 
            <font color=""green""> Bonus : $0 </font>
            </div>
        </div>
    ","null","","","","","","","",""
"","","","","","html-keyboard-response","52","74602","0.0-4.0-3.9","5d00d65e6645240019b98b0a","656d9e5e2de4f984cfed7d4d","656d9ef36599eb729c0b0fe0","319","./stimuli//pack_shapes_1/cat_2/diff_2/ex_2_2_13.png","arrowright","response","ArrowRight","13","2","2","train","true",""
"","","","","","html-keyboard-response","53","76112","0.0-4.0-4.9","5d00d65e6645240019b98b0a","656d9e5e2de4f984cfed7d4d","656d9ef36599eb729c0b0fe0","null","<p><font color=""green"" size=""5vw""> Correct category! </font></p>","null","feedback","","","","","","","0"
"","","","","","html-keyboard-response","54","80879","0.0-5.0","5d00d65e6645240019b98b0a","656d9e5e2de4f984cfed7d4d","656d9ef36599eb729c0b0fe0","4766","
            <b> <p> The practice round has finished.</p>
            <p> For the rest of the experiment you will receive a $0.05 bonus for each correct answer and lose $0.05 from your bonus for each incorrect answer!</p>
            <p> The bonus can not become less than $0. </b>
            <p> Press any key to begin the test. </p>
            ","p","intermission","","","","","","",""
"","","","","","html-keyboard-response","55","85176","0.0-6.0-0.0","5d00d65e6645240019b98b0a","656d9e5e2de4f984cfed7d4d","656d9ef36599eb729c0b0fe0","4296","
            
        <div style=""text-align: center; position: fixed; top: 5vh; left: 40vw;"">
            <div style=""margin:0 auto; width: 20vw; top: 8vh; font-size: 2vw""> 
            <font color=""green""> Bonus : $0 </font>
            </div>
        </div>
    
            <div> Please press any key to continue to the next image.</div>
        "," ","ITI","","","","","","",""
"","","","","","html-keyboard-response","56","85782","0.0-6.0-1.0","5d00d65e6645240019b98b0a","656d9e5e2de4f984cfed7d4d","656d9ef36599eb729c0b0fe0","null","
        
        <div style=""text-align: center; position: fixed; top: 5vh; left: 40vw;"">
            <div style=""margin:0 auto; width: 20vw; top: 8vh; font-size: 2vw""> 
            <font color=""green""> Bonus : $0 </font>
            </div>
        </div>
    
        <img class=""stim"" src=./stimuli//pack_shapes_1/cat_2/diff_1/ex_2_1_7.png></img>
    ","null","stimulus","","","","","","",""
"","","","","","html-keyboard-response","57","86795","0.0-6.0-2.0","5d00d65e6645240019b98b0a","656d9e5e2de4f984cfed7d4d","656d9ef36599eb729c0b0fe0","null","
        <div style=""text-align: center; position: fixed; top: 5vh; left: 40vw;"">
            <div style=""margin:0 auto; width: 20vw; top: 8vh; font-size: 2vw""> 
            <font color=""green""> Bonus : $0 </font>
            </div>
        </div>
    ","null","","","","","","","",""
"","","","","","html-keyboard-response","58","86953","0.0-6.0-3.0","5d00d65e6645240019b98b0a","656d9e5e2de4f984cfed7d4d","656d9ef36599eb729c0b0fe0","157","./stimuli//pack_shapes_1/cat_2/diff_1/ex_2_1_7.png","arrowright","response","ArrowRight","7","2","1","test","true",""
"","","","","","html-keyboard-response","59","88461","0.0-6.0-4.0","5d00d65e6645240019b98b0a","656d9e5e2de4f984cfed7d4d","656d9ef36599eb729c0b0fe0","null","<p> <font color=""green"" size=""5vw""> Correct category! </font> <br> <br> <font color=""green"" size=""8vw""> + $0.05 </font> </p>","null","feedback","","","","","","","0.05"
"","","","","","html-keyboard-response","60","89992","0.0-6.1-0.1","5d00d65e6645240019b98b0a","656d9e5e2de4f984cfed7d4d","656d9ef36599eb729c0b0fe0","1531","
            
        <div style=""text-align: center; position: fixed; top: 5vh; left: 40vw;"">
            <div style=""margin:0 auto; width: 20vw; top: 8vh; font-size: 2vw""> 
            <font color=""green""> Bonus : $0.05 </font>
            </div>
        </div>
    
            <div> Please press any key to continue to the next image.</div>
        ","arrowup","ITI","","","","","","",""
"","","","","","html-keyboard-response","61","90594","0.0-6.1-1.1","5d00d65e6645240019b98b0a","656d9e5e2de4f984cfed7d4d","656d9ef36599eb729c0b0fe0","null","
        
        <div style=""text-align: center; position: fixed; top: 5vh; left: 40vw;"">
            <div style=""margin:0 auto; width: 20vw; top: 8vh; font-size: 2vw""> 
            <font color=""green""> Bonus : $0.05 </font>
            </div>
        </div>
    
        <img class=""stim"" src=./stimuli//pack_shapes_1/cat_1/diff_1/ex_1_1_10.png></img>
    ","null","stimulus","","","","","","",""
"","","","","","html-keyboard-response","62","91603","0.0-6.1-2.1","5d00d65e6645240019b98b0a","656d9e5e2de4f984cfed7d4d","656d9ef36599eb729c0b0fe0","null","
        <div style=""text-align: center; position: fixed; top: 5vh; left: 40vw;"">
            <div style=""margin:0 auto; width: 20vw; top: 8vh; font-size: 2vw""> 
            <font color=""green""> Bonus : $0.05 </font>
            </div>
        </div>
    ","null","","","","","","","",""
"","","","","","html-keyboard-response","63","91926","0.0-6.1-3.1","5d00d65e6645240019b98b0a","656d9e5e2de4f984cfed7d4d","656d9ef36599eb729c0b0fe0","322","./stimuli//pack_shapes_1/cat_1/diff_1/ex_1_1_10.png","arrowleft","response","ArrowLeft","10","1","1","test","true",""
"","","","","","html-keyboard-response","64","93441","0.0-6.1-4.1","5d00d65e6645240019b98b0a","656d9e5e2de4f984cfed7d4d","656d9ef36599eb729c0b0fe0","null","<p> <font color=""green"" size=""5vw""> Correct category! </font> <br> <br> <font color=""green"" size=""8vw""> + $0.05 </font> </p>","null","feedback","","","","","","","0.1"
"","","","","","html-keyboard-response","65","94581","0.0-6.2-0.2","5d00d65e6645240019b98b0a","656d9e5e2de4f984cfed7d4d","656d9ef36599eb729c0b0fe0","1139","
            
        <div style=""text-align: center; position: fixed; top: 5vh; left: 40vw;"">
            <div style=""margin:0 auto; width: 20vw; top: 8vh; font-size: 2vw""> 
            <font color=""green""> Bonus : $0.1 </font>
            </div>
        </div>
    
            <div> Please press any key to continue to the next image.</div>
        ","arrowleft","ITI","","","","","","",""
"","","","","","html-keyboard-response","66","95185","0.0-6.2-1.2","5d00d65e6645240019b98b0a","656d9e5e2de4f984cfed7d4d","656d9ef36599eb729c0b0fe0","null","
        
        <div style=""text-align: center; position: fixed; top: 5vh; left: 40vw;"">
            <div style=""margin:0 auto; width: 20vw; top: 8vh; font-size: 2vw""> 
            <font color=""green""> Bonus : $0.1 </font>
            </div>
        </div>
    
        <img class=""stim"" src=./stimuli//pack_shapes_1/cat_1/diff_1/ex_1_1_11.png></img>
    ","null","stimulus","","","","","","",""
"","","","","","html-keyboard-response","67","96193","0.0-6.2-2.2","5d00d65e6645240019b98b0a","656d9e5e2de4f984cfed7d4d","656d9ef36599eb729c0b0fe0","null","
        <div style=""text-align: center; position: fixed; top: 5vh; left: 40vw;"">
            <div style=""margin:0 auto; width: 20vw; top: 8vh; font-size: 2vw""> 
            <font color=""green""> Bonus : $0.1 </font>
            </div>
        </div>
    ","null","","","","","","","",""
"","","","","","html-keyboard-response","68","96741","0.0-6.2-3.2","5d00d65e6645240019b98b0a","656d9e5e2de4f984cfed7d4d","656d9ef36599eb729c0b0fe0","547","./stimuli//pack_shapes_1/cat_1/diff_1/ex_1_1_11.png","arrowleft","response","ArrowLeft","11","1","1","test","true",""
"","","","","","html-keyboard-response","69","98256","0.0-6.2-4.2","5d00d65e6645240019b98b0a","656d9e5e2de4f984cfed7d4d","656d9ef36599eb729c0b0fe0","null","<p> <font color=""green"" size=""5vw""> Correct category! </font> <br> <br> <font color=""green"" size=""8vw""> + $0.05 </font> </p>","null","feedback","","","","","","","0.15"
"","","","","","html-keyboard-response","70","99660","0.0-6.3-0.3","5d00d65e6645240019b98b0a","656d9e5e2de4f984cfed7d4d","656d9ef36599eb729c0b0fe0","1404","
            
        <div style=""text-align: center; position: fixed; top: 5vh; left: 40vw;"">
            <div style=""margin:0 auto; width: 20vw; top: 8vh; font-size: 2vw""> 
            <font color=""green""> Bonus : $0.15 </font>
            </div>
        </div>
    
            <div> Please press any key to continue to the next image.</div>
        ","m","ITI","","","","","","",""
"","","","","","html-keyboard-response","71","100262","0.0-6.3-1.3","5d00d65e6645240019b98b0a","656d9e5e2de4f984cfed7d4d","656d9ef36599eb729c0b0fe0","null","
        
        <div style=""text-align: center; position: fixed; top: 5vh; left: 40vw;"">
            <div style=""margin:0 auto; width: 20vw; top: 8vh; font-size: 2vw""> 
            <font color=""green""> Bonus : $0.15 </font>
            </div>
        </div>
    
        <img class=""stim"" src=./stimuli//pack_shapes_1/cat_1/diff_1/ex_1_1_12.png></img>
    ","null","stimulus","","","","","","",""
"","","","","","html-keyboard-response","72","101263","0.0-6.3-2.3","5d00d65e6645240019b98b0a","656d9e5e2de4f984cfed7d4d","656d9ef36599eb729c0b0fe0","null","
        <div style=""text-align: center; position: fixed; top: 5vh; left: 40vw;"">
            <div style=""margin:0 auto; width: 20vw; top: 8vh; font-size: 2vw""> 
            <font color=""green""> Bonus : $0.15 </font>
            </div>
        </div>
    ","null","","","","","","","",""
"","","","","","html-keyboard-response","73","101804","0.0-6.3-3.3","5d00d65e6645240019b98b0a","656d9e5e2de4f984cfed7d4d","656d9ef36599eb729c0b0fe0","541","./stimuli//pack_shapes_1/cat_1/diff_1/ex_1_1_12.png","arrowleft","response","ArrowLeft","12","1","1","test","true",""
"","","","","","html-keyboard-response","74","103312","0.0-6.3-4.3","5d00d65e6645240019b98b0a","656d9e5e2de4f984cfed7d4d","656d9ef36599eb729c0b0fe0","null","<p> <font color=""green"" size=""5vw""> Correct category! </font> <br> <br> <font color=""green"" size=""8vw""> + $0.05 </font> </p>","null","feedback","","","","","","","0.2"
"","","","","","html-keyboard-response","75","105045","0.0-6.4-0.4","5d00d65e6645240019b98b0a","656d9e5e2de4f984cfed7d4d","656d9ef36599eb729c0b0fe0","1732","
            
        <div style=""text-align: center; position: fixed; top: 5vh; left: 40vw;"">
            <div style=""margin:0 auto; width: 20vw; top: 8vh; font-size: 2vw""> 
            <font color=""green""> Bonus : $0.2 </font>
            </div>
        </div>
    
            <div> Please press any key to continue to the next image.</div>
        ","arrowleft","ITI","","","","","","",""
"","","","","","html-keyboard-response","76","105648","0.0-6.4-1.4","5d00d65e6645240019b98b0a","656d9e5e2de4f984cfed7d4d","656d9ef36599eb729c0b0fe0","null","
        
        <div style=""text-align: center; position: fixed; top: 5vh; left: 40vw;"">
            <div style=""margin:0 auto; width: 20vw; top: 8vh; font-size: 2vw""> 
            <font color=""green""> Bonus : $0.2 </font>
            </div>
        </div>
    
        <img class=""stim"" src=./stimuli//pack_shapes_1/cat_2/diff_1/ex_2_1_4.png></img>
    ","null","stimulus","","","","","","",""
"","","","","","html-keyboard-response","77","106659","0.0-6.4-2.4","5d00d65e6645240019b98b0a","656d9e5e2de4f984cfed7d4d","656d9ef36599eb729c0b0fe0","null","
        <div style=""text-align: center; position: fixed; top: 5vh; left: 40vw;"">
            <div style=""margin:0 auto; width: 20vw; top: 8vh; font-size: 2vw""> 
            <font color=""green""> Bonus : $0.2 </font>
            </div>
        </div>
    ","null","","","","","","","",""
"","","","","","html-keyboard-response","78","106686","0.0-6.4-3.4","5d00d65e6645240019b98b0a","656d9e5e2de4f984cfed7d4d","656d9ef36599eb729c0b0fe0","26","./stimuli//pack_shapes_1/cat_2/diff_1/ex_2_1_4.png","arrowright","response","ArrowRight","4","2","1","test","true",""
"","","","","","html-keyboard-response","79","108201","0.0-6.4-4.4","5d00d65e6645240019b98b0a","656d9e5e2de4f984cfed7d4d","656d9ef36599eb729c0b0fe0","null","<p> <font color=""green"" size=""5vw""> Correct category! </font> <br> <br> <font color=""green"" size=""8vw""> + $0.05 </font> </p>","null","feedback","","","","","","","0.25"
"","","","","","html-keyboard-response","80","109751","0.0-6.5-0.5","5d00d65e6645240019b98b0a","656d9e5e2de4f984cfed7d4d","656d9ef36599eb729c0b0fe0","1549","
            
        <div style=""text-align: center; position: fixed; top: 5vh; left: 40vw;"">
            <div style=""margin:0 auto; width: 20vw; top: 8vh; font-size: 2vw""> 
            <font color=""green""> Bonus : $0.25 </font>
            </div>
        </div>
    
            <div> Please press any key to continue to the next image.</div>
        ","arrowleft","ITI","","","","","","",""
"","","","","","html-keyboard-response","81","110380","0.0-6.5-1.5","5d00d65e6645240019b98b0a","656d9e5e2de4f984cfed7d4d","656d9ef36599eb729c0b0fe0","null","
        
        <div style=""text-align: center; position: fixed; top: 5vh; left: 40vw;"">
            <div style=""margin:0 auto; width: 20vw; top: 8vh; font-size: 2vw""> 
            <font color=""green""> Bonus : $0.25 </font>
            </div>
        </div>
    
        <img class=""stim"" src=./stimuli//pack_shapes_1/cat_2/diff_2/ex_2_2_7.png></img>
    ","null","stimulus","","","","","","",""
"","","","","","html-keyboard-response","82","111388","0.0-6.5-2.5","5d00d65e6645240019b98b0a","656d9e5e2de4f984cfed7d4d","656d9ef36599eb729c0b0fe0","null","
        <div style=""text-align: center; position: fixed; top: 5vh; left: 40vw;"">
            <div style=""margin:0 auto; width: 20vw; top: 8vh; font-size: 2vw""> 
            <font color=""green""> Bonus : $0.25 </font>
            </div>
        </div>
    ","null","","","","","","","",""
"","","","","","html-keyboard-response","83","111793","0.0-6.5-3.5","5d00d65e6645240019b98b0a","656d9e5e2de4f984cfed7d4d","656d9ef36599eb729c0b0fe0","405","./stimuli//pack_shapes_1/cat_2/diff_2/ex_2_2_7.png","arrowright","response","ArrowRight","7","2","2","test","true",""
"","","","","","html-keyboard-response","84","113306","0.0-6.5-4.5","5d00d65e6645240019b98b0a","656d9e5e2de4f984cfed7d4d","656d9ef36599eb729c0b0fe0","null","<p> <font color=""green"" size=""5vw""> Correct category! </font> <br> <br> <font color=""green"" size=""8vw""> + $0.05 </font> </p>","null","feedback","","","","","","","0.3"
"","","","","","html-keyboard-response","85","114194","0.0-6.6-0.6","5d00d65e6645240019b98b0a","656d9e5e2de4f984cfed7d4d","656d9ef36599eb729c0b0fe0","887","
            
        <div style=""text-align: center; position: fixed; top: 5vh; left: 40vw;"">
            <div style=""margin:0 auto; width: 20vw; top: 8vh; font-size: 2vw""> 
            <font color=""green""> Bonus : $0.3 </font>
            </div>
        </div>
    
            <div> Please press any key to continue to the next image.</div>
        ","arrowleft","ITI","","","","","","",""
"","","","","","html-keyboard-response","86","114799","0.0-6.6-1.6","5d00d65e6645240019b98b0a","656d9e5e2de4f984cfed7d4d","656d9ef36599eb729c0b0fe0","null","
        
        <div style=""text-align: center; position: fixed; top: 5vh; left: 40vw;"">
            <div style=""margin:0 auto; width: 20vw; top: 8vh; font-size: 2vw""> 
            <font color=""green""> Bonus : $0.3 </font>
            </div>
        </div>
    
        <img class=""stim"" src=./stimuli//pack_shapes_1/cat_1/diff_2/ex_1_2_14.png></img>
    ","null","stimulus","","","","","","",""
"","","","","","html-keyboard-response","87","115806","0.0-6.6-2.6","5d00d65e6645240019b98b0a","656d9e5e2de4f984cfed7d4d","656d9ef36599eb729c0b0fe0","null","
        <div style=""text-align: center; position: fixed; top: 5vh; left: 40vw;"">
            <div style=""margin:0 auto; width: 20vw; top: 8vh; font-size: 2vw""> 
            <font color=""green""> Bonus : $0.3 </font>
            </div>
        </div>
    ","null","","","","","","","",""
"","","","","","html-keyboard-response","88","116091","0.0-6.6-3.6","5d00d65e6645240019b98b0a","656d9e5e2de4f984cfed7d4d","656d9ef36599eb729c0b0fe0","284","./stimuli//pack_shapes_1/cat_1/diff_2/ex_1_2_14.png","arrowleft","response","ArrowLeft","14","1","2","test","true",""
"","","","","","html-keyboard-response","89","117307","0.0-6.6-4.6","5d00d65e6645240019b98b0a","656d9e5e2de4f984cfed7d4d","656d9ef36599eb729c0b0fe0","1215","<p> <font color=""green"" size=""5vw""> Correct category! </font> <br> <br> <font color=""green"" size=""8vw""> + $0.05 </font> </p>","arrowleft","feedback","","","","","","","0.35"
"","","","","","html-keyboard-response","90","117735","0.0-6.7-0.7","5d00d65e6645240019b98b0a","656d9e5e2de4f984cfed7d4d","656d9ef36599eb729c0b0fe0","427","
            
        <div style=""text-align: center; position: fixed; top: 5vh; left: 40vw;"">
            <div style=""margin:0 auto; width: 20vw; top: 8vh; font-size: 2vw""> 
            <font color=""green""> Bonus : $0.35 </font>
            </div>
        </div>
    
            <div> Please press any key to continue to the next image.</div>
        ","arrowleft","ITI","","","","","","",""
"","","","","","html-keyboard-response","91","118347","0.0-6.7-1.7","5d00d65e6645240019b98b0a","656d9e5e2de4f984cfed7d4d","656d9ef36599eb729c0b0fe0","null","
        
        <div style=""text-align: center; position: fixed; top: 5vh; left: 40vw;"">
            <div style=""margin:0 auto; width: 20vw; top: 8vh; font-size: 2vw""> 
            <font color=""green""> Bonus : $0.35 </font>
            </div>
        </div>
    
        <img class=""stim"" src=./stimuli//pack_shapes_1/cat_1/diff_2/ex_1_2_10.png></img>
    ","null","stimulus","","","","","","",""
"","","","","","html-keyboard-response","92","119354","0.0-6.7-2.7","5d00d65e6645240019b98b0a","656d9e5e2de4f984cfed7d4d","656d9ef36599eb729c0b0fe0","null","
        <div style=""text-align: center; position: fixed; top: 5vh; left: 40vw;"">
            <div style=""margin:0 auto; width: 20vw; top: 8vh; font-size: 2vw""> 
            <font color=""green""> Bonus : $0.35 </font>
            </div>
        </div>
    ","null","","","","","","","",""
"","","","","","html-keyboard-response","93","119466","0.0-6.7-3.7","5d00d65e6645240019b98b0a","656d9e5e2de4f984cfed7d4d","656d9ef36599eb729c0b0fe0","111","./stimuli//pack_shapes_1/cat_1/diff_2/ex_1_2_10.png","arrowleft","response","ArrowLeft","10","1","2","test","true",""
"","","","","","html-keyboard-response","94","119601","0.0-6.7-4.7","5d00d65e6645240019b98b0a","656d9e5e2de4f984cfed7d4d","656d9ef36599eb729c0b0fe0","135","<p> <font color=""green"" size=""5vw""> Correct category! </font> <br> <br> <font color=""green"" size=""8vw""> + $0.05 </font> </p>","arrowleft","feedback","","","","","","","0.4"
"","","","","","html-keyboard-response","95","120321","0.0-6.8-0.8","5d00d65e6645240019b98b0a","656d9e5e2de4f984cfed7d4d","656d9ef36599eb729c0b0fe0","719","
            
        <div style=""text-align: center; position: fixed; top: 5vh; left: 40vw;"">
            <div style=""margin:0 auto; width: 20vw; top: 8vh; font-size: 2vw""> 
            <font color=""green""> Bonus : $0.4 </font>
            </div>
        </div>
    
            <div> Please press any key to continue to the next image.</div>
        ","arrowleft","ITI","","","","","","",""
"","","","","","html-keyboard-response","96","120923","0.0-6.8-1.8","5d00d65e6645240019b98b0a","656d9e5e2de4f984cfed7d4d","656d9ef36599eb729c0b0fe0","null","
        
        <div style=""text-align: center; position: fixed; top: 5vh; left: 40vw;"">
            <div style=""margin:0 auto; width: 20vw; top: 8vh; font-size: 2vw""> 
            <font color=""green""> Bonus : $0.4 </font>
            </div>
        </div>
    
        <img class=""stim"" src=./stimuli//pack_shapes_1/cat_2/diff_2/ex_2_2_8.png></img>
    ","null","stimulus","","","","","","",""
"","","","","","html-keyboard-response","97","121930","0.0-6.8-2.8","5d00d65e6645240019b98b0a","656d9e5e2de4f984cfed7d4d","656d9ef36599eb729c0b0fe0","null","
        <div style=""text-align: center; position: fixed; top: 5vh; left: 40vw;"">
            <div style=""margin:0 auto; width: 20vw; top: 8vh; font-size: 2vw""> 
            <font color=""green""> Bonus : $0.4 </font>
            </div>
        </div>
    ","null","","","","","","","",""
"","","","","","html-keyboard-response","98","122212","0.0-6.8-3.8","5d00d65e6645240019b98b0a","656d9e5e2de4f984cfed7d4d","656d9ef36599eb729c0b0fe0","281","./stimuli//pack_shapes_1/cat_2/diff_2/ex_2_2_8.png","arrowright","response","ArrowRight","8","2","2","test","true",""
"","","","","","html-keyboard-response","99","122931","0.0-6.8-4.8","5d00d65e6645240019b98b0a","656d9e5e2de4f984cfed7d4d","656d9ef36599eb729c0b0fe0","717","<p> <font color=""green"" size=""5vw""> Correct category! </font> <br> <br> <font color=""green"" size=""8vw""> + $0.05 </font> </p>","arrowright","feedback","","","","","","","0.45"
"","","","","","html-keyboard-response","100","123605","0.0-6.9-0.9","5d00d65e6645240019b98b0a","656d9e5e2de4f984cfed7d4d","656d9ef36599eb729c0b0fe0","674","
            
        <div style=""text-align: center; position: fixed; top: 5vh; left: 40vw;"">
            <div style=""margin:0 auto; width: 20vw; top: 8vh; font-size: 2vw""> 
            <font color=""green""> Bonus : $0.45 </font>
            </div>
        </div>
    
            <div> Please press any key to continue to the next image.</div>
        ","arrowleft","ITI","","","","","","",""
"","","","","","html-keyboard-response","101","124213","0.0-6.9-1.9","5d00d65e6645240019b98b0a","656d9e5e2de4f984cfed7d4d","656d9ef36599eb729c0b0fe0","null","
        
        <div style=""text-align: center; position: fixed; top: 5vh; left: 40vw;"">
            <div style=""margin:0 auto; width: 20vw; top: 8vh; font-size: 2vw""> 
            <font color=""green""> Bonus : $0.45 </font>
            </div>
        </div>
    
        <img class=""stim"" src=./stimuli//pack_shapes_1/cat_2/diff_2/ex_2_2_3.png></img>
    ","null","stimulus","","","","","","",""
"","","","","","html-keyboard-response","102","125222","0.0-6.9-2.9","5d00d65e6645240019b98b0a","656d9e5e2de4f984cfed7d4d","656d9ef36599eb729c0b0fe0","null","
        <div style=""text-align: center; position: fixed; top: 5vh; left: 40vw;"">
            <div style=""margin:0 auto; width: 20vw; top: 8vh; font-size: 2vw""> 
            <font color=""green""> Bonus : $0.45 </font>
            </div>
        </div>
    ","null","","","","","","","",""
"","","","","","html-keyboard-response","103","125541","0.0-6.9-3.9","5d00d65e6645240019b98b0a","656d9e5e2de4f984cfed7d4d","656d9ef36599eb729c0b0fe0","318","./stimuli//pack_shapes_1/cat_2/diff_2/ex_2_2_3.png","arrowright","response","ArrowRight","3","2","2","test","true",""
"","","","","","html-keyboard-response","104","126351","0.0-6.9-4.9","5d00d65e6645240019b98b0a","656d9e5e2de4f984cfed7d4d","656d9ef36599eb729c0b0fe0","809","<p> <font color=""green"" size=""5vw""> Correct category! </font> <br> <br> <font color=""green"" size=""8vw""> + $0.05 </font> </p>","arrowleft","feedback","","","","","","","0.5"
"","","","","","html-keyboard-response","105","126868","0.0-6.10-0.10","5d00d65e6645240019b98b0a","656d9e5e2de4f984cfed7d4d","656d9ef36599eb729c0b0fe0","516","
            
        <div style=""text-align: center; position: fixed; top: 5vh; left: 40vw;"">
            <div style=""margin:0 auto; width: 20vw; top: 8vh; font-size: 2vw""> 
            <font color=""green""> Bonus : $0.5 </font>
            </div>
        </div>
    
            <div> Please press any key to continue to the next image.</div>
        ","arrowleft","ITI","","","","","","",""
"","","","","","html-keyboard-response","106","127505","0.0-6.10-1.10","5d00d65e6645240019b98b0a","656d9e5e2de4f984cfed7d4d","656d9ef36599eb729c0b0fe0","null","
        
        <div style=""text-align: center; position: fixed; top: 5vh; left: 40vw;"">
            <div style=""margin:0 auto; width: 20vw; top: 8vh; font-size: 2vw""> 
            <font color=""green""> Bonus : $0.5 </font>
            </div>
        </div>
    
        <img class=""stim"" src=./stimuli//pack_shapes_1/cat_2/diff_3/ex_2_3_13.png></img>
    ","null","stimulus","","","","","","",""
"","","","","","html-keyboard-response","107","128506","0.0-6.10-2.10","5d00d65e6645240019b98b0a","656d9e5e2de4f984cfed7d4d","656d9ef36599eb729c0b0fe0","null","
        <div style=""text-align: center; position: fixed; top: 5vh; left: 40vw;"">
            <div style=""margin:0 auto; width: 20vw; top: 8vh; font-size: 2vw""> 
            <font color=""green""> Bonus : $0.5 </font>
            </div>
        </div>
    ","null","","","","","","","",""
"","","","","","html-keyboard-response","108","128646","0.0-6.10-3.10","5d00d65e6645240019b98b0a","656d9e5e2de4f984cfed7d4d","656d9ef36599eb729c0b0fe0","139","./stimuli//pack_shapes_1/cat_2/diff_3/ex_2_3_13.png","arrowright","response","ArrowRight","13","2","3","test","true",""
"","","","","","html-keyboard-response","109","129073","0.0-6.10-4.10","5d00d65e6645240019b98b0a","656d9e5e2de4f984cfed7d4d","656d9ef36599eb729c0b0fe0","427","<p> <font color=""green"" size=""5vw""> Correct category! </font> <br> <br> <font color=""green"" size=""8vw""> + $0.05 </font> </p>","arrowright","feedback","","","","","","","0.55"
"","","","","","html-keyboard-response","110","129838","0.0-6.11-0.11","5d00d65e6645240019b98b0a","656d9e5e2de4f984cfed7d4d","656d9ef36599eb729c0b0fe0","764","
            
        <div style=""text-align: center; position: fixed; top: 5vh; left: 40vw;"">
            <div style=""margin:0 auto; width: 20vw; top: 8vh; font-size: 2vw""> 
            <font color=""green""> Bonus : $0.55 </font>
            </div>
        </div>
    
            <div> Please press any key to continue to the next image.</div>
        ","arrowleft","ITI","","","","","","",""
"","","","","","html-keyboard-response","111","130455","0.0-6.11-1.11","5d00d65e6645240019b98b0a","656d9e5e2de4f984cfed7d4d","656d9ef36599eb729c0b0fe0","null","
        
        <div style=""text-align: center; position: fixed; top: 5vh; left: 40vw;"">
            <div style=""margin:0 auto; width: 20vw; top: 8vh; font-size: 2vw""> 
            <font color=""green""> Bonus : $0.55 </font>
            </div>
        </div>
    
        <img class=""stim"" src=./stimuli//pack_shapes_1/cat_1/diff_3/ex_1_3_15.png></img>
    ","null","stimulus","","","","","","",""
"","","","","","html-keyboard-response","112","131458","0.0-6.11-2.11","5d00d65e6645240019b98b0a","656d9e5e2de4f984cfed7d4d","656d9ef36599eb729c0b0fe0","null","
        <div style=""text-align: center; position: fixed; top: 5vh; left: 40vw;"">
            <div style=""margin:0 auto; width: 20vw; top: 8vh; font-size: 2vw""> 
            <font color=""green""> Bonus : $0.55 </font>
            </div>
        </div>
    ","null","","","","","","","",""
"","","","","","html-keyboard-response","113","131662","0.0-6.11-3.11","5d00d65e6645240019b98b0a","656d9e5e2de4f984cfed7d4d","656d9ef36599eb729c0b0fe0","202","./stimuli//pack_shapes_1/cat_1/diff_3/ex_1_3_15.png","arrowleft","response","ArrowLeft","15","1","3","test","true",""
"","","","","","html-keyboard-response","114","132472","0.0-6.11-4.11","5d00d65e6645240019b98b0a","656d9e5e2de4f984cfed7d4d","656d9ef36599eb729c0b0fe0","809","<p> <font color=""green"" size=""5vw""> Correct category! </font> <br> <br> <font color=""green"" size=""8vw""> + $0.05 </font> </p>","arrowleft","feedback","","","","","","","0.6"
"","","","","","html-keyboard-response","115","137238","0.0-6.12-0.12","5d00d65e6645240019b98b0a","656d9e5e2de4f984cfed7d4d","656d9ef36599eb729c0b0fe0","4765","
            
        <div style=""text-align: center; position: fixed; top: 5vh; left: 40vw;"">
            <div style=""margin:0 auto; width: 20vw; top: 8vh; font-size: 2vw""> 
            <font color=""green""> Bonus : $0.6 </font>
            </div>
        </div>
    
            <div> Please press any key to continue to the next image.</div>
        ","arrowleft","ITI","","","","","","",""
"","","","","","html-keyboard-response","116","137839","0.0-6.12-1.12","5d00d65e6645240019b98b0a","656d9e5e2de4f984cfed7d4d","656d9ef36599eb729c0b0fe0","null","
        
        <div style=""text-align: center; position: fixed; top: 5vh; left: 40vw;"">
            <div style=""margin:0 auto; width: 20vw; top: 8vh; font-size: 2vw""> 
            <font color=""green""> Bonus : $0.6 </font>
            </div>
        </div>
    
        <img class=""stim"" src=./stimuli//pack_shapes_1/cat_2/diff_3/ex_2_3_3.png></img>
    ","null","stimulus","","","","","","",""
"","","","","","html-keyboard-response","117","138850","0.0-6.12-2.12","5d00d65e6645240019b98b0a","656d9e5e2de4f984cfed7d4d","656d9ef36599eb729c0b0fe0","null","
        <div style=""text-align: center; position: fixed; top: 5vh; left: 40vw;"">
            <div style=""margin:0 auto; width: 20vw; top: 8vh; font-size: 2vw""> 
            <font color=""green""> Bonus : $0.6 </font>
            </div>
        </div>
    ","null","","","","","","","",""
"","","","","","html-keyboard-response","118","139200","0.0-6.12-3.12","5d00d65e6645240019b98b0a","656d9e5e2de4f984cfed7d4d","656d9ef36599eb729c0b0fe0","349","./stimuli//pack_shapes_1/cat_2/diff_3/ex_2_3_3.png","arrowright","response","ArrowRight","3","2","3","test","true",""
"","","","","","html-keyboard-response","119","140703","0.0-6.12-4.12","5d00d65e6645240019b98b0a","656d9e5e2de4f984cfed7d4d","656d9ef36599eb729c0b0fe0","null","<p> <font color=""green"" size=""5vw""> Correct category! </font> <br> <br> <font color=""green"" size=""8vw""> + $0.05 </font> </p>","null","feedback","","","","","","","0.65"
"","","","","","html-keyboard-response","120","141156","0.0-6.13-0.13","5d00d65e6645240019b98b0a","656d9e5e2de4f984cfed7d4d","656d9ef36599eb729c0b0fe0","452","
            
        <div style=""text-align: center; position: fixed; top: 5vh; left: 40vw;"">
            <div style=""margin:0 auto; width: 20vw; top: 8vh; font-size: 2vw""> 
            <font color=""green""> Bonus : $0.65 </font>
            </div>
        </div>
    
            <div> Please press any key to continue to the next image.</div>
        ","arrowup","ITI","","","","","","",""
"","","","","","html-keyboard-response","121","141765","0.0-6.13-1.13","5d00d65e6645240019b98b0a","656d9e5e2de4f984cfed7d4d","656d9ef36599eb729c0b0fe0","null","
        
        <div style=""text-align: center; position: fixed; top: 5vh; left: 40vw;"">
            <div style=""margin:0 auto; width: 20vw; top: 8vh; font-size: 2vw""> 
            <font color=""green""> Bonus : $0.65 </font>
            </div>
        </div>
    
        <img class=""stim"" src=./stimuli//pack_shapes_1/cat_1/diff_3/ex_1_3_16.png></img>
    ","null","stimulus","","","","","","",""
"","","","","","html-keyboard-response","122","142775","0.0-6.13-2.13","5d00d65e6645240019b98b0a","656d9e5e2de4f984cfed7d4d","656d9ef36599eb729c0b0fe0","null","
        <div style=""text-align: center; position: fixed; top: 5vh; left: 40vw;"">
            <div style=""margin:0 auto; width: 20vw; top: 8vh; font-size: 2vw""> 
            <font color=""green""> Bonus : $0.65 </font>
            </div>
        </div>
    ","null","","","","","","","",""
"","","","","","html-keyboard-response","123","142889","0.0-6.13-3.13","5d00d65e6645240019b98b0a","656d9e5e2de4f984cfed7d4d","656d9ef36599eb729c0b0fe0","113","./stimuli//pack_shapes_1/cat_1/diff_3/ex_1_3_16.png","arrowleft","response","ArrowLeft","16","1","3","test","true",""
"","","","","","html-keyboard-response","124","144392","0.0-6.13-4.13","5d00d65e6645240019b98b0a","656d9e5e2de4f984cfed7d4d","656d9ef36599eb729c0b0fe0","null","<p> <font color=""green"" size=""5vw""> Correct category! </font> <br> <br> <font color=""green"" size=""8vw""> + $0.05 </font> </p>","null","feedback","","","","","","","0.7"
"","","","","","html-keyboard-response","125","144914","0.0-6.14-0.14","5d00d65e6645240019b98b0a","656d9e5e2de4f984cfed7d4d","656d9ef36599eb729c0b0fe0","522","
            
        <div style=""text-align: center; position: fixed; top: 5vh; left: 40vw;"">
            <div style=""margin:0 auto; width: 20vw; top: 8vh; font-size: 2vw""> 
            <font color=""green""> Bonus : $0.7 </font>
            </div>
        </div>
    
            <div> Please press any key to continue to the next image.</div>
        ","arrowleft","ITI","","","","","","",""
"","","","","","html-keyboard-response","126","145528","0.0-6.14-1.14","5d00d65e6645240019b98b0a","656d9e5e2de4f984cfed7d4d","656d9ef36599eb729c0b0fe0","null","
        
        <div style=""text-align: center; position: fixed; top: 5vh; left: 40vw;"">
            <div style=""margin:0 auto; width: 20vw; top: 8vh; font-size: 2vw""> 
            <font color=""green""> Bonus : $0.7 </font>
            </div>
        </div>
    
        <img class=""stim"" src=./stimuli//pack_shapes_1/cat_1/diff_3/ex_1_3_11.png></img>
    ","null","stimulus","","","","","","",""
"","","","","","html-keyboard-response","127","146540","0.0-6.14-2.14","5d00d65e6645240019b98b0a","656d9e5e2de4f984cfed7d4d","656d9ef36599eb729c0b0fe0","null","
        <div style=""text-align: center; position: fixed; top: 5vh; left: 40vw;"">
            <div style=""margin:0 auto; width: 20vw; top: 8vh; font-size: 2vw""> 
            <font color=""green""> Bonus : $0.7 </font>
            </div>
        </div>
    ","null","","","","","","","",""
"","","","","","html-keyboard-response","128","146601","0.0-6.14-3.14","5d00d65e6645240019b98b0a","656d9e5e2de4f984cfed7d4d","656d9ef36599eb729c0b0fe0","60","./stimuli//pack_shapes_1/cat_1/diff_3/ex_1_3_11.png","arrowleft","response","ArrowLeft","11","1","3","test","true",""
"","","","","","html-keyboard-response","129","148113","0.0-6.14-4.14","5d00d65e6645240019b98b0a","656d9e5e2de4f984cfed7d4d","656d9ef36599eb729c0b0fe0","null","<p> <font color=""green"" size=""5vw""> Correct category! </font> <br> <br> <font color=""green"" size=""8vw""> + $0.05 </font> </p>","null","feedback","","","","","","","0.75"
"","","","","","html-keyboard-response","130","148516","0.0-6.15-0.15","5d00d65e6645240019b98b0a","656d9e5e2de4f984cfed7d4d","656d9ef36599eb729c0b0fe0","402","
            
        <div style=""text-align: center; position: fixed; top: 5vh; left: 40vw;"">
            <div style=""margin:0 auto; width: 20vw; top: 8vh; font-size: 2vw""> 
            <font color=""green""> Bonus : $0.75 </font>
            </div>
        </div>
    
            <div> Please press any key to continue to the next image.</div>
        ","arrowleft","ITI","","","","","","",""
"","","","","","html-keyboard-response","131","149124","0.0-6.15-1.15","5d00d65e6645240019b98b0a","656d9e5e2de4f984cfed7d4d","656d9ef36599eb729c0b0fe0","null","
        
        <div style=""text-align: center; position: fixed; top: 5vh; left: 40vw;"">
            <div style=""margin:0 auto; width: 20vw; top: 8vh; font-size: 2vw""> 
            <font color=""green""> Bonus : $0.75 </font>
            </div>
        </div>
    
        <img class=""stim"" src=./stimuli//pack_shapes_1/cat_2/diff_4/ex_2_4_14.png></img>
    ","null","stimulus","","","","","","",""
"","","","","","html-keyboard-response","132","150138","0.0-6.15-2.15","5d00d65e6645240019b98b0a","656d9e5e2de4f984cfed7d4d","656d9ef36599eb729c0b0fe0","null","
        <div style=""text-align: center; position: fixed; top: 5vh; left: 40vw;"">
            <div style=""margin:0 auto; width: 20vw; top: 8vh; font-size: 2vw""> 
            <font color=""green""> Bonus : $0.75 </font>
            </div>
        </div>
    ","null","","","","","","","",""
"","","","","","html-keyboard-response","133","150427","0.0-6.15-3.15","5d00d65e6645240019b98b0a","656d9e5e2de4f984cfed7d4d","656d9ef36599eb729c0b0fe0","289","./stimuli//pack_shapes_1/cat_2/diff_4/ex_2_4_14.png","arrowright","response","ArrowRight","14","2","4","test","true",""
"","","","","","html-keyboard-response","134","151865","0.0-6.15-4.15","5d00d65e6645240019b98b0a","656d9e5e2de4f984cfed7d4d","656d9ef36599eb729c0b0fe0","1437","<p> <font color=""green"" size=""5vw""> Correct category! </font> <br> <br> <font color=""green"" size=""8vw""> + $0.05 </font> </p>","arrowright","feedback","","","","","","","0.8"
"","","","","","html-keyboard-response","135","152855","0.0-6.16-0.16","5d00d65e6645240019b98b0a","656d9e5e2de4f984cfed7d4d","656d9ef36599eb729c0b0fe0","989","
            
        <div style=""text-align: center; position: fixed; top: 5vh; left: 40vw;"">
            <div style=""margin:0 auto; width: 20vw; top: 8vh; font-size: 2vw""> 
            <font color=""green""> Bonus : $0.8 </font>
            </div>
        </div>
    
            <div> Please press any key to continue to the next image.</div>
        ","arrowleft","ITI","","","","","","",""
"","","","","","html-keyboard-response","136","153462","0.0-6.16-1.16","5d00d65e6645240019b98b0a","656d9e5e2de4f984cfed7d4d","656d9ef36599eb729c0b0fe0","null","
        
        <div style=""text-align: center; position: fixed; top: 5vh; left: 40vw;"">
            <div style=""margin:0 auto; width: 20vw; top: 8vh; font-size: 2vw""> 
            <font color=""green""> Bonus : $0.8 </font>
            </div>
        </div>
    
        <img class=""stim"" src=./stimuli//pack_shapes_1/cat_1/diff_4/ex_1_4_8.png></img>
    ","null","stimulus","","","","","","",""
"","","","","","html-keyboard-response","137","154478","0.0-6.16-2.16","5d00d65e6645240019b98b0a","656d9e5e2de4f984cfed7d4d","656d9ef36599eb729c0b0fe0","null","
        <div style=""text-align: center; position: fixed; top: 5vh; left: 40vw;"">
            <div style=""margin:0 auto; width: 20vw; top: 8vh; font-size: 2vw""> 
            <font color=""green""> Bonus : $0.8 </font>
            </div>
        </div>
    ","null","","","","","","","",""
"","","","","","html-keyboard-response","138","154678","0.0-6.16-3.16","5d00d65e6645240019b98b0a","656d9e5e2de4f984cfed7d4d","656d9ef36599eb729c0b0fe0","199","./stimuli//pack_shapes_1/cat_1/diff_4/ex_1_4_8.png","arrowleft","response","ArrowLeft","8","1","4","test","true",""
"","","","","","html-keyboard-response","139","155376","0.0-6.16-4.16","5d00d65e6645240019b98b0a","656d9e5e2de4f984cfed7d4d","656d9ef36599eb729c0b0fe0","696","<p> <font color=""green"" size=""5vw""> Correct category! </font> <br> <br> <font color=""green"" size=""8vw""> + $0.05 </font> </p>","arrowleft","feedback","","","","","","","0.85"
"","","","","","html-keyboard-response","140","155961","0.0-6.17-0.17","5d00d65e6645240019b98b0a","656d9e5e2de4f984cfed7d4d","656d9ef36599eb729c0b0fe0","585","
            
        <div style=""text-align: center; position: fixed; top: 5vh; left: 40vw;"">
            <div style=""margin:0 auto; width: 20vw; top: 8vh; font-size: 2vw""> 
            <font color=""green""> Bonus : $0.85 </font>
            </div>
        </div>
    
            <div> Please press any key to continue to the next image.</div>
        ","arrowleft","ITI","","","","","","",""
"","","","","","html-keyboard-response","141","156574","0.0-6.17-1.17","5d00d65e6645240019b98b0a","656d9e5e2de4f984cfed7d4d","656d9ef36599eb729c0b0fe0","null","
        
        <div style=""text-align: center; position: fixed; top: 5vh; left: 40vw;"">
            <div style=""margin:0 auto; width: 20vw; top: 8vh; font-size: 2vw""> 
            <font color=""green""> Bonus : $0.85 </font>
            </div>
        </div>
    
        <img class=""stim"" src=./stimuli//pack_shapes_1/cat_1/diff_4/ex_1_4_13.png></img>
    ","null","stimulus","","","","","","",""
"","","","","","html-keyboard-response","142","157589","0.0-6.17-2.17","5d00d65e6645240019b98b0a","656d9e5e2de4f984cfed7d4d","656d9ef36599eb729c0b0fe0","null","
        <div style=""text-align: center; position: fixed; top: 5vh; left: 40vw;"">
            <div style=""margin:0 auto; width: 20vw; top: 8vh; font-size: 2vw""> 
            <font color=""green""> Bonus : $0.85 </font>
            </div>
        </div>
    ","null","","","","","","","",""
"","","","","","html-keyboard-response","143","157740","0.0-6.17-3.17","5d00d65e6645240019b98b0a","656d9e5e2de4f984cfed7d4d","656d9ef36599eb729c0b0fe0","149","./stimuli//pack_shapes_1/cat_1/diff_4/ex_1_4_13.png","arrowleft","response","ArrowLeft","13","1","4","test","true",""
"","","","","","html-keyboard-response","144","157940","0.0-6.17-4.17","5d00d65e6645240019b98b0a","656d9e5e2de4f984cfed7d4d","656d9ef36599eb729c0b0fe0","200","<p> <font color=""green"" size=""5vw""> Correct category! </font> <br> <br> <font color=""green"" size=""8vw""> + $0.05 </font> </p>","arrowleft","feedback","","","","","","","0.9"
"","","","","","html-keyboard-response","145","158549","0.0-6.18-0.18","5d00d65e6645240019b98b0a","656d9e5e2de4f984cfed7d4d","656d9ef36599eb729c0b0fe0","608","
            
        <div style=""text-align: center; position: fixed; top: 5vh; left: 40vw;"">
            <div style=""margin:0 auto; width: 20vw; top: 8vh; font-size: 2vw""> 
            <font color=""green""> Bonus : $0.9 </font>
            </div>
        </div>
    
            <div> Please press any key to continue to the next image.</div>
        ","arrowleft","ITI","","","","","","",""
"","","","","","html-keyboard-response","146","159151","0.0-6.18-1.18","5d00d65e6645240019b98b0a","656d9e5e2de4f984cfed7d4d","656d9ef36599eb729c0b0fe0","null","
        
        <div style=""text-align: center; position: fixed; top: 5vh; left: 40vw;"">
            <div style=""margin:0 auto; width: 20vw; top: 8vh; font-size: 2vw""> 
            <font color=""green""> Bonus : $0.9 </font>
            </div>
        </div>
    
        <img class=""stim"" src=./stimuli//pack_shapes_1/cat_2/diff_4/ex_2_4_15.png></img>
    ","null","stimulus","","","","","","",""
"","","","","","html-keyboard-response","147","160156","0.0-6.18-2.18","5d00d65e6645240019b98b0a","656d9e5e2de4f984cfed7d4d","656d9ef36599eb729c0b0fe0","null","
        <div style=""text-align: center; position: fixed; top: 5vh; left: 40vw;"">
            <div style=""margin:0 auto; width: 20vw; top: 8vh; font-size: 2vw""> 
            <font color=""green""> Bonus : $0.9 </font>
            </div>
        </div>
    ","null","","","","","","","",""
"","","","","","html-keyboard-response","148","160416","0.0-6.18-3.18","5d00d65e6645240019b98b0a","656d9e5e2de4f984cfed7d4d","656d9ef36599eb729c0b0fe0","258","./stimuli//pack_shapes_1/cat_2/diff_4/ex_2_4_15.png","arrowright","response","ArrowRight","15","2","4","test","true",""
"","","","","","html-keyboard-response","149","160641","0.0-6.18-4.18","5d00d65e6645240019b98b0a","656d9e5e2de4f984cfed7d4d","656d9ef36599eb729c0b0fe0","224","<p> <font color=""green"" size=""5vw""> Correct category! </font> <br> <br> <font color=""green"" size=""8vw""> + $0.05 </font> </p>","arrowright","feedback","","","","","","","0.95"
"","","","","","html-keyboard-response","150","161136","0.0-6.19-0.19","5d00d65e6645240019b98b0a","656d9e5e2de4f984cfed7d4d","656d9ef36599eb729c0b0fe0","495","
            
        <div style=""text-align: center; position: fixed; top: 5vh; left: 40vw;"">
            <div style=""margin:0 auto; width: 20vw; top: 8vh; font-size: 2vw""> 
            <font color=""green""> Bonus : $0.95 </font>
            </div>
        </div>
    
            <div> Please press any key to continue to the next image.</div>
        ","arrowleft","ITI","","","","","","",""
"","","","","","html-keyboard-response","151","161745","0.0-6.19-1.19","5d00d65e6645240019b98b0a","656d9e5e2de4f984cfed7d4d","656d9ef36599eb729c0b0fe0","null","
        
        <div style=""text-align: center; position: fixed; top: 5vh; left: 40vw;"">
            <div style=""margin:0 auto; width: 20vw; top: 8vh; font-size: 2vw""> 
            <font color=""green""> Bonus : $0.95 </font>
            </div>
        </div>
    
        <img class=""stim"" src=./stimuli//pack_shapes_1/cat_1/diff_4/ex_1_4_17.png></img>
    ","null","stimulus","","","","","","",""
"","","","","","html-keyboard-response","152","162754","0.0-6.19-2.19","5d00d65e6645240019b98b0a","656d9e5e2de4f984cfed7d4d","656d9ef36599eb729c0b0fe0","null","
        <div style=""text-align: center; position: fixed; top: 5vh; left: 40vw;"">
            <div style=""margin:0 auto; width: 20vw; top: 8vh; font-size: 2vw""> 
            <font color=""green""> Bonus : $0.95 </font>
            </div>
        </div>
    ","null","","","","","","","",""
"","","","","","html-keyboard-response","153","162756","0.0-6.19-3.19","5d00d65e6645240019b98b0a","656d9e5e2de4f984cfed7d4d","656d9ef36599eb729c0b0fe0","1","./stimuli//pack_shapes_1/cat_1/diff_4/ex_1_4_17.png","arrowleft","response","ArrowLeft","17","1","4","test","true",""
"","","","","","html-keyboard-response","154","162935","0.0-6.19-4.19","5d00d65e6645240019b98b0a","656d9e5e2de4f984cfed7d4d","656d9ef36599eb729c0b0fe0","179","<p> <font color=""green"" size=""5vw""> Correct category! </font> <br> <br> <font color=""green"" size=""8vw""> + $0.05 </font> </p>","arrowleft","feedback","","","","","","","1"
"","","","","","html-keyboard-response","155","163295","0.0-6.20-0.20","5d00d65e6645240019b98b0a","656d9e5e2de4f984cfed7d4d","656d9ef36599eb729c0b0fe0","359","
            
        <div style=""text-align: center; position: fixed; top: 5vh; left: 40vw;"">
            <div style=""margin:0 auto; width: 20vw; top: 8vh; font-size: 2vw""> 
            <font color=""green""> Bonus : $1 </font>
            </div>
        </div>
    
            <div> Please press any key to continue to the next image.</div>
        ","arrowleft","ITI","","","","","","",""
"","","","","","html-keyboard-response","156","163920","0.0-6.20-1.20","5d00d65e6645240019b98b0a","656d9e5e2de4f984cfed7d4d","656d9ef36599eb729c0b0fe0","null","
        
        <div style=""text-align: center; position: fixed; top: 5vh; left: 40vw;"">
            <div style=""margin:0 auto; width: 20vw; top: 8vh; font-size: 2vw""> 
            <font color=""green""> Bonus : $1 </font>
            </div>
        </div>
    
        <img class=""stim"" src=./stimuli//pack_shapes_1/cat_1/diff_5/ex_1_5_11.png></img>
    ","null","stimulus","","","","","","",""
"","","","","","html-keyboard-response","157","164932","0.0-6.20-2.20","5d00d65e6645240019b98b0a","656d9e5e2de4f984cfed7d4d","656d9ef36599eb729c0b0fe0","null","
        <div style=""text-align: center; position: fixed; top: 5vh; left: 40vw;"">
            <div style=""margin:0 auto; width: 20vw; top: 8vh; font-size: 2vw""> 
            <font color=""green""> Bonus : $1 </font>
            </div>
        </div>
    ","null","","","","","","","",""
"","","","","","html-keyboard-response","158","165209","0.0-6.20-3.20","5d00d65e6645240019b98b0a","656d9e5e2de4f984cfed7d4d","656d9ef36599eb729c0b0fe0","276","./stimuli//pack_shapes_1/cat_1/diff_5/ex_1_5_11.png","arrowright","response","ArrowLeft","11","1","5","test","false",""
"","","","","","html-keyboard-response","159","166710","0.0-6.20-4.20","5d00d65e6645240019b98b0a","656d9e5e2de4f984cfed7d4d","656d9ef36599eb729c0b0fe0","null","<p> <font color=""red"" size=""5vw""> Wrong category! </font> <br> <br> <font color=""red"" size=""8vw""> - $0.05 </font> </p>","null","feedback","","","","","","","0.95"
"","","","","","html-keyboard-response","160","167210","0.0-6.21-0.21","5d00d65e6645240019b98b0a","656d9e5e2de4f984cfed7d4d","656d9ef36599eb729c0b0fe0","499","
            
        <div style=""text-align: center; position: fixed; top: 5vh; left: 40vw;"">
            <div style=""margin:0 auto; width: 20vw; top: 8vh; font-size: 2vw""> 
            <font color=""green""> Bonus : $0.95 </font>
            </div>
        </div>
    
            <div> Please press any key to continue to the next image.</div>
        ","arrowleft","ITI","","","","","","",""
"","","","","","html-keyboard-response","161","167815","0.0-6.21-1.21","5d00d65e6645240019b98b0a","656d9e5e2de4f984cfed7d4d","656d9ef36599eb729c0b0fe0","null","
        
        <div style=""text-align: center; position: fixed; top: 5vh; left: 40vw;"">
            <div style=""margin:0 auto; width: 20vw; top: 8vh; font-size: 2vw""> 
            <font color=""green""> Bonus : $0.95 </font>
            </div>
        </div>
    
        <img class=""stim"" src=./stimuli//pack_shapes_1/cat_2/diff_5/ex_2_5_5.png></img>
    ","null","stimulus","","","","","","",""
"","","","","","html-keyboard-response","162","168823","0.0-6.21-2.21","5d00d65e6645240019b98b0a","656d9e5e2de4f984cfed7d4d","656d9ef36599eb729c0b0fe0","null","
        <div style=""text-align: center; position: fixed; top: 5vh; left: 40vw;"">
            <div style=""margin:0 auto; width: 20vw; top: 8vh; font-size: 2vw""> 
            <font color=""green""> Bonus : $0.95 </font>
            </div>
        </div>
    ","null","","","","","","","",""
"","","","","","html-keyboard-response","163","168875","0.0-6.21-3.21","5d00d65e6645240019b98b0a","656d9e5e2de4f984cfed7d4d","656d9ef36599eb729c0b0fe0","52","./stimuli//pack_shapes_1/cat_2/diff_5/ex_2_5_5.png","arrowright","response","ArrowRight","5","2","5","test","true",""
"","","","","","html-keyboard-response","164","169865","0.0-6.21-4.21","5d00d65e6645240019b98b0a","656d9e5e2de4f984cfed7d4d","656d9ef36599eb729c0b0fe0","989","<p> <font color=""green"" size=""5vw""> Correct category! </font> <br> <br> <font color=""green"" size=""8vw""> + $0.05 </font> </p>","arrowright","feedback","","","","","","","1"
"","","","","","html-keyboard-response","165","170518","0.0-6.22-0.22","5d00d65e6645240019b98b0a","656d9e5e2de4f984cfed7d4d","656d9ef36599eb729c0b0fe0","652","
            
        <div style=""text-align: center; position: fixed; top: 5vh; left: 40vw;"">
            <div style=""margin:0 auto; width: 20vw; top: 8vh; font-size: 2vw""> 
            <font color=""green""> Bonus : $1 </font>
            </div>
        </div>
    
            <div> Please press any key to continue to the next image.</div>
        ","arrowright","ITI","","","","","","",""
"","","","","","html-keyboard-response","166","171129","0.0-6.22-1.22","5d00d65e6645240019b98b0a","656d9e5e2de4f984cfed7d4d","656d9ef36599eb729c0b0fe0","null","
        
        <div style=""text-align: center; position: fixed; top: 5vh; left: 40vw;"">
            <div style=""margin:0 auto; width: 20vw; top: 8vh; font-size: 2vw""> 
            <font color=""green""> Bonus : $1 </font>
            </div>
        </div>
    
        <img class=""stim"" src=./stimuli//pack_shapes_1/cat_2/diff_5/ex_2_5_14.png></img>
    ","null","stimulus","","","","","","",""
"","","","","","html-keyboard-response","167","172137","0.0-6.22-2.22","5d00d65e6645240019b98b0a","656d9e5e2de4f984cfed7d4d","656d9ef36599eb729c0b0fe0","null","
        <div style=""text-align: center; position: fixed; top: 5vh; left: 40vw;"">
            <div style=""margin:0 auto; width: 20vw; top: 8vh; font-size: 2vw""> 
            <font color=""green""> Bonus : $1 </font>
            </div>
        </div>
    ","null","","","","","","","",""
"","","","","","html-keyboard-response","168","172454","0.0-6.22-3.22","5d00d65e6645240019b98b0a","656d9e5e2de4f984cfed7d4d","656d9ef36599eb729c0b0fe0","316","./stimuli//pack_shapes_1/cat_2/diff_5/ex_2_5_14.png","arrowright","response","ArrowRight","14","2","5","test","true",""
"","","","","","html-keyboard-response","169","173130","0.0-6.22-4.22","5d00d65e6645240019b98b0a","656d9e5e2de4f984cfed7d4d","656d9ef36599eb729c0b0fe0","675","<p> <font color=""green"" size=""5vw""> Correct category! </font> <br> <br> <font color=""green"" size=""8vw""> + $0.05 </font> </p>","arrowright","feedback","","","","","","","1.05"
"","","","","","html-keyboard-response","170","173668","0.0-6.23-0.23","5d00d65e6645240019b98b0a","656d9e5e2de4f984cfed7d4d","656d9ef36599eb729c0b0fe0","537","
            
        <div style=""text-align: center; position: fixed; top: 5vh; left: 40vw;"">
            <div style=""margin:0 auto; width: 20vw; top: 8vh; font-size: 2vw""> 
            <font color=""green""> Bonus : $1.05 </font>
            </div>
        </div>
    
            <div> Please press any key to continue to the next image.</div>
        ","arrowright","ITI","","","","","","",""
"","","","","","html-keyboard-response","171","174271","0.0-6.23-1.23","5d00d65e6645240019b98b0a","656d9e5e2de4f984cfed7d4d","656d9ef36599eb729c0b0fe0","null","
        
        <div style=""text-align: center; position: fixed; top: 5vh; left: 40vw;"">
            <div style=""margin:0 auto; width: 20vw; top: 8vh; font-size: 2vw""> 
            <font color=""green""> Bonus : $1.05 </font>
            </div>
        </div>
    
        <img class=""stim"" src=./stimuli//pack_shapes_1/cat_1/diff_5/ex_1_5_5.png></img>
    ","null","stimulus","","","","","","",""
"","","","","","html-keyboard-response","172","175282","0.0-6.23-2.23","5d00d65e6645240019b98b0a","656d9e5e2de4f984cfed7d4d","656d9ef36599eb729c0b0fe0","null","
        <div style=""text-align: center; position: fixed; top: 5vh; left: 40vw;"">
            <div style=""margin:0 auto; width: 20vw; top: 8vh; font-size: 2vw""> 
            <font color=""green""> Bonus : $1.05 </font>
            </div>
        </div>
    ","null","","","","","","","",""
"","","","","","html-keyboard-response","173","175693","0.0-6.23-3.23","5d00d65e6645240019b98b0a","656d9e5e2de4f984cfed7d4d","656d9ef36599eb729c0b0fe0","410","./stimuli//pack_shapes_1/cat_1/diff_5/ex_1_5_5.png","arrowright","response","ArrowLeft","5","1","5","test","false",""
"","","","","","html-keyboard-response","174","176683","0.0-6.23-4.23","5d00d65e6645240019b98b0a","656d9e5e2de4f984cfed7d4d","656d9ef36599eb729c0b0fe0","989","<p> <font color=""red"" size=""5vw""> Wrong category! </font> <br> <br> <font color=""red"" size=""8vw""> - $0.05 </font> </p>","arrowright","feedback","","","","","","","1"
"","","","","","html-keyboard-response","175","177628","0.0-6.24-0.24","5d00d65e6645240019b98b0a","656d9e5e2de4f984cfed7d4d","656d9ef36599eb729c0b0fe0","944","
            
        <div style=""text-align: center; position: fixed; top: 5vh; left: 40vw;"">
            <div style=""margin:0 auto; width: 20vw; top: 8vh; font-size: 2vw""> 
            <font color=""green""> Bonus : $1 </font>
            </div>
        </div>
    
            <div> Please press any key to continue to the next image.</div>
        ","arrowleft","ITI","","","","","","",""
"","","","","","html-keyboard-response","176","178241","0.0-6.24-1.24","5d00d65e6645240019b98b0a","656d9e5e2de4f984cfed7d4d","656d9ef36599eb729c0b0fe0","null","
        
        <div style=""text-align: center; position: fixed; top: 5vh; left: 40vw;"">
            <div style=""margin:0 auto; width: 20vw; top: 8vh; font-size: 2vw""> 
            <font color=""green""> Bonus : $1 </font>
            </div>
        </div>
    
        <img class=""stim"" src=./stimuli//pack_shapes_1/cat_2/diff_5/ex_2_5_6.png></img>
    ","null","stimulus","","","","","","",""
"","","","","","html-keyboard-response","177","179249","0.0-6.24-2.24","5d00d65e6645240019b98b0a","656d9e5e2de4f984cfed7d4d","656d9ef36599eb729c0b0fe0","null","
        <div style=""text-align: center; position: fixed; top: 5vh; left: 40vw;"">
            <div style=""margin:0 auto; width: 20vw; top: 8vh; font-size: 2vw""> 
            <font color=""green""> Bonus : $1 </font>
            </div>
        </div>
    ","null","","","","","","","",""
"","","","","","html-keyboard-response","178","179294","0.0-6.24-3.24","5d00d65e6645240019b98b0a","656d9e5e2de4f984cfed7d4d","656d9ef36599eb729c0b0fe0","44","./stimuli//pack_shapes_1/cat_2/diff_5/ex_2_5_6.png","arrowleft","response","ArrowRight","6","2","5","test","false",""
"","","","","","html-keyboard-response","179","180818","0.0-6.24-4.24","5d00d65e6645240019b98b0a","656d9e5e2de4f984cfed7d4d","656d9ef36599eb729c0b0fe0","null","<p> <font color=""red"" size=""5vw""> Wrong category! </font> <br> <br> <font color=""red"" size=""8vw""> - $0.05 </font> </p>","null","feedback","","","","","","","0.95"
"","","","","","html-keyboard-response","180","181139","0.0-6.25-0.25","5d00d65e6645240019b98b0a","656d9e5e2de4f984cfed7d4d","656d9ef36599eb729c0b0fe0","320","
            
        <div style=""text-align: center; position: fixed; top: 5vh; left: 40vw;"">
            <div style=""margin:0 auto; width: 20vw; top: 8vh; font-size: 2vw""> 
            <font color=""green""> Bonus : $0.95 </font>
            </div>
        </div>
    
            <div> Please press any key to continue to the next image.</div>
        ","arrowleft","ITI","","","","","","",""
"","","","","","html-keyboard-response","181","181753","0.0-6.25-1.25","5d00d65e6645240019b98b0a","656d9e5e2de4f984cfed7d4d","656d9ef36599eb729c0b0fe0","null","
        
        <div style=""text-align: center; position: fixed; top: 5vh; left: 40vw;"">
            <div style=""margin:0 auto; width: 20vw; top: 8vh; font-size: 2vw""> 
            <font color=""green""> Bonus : $0.95 </font>
            </div>
        </div>
    
        <img class=""stim"" src=./stimuli//pack_shapes_1/cat_1/diff_4/ex_1_4_14.png></img>
    ","null","stimulus","","","","","","",""
"","","","","","html-keyboard-response","182","182761","0.0-6.25-2.25","5d00d65e6645240019b98b0a","656d9e5e2de4f984cfed7d4d","656d9ef36599eb729c0b0fe0","null","
        <div style=""text-align: center; position: fixed; top: 5vh; left: 40vw;"">
            <div style=""margin:0 auto; width: 20vw; top: 8vh; font-size: 2vw""> 
            <font color=""green""> Bonus : $0.95 </font>
            </div>
        </div>
    ","null","","","","","","","",""
"","","","","","html-keyboard-response","183","183050","0.0-6.25-3.25","5d00d65e6645240019b98b0a","656d9e5e2de4f984cfed7d4d","656d9ef36599eb729c0b0fe0","289","./stimuli//pack_shapes_1/cat_1/diff_4/ex_1_4_14.png","arrowleft","response","ArrowLeft","14","1","4","test","true",""
"","","","","","html-keyboard-response","184","184555","0.0-6.25-4.25","5d00d65e6645240019b98b0a","656d9e5e2de4f984cfed7d4d","656d9ef36599eb729c0b0fe0","null","<p> <font color=""green"" size=""5vw""> Correct category! </font> <br> <br> <font color=""green"" size=""8vw""> + $0.05 </font> </p>","null","feedback","","","","","","","1"
"","","","","","html-keyboard-response","185","184693","0.0-6.26-0.26","5d00d65e6645240019b98b0a","656d9e5e2de4f984cfed7d4d","656d9ef36599eb729c0b0fe0","136","
            
        <div style=""text-align: center; position: fixed; top: 5vh; left: 40vw;"">
            <div style=""margin:0 auto; width: 20vw; top: 8vh; font-size: 2vw""> 
            <font color=""green""> Bonus : $1 </font>
            </div>
        </div>
    
            <div> Please press any key to continue to the next image.</div>
        ","arrowleft","ITI","","","","","","",""
"","","","","","html-keyboard-response","186","185300","0.0-6.26-1.26","5d00d65e6645240019b98b0a","656d9e5e2de4f984cfed7d4d","656d9ef36599eb729c0b0fe0","null","
        
        <div style=""text-align: center; position: fixed; top: 5vh; left: 40vw;"">
            <div style=""margin:0 auto; width: 20vw; top: 8vh; font-size: 2vw""> 
            <font color=""green""> Bonus : $1 </font>
            </div>
        </div>
    
        <img class=""stim"" src=./stimuli//pack_shapes_1/cat_1/diff_4/ex_1_4_4.png></img>
    ","null","stimulus","","","","","","",""
"","","","","","html-keyboard-response","187","186309","0.0-6.26-2.26","5d00d65e6645240019b98b0a","656d9e5e2de4f984cfed7d4d","656d9ef36599eb729c0b0fe0","null","
        <div style=""text-align: center; position: fixed; top: 5vh; left: 40vw;"">
            <div style=""margin:0 auto; width: 20vw; top: 8vh; font-size: 2vw""> 
            <font color=""green""> Bonus : $1 </font>
            </div>
        </div>
    ","null","","","","","","","",""
"","","","","","html-keyboard-response","188","186606","0.0-6.26-3.26","5d00d65e6645240019b98b0a","656d9e5e2de4f984cfed7d4d","656d9ef36599eb729c0b0fe0","296","./stimuli//pack_shapes_1/cat_1/diff_4/ex_1_4_4.png","arrowleft","response","ArrowLeft","4","1","4","test","true",""
"","","","","","html-keyboard-response","189","187303","0.0-6.26-4.26","5d00d65e6645240019b98b0a","656d9e5e2de4f984cfed7d4d","656d9ef36599eb729c0b0fe0","697","<p> <font color=""green"" size=""5vw""> Correct category! </font> <br> <br> <font color=""green"" size=""8vw""> + $0.05 </font> </p>","arrowleft","feedback","","","","","","","1.05"
"","","","","","html-keyboard-response","190","187707","0.0-6.27-0.27","5d00d65e6645240019b98b0a","656d9e5e2de4f984cfed7d4d","656d9ef36599eb729c0b0fe0","404","
            
        <div style=""text-align: center; position: fixed; top: 5vh; left: 40vw;"">
            <div style=""margin:0 auto; width: 20vw; top: 8vh; font-size: 2vw""> 
            <font color=""green""> Bonus : $1.05 </font>
            </div>
        </div>
    
            <div> Please press any key to continue to the next image.</div>
        ","arrowleft","ITI","","","","","","",""
"","","","","","html-keyboard-response","191","188317","0.0-6.27-1.27","5d00d65e6645240019b98b0a","656d9e5e2de4f984cfed7d4d","656d9ef36599eb729c0b0fe0","null","
        
        <div style=""text-align: center; position: fixed; top: 5vh; left: 40vw;"">
            <div style=""margin:0 auto; width: 20vw; top: 8vh; font-size: 2vw""> 
            <font color=""green""> Bonus : $1.05 </font>
            </div>
        </div>
    
        <img class=""stim"" src=./stimuli//pack_shapes_1/cat_2/diff_4/ex_2_4_17.png></img>
    ","null","stimulus","","","","","","",""
"","","","","","html-keyboard-response","192","189325","0.0-6.27-2.27","5d00d65e6645240019b98b0a","656d9e5e2de4f984cfed7d4d","656d9ef36599eb729c0b0fe0","null","
        <div style=""text-align: center; position: fixed; top: 5vh; left: 40vw;"">
            <div style=""margin:0 auto; width: 20vw; top: 8vh; font-size: 2vw""> 
            <font color=""green""> Bonus : $1.05 </font>
            </div>
        </div>
    ","null","","","","","","","",""
"","","","","","html-keyboard-response","193","189598","0.0-6.27-3.27","5d00d65e6645240019b98b0a","656d9e5e2de4f984cfed7d4d","656d9ef36599eb729c0b0fe0","273","./stimuli//pack_shapes_1/cat_2/diff_4/ex_2_4_17.png","arrowleft","response","ArrowRight","17","2","4","test","false",""
"","","","","","html-keyboard-response","194","190408","0.0-6.27-4.27","5d00d65e6645240019b98b0a","656d9e5e2de4f984cfed7d4d","656d9ef36599eb729c0b0fe0","810","<p> <font color=""red"" size=""5vw""> Wrong category! </font> <br> <br> <font color=""red"" size=""8vw""> - $0.05 </font> </p>","arrowleft","feedback","","","","","","","1"
"","","","","","html-keyboard-response","195","190812","0.0-6.28-0.28","5d00d65e6645240019b98b0a","656d9e5e2de4f984cfed7d4d","656d9ef36599eb729c0b0fe0","403","
            
        <div style=""text-align: center; position: fixed; top: 5vh; left: 40vw;"">
            <div style=""margin:0 auto; width: 20vw; top: 8vh; font-size: 2vw""> 
            <font color=""green""> Bonus : $1 </font>
            </div>
        </div>
    
            <div> Please press any key to continue to the next image.</div>
        ","arrowleft","ITI","","","","","","",""
"","","","","","html-keyboard-response","196","191425","0.0-6.28-1.28","5d00d65e6645240019b98b0a","656d9e5e2de4f984cfed7d4d","656d9ef36599eb729c0b0fe0","null","
        
        <div style=""text-align: center; position: fixed; top: 5vh; left: 40vw;"">
            <div style=""margin:0 auto; width: 20vw; top: 8vh; font-size: 2vw""> 
            <font color=""green""> Bonus : $1 </font>
            </div>
        </div>
    
        <img class=""stim"" src=./stimuli//pack_shapes_1/cat_2/diff_4/ex_2_4_6.png></img>
    ","null","stimulus","","","","","","",""
"","","","","","html-keyboard-response","197","192437","0.0-6.28-2.28","5d00d65e6645240019b98b0a","656d9e5e2de4f984cfed7d4d","656d9ef36599eb729c0b0fe0","null","
        <div style=""text-align: center; position: fixed; top: 5vh; left: 40vw;"">
            <div style=""margin:0 auto; width: 20vw; top: 8vh; font-size: 2vw""> 
            <font color=""green""> Bonus : $1 </font>
            </div>
        </div>
    ","null","","","","","","","",""
"","","","","","html-keyboard-response","198","192704","0.0-6.28-3.28","5d00d65e6645240019b98b0a","656d9e5e2de4f984cfed7d4d","656d9ef36599eb729c0b0fe0","266","./stimuli//pack_shapes_1/cat_2/diff_4/ex_2_4_6.png","arrowleft","response","ArrowRight","6","2","4","test","false",""
"","","","","","html-keyboard-response","199","193941","0.0-6.28-4.28","5d00d65e6645240019b98b0a","656d9e5e2de4f984cfed7d4d","656d9ef36599eb729c0b0fe0","1236","<p> <font color=""red"" size=""5vw""> Wrong category! </font> <br> <br> <font color=""red"" size=""8vw""> - $0.05 </font> </p>","arrowleft","feedback","","","","","","","0.95"
"","","","","","html-keyboard-response","200","194458","0.0-6.29-0.29","5d00d65e6645240019b98b0a","656d9e5e2de4f984cfed7d4d","656d9ef36599eb729c0b0fe0","516","
            
        <div style=""text-align: center; position: fixed; top: 5vh; left: 40vw;"">
            <div style=""margin:0 auto; width: 20vw; top: 8vh; font-size: 2vw""> 
            <font color=""green""> Bonus : $0.95 </font>
            </div>
        </div>
    
            <div> Please press any key to continue to the next image.</div>
        ","arrowleft","ITI","","","","","","",""
"","","","","","html-keyboard-response","201","195067","0.0-6.29-1.29","5d00d65e6645240019b98b0a","656d9e5e2de4f984cfed7d4d","656d9ef36599eb729c0b0fe0","null","
        
        <div style=""text-align: center; position: fixed; top: 5vh; left: 40vw;"">
            <div style=""margin:0 auto; width: 20vw; top: 8vh; font-size: 2vw""> 
            <font color=""green""> Bonus : $0.95 </font>
            </div>
        </div>
    
        <img class=""stim"" src=./stimuli//pack_shapes_1/cat_1/diff_4/ex_1_4_4.png></img>
    ","null","stimulus","","","","","","",""
"","","","","","html-keyboard-response","202","196081","0.0-6.29-2.29","5d00d65e6645240019b98b0a","656d9e5e2de4f984cfed7d4d","656d9ef36599eb729c0b0fe0","null","
        <div style=""text-align: center; position: fixed; top: 5vh; left: 40vw;"">
            <div style=""margin:0 auto; width: 20vw; top: 8vh; font-size: 2vw""> 
            <font color=""green""> Bonus : $0.95 </font>
            </div>
        </div>
    ","null","","","","","","","",""
"","","","","","html-keyboard-response","203","196303","0.0-6.29-3.29","5d00d65e6645240019b98b0a","656d9e5e2de4f984cfed7d4d","656d9ef36599eb729c0b0fe0","221","./stimuli//pack_shapes_1/cat_1/diff_4/ex_1_4_4.png","arrowleft","response","ArrowLeft","4","1","4","test","true",""
"","","","","","html-keyboard-response","204","196910","0.0-6.29-4.29","5d00d65e6645240019b98b0a","656d9e5e2de4f984cfed7d4d","656d9ef36599eb729c0b0fe0","607","<p> <font color=""green"" size=""5vw""> Correct category! </font> <br> <br> <font color=""green"" size=""8vw""> + $0.05 </font> </p>","arrowleft","feedback","","","","","","","1"
"","","","","","html-keyboard-response","205","197406","0.0-6.30-0.30","5d00d65e6645240019b98b0a","656d9e5e2de4f984cfed7d4d","656d9ef36599eb729c0b0fe0","495","
            
        <div style=""text-align: center; position: fixed; top: 5vh; left: 40vw;"">
            <div style=""margin:0 auto; width: 20vw; top: 8vh; font-size: 2vw""> 
            <font color=""green""> Bonus : $1 </font>
            </div>
        </div>
    
            <div> Please press any key to continue to the next image.</div>
        ","arrowleft","ITI","","","","","","",""
"","","","","","html-keyboard-response","206","198010","0.0-6.30-1.30","5d00d65e6645240019b98b0a","656d9e5e2de4f984cfed7d4d","656d9ef36599eb729c0b0fe0","null","
        
        <div style=""text-align: center; position: fixed; top: 5vh; left: 40vw;"">
            <div style=""margin:0 auto; width: 20vw; top: 8vh; font-size: 2vw""> 
            <font color=""green""> Bonus : $1 </font>
            </div>
        </div>
    
        <img class=""stim"" src=./stimuli//pack_shapes_1/cat_1/diff_3/ex_1_3_8.png></img>
    ","null","stimulus","","","","","","",""
"","","","","","html-keyboard-response","207","199023","0.0-6.30-2.30","5d00d65e6645240019b98b0a","656d9e5e2de4f984cfed7d4d","656d9ef36599eb729c0b0fe0","null","
        <div style=""text-align: center; position: fixed; top: 5vh; left: 40vw;"">
            <div style=""margin:0 auto; width: 20vw; top: 8vh; font-size: 2vw""> 
            <font color=""green""> Bonus : $1 </font>
            </div>
        </div>
    ","null","","","","","","","",""
"","","","","","html-keyboard-response","208","199251","0.0-6.30-3.30","5d00d65e6645240019b98b0a","656d9e5e2de4f984cfed7d4d","656d9ef36599eb729c0b0fe0","227","./stimuli//pack_shapes_1/cat_1/diff_3/ex_1_3_8.png","arrowleft","response","ArrowLeft","8","1","3","test","true",""
"","","","","","html-keyboard-response","209","200762","0.0-6.30-4.30","5d00d65e6645240019b98b0a","656d9e5e2de4f984cfed7d4d","656d9ef36599eb729c0b0fe0","null","<p> <font color=""green"" size=""5vw""> Correct category! </font> <br> <br> <font color=""green"" size=""8vw""> + $0.05 </font> </p>","null","feedback","","","","","","","1.05"
"","","","","","html-keyboard-response","210","201099","0.0-6.31-0.31","5d00d65e6645240019b98b0a","656d9e5e2de4f984cfed7d4d","656d9ef36599eb729c0b0fe0","335","
            
        <div style=""text-align: center; position: fixed; top: 5vh; left: 40vw;"">
            <div style=""margin:0 auto; width: 20vw; top: 8vh; font-size: 2vw""> 
            <font color=""green""> Bonus : $1.05 </font>
            </div>
        </div>
    
            <div> Please press any key to continue to the next image.</div>
        ","arrowleft","ITI","","","","","","",""
"","","","","","html-keyboard-response","211","201714","0.0-6.31-1.31","5d00d65e6645240019b98b0a","656d9e5e2de4f984cfed7d4d","656d9ef36599eb729c0b0fe0","null","
        
        <div style=""text-align: center; position: fixed; top: 5vh; left: 40vw;"">
            <div style=""margin:0 auto; width: 20vw; top: 8vh; font-size: 2vw""> 
            <font color=""green""> Bonus : $1.05 </font>
            </div>
        </div>
    
        <img class=""stim"" src=./stimuli//pack_shapes_1/cat_1/diff_3/ex_1_3_16.png></img>
    ","null","stimulus","","","","","","",""
"","","","","","html-keyboard-response","212","202736","0.0-6.31-2.31","5d00d65e6645240019b98b0a","656d9e5e2de4f984cfed7d4d","656d9ef36599eb729c0b0fe0","null","
        <div style=""text-align: center; position: fixed; top: 5vh; left: 40vw;"">
            <div style=""margin:0 auto; width: 20vw; top: 8vh; font-size: 2vw""> 
            <font color=""green""> Bonus : $1.05 </font>
            </div>
        </div>
    ","null","","","","","","","",""
"","","","","","html-keyboard-response","213","202828","0.0-6.31-3.31","5d00d65e6645240019b98b0a","656d9e5e2de4f984cfed7d4d","656d9ef36599eb729c0b0fe0","91","./stimuli//pack_shapes_1/cat_1/diff_3/ex_1_3_16.png","arrowleft","response","ArrowLeft","16","1","3","test","true",""
"","","","","","html-keyboard-response","214","203435","0.0-6.31-4.31","5d00d65e6645240019b98b0a","656d9e5e2de4f984cfed7d4d","656d9ef36599eb729c0b0fe0","607","<p> <font color=""green"" size=""5vw""> Correct category! </font> <br> <br> <font color=""green"" size=""8vw""> + $0.05 </font> </p>","arrowleft","feedback","","","","","","","1.1"
"","","","","","html-keyboard-response","215","203931","0.0-6.32-0.32","5d00d65e6645240019b98b0a","656d9e5e2de4f984cfed7d4d","656d9ef36599eb729c0b0fe0","495","
            
        <div style=""text-align: center; position: fixed; top: 5vh; left: 40vw;"">
            <div style=""margin:0 auto; width: 20vw; top: 8vh; font-size: 2vw""> 
            <font color=""green""> Bonus : $1.1 </font>
            </div>
        </div>
    
            <div> Please press any key to continue to the next image.</div>
        ","arrowleft","ITI","","","","","","",""
"","","","","","html-keyboard-response","216","204544","0.0-6.32-1.32","5d00d65e6645240019b98b0a","656d9e5e2de4f984cfed7d4d","656d9ef36599eb729c0b0fe0","null","
        
        <div style=""text-align: center; position: fixed; top: 5vh; left: 40vw;"">
            <div style=""margin:0 auto; width: 20vw; top: 8vh; font-size: 2vw""> 
            <font color=""green""> Bonus : $1.1 </font>
            </div>
        </div>
    
        <img class=""stim"" src=./stimuli//pack_shapes_1/cat_1/diff_3/ex_1_3_4.png></img>
    ","null","stimulus","","","","","","",""
"","","","","","html-keyboard-response","217","205558","0.0-6.32-2.32","5d00d65e6645240019b98b0a","656d9e5e2de4f984cfed7d4d","656d9ef36599eb729c0b0fe0","null","
        <div style=""text-align: center; position: fixed; top: 5vh; left: 40vw;"">
            <div style=""margin:0 auto; width: 20vw; top: 8vh; font-size: 2vw""> 
            <font color=""green""> Bonus : $1.1 </font>
            </div>
        </div>
    ","null","","","","","","","",""
"","","","","","html-keyboard-response","218","205730","0.0-6.32-3.32","5d00d65e6645240019b98b0a","656d9e5e2de4f984cfed7d4d","656d9ef36599eb729c0b0fe0","172","./stimuli//pack_shapes_1/cat_1/diff_3/ex_1_3_4.png","arrowleft","response","ArrowLeft","4","1","3","test","true",""
"","","","","","html-keyboard-response","219","206180","0.0-6.32-4.32","5d00d65e6645240019b98b0a","656d9e5e2de4f984cfed7d4d","656d9ef36599eb729c0b0fe0","450","<p> <font color=""green"" size=""5vw""> Correct category! </font> <br> <br> <font color=""green"" size=""8vw""> + $0.05 </font> </p>","arrowleft","feedback","","","","","","","1.15"
"","","","","","html-keyboard-response","220","206654","0.0-6.33-0.33","5d00d65e6645240019b98b0a","656d9e5e2de4f984cfed7d4d","656d9ef36599eb729c0b0fe0","473","
            
        <div style=""text-align: center; position: fixed; top: 5vh; left: 40vw;"">
            <div style=""margin:0 auto; width: 20vw; top: 8vh; font-size: 2vw""> 
            <font color=""green""> Bonus : $1.15 </font>
            </div>
        </div>
    
            <div> Please press any key to continue to the next image.</div>
        ","arrowleft","ITI","","","","","","",""
"","","","","","html-keyboard-response","221","207264","0.0-6.33-1.33","5d00d65e6645240019b98b0a","656d9e5e2de4f984cfed7d4d","656d9ef36599eb729c0b0fe0","null","
        
        <div style=""text-align: center; position: fixed; top: 5vh; left: 40vw;"">
            <div style=""margin:0 auto; width: 20vw; top: 8vh; font-size: 2vw""> 
            <font color=""green""> Bonus : $1.15 </font>
            </div>
        </div>
    
        <img class=""stim"" src=./stimuli//pack_shapes_1/cat_2/diff_3/ex_2_3_12.png></img>
    ","null","stimulus","","","","","","",""
"","","","","","html-keyboard-response","222","208291","0.0-6.33-2.33","5d00d65e6645240019b98b0a","656d9e5e2de4f984cfed7d4d","656d9ef36599eb729c0b0fe0","null","
        <div style=""text-align: center; position: fixed; top: 5vh; left: 40vw;"">
            <div style=""margin:0 auto; width: 20vw; top: 8vh; font-size: 2vw""> 
            <font color=""green""> Bonus : $1.15 </font>
            </div>
        </div>
    ","null","","","","","","","",""
"","","","","","html-keyboard-response","223","208544","0.0-6.33-3.33","5d00d65e6645240019b98b0a","656d9e5e2de4f984cfed7d4d","656d9ef36599eb729c0b0fe0","252","./stimuli//pack_shapes_1/cat_2/diff_3/ex_2_3_12.png","arrowright","response","ArrowRight","12","2","3","test","true",""
"","","","","","html-keyboard-response","224","209150","0.0-6.33-4.33","5d00d65e6645240019b98b0a","656d9e5e2de4f984cfed7d4d","656d9ef36599eb729c0b0fe0","605","<p> <font color=""green"" size=""5vw""> Correct category! </font> <br> <br> <font color=""green"" size=""8vw""> + $0.05 </font> </p>","arrowright","feedback","","","","","","","1.2"
"","","","","","html-keyboard-response","225","209713","0.0-6.34-0.34","5d00d65e6645240019b98b0a","656d9e5e2de4f984cfed7d4d","656d9ef36599eb729c0b0fe0","562","
            
        <div style=""text-align: center; position: fixed; top: 5vh; left: 40vw;"">
            <div style=""margin:0 auto; width: 20vw; top: 8vh; font-size: 2vw""> 
            <font color=""green""> Bonus : $1.2 </font>
            </div>
        </div>
    
            <div> Please press any key to continue to the next image.</div>
        ","arrowright","ITI","","","","","","",""
"","","","","","html-keyboard-response","226","210319","0.0-6.34-1.34","5d00d65e6645240019b98b0a","656d9e5e2de4f984cfed7d4d","656d9ef36599eb729c0b0fe0","null","
        
        <div style=""text-align: center; position: fixed; top: 5vh; left: 40vw;"">
            <div style=""margin:0 auto; width: 20vw; top: 8vh; font-size: 2vw""> 
            <font color=""green""> Bonus : $1.2 </font>
            </div>
        </div>
    
        <img class=""stim"" src=./stimuli//pack_shapes_1/cat_1/diff_3/ex_1_3_11.png></img>
    ","null","stimulus","","","","","","",""
"","","","","","html-keyboard-response","227","211325","0.0-6.34-2.34","5d00d65e6645240019b98b0a","656d9e5e2de4f984cfed7d4d","656d9ef36599eb729c0b0fe0","null","
        <div style=""text-align: center; position: fixed; top: 5vh; left: 40vw;"">
            <div style=""margin:0 auto; width: 20vw; top: 8vh; font-size: 2vw""> 
            <font color=""green""> Bonus : $1.2 </font>
            </div>
        </div>
    ","null","","","","","","","",""
"","","","","","html-keyboard-response","228","211425","0.0-6.34-3.34","5d00d65e6645240019b98b0a","656d9e5e2de4f984cfed7d4d","656d9ef36599eb729c0b0fe0","99","./stimuli//pack_shapes_1/cat_1/diff_3/ex_1_3_11.png","arrowleft","response","ArrowLeft","11","1","3","test","true",""
