"success","timeout","failed_images","failed_audio","failed_video","trial_type","trial_index","time_elapsed","internal_node_id","subject_id","study_id","session_id","rt","stimulus","response","task","correct_response","exemplar_ID","category","difficulty","phase","correct","bonus"
"true","false","[]","[]","[]","preload","0","1","0.0-0.0","5c522508fcbef20001939a03","656d9e5e2de4f984cfed7d4d","656d9ee0372bc5e0fc9f1675","","","","","","","","","","",""
"","","","","","html-keyboard-response","1","14183","0.0-1.0","5c522508fcbef20001939a03","656d9e5e2de4f984cfed7d4d","656d9ee0372bc5e0fc9f1675","14181","Welcome to the Category Learning experiment! Press any key to continue.","l","welcome","","","","","","",""
"","","","","","html-keyboard-response","2","28639","0.0-2.0","5c522508fcbef20001939a03","656d9e5e2de4f984cfed7d4d","656d9ee0372bc5e0fc9f1675","14455","
            <p>You will be shown images of white shapes. Some are category A, some are category B.
            <br>You will not know in advance which category a specific shape belongs to.</p>
            <p>After you see an image, you will be asked to guess its category <b>(left arrow for category A, right arrow for category B)</b></p>
            <p>After you choose, the screen will show you whether you were correct or not.</p>
            <p><b>You will receive a bonus payment of $0.05 for each correct answer!</b></p>
            <p><b>You will lose $0.05 from your bonus payment for each incorrect answer! The bonus can not become less that $0.</b></p>
            <p>Press any key to continue.</p>
            ","arrowleft","introduction_1","","","","","","",""
"","","","","","html-keyboard-response","3","36087","0.0-3.0","5c522508fcbef20001939a03","656d9e5e2de4f984cfed7d4d","656d9ee0372bc5e0fc9f1675","7448","
            <p> <b>The first 10 trials are a practice round that will not count towards your bonus payment.</b></p>
            <p> You will be notified when practice finishes and the test begins. </p>
            <p> Press any key to begin the practice round.</p>
            ","arrowleft","introduction_2","","","","","","",""
"","","","","","html-keyboard-response","4","38698","0.0-4.0-0.0","5c522508fcbef20001939a03","656d9e5e2de4f984cfed7d4d","656d9ee0372bc5e0fc9f1675","2612","
            
        <div style=""text-align: center; position: fixed; top: 5vh; left: 40vw;"">
            <div style=""margin:0 auto; width: 20vw; top: 8vh; font-size: 2vw""> 
            <font color=""green""> Bonus : $0 </font>
            </div>
        </div>
    
            <div> Please press any key to continue to the next image.</div>
        ","arrowleft","ITI","","","","","","",""
"","","","","","html-keyboard-response","5","39300","0.0-4.0-1.0","5c522508fcbef20001939a03","656d9e5e2de4f984cfed7d4d","656d9ee0372bc5e0fc9f1675","null","
        
        <div style=""text-align: center; position: fixed; top: 5vh; left: 40vw;"">
            <div style=""margin:0 auto; width: 20vw; top: 8vh; font-size: 2vw""> 
            <font color=""green""> Bonus : $0 </font>
            </div>
        </div>
    
        <img class=""stim"" src=./stimuli//pack_shapes_1/cat_2/diff_2/ex_2_2_12.png></img>
    ","null","stimulus","","","","","","",""
"","","","","","html-keyboard-response","6","40302","0.0-4.0-2.0","5c522508fcbef20001939a03","656d9e5e2de4f984cfed7d4d","656d9ee0372bc5e0fc9f1675","null","
        <div style=""text-align: center; position: fixed; top: 5vh; left: 40vw;"">
            <div style=""margin:0 auto; width: 20vw; top: 8vh; font-size: 2vw""> 
            <font color=""green""> Bonus : $0 </font>
            </div>
        </div>
    ","null","","","","","","","",""
"","","","","","html-keyboard-response","7","40790","0.0-4.0-3.0","5c522508fcbef20001939a03","656d9e5e2de4f984cfed7d4d","656d9ee0372bc5e0fc9f1675","488","./stimuli//pack_shapes_1/cat_2/diff_2/ex_2_2_12.png","arrowleft","response","ArrowRight","12","2","2","train","false",""
"","","","","","html-keyboard-response","8","42291","0.0-4.0-4.0","5c522508fcbef20001939a03","656d9e5e2de4f984cfed7d4d","656d9ee0372bc5e0fc9f1675","null","<p> <font color=""red"" size=""5vw""> Wrong category! </font> </p>","null","feedback","","","","","","","0"
"","","","","","html-keyboard-response","9","43670","0.0-4.0-0.1","5c522508fcbef20001939a03","656d9e5e2de4f984cfed7d4d","656d9ee0372bc5e0fc9f1675","1378","
            
        <div style=""text-align: center; position: fixed; top: 5vh; left: 40vw;"">
            <div style=""margin:0 auto; width: 20vw; top: 8vh; font-size: 2vw""> 
            <font color=""green""> Bonus : $0 </font>
            </div>
        </div>
    
            <div> Please press any key to continue to the next image.</div>
        ","arrowleft","ITI","","","","","","",""
"","","","","","html-keyboard-response","10","44270","0.0-4.0-1.1","5c522508fcbef20001939a03","656d9e5e2de4f984cfed7d4d","656d9ee0372bc5e0fc9f1675","null","
        
        <div style=""text-align: center; position: fixed; top: 5vh; left: 40vw;"">
            <div style=""margin:0 auto; width: 20vw; top: 8vh; font-size: 2vw""> 
            <font color=""green""> Bonus : $0 </font>
            </div>
        </div>
    
        <img class=""stim"" src=./stimuli//pack_shapes_1/cat_2/diff_1/ex_2_1_6.png></img>
    ","null","stimulus","","","","","","",""
"","","","","","html-keyboard-response","11","45272","0.0-4.0-2.1","5c522508fcbef20001939a03","656d9e5e2de4f984cfed7d4d","656d9ee0372bc5e0fc9f1675","null","
        <div style=""text-align: center; position: fixed; top: 5vh; left: 40vw;"">
            <div style=""margin:0 auto; width: 20vw; top: 8vh; font-size: 2vw""> 
            <font color=""green""> Bonus : $0 </font>
            </div>
        </div>
    ","null","","","","","","","",""
"","","","","","html-keyboard-response","12","45473","0.0-4.0-3.1","5c522508fcbef20001939a03","656d9e5e2de4f984cfed7d4d","656d9ee0372bc5e0fc9f1675","201","./stimuli//pack_shapes_1/cat_2/diff_1/ex_2_1_6.png","arrowright","response","ArrowRight","6","2","1","train","true",""
"","","","","","html-keyboard-response","13","46976","0.0-4.0-4.1","5c522508fcbef20001939a03","656d9e5e2de4f984cfed7d4d","656d9ee0372bc5e0fc9f1675","null","<p><font color=""green"" size=""5vw""> Correct category! </font></p>","null","feedback","","","","","","","0"
"","","","","","html-keyboard-response","14","47653","0.0-4.0-0.2","5c522508fcbef20001939a03","656d9e5e2de4f984cfed7d4d","656d9ee0372bc5e0fc9f1675","677","
            
        <div style=""text-align: center; position: fixed; top: 5vh; left: 40vw;"">
            <div style=""margin:0 auto; width: 20vw; top: 8vh; font-size: 2vw""> 
            <font color=""green""> Bonus : $0 </font>
            </div>
        </div>
    
            <div> Please press any key to continue to the next image.</div>
        ","arrowleft","ITI","","","","","","",""
"","","","","","html-keyboard-response","15","48254","0.0-4.0-1.2","5c522508fcbef20001939a03","656d9e5e2de4f984cfed7d4d","656d9ee0372bc5e0fc9f1675","null","
        
        <div style=""text-align: center; position: fixed; top: 5vh; left: 40vw;"">
            <div style=""margin:0 auto; width: 20vw; top: 8vh; font-size: 2vw""> 
            <font color=""green""> Bonus : $0 </font>
            </div>
        </div>
    
        <img class=""stim"" src=./stimuli//pack_shapes_1/cat_1/diff_2/ex_1_2_5.png></img>
    ","null","stimulus","","","","","","",""
"","","","","","html-keyboard-response","16","49255","0.0-4.0-2.2","5c522508fcbef20001939a03","656d9e5e2de4f984cfed7d4d","656d9ee0372bc5e0fc9f1675","null","
        <div style=""text-align: center; position: fixed; top: 5vh; left: 40vw;"">
            <div style=""margin:0 auto; width: 20vw; top: 8vh; font-size: 2vw""> 
            <font color=""green""> Bonus : $0 </font>
            </div>
        </div>
    ","null","","","","","","","",""
"","","","","","html-keyboard-response","17","49495","0.0-4.0-3.2","5c522508fcbef20001939a03","656d9e5e2de4f984cfed7d4d","656d9ee0372bc5e0fc9f1675","239","./stimuli//pack_shapes_1/cat_1/diff_2/ex_1_2_5.png","arrowright","response","ArrowLeft","5","1","2","train","false",""
"","","","","","html-keyboard-response","18","50996","0.0-4.0-4.2","5c522508fcbef20001939a03","656d9e5e2de4f984cfed7d4d","656d9ee0372bc5e0fc9f1675","null","<p> <font color=""red"" size=""5vw""> Wrong category! </font> </p>","null","feedback","","","","","","","0"
"","","","","","html-keyboard-response","19","52395","0.0-4.0-0.3","5c522508fcbef20001939a03","656d9e5e2de4f984cfed7d4d","656d9ee0372bc5e0fc9f1675","1399","
            
        <div style=""text-align: center; position: fixed; top: 5vh; left: 40vw;"">
            <div style=""margin:0 auto; width: 20vw; top: 8vh; font-size: 2vw""> 
            <font color=""green""> Bonus : $0 </font>
            </div>
        </div>
    
            <div> Please press any key to continue to the next image.</div>
        ","arrowright","ITI","","","","","","",""
"","","","","","html-keyboard-response","20","52997","0.0-4.0-1.3","5c522508fcbef20001939a03","656d9e5e2de4f984cfed7d4d","656d9ee0372bc5e0fc9f1675","null","
        
        <div style=""text-align: center; position: fixed; top: 5vh; left: 40vw;"">
            <div style=""margin:0 auto; width: 20vw; top: 8vh; font-size: 2vw""> 
            <font color=""green""> Bonus : $0 </font>
            </div>
        </div>
    
        <img class=""stim"" src=./stimuli//pack_shapes_1/cat_2/diff_1/ex_2_1_12.png></img>
    ","null","stimulus","","","","","","",""
"","","","","","html-keyboard-response","21","53998","0.0-4.0-2.3","5c522508fcbef20001939a03","656d9e5e2de4f984cfed7d4d","656d9ee0372bc5e0fc9f1675","null","
        <div style=""text-align: center; position: fixed; top: 5vh; left: 40vw;"">
            <div style=""margin:0 auto; width: 20vw; top: 8vh; font-size: 2vw""> 
            <font color=""green""> Bonus : $0 </font>
            </div>
        </div>
    ","null","","","","","","","",""
"","","","","","html-keyboard-response","22","54232","0.0-4.0-3.3","5c522508fcbef20001939a03","656d9e5e2de4f984cfed7d4d","656d9ee0372bc5e0fc9f1675","234","./stimuli//pack_shapes_1/cat_2/diff_1/ex_2_1_12.png","arrowright","response","ArrowRight","12","2","1","train","true",""
"","","","","","html-keyboard-response","23","55733","0.0-4.0-4.3","5c522508fcbef20001939a03","656d9e5e2de4f984cfed7d4d","656d9ee0372bc5e0fc9f1675","null","<p><font color=""green"" size=""5vw""> Correct category! </font></p>","null","feedback","","","","","","","0"
"","","","","","html-keyboard-response","24","56703","0.0-4.0-0.4","5c522508fcbef20001939a03","656d9e5e2de4f984cfed7d4d","656d9ee0372bc5e0fc9f1675","970","
            
        <div style=""text-align: center; position: fixed; top: 5vh; left: 40vw;"">
            <div style=""margin:0 auto; width: 20vw; top: 8vh; font-size: 2vw""> 
            <font color=""green""> Bonus : $0 </font>
            </div>
        </div>
    
            <div> Please press any key to continue to the next image.</div>
        ","arrowleft","ITI","","","","","","",""
"","","","","","html-keyboard-response","25","57304","0.0-4.0-1.4","5c522508fcbef20001939a03","656d9e5e2de4f984cfed7d4d","656d9ee0372bc5e0fc9f1675","null","
        
        <div style=""text-align: center; position: fixed; top: 5vh; left: 40vw;"">
            <div style=""margin:0 auto; width: 20vw; top: 8vh; font-size: 2vw""> 
            <font color=""green""> Bonus : $0 </font>
            </div>
        </div>
    
        <img class=""stim"" src=./stimuli//pack_shapes_1/cat_1/diff_1/ex_1_1_6.png></img>
    ","null","stimulus","","","","","","",""
"","","","","","html-keyboard-response","26","58306","0.0-4.0-2.4","5c522508fcbef20001939a03","656d9e5e2de4f984cfed7d4d","656d9ee0372bc5e0fc9f1675","null","
        <div style=""text-align: center; position: fixed; top: 5vh; left: 40vw;"">
            <div style=""margin:0 auto; width: 20vw; top: 8vh; font-size: 2vw""> 
            <font color=""green""> Bonus : $0 </font>
            </div>
        </div>
    ","null","","","","","","","",""
"","","","","","html-keyboard-response","27","58589","0.0-4.0-3.4","5c522508fcbef20001939a03","656d9e5e2de4f984cfed7d4d","656d9ee0372bc5e0fc9f1675","283","./stimuli//pack_shapes_1/cat_1/diff_1/ex_1_1_6.png","arrowleft","response","ArrowLeft","6","1","1","train","true",""
"","","","","","html-keyboard-response","28","60090","0.0-4.0-4.4","5c522508fcbef20001939a03","656d9e5e2de4f984cfed7d4d","656d9ee0372bc5e0fc9f1675","null","<p><font color=""green"" size=""5vw""> Correct category! </font></p>","null","feedback","","","","","","","0"
"","","","","","html-keyboard-response","29","60606","0.0-4.0-0.5","5c522508fcbef20001939a03","656d9e5e2de4f984cfed7d4d","656d9ee0372bc5e0fc9f1675","515","
            
        <div style=""text-align: center; position: fixed; top: 5vh; left: 40vw;"">
            <div style=""margin:0 auto; width: 20vw; top: 8vh; font-size: 2vw""> 
            <font color=""green""> Bonus : $0 </font>
            </div>
        </div>
    
            <div> Please press any key to continue to the next image.</div>
        ","arrowright","ITI","","","","","","",""
"","","","","","html-keyboard-response","30","61207","0.0-4.0-1.5","5c522508fcbef20001939a03","656d9e5e2de4f984cfed7d4d","656d9ee0372bc5e0fc9f1675","null","
        
        <div style=""text-align: center; position: fixed; top: 5vh; left: 40vw;"">
            <div style=""margin:0 auto; width: 20vw; top: 8vh; font-size: 2vw""> 
            <font color=""green""> Bonus : $0 </font>
            </div>
        </div>
    
        <img class=""stim"" src=./stimuli//pack_shapes_1/cat_2/diff_2/ex_2_2_15.png></img>
    ","null","stimulus","","","","","","",""
"","","","","","html-keyboard-response","31","62208","0.0-4.0-2.5","5c522508fcbef20001939a03","656d9e5e2de4f984cfed7d4d","656d9ee0372bc5e0fc9f1675","null","
        <div style=""text-align: center; position: fixed; top: 5vh; left: 40vw;"">
            <div style=""margin:0 auto; width: 20vw; top: 8vh; font-size: 2vw""> 
            <font color=""green""> Bonus : $0 </font>
            </div>
        </div>
    ","null","","","","","","","",""
"","","","","","html-keyboard-response","32","62485","0.0-4.0-3.5","5c522508fcbef20001939a03","656d9e5e2de4f984cfed7d4d","656d9ee0372bc5e0fc9f1675","277","./stimuli//pack_shapes_1/cat_2/diff_2/ex_2_2_15.png","arrowright","response","ArrowRight","15","2","2","train","true",""
"","","","","","html-keyboard-response","33","63986","0.0-4.0-4.5","5c522508fcbef20001939a03","656d9e5e2de4f984cfed7d4d","656d9ee0372bc5e0fc9f1675","null","<p><font color=""green"" size=""5vw""> Correct category! </font></p>","null","feedback","","","","","","","0"
"","","","","","html-keyboard-response","34","64548","0.0-4.0-0.6","5c522508fcbef20001939a03","656d9e5e2de4f984cfed7d4d","656d9ee0372bc5e0fc9f1675","562","
            
        <div style=""text-align: center; position: fixed; top: 5vh; left: 40vw;"">
            <div style=""margin:0 auto; width: 20vw; top: 8vh; font-size: 2vw""> 
            <font color=""green""> Bonus : $0 </font>
            </div>
        </div>
    
            <div> Please press any key to continue to the next image.</div>
        ","arrowright","ITI","","","","","","",""
"","","","","","html-keyboard-response","35","65149","0.0-4.0-1.6","5c522508fcbef20001939a03","656d9e5e2de4f984cfed7d4d","656d9ee0372bc5e0fc9f1675","null","
        
        <div style=""text-align: center; position: fixed; top: 5vh; left: 40vw;"">
            <div style=""margin:0 auto; width: 20vw; top: 8vh; font-size: 2vw""> 
            <font color=""green""> Bonus : $0 </font>
            </div>
        </div>
    
        <img class=""stim"" src=./stimuli//pack_shapes_1/cat_2/diff_1/ex_2_1_9.png></img>
    ","null","stimulus","","","","","","",""
"","","","","","html-keyboard-response","36","66151","0.0-4.0-2.6","5c522508fcbef20001939a03","656d9e5e2de4f984cfed7d4d","656d9ee0372bc5e0fc9f1675","null","
        <div style=""text-align: center; position: fixed; top: 5vh; left: 40vw;"">
            <div style=""margin:0 auto; width: 20vw; top: 8vh; font-size: 2vw""> 
            <font color=""green""> Bonus : $0 </font>
            </div>
        </div>
    ","null","","","","","","","",""
"","","","","","html-keyboard-response","37","66389","0.0-4.0-3.6","5c522508fcbef20001939a03","656d9e5e2de4f984cfed7d4d","656d9ee0372bc5e0fc9f1675","237","./stimuli//pack_shapes_1/cat_2/diff_1/ex_2_1_9.png","arrowright","response","ArrowRight","9","2","1","train","true",""
"","","","","","html-keyboard-response","38","67889","0.0-4.0-4.6","5c522508fcbef20001939a03","656d9e5e2de4f984cfed7d4d","656d9ee0372bc5e0fc9f1675","null","<p><font color=""green"" size=""5vw""> Correct category! </font></p>","null","feedback","","","","","","","0"
"","","","","","html-keyboard-response","39","68301","0.0-4.0-0.7","5c522508fcbef20001939a03","656d9e5e2de4f984cfed7d4d","656d9ee0372bc5e0fc9f1675","411","
            
        <div style=""text-align: center; position: fixed; top: 5vh; left: 40vw;"">
            <div style=""margin:0 auto; width: 20vw; top: 8vh; font-size: 2vw""> 
            <font color=""green""> Bonus : $0 </font>
            </div>
        </div>
    
            <div> Please press any key to continue to the next image.</div>
        ","arrowright","ITI","","","","","","",""
"","","","","","html-keyboard-response","40","68902","0.0-4.0-1.7","5c522508fcbef20001939a03","656d9e5e2de4f984cfed7d4d","656d9ee0372bc5e0fc9f1675","null","
        
        <div style=""text-align: center; position: fixed; top: 5vh; left: 40vw;"">
            <div style=""margin:0 auto; width: 20vw; top: 8vh; font-size: 2vw""> 
            <font color=""green""> Bonus : $0 </font>
            </div>
        </div>
    
        <img class=""stim"" src=./stimuli//pack_shapes_1/cat_1/diff_1/ex_1_1_14.png></img>
    ","null","stimulus","","","","","","",""
"","","","","","html-keyboard-response","41","69904","0.0-4.0-2.7","5c522508fcbef20001939a03","656d9e5e2de4f984cfed7d4d","656d9ee0372bc5e0fc9f1675","null","
        <div style=""text-align: center; position: fixed; top: 5vh; left: 40vw;"">
            <div style=""margin:0 auto; width: 20vw; top: 8vh; font-size: 2vw""> 
            <font color=""green""> Bonus : $0 </font>
            </div>
        </div>
    ","null","","","","","","","",""
"","","","","","html-keyboard-response","42","70163","0.0-4.0-3.7","5c522508fcbef20001939a03","656d9e5e2de4f984cfed7d4d","656d9ee0372bc5e0fc9f1675","259","./stimuli//pack_shapes_1/cat_1/diff_1/ex_1_1_14.png","arrowleft","response","ArrowLeft","14","1","1","train","true",""
"","","","","","html-keyboard-response","43","71664","0.0-4.0-4.7","5c522508fcbef20001939a03","656d9e5e2de4f984cfed7d4d","656d9ee0372bc5e0fc9f1675","null","<p><font color=""green"" size=""5vw""> Correct category! </font></p>","null","feedback","","","","","","","0"
"","","","","","html-keyboard-response","44","71951","0.0-4.0-0.8","5c522508fcbef20001939a03","656d9e5e2de4f984cfed7d4d","656d9ee0372bc5e0fc9f1675","286","
            
        <div style=""text-align: center; position: fixed; top: 5vh; left: 40vw;"">
            <div style=""margin:0 auto; width: 20vw; top: 8vh; font-size: 2vw""> 
            <font color=""green""> Bonus : $0 </font>
            </div>
        </div>
    
            <div> Please press any key to continue to the next image.</div>
        ","arrowleft","ITI","","","","","","",""
"","","","","","html-keyboard-response","45","72552","0.0-4.0-1.8","5c522508fcbef20001939a03","656d9e5e2de4f984cfed7d4d","656d9ee0372bc5e0fc9f1675","null","
        
        <div style=""text-align: center; position: fixed; top: 5vh; left: 40vw;"">
            <div style=""margin:0 auto; width: 20vw; top: 8vh; font-size: 2vw""> 
            <font color=""green""> Bonus : $0 </font>
            </div>
        </div>
    
        <img class=""stim"" src=./stimuli//pack_shapes_1/cat_1/diff_1/ex_1_1_11.png></img>
    ","null","stimulus","","","","","","",""
"","","","","","html-keyboard-response","46","73553","0.0-4.0-2.8","5c522508fcbef20001939a03","656d9e5e2de4f984cfed7d4d","656d9ee0372bc5e0fc9f1675","null","
        <div style=""text-align: center; position: fixed; top: 5vh; left: 40vw;"">
            <div style=""margin:0 auto; width: 20vw; top: 8vh; font-size: 2vw""> 
            <font color=""green""> Bonus : $0 </font>
            </div>
        </div>
    ","null","","","","","","","",""
"","","","","","html-keyboard-response","47","73816","0.0-4.0-3.8","5c522508fcbef20001939a03","656d9e5e2de4f984cfed7d4d","656d9ee0372bc5e0fc9f1675","263","./stimuli//pack_shapes_1/cat_1/diff_1/ex_1_1_11.png","arrowleft","response","ArrowLeft","11","1","1","train","true",""
"","","","","","html-keyboard-response","48","75317","0.0-4.0-4.8","5c522508fcbef20001939a03","656d9e5e2de4f984cfed7d4d","656d9ee0372bc5e0fc9f1675","null","<p><font color=""green"" size=""5vw""> Correct category! </font></p>","null","feedback","","","","","","","0"
"","","","","","html-keyboard-response","49","75773","0.0-4.0-0.9","5c522508fcbef20001939a03","656d9e5e2de4f984cfed7d4d","656d9ee0372bc5e0fc9f1675","455","
            
        <div style=""text-align: center; position: fixed; top: 5vh; left: 40vw;"">
            <div style=""margin:0 auto; width: 20vw; top: 8vh; font-size: 2vw""> 
            <font color=""green""> Bonus : $0 </font>
            </div>
        </div>
    
            <div> Please press any key to continue to the next image.</div>
        ","arrowleft","ITI","","","","","","",""
"","","","","","html-keyboard-response","50","76373","0.0-4.0-1.9","5c522508fcbef20001939a03","656d9e5e2de4f984cfed7d4d","656d9ee0372bc5e0fc9f1675","null","
        
        <div style=""text-align: center; position: fixed; top: 5vh; left: 40vw;"">
            <div style=""margin:0 auto; width: 20vw; top: 8vh; font-size: 2vw""> 
            <font color=""green""> Bonus : $0 </font>
            </div>
        </div>
    
        <img class=""stim"" src=./stimuli//pack_shapes_1/cat_1/diff_2/ex_1_2_15.png></img>
    ","null","stimulus","","","","","","",""
"","","","","","html-keyboard-response","51","77374","0.0-4.0-2.9","5c522508fcbef20001939a03","656d9e5e2de4f984cfed7d4d","656d9ee0372bc5e0fc9f1675","null","
        <div style=""text-align: center; position: fixed; top: 5vh; left: 40vw;"">
            <div style=""margin:0 auto; width: 20vw; top: 8vh; font-size: 2vw""> 
            <font color=""green""> Bonus : $0 </font>
            </div>
        </div>
    ","null","","","","","","","",""
"","","","","","html-keyboard-response","52","77647","0.0-4.0-3.9","5c522508fcbef20001939a03","656d9e5e2de4f984cfed7d4d","656d9ee0372bc5e0fc9f1675","272","./stimuli//pack_shapes_1/cat_1/diff_2/ex_1_2_15.png","arrowleft","response","ArrowLeft","15","1","2","train","true",""
"","","","","","html-keyboard-response","53","79148","0.0-4.0-4.9","5c522508fcbef20001939a03","656d9e5e2de4f984cfed7d4d","656d9ee0372bc5e0fc9f1675","null","<p><font color=""green"" size=""5vw""> Correct category! </font></p>","null","feedback","","","","","","","0"
"","","","","","html-keyboard-response","54","86255","0.0-5.0","5c522508fcbef20001939a03","656d9e5e2de4f984cfed7d4d","656d9ee0372bc5e0fc9f1675","7107","
            <b> <p> The practice round has finished.</p>
            <p> For the rest of the experiment you will receive a $0.05 bonus for each correct answer and lose $0.05 from your bonus for each incorrect answer!</p>
            <p> The bonus can not become less than $0. </b>
            <p> Press any key to begin the test. </p>
            ","arrowleft","intermission","","","","","","",""
"","","","","","html-keyboard-response","55","87549","0.0-6.0-0.0","5c522508fcbef20001939a03","656d9e5e2de4f984cfed7d4d","656d9ee0372bc5e0fc9f1675","1294","
            
        <div style=""text-align: center; position: fixed; top: 5vh; left: 40vw;"">
            <div style=""margin:0 auto; width: 20vw; top: 8vh; font-size: 2vw""> 
            <font color=""green""> Bonus : $0 </font>
            </div>
        </div>
    
            <div> Please press any key to continue to the next image.</div>
        ","arrowleft","ITI","","","","","","",""
"","","","","","html-keyboard-response","56","88151","0.0-6.0-1.0","5c522508fcbef20001939a03","656d9e5e2de4f984cfed7d4d","656d9ee0372bc5e0fc9f1675","null","
        
        <div style=""text-align: center; position: fixed; top: 5vh; left: 40vw;"">
            <div style=""margin:0 auto; width: 20vw; top: 8vh; font-size: 2vw""> 
            <font color=""green""> Bonus : $0 </font>
            </div>
        </div>
    
        <img class=""stim"" src=./stimuli//pack_shapes_1/cat_2/diff_1/ex_2_1_8.png></img>
    ","null","stimulus","","","","","","",""
"","","","","","html-keyboard-response","57","89153","0.0-6.0-2.0","5c522508fcbef20001939a03","656d9e5e2de4f984cfed7d4d","656d9ee0372bc5e0fc9f1675","null","
        <div style=""text-align: center; position: fixed; top: 5vh; left: 40vw;"">
            <div style=""margin:0 auto; width: 20vw; top: 8vh; font-size: 2vw""> 
            <font color=""green""> Bonus : $0 </font>
            </div>
        </div>
    ","null","","","","","","","",""
"","","","","","html-keyboard-response","58","89417","0.0-6.0-3.0","5c522508fcbef20001939a03","656d9e5e2de4f984cfed7d4d","656d9ee0372bc5e0fc9f1675","264","./stimuli//pack_shapes_1/cat_2/diff_1/ex_2_1_8.png","arrowright","response","ArrowRight","8","2","1","test","true",""
"","","","","","html-keyboard-response","59","90897","0.0-6.0-4.0","5c522508fcbef20001939a03","656d9e5e2de4f984cfed7d4d","656d9ee0372bc5e0fc9f1675","1479","<p> <font color=""green"" size=""5vw""> Correct category! </font> <br> <br> <font color=""green"" size=""8vw""> + $0.05 </font> </p>","arrowright","feedback","","","","","","","0.05"
"","","","","","html-keyboard-response","60","91973","0.0-6.1-0.1","5c522508fcbef20001939a03","656d9e5e2de4f984cfed7d4d","656d9ee0372bc5e0fc9f1675","1076","
            
        <div style=""text-align: center; position: fixed; top: 5vh; left: 40vw;"">
            <div style=""margin:0 auto; width: 20vw; top: 8vh; font-size: 2vw""> 
            <font color=""green""> Bonus : $0.05 </font>
            </div>
        </div>
    
            <div> Please press any key to continue to the next image.</div>
        ","arrowright","ITI","","","","","","",""
"","","","","","html-keyboard-response","61","92574","0.0-6.1-1.1","5c522508fcbef20001939a03","656d9e5e2de4f984cfed7d4d","656d9ee0372bc5e0fc9f1675","null","
        
        <div style=""text-align: center; position: fixed; top: 5vh; left: 40vw;"">
            <div style=""margin:0 auto; width: 20vw; top: 8vh; font-size: 2vw""> 
            <font color=""green""> Bonus : $0.05 </font>
            </div>
        </div>
    
        <img class=""stim"" src=./stimuli//pack_shapes_1/cat_2/diff_1/ex_2_1_15.png></img>
    ","null","stimulus","","","","","","",""
"","","","","","html-keyboard-response","62","93576","0.0-6.1-2.1","5c522508fcbef20001939a03","656d9e5e2de4f984cfed7d4d","656d9ee0372bc5e0fc9f1675","null","
        <div style=""text-align: center; position: fixed; top: 5vh; left: 40vw;"">
            <div style=""margin:0 auto; width: 20vw; top: 8vh; font-size: 2vw""> 
            <font color=""green""> Bonus : $0.05 </font>
            </div>
        </div>
    ","null","","","","","","","",""
"","","","","","html-keyboard-response","63","93788","0.0-6.1-3.1","5c522508fcbef20001939a03","656d9e5e2de4f984cfed7d4d","656d9ee0372bc5e0fc9f1675","212","./stimuli//pack_shapes_1/cat_2/diff_1/ex_2_1_15.png","arrowright","response","ArrowRight","15","2","1","test","true",""
"","","","","","html-keyboard-response","64","95289","0.0-6.1-4.1","5c522508fcbef20001939a03","656d9e5e2de4f984cfed7d4d","656d9ee0372bc5e0fc9f1675","null","<p> <font color=""green"" size=""5vw""> Correct category! </font> <br> <br> <font color=""green"" size=""8vw""> + $0.05 </font> </p>","null","feedback","","","","","","","0.1"
"","","","","","html-keyboard-response","65","96013","0.0-6.2-0.2","5c522508fcbef20001939a03","656d9e5e2de4f984cfed7d4d","656d9ee0372bc5e0fc9f1675","724","
            
        <div style=""text-align: center; position: fixed; top: 5vh; left: 40vw;"">
            <div style=""margin:0 auto; width: 20vw; top: 8vh; font-size: 2vw""> 
            <font color=""green""> Bonus : $0.1 </font>
            </div>
        </div>
    
            <div> Please press any key to continue to the next image.</div>
        ","arrowright","ITI","","","","","","",""
"","","","","","html-keyboard-response","66","96614","0.0-6.2-1.2","5c522508fcbef20001939a03","656d9e5e2de4f984cfed7d4d","656d9ee0372bc5e0fc9f1675","null","
        
        <div style=""text-align: center; position: fixed; top: 5vh; left: 40vw;"">
            <div style=""margin:0 auto; width: 20vw; top: 8vh; font-size: 2vw""> 
            <font color=""green""> Bonus : $0.1 </font>
            </div>
        </div>
    
        <img class=""stim"" src=./stimuli//pack_shapes_1/cat_2/diff_1/ex_2_1_14.png></img>
    ","null","stimulus","","","","","","",""
"","","","","","html-keyboard-response","67","97615","0.0-6.2-2.2","5c522508fcbef20001939a03","656d9e5e2de4f984cfed7d4d","656d9ee0372bc5e0fc9f1675","null","
        <div style=""text-align: center; position: fixed; top: 5vh; left: 40vw;"">
            <div style=""margin:0 auto; width: 20vw; top: 8vh; font-size: 2vw""> 
            <font color=""green""> Bonus : $0.1 </font>
            </div>
        </div>
    ","null","","","","","","","",""
"","","","","","html-keyboard-response","68","97841","0.0-6.2-3.2","5c522508fcbef20001939a03","656d9e5e2de4f984cfed7d4d","656d9ee0372bc5e0fc9f1675","225","./stimuli//pack_shapes_1/cat_2/diff_1/ex_2_1_14.png","arrowright","response","ArrowRight","14","2","1","test","true",""
"","","","","","html-keyboard-response","69","98819","0.0-6.2-4.2","5c522508fcbef20001939a03","656d9e5e2de4f984cfed7d4d","656d9ee0372bc5e0fc9f1675","978","<p> <font color=""green"" size=""5vw""> Correct category! </font> <br> <br> <font color=""green"" size=""8vw""> + $0.05 </font> </p>","arrowright","feedback","","","","","","","0.15"
"","","","","","html-keyboard-response","70","99936","0.0-6.3-0.3","5c522508fcbef20001939a03","656d9e5e2de4f984cfed7d4d","656d9ee0372bc5e0fc9f1675","1116","
            
        <div style=""text-align: center; position: fixed; top: 5vh; left: 40vw;"">
            <div style=""margin:0 auto; width: 20vw; top: 8vh; font-size: 2vw""> 
            <font color=""green""> Bonus : $0.15 </font>
            </div>
        </div>
    
            <div> Please press any key to continue to the next image.</div>
        ","arrowright","ITI","","","","","","",""
"","","","","","html-keyboard-response","71","100537","0.0-6.3-1.3","5c522508fcbef20001939a03","656d9e5e2de4f984cfed7d4d","656d9ee0372bc5e0fc9f1675","null","
        
        <div style=""text-align: center; position: fixed; top: 5vh; left: 40vw;"">
            <div style=""margin:0 auto; width: 20vw; top: 8vh; font-size: 2vw""> 
            <font color=""green""> Bonus : $0.15 </font>
            </div>
        </div>
    
        <img class=""stim"" src=./stimuli//pack_shapes_1/cat_1/diff_1/ex_1_1_16.png></img>
    ","null","stimulus","","","","","","",""
"","","","","","html-keyboard-response","72","101538","0.0-6.3-2.3","5c522508fcbef20001939a03","656d9e5e2de4f984cfed7d4d","656d9ee0372bc5e0fc9f1675","null","
        <div style=""text-align: center; position: fixed; top: 5vh; left: 40vw;"">
            <div style=""margin:0 auto; width: 20vw; top: 8vh; font-size: 2vw""> 
            <font color=""green""> Bonus : $0.15 </font>
            </div>
        </div>
    ","null","","","","","","","",""
"","","","","","html-keyboard-response","73","101756","0.0-6.3-3.3","5c522508fcbef20001939a03","656d9e5e2de4f984cfed7d4d","656d9ee0372bc5e0fc9f1675","218","./stimuli//pack_shapes_1/cat_1/diff_1/ex_1_1_16.png","arrowleft","response","ArrowLeft","16","1","1","test","true",""
"","","","","","html-keyboard-response","74","102905","0.0-6.3-4.3","5c522508fcbef20001939a03","656d9e5e2de4f984cfed7d4d","656d9ee0372bc5e0fc9f1675","1149","<p> <font color=""green"" size=""5vw""> Correct category! </font> <br> <br> <font color=""green"" size=""8vw""> + $0.05 </font> </p>","arrowleft","feedback","","","","","","","0.2"
"","","","","","html-keyboard-response","75","103529","0.0-6.4-0.4","5c522508fcbef20001939a03","656d9e5e2de4f984cfed7d4d","656d9ee0372bc5e0fc9f1675","623","
            
        <div style=""text-align: center; position: fixed; top: 5vh; left: 40vw;"">
            <div style=""margin:0 auto; width: 20vw; top: 8vh; font-size: 2vw""> 
            <font color=""green""> Bonus : $0.2 </font>
            </div>
        </div>
    
            <div> Please press any key to continue to the next image.</div>
        ","arrowleft","ITI","","","","","","",""
"","","","","","html-keyboard-response","76","104131","0.0-6.4-1.4","5c522508fcbef20001939a03","656d9e5e2de4f984cfed7d4d","656d9ee0372bc5e0fc9f1675","null","
        
        <div style=""text-align: center; position: fixed; top: 5vh; left: 40vw;"">
            <div style=""margin:0 auto; width: 20vw; top: 8vh; font-size: 2vw""> 
            <font color=""green""> Bonus : $0.2 </font>
            </div>
        </div>
    
        <img class=""stim"" src=./stimuli//pack_shapes_1/cat_2/diff_1/ex_2_1_15.png></img>
    ","null","stimulus","","","","","","",""
"","","","","","html-keyboard-response","77","105133","0.0-6.4-2.4","5c522508fcbef20001939a03","656d9e5e2de4f984cfed7d4d","656d9ee0372bc5e0fc9f1675","null","
        <div style=""text-align: center; position: fixed; top: 5vh; left: 40vw;"">
            <div style=""margin:0 auto; width: 20vw; top: 8vh; font-size: 2vw""> 
            <font color=""green""> Bonus : $0.2 </font>
            </div>
        </div>
    ","null","","","","","","","",""
"","","","","","html-keyboard-response","78","105391","0.0-6.4-3.4","5c522508fcbef20001939a03","656d9e5e2de4f984cfed7d4d","656d9ee0372bc5e0fc9f1675","258","./stimuli//pack_shapes_1/cat_2/diff_1/ex_2_1_15.png","arrowright","response","ArrowRight","15","2","1","test","true",""
"","","","","","html-keyboard-response","79","106891","0.0-6.4-4.4","5c522508fcbef20001939a03","656d9e5e2de4f984cfed7d4d","656d9ee0372bc5e0fc9f1675","null","<p> <font color=""green"" size=""5vw""> Correct category! </font> <br> <br> <font color=""green"" size=""8vw""> + $0.05 </font> </p>","null","feedback","","","","","","","0.25"
"","","","","","html-keyboard-response","80","107520","0.0-6.5-0.5","5c522508fcbef20001939a03","656d9e5e2de4f984cfed7d4d","656d9ee0372bc5e0fc9f1675","629","
            
        <div style=""text-align: center; position: fixed; top: 5vh; left: 40vw;"">
            <div style=""margin:0 auto; width: 20vw; top: 8vh; font-size: 2vw""> 
            <font color=""green""> Bonus : $0.25 </font>
            </div>
        </div>
    
            <div> Please press any key to continue to the next image.</div>
        ","arrowright","ITI","","","","","","",""
"","","","","","html-keyboard-response","81","108121","0.0-6.5-1.5","5c522508fcbef20001939a03","656d9e5e2de4f984cfed7d4d","656d9ee0372bc5e0fc9f1675","null","
        
        <div style=""text-align: center; position: fixed; top: 5vh; left: 40vw;"">
            <div style=""margin:0 auto; width: 20vw; top: 8vh; font-size: 2vw""> 
            <font color=""green""> Bonus : $0.25 </font>
            </div>
        </div>
    
        <img class=""stim"" src=./stimuli//pack_shapes_1/cat_2/diff_2/ex_2_2_6.png></img>
    ","null","stimulus","","","","","","",""
"","","","","","html-keyboard-response","82","109122","0.0-6.5-2.5","5c522508fcbef20001939a03","656d9e5e2de4f984cfed7d4d","656d9ee0372bc5e0fc9f1675","null","
        <div style=""text-align: center; position: fixed; top: 5vh; left: 40vw;"">
            <div style=""margin:0 auto; width: 20vw; top: 8vh; font-size: 2vw""> 
            <font color=""green""> Bonus : $0.25 </font>
            </div>
        </div>
    ","null","","","","","","","",""
"","","","","","html-keyboard-response","83","109342","0.0-6.5-3.5","5c522508fcbef20001939a03","656d9e5e2de4f984cfed7d4d","656d9ee0372bc5e0fc9f1675","219","./stimuli//pack_shapes_1/cat_2/diff_2/ex_2_2_6.png","arrowright","response","ArrowRight","6","2","2","test","true",""
"","","","","","html-keyboard-response","84","110842","0.0-6.5-4.5","5c522508fcbef20001939a03","656d9e5e2de4f984cfed7d4d","656d9ee0372bc5e0fc9f1675","null","<p> <font color=""green"" size=""5vw""> Correct category! </font> <br> <br> <font color=""green"" size=""8vw""> + $0.05 </font> </p>","null","feedback","","","","","","","0.3"
"","","","","","html-keyboard-response","85","111060","0.0-6.6-0.6","5c522508fcbef20001939a03","656d9e5e2de4f984cfed7d4d","656d9ee0372bc5e0fc9f1675","218","
            
        <div style=""text-align: center; position: fixed; top: 5vh; left: 40vw;"">
            <div style=""margin:0 auto; width: 20vw; top: 8vh; font-size: 2vw""> 
            <font color=""green""> Bonus : $0.3 </font>
            </div>
        </div>
    
            <div> Please press any key to continue to the next image.</div>
        ","arrowright","ITI","","","","","","",""
"","","","","","html-keyboard-response","86","111662","0.0-6.6-1.6","5c522508fcbef20001939a03","656d9e5e2de4f984cfed7d4d","656d9ee0372bc5e0fc9f1675","null","
        
        <div style=""text-align: center; position: fixed; top: 5vh; left: 40vw;"">
            <div style=""margin:0 auto; width: 20vw; top: 8vh; font-size: 2vw""> 
            <font color=""green""> Bonus : $0.3 </font>
            </div>
        </div>
    
        <img class=""stim"" src=./stimuli//pack_shapes_1/cat_2/diff_2/ex_2_2_6.png></img>
    ","null","stimulus","","","","","","",""
"","","","","","html-keyboard-response","87","112664","0.0-6.6-2.6","5c522508fcbef20001939a03","656d9e5e2de4f984cfed7d4d","656d9ee0372bc5e0fc9f1675","null","
        <div style=""text-align: center; position: fixed; top: 5vh; left: 40vw;"">
            <div style=""margin:0 auto; width: 20vw; top: 8vh; font-size: 2vw""> 
            <font color=""green""> Bonus : $0.3 </font>
            </div>
        </div>
    ","null","","","","","","","",""
"","","","","","html-keyboard-response","88","113076","0.0-6.6-3.6","5c522508fcbef20001939a03","656d9e5e2de4f984cfed7d4d","656d9ee0372bc5e0fc9f1675","412","./stimuli//pack_shapes_1/cat_2/diff_2/ex_2_2_6.png","arrowright","response","ArrowRight","6","2","2","test","true",""
"","","","","","html-keyboard-response","89","114399","0.0-6.6-4.6","5c522508fcbef20001939a03","656d9e5e2de4f984cfed7d4d","656d9ee0372bc5e0fc9f1675","1323","<p> <font color=""green"" size=""5vw""> Correct category! </font> <br> <br> <font color=""green"" size=""8vw""> + $0.05 </font> </p>","arrowright","feedback","","","","","","","0.35"
"","","","","","html-keyboard-response","90","115192","0.0-6.7-0.7","5c522508fcbef20001939a03","656d9e5e2de4f984cfed7d4d","656d9ee0372bc5e0fc9f1675","792","
            
        <div style=""text-align: center; position: fixed; top: 5vh; left: 40vw;"">
            <div style=""margin:0 auto; width: 20vw; top: 8vh; font-size: 2vw""> 
            <font color=""green""> Bonus : $0.35 </font>
            </div>
        </div>
    
            <div> Please press any key to continue to the next image.</div>
        ","arrowright","ITI","","","","","","",""
"","","","","","html-keyboard-response","91","115793","0.0-6.7-1.7","5c522508fcbef20001939a03","656d9e5e2de4f984cfed7d4d","656d9ee0372bc5e0fc9f1675","null","
        
        <div style=""text-align: center; position: fixed; top: 5vh; left: 40vw;"">
            <div style=""margin:0 auto; width: 20vw; top: 8vh; font-size: 2vw""> 
            <font color=""green""> Bonus : $0.35 </font>
            </div>
        </div>
    
        <img class=""stim"" src=./stimuli//pack_shapes_1/cat_2/diff_2/ex_2_2_13.png></img>
    ","null","stimulus","","","","","","",""
"","","","","","html-keyboard-response","92","116794","0.0-6.7-2.7","5c522508fcbef20001939a03","656d9e5e2de4f984cfed7d4d","656d9ee0372bc5e0fc9f1675","null","
        <div style=""text-align: center; position: fixed; top: 5vh; left: 40vw;"">
            <div style=""margin:0 auto; width: 20vw; top: 8vh; font-size: 2vw""> 
            <font color=""green""> Bonus : $0.35 </font>
            </div>
        </div>
    ","null","","","","","","","",""
"","","","","","html-keyboard-response","93","117025","0.0-6.7-3.7","5c522508fcbef20001939a03","656d9e5e2de4f984cfed7d4d","656d9ee0372bc5e0fc9f1675","231","./stimuli//pack_shapes_1/cat_2/diff_2/ex_2_2_13.png","arrowright","response","ArrowRight","13","2","2","test","true",""
"","","","","","html-keyboard-response","94","118050","0.0-6.7-4.7","5c522508fcbef20001939a03","656d9e5e2de4f984cfed7d4d","656d9ee0372bc5e0fc9f1675","1025","<p> <font color=""green"" size=""5vw""> Correct category! </font> <br> <br> <font color=""green"" size=""8vw""> + $0.05 </font> </p>","arrowright","feedback","","","","","","","0.4"
"","","","","","html-keyboard-response","95","118868","0.0-6.8-0.8","5c522508fcbef20001939a03","656d9e5e2de4f984cfed7d4d","656d9ee0372bc5e0fc9f1675","818","
            
        <div style=""text-align: center; position: fixed; top: 5vh; left: 40vw;"">
            <div style=""margin:0 auto; width: 20vw; top: 8vh; font-size: 2vw""> 
            <font color=""green""> Bonus : $0.4 </font>
            </div>
        </div>
    
            <div> Please press any key to continue to the next image.</div>
        ","arrowright","ITI","","","","","","",""
"","","","","","html-keyboard-response","96","119469","0.0-6.8-1.8","5c522508fcbef20001939a03","656d9e5e2de4f984cfed7d4d","656d9ee0372bc5e0fc9f1675","null","
        
        <div style=""text-align: center; position: fixed; top: 5vh; left: 40vw;"">
            <div style=""margin:0 auto; width: 20vw; top: 8vh; font-size: 2vw""> 
            <font color=""green""> Bonus : $0.4 </font>
            </div>
        </div>
    
        <img class=""stim"" src=./stimuli//pack_shapes_1/cat_1/diff_2/ex_1_2_7.png></img>
    ","null","stimulus","","","","","","",""
"","","","","","html-keyboard-response","97","120470","0.0-6.8-2.8","5c522508fcbef20001939a03","656d9e5e2de4f984cfed7d4d","656d9ee0372bc5e0fc9f1675","null","
        <div style=""text-align: center; position: fixed; top: 5vh; left: 40vw;"">
            <div style=""margin:0 auto; width: 20vw; top: 8vh; font-size: 2vw""> 
            <font color=""green""> Bonus : $0.4 </font>
            </div>
        </div>
    ","null","","","","","","","",""
"","","","","","html-keyboard-response","98","120884","0.0-6.8-3.8","5c522508fcbef20001939a03","656d9e5e2de4f984cfed7d4d","656d9ee0372bc5e0fc9f1675","414","./stimuli//pack_shapes_1/cat_1/diff_2/ex_1_2_7.png","arrowleft","response","ArrowLeft","7","1","2","test","true",""
"","","","","","html-keyboard-response","99","122386","0.0-6.8-4.8","5c522508fcbef20001939a03","656d9e5e2de4f984cfed7d4d","656d9ee0372bc5e0fc9f1675","null","<p> <font color=""green"" size=""5vw""> Correct category! </font> <br> <br> <font color=""green"" size=""8vw""> + $0.05 </font> </p>","null","feedback","","","","","","","0.45"
"","","","","","html-keyboard-response","100","122826","0.0-6.9-0.9","5c522508fcbef20001939a03","656d9e5e2de4f984cfed7d4d","656d9ee0372bc5e0fc9f1675","440","
            
        <div style=""text-align: center; position: fixed; top: 5vh; left: 40vw;"">
            <div style=""margin:0 auto; width: 20vw; top: 8vh; font-size: 2vw""> 
            <font color=""green""> Bonus : $0.45 </font>
            </div>
        </div>
    
            <div> Please press any key to continue to the next image.</div>
        ","arrowleft","ITI","","","","","","",""
"","","","","","html-keyboard-response","101","123427","0.0-6.9-1.9","5c522508fcbef20001939a03","656d9e5e2de4f984cfed7d4d","656d9ee0372bc5e0fc9f1675","null","
        
        <div style=""text-align: center; position: fixed; top: 5vh; left: 40vw;"">
            <div style=""margin:0 auto; width: 20vw; top: 8vh; font-size: 2vw""> 
            <font color=""green""> Bonus : $0.45 </font>
            </div>
        </div>
    
        <img class=""stim"" src=./stimuli//pack_shapes_1/cat_1/diff_2/ex_1_2_13.png></img>
    ","null","stimulus","","","","","","",""
"","","","","","html-keyboard-response","102","124428","0.0-6.9-2.9","5c522508fcbef20001939a03","656d9e5e2de4f984cfed7d4d","656d9ee0372bc5e0fc9f1675","null","
        <div style=""text-align: center; position: fixed; top: 5vh; left: 40vw;"">
            <div style=""margin:0 auto; width: 20vw; top: 8vh; font-size: 2vw""> 
            <font color=""green""> Bonus : $0.45 </font>
            </div>
        </div>
    ","null","","","","","","","",""
"","","","","","html-keyboard-response","103","124695","0.0-6.9-3.9","5c522508fcbef20001939a03","656d9e5e2de4f984cfed7d4d","656d9ee0372bc5e0fc9f1675","266","./stimuli//pack_shapes_1/cat_1/diff_2/ex_1_2_13.png","arrowleft","response","ArrowLeft","13","1","2","test","true",""
"","","","","","html-keyboard-response","104","126195","0.0-6.9-4.9","5c522508fcbef20001939a03","656d9e5e2de4f984cfed7d4d","656d9ee0372bc5e0fc9f1675","null","<p> <font color=""green"" size=""5vw""> Correct category! </font> <br> <br> <font color=""green"" size=""8vw""> + $0.05 </font> </p>","null","feedback","","","","","","","0.5"
"","","","","","html-keyboard-response","105","126594","0.0-6.10-0.10","5c522508fcbef20001939a03","656d9e5e2de4f984cfed7d4d","656d9ee0372bc5e0fc9f1675","398","
            
        <div style=""text-align: center; position: fixed; top: 5vh; left: 40vw;"">
            <div style=""margin:0 auto; width: 20vw; top: 8vh; font-size: 2vw""> 
            <font color=""green""> Bonus : $0.5 </font>
            </div>
        </div>
    
            <div> Please press any key to continue to the next image.</div>
        ","arrowleft","ITI","","","","","","",""
"","","","","","html-keyboard-response","106","127195","0.0-6.10-1.10","5c522508fcbef20001939a03","656d9e5e2de4f984cfed7d4d","656d9ee0372bc5e0fc9f1675","null","
        
        <div style=""text-align: center; position: fixed; top: 5vh; left: 40vw;"">
            <div style=""margin:0 auto; width: 20vw; top: 8vh; font-size: 2vw""> 
            <font color=""green""> Bonus : $0.5 </font>
            </div>
        </div>
    
        <img class=""stim"" src=./stimuli//pack_shapes_1/cat_1/diff_3/ex_1_3_11.png></img>
    ","null","stimulus","","","","","","",""
"","","","","","html-keyboard-response","107","128197","0.0-6.10-2.10","5c522508fcbef20001939a03","656d9e5e2de4f984cfed7d4d","656d9ee0372bc5e0fc9f1675","null","
        <div style=""text-align: center; position: fixed; top: 5vh; left: 40vw;"">
            <div style=""margin:0 auto; width: 20vw; top: 8vh; font-size: 2vw""> 
            <font color=""green""> Bonus : $0.5 </font>
            </div>
        </div>
    ","null","","","","","","","",""
"","","","","","html-keyboard-response","108","128415","0.0-6.10-3.10","5c522508fcbef20001939a03","656d9e5e2de4f984cfed7d4d","656d9ee0372bc5e0fc9f1675","218","./stimuli//pack_shapes_1/cat_1/diff_3/ex_1_3_11.png","arrowleft","response","ArrowLeft","11","1","3","test","true",""
"","","","","","html-keyboard-response","109","129360","0.0-6.10-4.10","5c522508fcbef20001939a03","656d9e5e2de4f984cfed7d4d","656d9ee0372bc5e0fc9f1675","944","<p> <font color=""green"" size=""5vw""> Correct category! </font> <br> <br> <font color=""green"" size=""8vw""> + $0.05 </font> </p>","arrowleft","feedback","","","","","","","0.55"
"","","","","","html-keyboard-response","110","130018","0.0-6.11-0.11","5c522508fcbef20001939a03","656d9e5e2de4f984cfed7d4d","656d9ee0372bc5e0fc9f1675","658","
            
        <div style=""text-align: center; position: fixed; top: 5vh; left: 40vw;"">
            <div style=""margin:0 auto; width: 20vw; top: 8vh; font-size: 2vw""> 
            <font color=""green""> Bonus : $0.55 </font>
            </div>
        </div>
    
            <div> Please press any key to continue to the next image.</div>
        ","arrowleft","ITI","","","","","","",""
"","","","","","html-keyboard-response","111","130619","0.0-6.11-1.11","5c522508fcbef20001939a03","656d9e5e2de4f984cfed7d4d","656d9ee0372bc5e0fc9f1675","null","
        
        <div style=""text-align: center; position: fixed; top: 5vh; left: 40vw;"">
            <div style=""margin:0 auto; width: 20vw; top: 8vh; font-size: 2vw""> 
            <font color=""green""> Bonus : $0.55 </font>
            </div>
        </div>
    
        <img class=""stim"" src=./stimuli//pack_shapes_1/cat_2/diff_3/ex_2_3_10.png></img>
    ","null","stimulus","","","","","","",""
"","","","","","html-keyboard-response","112","131620","0.0-6.11-2.11","5c522508fcbef20001939a03","656d9e5e2de4f984cfed7d4d","656d9ee0372bc5e0fc9f1675","null","
        <div style=""text-align: center; position: fixed; top: 5vh; left: 40vw;"">
            <div style=""margin:0 auto; width: 20vw; top: 8vh; font-size: 2vw""> 
            <font color=""green""> Bonus : $0.55 </font>
            </div>
        </div>
    ","null","","","","","","","",""
"","","","","","html-keyboard-response","113","131949","0.0-6.11-3.11","5c522508fcbef20001939a03","656d9e5e2de4f984cfed7d4d","656d9ee0372bc5e0fc9f1675","329","./stimuli//pack_shapes_1/cat_2/diff_3/ex_2_3_10.png","arrowright","response","ArrowRight","10","2","3","test","true",""
"","","","","","html-keyboard-response","114","133355","0.0-6.11-4.11","5c522508fcbef20001939a03","656d9e5e2de4f984cfed7d4d","656d9ee0372bc5e0fc9f1675","1406","<p> <font color=""green"" size=""5vw""> Correct category! </font> <br> <br> <font color=""green"" size=""8vw""> + $0.05 </font> </p>","arrowleft","feedback","","","","","","","0.6"
"","","","","","html-keyboard-response","115","133797","0.0-6.12-0.12","5c522508fcbef20001939a03","656d9e5e2de4f984cfed7d4d","656d9ee0372bc5e0fc9f1675","442","
            
        <div style=""text-align: center; position: fixed; top: 5vh; left: 40vw;"">
            <div style=""margin:0 auto; width: 20vw; top: 8vh; font-size: 2vw""> 
            <font color=""green""> Bonus : $0.6 </font>
            </div>
        </div>
    
            <div> Please press any key to continue to the next image.</div>
        ","arrowleft","ITI","","","","","","",""
"","","","","","html-keyboard-response","116","134398","0.0-6.12-1.12","5c522508fcbef20001939a03","656d9e5e2de4f984cfed7d4d","656d9ee0372bc5e0fc9f1675","null","
        
        <div style=""text-align: center; position: fixed; top: 5vh; left: 40vw;"">
            <div style=""margin:0 auto; width: 20vw; top: 8vh; font-size: 2vw""> 
            <font color=""green""> Bonus : $0.6 </font>
            </div>
        </div>
    
        <img class=""stim"" src=./stimuli//pack_shapes_1/cat_1/diff_3/ex_1_3_9.png></img>
    ","null","stimulus","","","","","","",""
"","","","","","html-keyboard-response","117","135399","0.0-6.12-2.12","5c522508fcbef20001939a03","656d9e5e2de4f984cfed7d4d","656d9ee0372bc5e0fc9f1675","null","
        <div style=""text-align: center; position: fixed; top: 5vh; left: 40vw;"">
            <div style=""margin:0 auto; width: 20vw; top: 8vh; font-size: 2vw""> 
            <font color=""green""> Bonus : $0.6 </font>
            </div>
        </div>
    ","null","","","","","","","",""
"","","","","","html-keyboard-response","118","135673","0.0-6.12-3.12","5c522508fcbef20001939a03","656d9e5e2de4f984cfed7d4d","656d9ee0372bc5e0fc9f1675","274","./stimuli//pack_shapes_1/cat_1/diff_3/ex_1_3_9.png","arrowleft","response","ArrowLeft","9","1","3","test","true",""
"","","","","","html-keyboard-response","119","136389","0.0-6.12-4.12","5c522508fcbef20001939a03","656d9e5e2de4f984cfed7d4d","656d9ee0372bc5e0fc9f1675","715","<p> <font color=""green"" size=""5vw""> Correct category! </font> <br> <br> <font color=""green"" size=""8vw""> + $0.05 </font> </p>","arrowleft","feedback","","","","","","","0.65"
"","","","","","html-keyboard-response","120","136885","0.0-6.13-0.13","5c522508fcbef20001939a03","656d9e5e2de4f984cfed7d4d","656d9ee0372bc5e0fc9f1675","496","
            
        <div style=""text-align: center; position: fixed; top: 5vh; left: 40vw;"">
            <div style=""margin:0 auto; width: 20vw; top: 8vh; font-size: 2vw""> 
            <font color=""green""> Bonus : $0.65 </font>
            </div>
        </div>
    
            <div> Please press any key to continue to the next image.</div>
        ","arrowleft","ITI","","","","","","",""
"","","","","","html-keyboard-response","121","137486","0.0-6.13-1.13","5c522508fcbef20001939a03","656d9e5e2de4f984cfed7d4d","656d9ee0372bc5e0fc9f1675","null","
        
        <div style=""text-align: center; position: fixed; top: 5vh; left: 40vw;"">
            <div style=""margin:0 auto; width: 20vw; top: 8vh; font-size: 2vw""> 
            <font color=""green""> Bonus : $0.65 </font>
            </div>
        </div>
    
        <img class=""stim"" src=./stimuli//pack_shapes_1/cat_2/diff_3/ex_2_3_17.png></img>
    ","null","stimulus","","","","","","",""
"","","","","","html-keyboard-response","122","138487","0.0-6.13-2.13","5c522508fcbef20001939a03","656d9e5e2de4f984cfed7d4d","656d9ee0372bc5e0fc9f1675","null","
        <div style=""text-align: center; position: fixed; top: 5vh; left: 40vw;"">
            <div style=""margin:0 auto; width: 20vw; top: 8vh; font-size: 2vw""> 
            <font color=""green""> Bonus : $0.65 </font>
            </div>
        </div>
    ","null","","","","","","","",""
"","","","","","html-keyboard-response","123","138766","0.0-6.13-3.13","5c522508fcbef20001939a03","656d9e5e2de4f984cfed7d4d","656d9ee0372bc5e0fc9f1675","279","./stimuli//pack_shapes_1/cat_2/diff_3/ex_2_3_17.png","arrowright","response","ArrowRight","17","2","3","test","true",""
"","","","","","html-keyboard-response","124","140267","0.0-6.13-4.13","5c522508fcbef20001939a03","656d9e5e2de4f984cfed7d4d","656d9ee0372bc5e0fc9f1675","null","<p> <font color=""green"" size=""5vw""> Correct category! </font> <br> <br> <font color=""green"" size=""8vw""> + $0.05 </font> </p>","null","feedback","","","","","","","0.7"
"","","","","","html-keyboard-response","125","140573","0.0-6.14-0.14","5c522508fcbef20001939a03","656d9e5e2de4f984cfed7d4d","656d9ee0372bc5e0fc9f1675","306","
            
        <div style=""text-align: center; position: fixed; top: 5vh; left: 40vw;"">
            <div style=""margin:0 auto; width: 20vw; top: 8vh; font-size: 2vw""> 
            <font color=""green""> Bonus : $0.7 </font>
            </div>
        </div>
    
            <div> Please press any key to continue to the next image.</div>
        ","arrowleft","ITI","","","","","","",""
"","","","","","html-keyboard-response","126","141175","0.0-6.14-1.14","5c522508fcbef20001939a03","656d9e5e2de4f984cfed7d4d","656d9ee0372bc5e0fc9f1675","null","
        
        <div style=""text-align: center; position: fixed; top: 5vh; left: 40vw;"">
            <div style=""margin:0 auto; width: 20vw; top: 8vh; font-size: 2vw""> 
            <font color=""green""> Bonus : $0.7 </font>
            </div>
        </div>
    
        <img class=""stim"" src=./stimuli//pack_shapes_1/cat_2/diff_3/ex_2_3_2.png></img>
    ","null","stimulus","","","","","","",""
"","","","","","html-keyboard-response","127","142177","0.0-6.14-2.14","5c522508fcbef20001939a03","656d9e5e2de4f984cfed7d4d","656d9ee0372bc5e0fc9f1675","null","
        <div style=""text-align: center; position: fixed; top: 5vh; left: 40vw;"">
            <div style=""margin:0 auto; width: 20vw; top: 8vh; font-size: 2vw""> 
            <font color=""green""> Bonus : $0.7 </font>
            </div>
        </div>
    ","null","","","","","","","",""
"","","","","","html-keyboard-response","128","142435","0.0-6.14-3.14","5c522508fcbef20001939a03","656d9e5e2de4f984cfed7d4d","656d9ee0372bc5e0fc9f1675","258","./stimuli//pack_shapes_1/cat_2/diff_3/ex_2_3_2.png","arrowright","response","ArrowRight","2","2","3","test","true",""
"","","","","","html-keyboard-response","129","143937","0.0-6.14-4.14","5c522508fcbef20001939a03","656d9e5e2de4f984cfed7d4d","656d9ee0372bc5e0fc9f1675","null","<p> <font color=""green"" size=""5vw""> Correct category! </font> <br> <br> <font color=""green"" size=""8vw""> + $0.05 </font> </p>","null","feedback","","","","","","","0.75"
"","","","","","html-keyboard-response","130","144517","0.0-6.15-0.15","5c522508fcbef20001939a03","656d9e5e2de4f984cfed7d4d","656d9ee0372bc5e0fc9f1675","580","
            
        <div style=""text-align: center; position: fixed; top: 5vh; left: 40vw;"">
            <div style=""margin:0 auto; width: 20vw; top: 8vh; font-size: 2vw""> 
            <font color=""green""> Bonus : $0.75 </font>
            </div>
        </div>
    
            <div> Please press any key to continue to the next image.</div>
        ","arrowleft","ITI","","","","","","",""
"","","","","","html-keyboard-response","131","145119","0.0-6.15-1.15","5c522508fcbef20001939a03","656d9e5e2de4f984cfed7d4d","656d9ee0372bc5e0fc9f1675","null","
        
        <div style=""text-align: center; position: fixed; top: 5vh; left: 40vw;"">
            <div style=""margin:0 auto; width: 20vw; top: 8vh; font-size: 2vw""> 
            <font color=""green""> Bonus : $0.75 </font>
            </div>
        </div>
    
        <img class=""stim"" src=./stimuli//pack_shapes_1/cat_1/diff_4/ex_1_4_14.png></img>
    ","null","stimulus","","","","","","",""
"","","","","","html-keyboard-response","132","146120","0.0-6.15-2.15","5c522508fcbef20001939a03","656d9e5e2de4f984cfed7d4d","656d9ee0372bc5e0fc9f1675","null","
        <div style=""text-align: center; position: fixed; top: 5vh; left: 40vw;"">
            <div style=""margin:0 auto; width: 20vw; top: 8vh; font-size: 2vw""> 
            <font color=""green""> Bonus : $0.75 </font>
            </div>
        </div>
    ","null","","","","","","","",""
"","","","","","html-keyboard-response","133","146379","0.0-6.15-3.15","5c522508fcbef20001939a03","656d9e5e2de4f984cfed7d4d","656d9ee0372bc5e0fc9f1675","258","./stimuli//pack_shapes_1/cat_1/diff_4/ex_1_4_14.png","arrowleft","response","ArrowLeft","14","1","4","test","true",""
"","","","","","html-keyboard-response","134","147880","0.0-6.15-4.15","5c522508fcbef20001939a03","656d9e5e2de4f984cfed7d4d","656d9ee0372bc5e0fc9f1675","null","<p> <font color=""green"" size=""5vw""> Correct category! </font> <br> <br> <font color=""green"" size=""8vw""> + $0.05 </font> </p>","null","feedback","","","","","","","0.8"
"","","","","","html-keyboard-response","135","148696","0.0-6.16-0.16","5c522508fcbef20001939a03","656d9e5e2de4f984cfed7d4d","656d9ee0372bc5e0fc9f1675","816","
            
        <div style=""text-align: center; position: fixed; top: 5vh; left: 40vw;"">
            <div style=""margin:0 auto; width: 20vw; top: 8vh; font-size: 2vw""> 
            <font color=""green""> Bonus : $0.8 </font>
            </div>
        </div>
    
            <div> Please press any key to continue to the next image.</div>
        ","arrowright","ITI","","","","","","",""
"","","","","","html-keyboard-response","136","149297","0.0-6.16-1.16","5c522508fcbef20001939a03","656d9e5e2de4f984cfed7d4d","656d9ee0372bc5e0fc9f1675","null","
        
        <div style=""text-align: center; position: fixed; top: 5vh; left: 40vw;"">
            <div style=""margin:0 auto; width: 20vw; top: 8vh; font-size: 2vw""> 
            <font color=""green""> Bonus : $0.8 </font>
            </div>
        </div>
    
        <img class=""stim"" src=./stimuli//pack_shapes_1/cat_2/diff_4/ex_2_4_11.png></img>
    ","null","stimulus","","","","","","",""
"","","","","","html-keyboard-response","137","150298","0.0-6.16-2.16","5c522508fcbef20001939a03","656d9e5e2de4f984cfed7d4d","656d9ee0372bc5e0fc9f1675","null","
        <div style=""text-align: center; position: fixed; top: 5vh; left: 40vw;"">
            <div style=""margin:0 auto; width: 20vw; top: 8vh; font-size: 2vw""> 
            <font color=""green""> Bonus : $0.8 </font>
            </div>
        </div>
    ","null","","","","","","","",""
"","","","","","html-keyboard-response","138","150719","0.0-6.16-3.16","5c522508fcbef20001939a03","656d9e5e2de4f984cfed7d4d","656d9ee0372bc5e0fc9f1675","421","./stimuli//pack_shapes_1/cat_2/diff_4/ex_2_4_11.png","arrowright","response","ArrowRight","11","2","4","test","true",""
"","","","","","html-keyboard-response","139","152220","0.0-6.16-4.16","5c522508fcbef20001939a03","656d9e5e2de4f984cfed7d4d","656d9ee0372bc5e0fc9f1675","null","<p> <font color=""green"" size=""5vw""> Correct category! </font> <br> <br> <font color=""green"" size=""8vw""> + $0.05 </font> </p>","null","feedback","","","","","","","0.85"
"","","","","","html-keyboard-response","140","152326","0.0-6.17-0.17","5c522508fcbef20001939a03","656d9e5e2de4f984cfed7d4d","656d9ee0372bc5e0fc9f1675","106","
            
        <div style=""text-align: center; position: fixed; top: 5vh; left: 40vw;"">
            <div style=""margin:0 auto; width: 20vw; top: 8vh; font-size: 2vw""> 
            <font color=""green""> Bonus : $0.85 </font>
            </div>
        </div>
    
            <div> Please press any key to continue to the next image.</div>
        ","arrowleft","ITI","","","","","","",""
"","","","","","html-keyboard-response","141","152928","0.0-6.17-1.17","5c522508fcbef20001939a03","656d9e5e2de4f984cfed7d4d","656d9ee0372bc5e0fc9f1675","null","
        
        <div style=""text-align: center; position: fixed; top: 5vh; left: 40vw;"">
            <div style=""margin:0 auto; width: 20vw; top: 8vh; font-size: 2vw""> 
            <font color=""green""> Bonus : $0.85 </font>
            </div>
        </div>
    
        <img class=""stim"" src=./stimuli//pack_shapes_1/cat_1/diff_4/ex_1_4_11.png></img>
    ","null","stimulus","","","","","","",""
"","","","","","html-keyboard-response","142","153929","0.0-6.17-2.17","5c522508fcbef20001939a03","656d9e5e2de4f984cfed7d4d","656d9ee0372bc5e0fc9f1675","null","
        <div style=""text-align: center; position: fixed; top: 5vh; left: 40vw;"">
            <div style=""margin:0 auto; width: 20vw; top: 8vh; font-size: 2vw""> 
            <font color=""green""> Bonus : $0.85 </font>
            </div>
        </div>
    ","null","","","","","","","",""
"","","","","","html-keyboard-response","143","154206","0.0-6.17-3.17","5c522508fcbef20001939a03","656d9e5e2de4f984cfed7d4d","656d9ee0372bc5e0fc9f1675","276","./stimuli//pack_shapes_1/cat_1/diff_4/ex_1_4_11.png","arrowleft","response","ArrowLeft","11","1","4","test","true",""
"","","","","","html-keyboard-response","144","155707","0.0-6.17-4.17","5c522508fcbef20001939a03","656d9e5e2de4f984cfed7d4d","656d9ee0372bc5e0fc9f1675","null","<p> <font color=""green"" size=""5vw""> Correct category! </font> <br> <br> <font color=""green"" size=""8vw""> + $0.05 </font> </p>","null","feedback","","","","","","","0.9"
"","","","","","html-keyboard-response","145","156117","0.0-6.18-0.18","5c522508fcbef20001939a03","656d9e5e2de4f984cfed7d4d","656d9ee0372bc5e0fc9f1675","409","
            
        <div style=""text-align: center; position: fixed; top: 5vh; left: 40vw;"">
            <div style=""margin:0 auto; width: 20vw; top: 8vh; font-size: 2vw""> 
            <font color=""green""> Bonus : $0.9 </font>
            </div>
        </div>
    
            <div> Please press any key to continue to the next image.</div>
        ","arrowright","ITI","","","","","","",""
"","","","","","html-keyboard-response","146","156719","0.0-6.18-1.18","5c522508fcbef20001939a03","656d9e5e2de4f984cfed7d4d","656d9ee0372bc5e0fc9f1675","null","
        
        <div style=""text-align: center; position: fixed; top: 5vh; left: 40vw;"">
            <div style=""margin:0 auto; width: 20vw; top: 8vh; font-size: 2vw""> 
            <font color=""green""> Bonus : $0.9 </font>
            </div>
        </div>
    
        <img class=""stim"" src=./stimuli//pack_shapes_1/cat_2/diff_4/ex_2_4_8.png></img>
    ","null","stimulus","","","","","","",""
"","","","","","html-keyboard-response","147","157721","0.0-6.18-2.18","5c522508fcbef20001939a03","656d9e5e2de4f984cfed7d4d","656d9ee0372bc5e0fc9f1675","null","
        <div style=""text-align: center; position: fixed; top: 5vh; left: 40vw;"">
            <div style=""margin:0 auto; width: 20vw; top: 8vh; font-size: 2vw""> 
            <font color=""green""> Bonus : $0.9 </font>
            </div>
        </div>
    ","null","","","","","","","",""
"","","","","","html-keyboard-response","148","157960","0.0-6.18-3.18","5c522508fcbef20001939a03","656d9e5e2de4f984cfed7d4d","656d9ee0372bc5e0fc9f1675","239","./stimuli//pack_shapes_1/cat_2/diff_4/ex_2_4_8.png","arrowright","response","ArrowRight","8","2","4","test","true",""
"","","","","","html-keyboard-response","149","159460","0.0-6.18-4.18","5c522508fcbef20001939a03","656d9e5e2de4f984cfed7d4d","656d9ee0372bc5e0fc9f1675","null","<p> <font color=""green"" size=""5vw""> Correct category! </font> <br> <br> <font color=""green"" size=""8vw""> + $0.05 </font> </p>","null","feedback","","","","","","","0.95"
"","","","","","html-keyboard-response","150","159777","0.0-6.19-0.19","5c522508fcbef20001939a03","656d9e5e2de4f984cfed7d4d","656d9ee0372bc5e0fc9f1675","317","
            
        <div style=""text-align: center; position: fixed; top: 5vh; left: 40vw;"">
            <div style=""margin:0 auto; width: 20vw; top: 8vh; font-size: 2vw""> 
            <font color=""green""> Bonus : $0.95 </font>
            </div>
        </div>
    
            <div> Please press any key to continue to the next image.</div>
        ","arrowleft","ITI","","","","","","",""
"","","","","","html-keyboard-response","151","160379","0.0-6.19-1.19","5c522508fcbef20001939a03","656d9e5e2de4f984cfed7d4d","656d9ee0372bc5e0fc9f1675","null","
        
        <div style=""text-align: center; position: fixed; top: 5vh; left: 40vw;"">
            <div style=""margin:0 auto; width: 20vw; top: 8vh; font-size: 2vw""> 
            <font color=""green""> Bonus : $0.95 </font>
            </div>
        </div>
    
        <img class=""stim"" src=./stimuli//pack_shapes_1/cat_2/diff_4/ex_2_4_5.png></img>
    ","null","stimulus","","","","","","",""
"","","","","","html-keyboard-response","152","161380","0.0-6.19-2.19","5c522508fcbef20001939a03","656d9e5e2de4f984cfed7d4d","656d9ee0372bc5e0fc9f1675","null","
        <div style=""text-align: center; position: fixed; top: 5vh; left: 40vw;"">
            <div style=""margin:0 auto; width: 20vw; top: 8vh; font-size: 2vw""> 
            <font color=""green""> Bonus : $0.95 </font>
            </div>
        </div>
    ","null","","","","","","","",""
"","","","","","html-keyboard-response","153","161605","0.0-6.19-3.19","5c522508fcbef20001939a03","656d9e5e2de4f984cfed7d4d","656d9ee0372bc5e0fc9f1675","224","./stimuli//pack_shapes_1/cat_2/diff_4/ex_2_4_5.png","arrowright","response","ArrowRight","5","2","4","test","true",""
"","","","","","html-keyboard-response","154","163106","0.0-6.19-4.19","5c522508fcbef20001939a03","656d9e5e2de4f984cfed7d4d","656d9ee0372bc5e0fc9f1675","null","<p> <font color=""green"" size=""5vw""> Correct category! </font> <br> <br> <font color=""green"" size=""8vw""> + $0.05 </font> </p>","null","feedback","","","","","","","1"
"","","","","","html-keyboard-response","155","163550","0.0-6.20-0.20","5c522508fcbef20001939a03","656d9e5e2de4f984cfed7d4d","656d9ee0372bc5e0fc9f1675","443","
            
        <div style=""text-align: center; position: fixed; top: 5vh; left: 40vw;"">
            <div style=""margin:0 auto; width: 20vw; top: 8vh; font-size: 2vw""> 
            <font color=""green""> Bonus : $1 </font>
            </div>
        </div>
    
            <div> Please press any key to continue to the next image.</div>
        ","arrowleft","ITI","","","","","","",""
"","","","","","html-keyboard-response","156","164152","0.0-6.20-1.20","5c522508fcbef20001939a03","656d9e5e2de4f984cfed7d4d","656d9ee0372bc5e0fc9f1675","null","
        
        <div style=""text-align: center; position: fixed; top: 5vh; left: 40vw;"">
            <div style=""margin:0 auto; width: 20vw; top: 8vh; font-size: 2vw""> 
            <font color=""green""> Bonus : $1 </font>
            </div>
        </div>
    
        <img class=""stim"" src=./stimuli//pack_shapes_1/cat_1/diff_5/ex_1_5_3.png></img>
    ","null","stimulus","","","","","","",""
"","","","","","html-keyboard-response","157","165154","0.0-6.20-2.20","5c522508fcbef20001939a03","656d9e5e2de4f984cfed7d4d","656d9ee0372bc5e0fc9f1675","null","
        <div style=""text-align: center; position: fixed; top: 5vh; left: 40vw;"">
            <div style=""margin:0 auto; width: 20vw; top: 8vh; font-size: 2vw""> 
            <font color=""green""> Bonus : $1 </font>
            </div>
        </div>
    ","null","","","","","","","",""
"","","","","","html-keyboard-response","158","165386","0.0-6.20-3.20","5c522508fcbef20001939a03","656d9e5e2de4f984cfed7d4d","656d9ee0372bc5e0fc9f1675","232","./stimuli//pack_shapes_1/cat_1/diff_5/ex_1_5_3.png","arrowleft","response","ArrowLeft","3","1","5","test","true",""
"","","","","","html-keyboard-response","159","166211","0.0-6.20-4.20","5c522508fcbef20001939a03","656d9e5e2de4f984cfed7d4d","656d9ee0372bc5e0fc9f1675","825","<p> <font color=""green"" size=""5vw""> Correct category! </font> <br> <br> <font color=""green"" size=""8vw""> + $0.05 </font> </p>","arrowright","feedback","","","","","","","1.05"
"","","","","","html-keyboard-response","160","166792","0.0-6.21-0.21","5c522508fcbef20001939a03","656d9e5e2de4f984cfed7d4d","656d9ee0372bc5e0fc9f1675","580","
            
        <div style=""text-align: center; position: fixed; top: 5vh; left: 40vw;"">
            <div style=""margin:0 auto; width: 20vw; top: 8vh; font-size: 2vw""> 
            <font color=""green""> Bonus : $1.05 </font>
            </div>
        </div>
    
            <div> Please press any key to continue to the next image.</div>
        ","arrowright","ITI","","","","","","",""
"","","","","","html-keyboard-response","161","167393","0.0-6.21-1.21","5c522508fcbef20001939a03","656d9e5e2de4f984cfed7d4d","656d9ee0372bc5e0fc9f1675","null","
        
        <div style=""text-align: center; position: fixed; top: 5vh; left: 40vw;"">
            <div style=""margin:0 auto; width: 20vw; top: 8vh; font-size: 2vw""> 
            <font color=""green""> Bonus : $1.05 </font>
            </div>
        </div>
    
        <img class=""stim"" src=./stimuli//pack_shapes_1/cat_1/diff_5/ex_1_5_12.png></img>
    ","null","stimulus","","","","","","",""
"","","","","","html-keyboard-response","162","168394","0.0-6.21-2.21","5c522508fcbef20001939a03","656d9e5e2de4f984cfed7d4d","656d9ee0372bc5e0fc9f1675","null","
        <div style=""text-align: center; position: fixed; top: 5vh; left: 40vw;"">
            <div style=""margin:0 auto; width: 20vw; top: 8vh; font-size: 2vw""> 
            <font color=""green""> Bonus : $1.05 </font>
            </div>
        </div>
    ","null","","","","","","","",""
"","","","","","html-keyboard-response","163","168716","0.0-6.21-3.21","5c522508fcbef20001939a03","656d9e5e2de4f984cfed7d4d","656d9ee0372bc5e0fc9f1675","322","./stimuli//pack_shapes_1/cat_1/diff_5/ex_1_5_12.png","arrowleft","response","ArrowLeft","12","1","5","test","true",""
"","","","","","html-keyboard-response","164","170217","0.0-6.21-4.21","5c522508fcbef20001939a03","656d9e5e2de4f984cfed7d4d","656d9ee0372bc5e0fc9f1675","null","<p> <font color=""green"" size=""5vw""> Correct category! </font> <br> <br> <font color=""green"" size=""8vw""> + $0.05 </font> </p>","null","feedback","","","","","","","1.1"
"","","","","","html-keyboard-response","165","170656","0.0-6.22-0.22","5c522508fcbef20001939a03","656d9e5e2de4f984cfed7d4d","656d9ee0372bc5e0fc9f1675","439","
            
        <div style=""text-align: center; position: fixed; top: 5vh; left: 40vw;"">
            <div style=""margin:0 auto; width: 20vw; top: 8vh; font-size: 2vw""> 
            <font color=""green""> Bonus : $1.1 </font>
            </div>
        </div>
    
            <div> Please press any key to continue to the next image.</div>
        ","arrowright","ITI","","","","","","",""
"","","","","","html-keyboard-response","166","171258","0.0-6.22-1.22","5c522508fcbef20001939a03","656d9e5e2de4f984cfed7d4d","656d9ee0372bc5e0fc9f1675","null","
        
        <div style=""text-align: center; position: fixed; top: 5vh; left: 40vw;"">
            <div style=""margin:0 auto; width: 20vw; top: 8vh; font-size: 2vw""> 
            <font color=""green""> Bonus : $1.1 </font>
            </div>
        </div>
    
        <img class=""stim"" src=./stimuli//pack_shapes_1/cat_1/diff_5/ex_1_5_13.png></img>
    ","null","stimulus","","","","","","",""
"","","","","","html-keyboard-response","167","172259","0.0-6.22-2.22","5c522508fcbef20001939a03","656d9e5e2de4f984cfed7d4d","656d9ee0372bc5e0fc9f1675","null","
        <div style=""text-align: center; position: fixed; top: 5vh; left: 40vw;"">
            <div style=""margin:0 auto; width: 20vw; top: 8vh; font-size: 2vw""> 
            <font color=""green""> Bonus : $1.1 </font>
            </div>
        </div>
    ","null","","","","","","","",""
"","","","","","html-keyboard-response","168","172389","0.0-6.22-3.22","5c522508fcbef20001939a03","656d9e5e2de4f984cfed7d4d","656d9ee0372bc5e0fc9f1675","130","./stimuli//pack_shapes_1/cat_1/diff_5/ex_1_5_13.png","arrowleft","response","ArrowLeft","13","1","5","test","true",""
"","","","","","html-keyboard-response","169","173645","0.0-6.22-4.22","5c522508fcbef20001939a03","656d9e5e2de4f984cfed7d4d","656d9ee0372bc5e0fc9f1675","1256","<p> <font color=""green"" size=""5vw""> Correct category! </font> <br> <br> <font color=""green"" size=""8vw""> + $0.05 </font> </p>","arrowright","feedback","","","","","","","1.15"
"","","","","","html-keyboard-response","170","174674","0.0-6.23-0.23","5c522508fcbef20001939a03","656d9e5e2de4f984cfed7d4d","656d9ee0372bc5e0fc9f1675","1029","
            
        <div style=""text-align: center; position: fixed; top: 5vh; left: 40vw;"">
            <div style=""margin:0 auto; width: 20vw; top: 8vh; font-size: 2vw""> 
            <font color=""green""> Bonus : $1.15 </font>
            </div>
        </div>
    
            <div> Please press any key to continue to the next image.</div>
        ","arrowright","ITI","","","","","","",""
"","","","","","html-keyboard-response","171","175276","0.0-6.23-1.23","5c522508fcbef20001939a03","656d9e5e2de4f984cfed7d4d","656d9ee0372bc5e0fc9f1675","null","
        
        <div style=""text-align: center; position: fixed; top: 5vh; left: 40vw;"">
            <div style=""margin:0 auto; width: 20vw; top: 8vh; font-size: 2vw""> 
            <font color=""green""> Bonus : $1.15 </font>
            </div>
        </div>
    
        <img class=""stim"" src=./stimuli//pack_shapes_1/cat_1/diff_5/ex_1_5_8.png></img>
    ","null","stimulus","","","","","","",""
"","","","","","html-keyboard-response","172","176277","0.0-6.23-2.23","5c522508fcbef20001939a03","656d9e5e2de4f984cfed7d4d","656d9ee0372bc5e0fc9f1675","null","
        <div style=""text-align: center; position: fixed; top: 5vh; left: 40vw;"">
            <div style=""margin:0 auto; width: 20vw; top: 8vh; font-size: 2vw""> 
            <font color=""green""> Bonus : $1.15 </font>
            </div>
        </div>
    ","null","","","","","","","",""
"","","","","","html-keyboard-response","173","176559","0.0-6.23-3.23","5c522508fcbef20001939a03","656d9e5e2de4f984cfed7d4d","656d9ee0372bc5e0fc9f1675","282","./stimuli//pack_shapes_1/cat_1/diff_5/ex_1_5_8.png","arrowleft","response","ArrowLeft","8","1","5","test","true",""
"","","","","","html-keyboard-response","174","178060","0.0-6.23-4.23","5c522508fcbef20001939a03","656d9e5e2de4f984cfed7d4d","656d9ee0372bc5e0fc9f1675","null","<p> <font color=""green"" size=""5vw""> Correct category! </font> <br> <br> <font color=""green"" size=""8vw""> + $0.05 </font> </p>","null","feedback","","","","","","","1.2"
"","","","","","html-keyboard-response","175","178455","0.0-6.24-0.24","5c522508fcbef20001939a03","656d9e5e2de4f984cfed7d4d","656d9ee0372bc5e0fc9f1675","395","
            
        <div style=""text-align: center; position: fixed; top: 5vh; left: 40vw;"">
            <div style=""margin:0 auto; width: 20vw; top: 8vh; font-size: 2vw""> 
            <font color=""green""> Bonus : $1.2 </font>
            </div>
        </div>
    
            <div> Please press any key to continue to the next image.</div>
        ","arrowleft","ITI","","","","","","",""
"","","","","","html-keyboard-response","176","179056","0.0-6.24-1.24","5c522508fcbef20001939a03","656d9e5e2de4f984cfed7d4d","656d9ee0372bc5e0fc9f1675","null","
        
        <div style=""text-align: center; position: fixed; top: 5vh; left: 40vw;"">
            <div style=""margin:0 auto; width: 20vw; top: 8vh; font-size: 2vw""> 
            <font color=""green""> Bonus : $1.2 </font>
            </div>
        </div>
    
        <img class=""stim"" src=./stimuli//pack_shapes_1/cat_1/diff_5/ex_1_5_1.png></img>
    ","null","stimulus","","","","","","",""
"","","","","","html-keyboard-response","177","180057","0.0-6.24-2.24","5c522508fcbef20001939a03","656d9e5e2de4f984cfed7d4d","656d9ee0372bc5e0fc9f1675","null","
        <div style=""text-align: center; position: fixed; top: 5vh; left: 40vw;"">
            <div style=""margin:0 auto; width: 20vw; top: 8vh; font-size: 2vw""> 
            <font color=""green""> Bonus : $1.2 </font>
            </div>
        </div>
    ","null","","","","","","","",""
"","","","","","html-keyboard-response","178","180292","0.0-6.24-3.24","5c522508fcbef20001939a03","656d9e5e2de4f984cfed7d4d","656d9ee0372bc5e0fc9f1675","234","./stimuli//pack_shapes_1/cat_1/diff_5/ex_1_5_1.png","arrowleft","response","ArrowLeft","1","1","5","test","true",""
"","","","","","html-keyboard-response","179","181793","0.0-6.24-4.24","5c522508fcbef20001939a03","656d9e5e2de4f984cfed7d4d","656d9ee0372bc5e0fc9f1675","null","<p> <font color=""green"" size=""5vw""> Correct category! </font> <br> <br> <font color=""green"" size=""8vw""> + $0.05 </font> </p>","null","feedback","","","","","","","1.25"
"","","","","","html-keyboard-response","180","182034","0.0-6.25-0.25","5c522508fcbef20001939a03","656d9e5e2de4f984cfed7d4d","656d9ee0372bc5e0fc9f1675","241","
            
        <div style=""text-align: center; position: fixed; top: 5vh; left: 40vw;"">
            <div style=""margin:0 auto; width: 20vw; top: 8vh; font-size: 2vw""> 
            <font color=""green""> Bonus : $1.25 </font>
            </div>
        </div>
    
            <div> Please press any key to continue to the next image.</div>
        ","arrowleft","ITI","","","","","","",""
"","","","","","html-keyboard-response","181","182635","0.0-6.25-1.25","5c522508fcbef20001939a03","656d9e5e2de4f984cfed7d4d","656d9ee0372bc5e0fc9f1675","null","
        
        <div style=""text-align: center; position: fixed; top: 5vh; left: 40vw;"">
            <div style=""margin:0 auto; width: 20vw; top: 8vh; font-size: 2vw""> 
            <font color=""green""> Bonus : $1.25 </font>
            </div>
        </div>
    
        <img class=""stim"" src=./stimuli//pack_shapes_1/cat_2/diff_5/ex_2_5_3.png></img>
    ","null","stimulus","","","","","","",""
"","","","","","html-keyboard-response","182","183636","0.0-6.25-2.25","5c522508fcbef20001939a03","656d9e5e2de4f984cfed7d4d","656d9ee0372bc5e0fc9f1675","null","
        <div style=""text-align: center; position: fixed; top: 5vh; left: 40vw;"">
            <div style=""margin:0 auto; width: 20vw; top: 8vh; font-size: 2vw""> 
            <font color=""green""> Bonus : $1.25 </font>
            </div>
        </div>
    ","null","","","","","","","",""
"","","","","","html-keyboard-response","183","183965","0.0-6.25-3.25","5c522508fcbef20001939a03","656d9e5e2de4f984cfed7d4d","656d9ee0372bc5e0fc9f1675","330","./stimuli//pack_shapes_1/cat_2/diff_5/ex_2_5_3.png","arrowleft","response","ArrowRight","3","2","5","test","false",""
"","","","","","html-keyboard-response","184","185467","0.0-6.25-4.25","5c522508fcbef20001939a03","656d9e5e2de4f984cfed7d4d","656d9ee0372bc5e0fc9f1675","null","<p> <font color=""red"" size=""5vw""> Wrong category! </font> <br> <br> <font color=""red"" size=""8vw""> - $0.05 </font> </p>","null","feedback","","","","","","","1.2"
"","","","","","html-keyboard-response","185","185763","0.0-6.26-0.26","5c522508fcbef20001939a03","656d9e5e2de4f984cfed7d4d","656d9ee0372bc5e0fc9f1675","296","
            
        <div style=""text-align: center; position: fixed; top: 5vh; left: 40vw;"">
            <div style=""margin:0 auto; width: 20vw; top: 8vh; font-size: 2vw""> 
            <font color=""green""> Bonus : $1.2 </font>
            </div>
        </div>
    
            <div> Please press any key to continue to the next image.</div>
        ","arrowright","ITI","","","","","","",""
"","","","","","html-keyboard-response","186","186364","0.0-6.26-1.26","5c522508fcbef20001939a03","656d9e5e2de4f984cfed7d4d","656d9ee0372bc5e0fc9f1675","null","
        
        <div style=""text-align: center; position: fixed; top: 5vh; left: 40vw;"">
            <div style=""margin:0 auto; width: 20vw; top: 8vh; font-size: 2vw""> 
            <font color=""green""> Bonus : $1.2 </font>
            </div>
        </div>
    
        <img class=""stim"" src=./stimuli//pack_shapes_1/cat_2/diff_5/ex_2_5_6.png></img>
    ","null","stimulus","","","","","","",""
"","","","","","html-keyboard-response","187","187365","0.0-6.26-2.26","5c522508fcbef20001939a03","656d9e5e2de4f984cfed7d4d","656d9ee0372bc5e0fc9f1675","null","
        <div style=""text-align: center; position: fixed; top: 5vh; left: 40vw;"">
            <div style=""margin:0 auto; width: 20vw; top: 8vh; font-size: 2vw""> 
            <font color=""green""> Bonus : $1.2 </font>
            </div>
        </div>
    ","null","","","","","","","",""
"","","","","","html-keyboard-response","188","187633","0.0-6.26-3.26","5c522508fcbef20001939a03","656d9e5e2de4f984cfed7d4d","656d9ee0372bc5e0fc9f1675","268","./stimuli//pack_shapes_1/cat_2/diff_5/ex_2_5_6.png","arrowright","response","ArrowRight","6","2","5","test","true",""
"","","","","","html-keyboard-response","189","189134","0.0-6.26-4.26","5c522508fcbef20001939a03","656d9e5e2de4f984cfed7d4d","656d9ee0372bc5e0fc9f1675","null","<p> <font color=""green"" size=""5vw""> Correct category! </font> <br> <br> <font color=""green"" size=""8vw""> + $0.05 </font> </p>","null","feedback","","","","","","","1.25"
"","","","","","html-keyboard-response","190","189150","0.0-6.27-0.27","5c522508fcbef20001939a03","656d9e5e2de4f984cfed7d4d","656d9ee0372bc5e0fc9f1675","16","
            
        <div style=""text-align: center; position: fixed; top: 5vh; left: 40vw;"">
            <div style=""margin:0 auto; width: 20vw; top: 8vh; font-size: 2vw""> 
            <font color=""green""> Bonus : $1.25 </font>
            </div>
        </div>
    
            <div> Please press any key to continue to the next image.</div>
        ","arrowleft","ITI","","","","","","",""
"","","","","","html-keyboard-response","191","189752","0.0-6.27-1.27","5c522508fcbef20001939a03","656d9e5e2de4f984cfed7d4d","656d9ee0372bc5e0fc9f1675","null","
        
        <div style=""text-align: center; position: fixed; top: 5vh; left: 40vw;"">
            <div style=""margin:0 auto; width: 20vw; top: 8vh; font-size: 2vw""> 
            <font color=""green""> Bonus : $1.25 </font>
            </div>
        </div>
    
        <img class=""stim"" src=./stimuli//pack_shapes_1/cat_2/diff_5/ex_2_5_11.png></img>
    ","null","stimulus","","","","","","",""
"","","","","","html-keyboard-response","192","190753","0.0-6.27-2.27","5c522508fcbef20001939a03","656d9e5e2de4f984cfed7d4d","656d9ee0372bc5e0fc9f1675","null","
        <div style=""text-align: center; position: fixed; top: 5vh; left: 40vw;"">
            <div style=""margin:0 auto; width: 20vw; top: 8vh; font-size: 2vw""> 
            <font color=""green""> Bonus : $1.25 </font>
            </div>
        </div>
    ","null","","","","","","","",""
"","","","","","html-keyboard-response","193","191017","0.0-6.27-3.27","5c522508fcbef20001939a03","656d9e5e2de4f984cfed7d4d","656d9ee0372bc5e0fc9f1675","264","./stimuli//pack_shapes_1/cat_2/diff_5/ex_2_5_11.png","arrowright","response","ArrowRight","11","2","5","test","true",""
"","","","","","html-keyboard-response","194","192519","0.0-6.27-4.27","5c522508fcbef20001939a03","656d9e5e2de4f984cfed7d4d","656d9ee0372bc5e0fc9f1675","null","<p> <font color=""green"" size=""5vw""> Correct category! </font> <br> <br> <font color=""green"" size=""8vw""> + $0.05 </font> </p>","null","feedback","","","","","","","1.3"
"","","","","","html-keyboard-response","195","193043","0.0-6.28-0.28","5c522508fcbef20001939a03","656d9e5e2de4f984cfed7d4d","656d9ee0372bc5e0fc9f1675","524","
            
        <div style=""text-align: center; position: fixed; top: 5vh; left: 40vw;"">
            <div style=""margin:0 auto; width: 20vw; top: 8vh; font-size: 2vw""> 
            <font color=""green""> Bonus : $1.3 </font>
            </div>
        </div>
    
            <div> Please press any key to continue to the next image.</div>
        ","arrowright","ITI","","","","","","",""
"","","","","","html-keyboard-response","196","193645","0.0-6.28-1.28","5c522508fcbef20001939a03","656d9e5e2de4f984cfed7d4d","656d9ee0372bc5e0fc9f1675","null","
        
        <div style=""text-align: center; position: fixed; top: 5vh; left: 40vw;"">
            <div style=""margin:0 auto; width: 20vw; top: 8vh; font-size: 2vw""> 
            <font color=""green""> Bonus : $1.3 </font>
            </div>
        </div>
    
        <img class=""stim"" src=./stimuli//pack_shapes_1/cat_1/diff_5/ex_1_5_10.png></img>
    ","null","stimulus","","","","","","",""
"","","","","","html-keyboard-response","197","194646","0.0-6.28-2.28","5c522508fcbef20001939a03","656d9e5e2de4f984cfed7d4d","656d9ee0372bc5e0fc9f1675","null","
        <div style=""text-align: center; position: fixed; top: 5vh; left: 40vw;"">
            <div style=""margin:0 auto; width: 20vw; top: 8vh; font-size: 2vw""> 
            <font color=""green""> Bonus : $1.3 </font>
            </div>
        </div>
    ","null","","","","","","","",""
"","","","","","html-keyboard-response","198","194948","0.0-6.28-3.28","5c522508fcbef20001939a03","656d9e5e2de4f984cfed7d4d","656d9ee0372bc5e0fc9f1675","301","./stimuli//pack_shapes_1/cat_1/diff_5/ex_1_5_10.png","arrowright","response","ArrowLeft","10","1","5","test","false",""
"","","","","","html-keyboard-response","199","195576","0.0-6.28-4.28","5c522508fcbef20001939a03","656d9e5e2de4f984cfed7d4d","656d9ee0372bc5e0fc9f1675","628","<p> <font color=""red"" size=""5vw""> Wrong category! </font> <br> <br> <font color=""red"" size=""8vw""> - $0.05 </font> </p>","arrowleft","feedback","","","","","","","1.25"
"","","","","","html-keyboard-response","200","196185","0.0-6.29-0.29","5c522508fcbef20001939a03","656d9e5e2de4f984cfed7d4d","656d9ee0372bc5e0fc9f1675","609","
            
        <div style=""text-align: center; position: fixed; top: 5vh; left: 40vw;"">
            <div style=""margin:0 auto; width: 20vw; top: 8vh; font-size: 2vw""> 
            <font color=""green""> Bonus : $1.25 </font>
            </div>
        </div>
    
            <div> Please press any key to continue to the next image.</div>
        ","arrowleft","ITI","","","","","","",""
"","","","","","html-keyboard-response","201","196786","0.0-6.29-1.29","5c522508fcbef20001939a03","656d9e5e2de4f984cfed7d4d","656d9ee0372bc5e0fc9f1675","null","
        
        <div style=""text-align: center; position: fixed; top: 5vh; left: 40vw;"">
            <div style=""margin:0 auto; width: 20vw; top: 8vh; font-size: 2vw""> 
            <font color=""green""> Bonus : $1.25 </font>
            </div>
        </div>
    
        <img class=""stim"" src=./stimuli//pack_shapes_1/cat_1/diff_4/ex_1_4_16.png></img>
    ","null","stimulus","","","","","","",""
"","","","","","html-keyboard-response","202","197788","0.0-6.29-2.29","5c522508fcbef20001939a03","656d9e5e2de4f984cfed7d4d","656d9ee0372bc5e0fc9f1675","null","
        <div style=""text-align: center; position: fixed; top: 5vh; left: 40vw;"">
            <div style=""margin:0 auto; width: 20vw; top: 8vh; font-size: 2vw""> 
            <font color=""green""> Bonus : $1.25 </font>
            </div>
        </div>
    ","null","","","","","","","",""
"","","","","","html-keyboard-response","203","197889","0.0-6.29-3.29","5c522508fcbef20001939a03","656d9e5e2de4f984cfed7d4d","656d9ee0372bc5e0fc9f1675","101","./stimuli//pack_shapes_1/cat_1/diff_4/ex_1_4_16.png","arrowleft","response","ArrowLeft","16","1","4","test","true",""
"","","","","","html-keyboard-response","204","199391","0.0-6.29-4.29","5c522508fcbef20001939a03","656d9e5e2de4f984cfed7d4d","656d9ee0372bc5e0fc9f1675","null","<p> <font color=""green"" size=""5vw""> Correct category! </font> <br> <br> <font color=""green"" size=""8vw""> + $0.05 </font> </p>","null","feedback","","","","","","","1.3"
"","","","","","html-keyboard-response","205","199673","0.0-6.30-0.30","5c522508fcbef20001939a03","656d9e5e2de4f984cfed7d4d","656d9ee0372bc5e0fc9f1675","282","
            
        <div style=""text-align: center; position: fixed; top: 5vh; left: 40vw;"">
            <div style=""margin:0 auto; width: 20vw; top: 8vh; font-size: 2vw""> 
            <font color=""green""> Bonus : $1.3 </font>
            </div>
        </div>
    
            <div> Please press any key to continue to the next image.</div>
        ","arrowleft","ITI","","","","","","",""
"","","","","","html-keyboard-response","206","200274","0.0-6.30-1.30","5c522508fcbef20001939a03","656d9e5e2de4f984cfed7d4d","656d9ee0372bc5e0fc9f1675","null","
        
        <div style=""text-align: center; position: fixed; top: 5vh; left: 40vw;"">
            <div style=""margin:0 auto; width: 20vw; top: 8vh; font-size: 2vw""> 
            <font color=""green""> Bonus : $1.3 </font>
            </div>
        </div>
    
        <img class=""stim"" src=./stimuli//pack_shapes_1/cat_2/diff_4/ex_2_4_12.png></img>
    ","null","stimulus","","","","","","",""
"","","","","","html-keyboard-response","207","201275","0.0-6.30-2.30","5c522508fcbef20001939a03","656d9e5e2de4f984cfed7d4d","656d9ee0372bc5e0fc9f1675","null","
        <div style=""text-align: center; position: fixed; top: 5vh; left: 40vw;"">
            <div style=""margin:0 auto; width: 20vw; top: 8vh; font-size: 2vw""> 
            <font color=""green""> Bonus : $1.3 </font>
            </div>
        </div>
    ","null","","","","","","","",""
"","","","","","html-keyboard-response","208","201522","0.0-6.30-3.30","5c522508fcbef20001939a03","656d9e5e2de4f984cfed7d4d","656d9ee0372bc5e0fc9f1675","246","./stimuli//pack_shapes_1/cat_2/diff_4/ex_2_4_12.png","arrowright","response","ArrowRight","12","2","4","test","true",""
"","","","","","html-keyboard-response","209","203023","0.0-6.30-4.30","5c522508fcbef20001939a03","656d9e5e2de4f984cfed7d4d","656d9ee0372bc5e0fc9f1675","null","<p> <font color=""green"" size=""5vw""> Correct category! </font> <br> <br> <font color=""green"" size=""8vw""> + $0.05 </font> </p>","null","feedback","","","","","","","1.35"
"","","","","","html-keyboard-response","210","204017","0.0-6.31-0.31","5c522508fcbef20001939a03","656d9e5e2de4f984cfed7d4d","656d9ee0372bc5e0fc9f1675","994","
            
        <div style=""text-align: center; position: fixed; top: 5vh; left: 40vw;"">
            <div style=""margin:0 auto; width: 20vw; top: 8vh; font-size: 2vw""> 
            <font color=""green""> Bonus : $1.35 </font>
            </div>
        </div>
    
            <div> Please press any key to continue to the next image.</div>
        ","arrowleft","ITI","","","","","","",""
"","","","","","html-keyboard-response","211","204619","0.0-6.31-1.31","5c522508fcbef20001939a03","656d9e5e2de4f984cfed7d4d","656d9ee0372bc5e0fc9f1675","null","
        
        <div style=""text-align: center; position: fixed; top: 5vh; left: 40vw;"">
            <div style=""margin:0 auto; width: 20vw; top: 8vh; font-size: 2vw""> 
            <font color=""green""> Bonus : $1.35 </font>
            </div>
        </div>
    
        <img class=""stim"" src=./stimuli//pack_shapes_1/cat_2/diff_4/ex_2_4_11.png></img>
    ","null","stimulus","","","","","","",""
"","","","","","html-keyboard-response","212","205620","0.0-6.31-2.31","5c522508fcbef20001939a03","656d9e5e2de4f984cfed7d4d","656d9ee0372bc5e0fc9f1675","null","
        <div style=""text-align: center; position: fixed; top: 5vh; left: 40vw;"">
            <div style=""margin:0 auto; width: 20vw; top: 8vh; font-size: 2vw""> 
            <font color=""green""> Bonus : $1.35 </font>
            </div>
        </div>
    ","null","","","","","","","",""
"","","","","","html-keyboard-response","213","205868","0.0-6.31-3.31","5c522508fcbef20001939a03","656d9e5e2de4f984cfed7d4d","656d9ee0372bc5e0fc9f1675","249","./stimuli//pack_shapes_1/cat_2/diff_4/ex_2_4_11.png","arrowright","response","ArrowRight","11","2","4","test","true",""
"","","","","","html-keyboard-response","214","207370","0.0-6.31-4.31","5c522508fcbef20001939a03","656d9e5e2de4f984cfed7d4d","656d9ee0372bc5e0fc9f1675","null","<p> <font color=""green"" size=""5vw""> Correct category! </font> <br> <br> <font color=""green"" size=""8vw""> + $0.05 </font> </p>","null","feedback","","","","","","","1.4"
"","","","","","html-keyboard-response","215","208103","0.0-6.32-0.32","5c522508fcbef20001939a03","656d9e5e2de4f984cfed7d4d","656d9ee0372bc5e0fc9f1675","733","
            
        <div style=""text-align: center; position: fixed; top: 5vh; left: 40vw;"">
            <div style=""margin:0 auto; width: 20vw; top: 8vh; font-size: 2vw""> 
            <font color=""green""> Bonus : $1.4 </font>
            </div>
        </div>
    
            <div> Please press any key to continue to the next image.</div>
        ","arrowright","ITI","","","","","","",""
"","","","","","html-keyboard-response","216","208705","0.0-6.32-1.32","5c522508fcbef20001939a03","656d9e5e2de4f984cfed7d4d","656d9ee0372bc5e0fc9f1675","null","
        
        <div style=""text-align: center; position: fixed; top: 5vh; left: 40vw;"">
            <div style=""margin:0 auto; width: 20vw; top: 8vh; font-size: 2vw""> 
            <font color=""green""> Bonus : $1.4 </font>
            </div>
        </div>
    
        <img class=""stim"" src=./stimuli//pack_shapes_1/cat_2/diff_4/ex_2_4_14.png></img>
    ","null","stimulus","","","","","","",""
"","","","","","html-keyboard-response","217","209707","0.0-6.32-2.32","5c522508fcbef20001939a03","656d9e5e2de4f984cfed7d4d","656d9ee0372bc5e0fc9f1675","null","
        <div style=""text-align: center; position: fixed; top: 5vh; left: 40vw;"">
            <div style=""margin:0 auto; width: 20vw; top: 8vh; font-size: 2vw""> 
            <font color=""green""> Bonus : $1.4 </font>
            </div>
        </div>
    ","null","","","","","","","",""
"","","","","","html-keyboard-response","218","209952","0.0-6.32-3.32","5c522508fcbef20001939a03","656d9e5e2de4f984cfed7d4d","656d9ee0372bc5e0fc9f1675","245","./stimuli//pack_shapes_1/cat_2/diff_4/ex_2_4_14.png","arrowright","response","ArrowRight","14","2","4","test","true",""
"","","","","","html-keyboard-response","219","211453","0.0-6.32-4.32","5c522508fcbef20001939a03","656d9e5e2de4f984cfed7d4d","656d9ee0372bc5e0fc9f1675","null","<p> <font color=""green"" size=""5vw""> Correct category! </font> <br> <br> <font color=""green"" size=""8vw""> + $0.05 </font> </p>","null","feedback","","","","","","","1.45"
"","","","","","html-keyboard-response","220","211889","0.0-6.33-0.33","5c522508fcbef20001939a03","656d9e5e2de4f984cfed7d4d","656d9ee0372bc5e0fc9f1675","436","
            
        <div style=""text-align: center; position: fixed; top: 5vh; left: 40vw;"">
            <div style=""margin:0 auto; width: 20vw; top: 8vh; font-size: 2vw""> 
            <font color=""green""> Bonus : $1.45 </font>
            </div>
        </div>
    
            <div> Please press any key to continue to the next image.</div>
        ","arrowright","ITI","","","","","","",""
"","","","","","html-keyboard-response","221","212491","0.0-6.33-1.33","5c522508fcbef20001939a03","656d9e5e2de4f984cfed7d4d","656d9ee0372bc5e0fc9f1675","null","
        
        <div style=""text-align: center; position: fixed; top: 5vh; left: 40vw;"">
            <div style=""margin:0 auto; width: 20vw; top: 8vh; font-size: 2vw""> 
            <font color=""green""> Bonus : $1.45 </font>
            </div>
        </div>
    
        <img class=""stim"" src=./stimuli//pack_shapes_1/cat_2/diff_4/ex_2_4_1.png></img>
    ","null","stimulus","","","","","","",""
"","","","","","html-keyboard-response","222","213492","0.0-6.33-2.33","5c522508fcbef20001939a03","656d9e5e2de4f984cfed7d4d","656d9ee0372bc5e0fc9f1675","null","
        <div style=""text-align: center; position: fixed; top: 5vh; left: 40vw;"">
            <div style=""margin:0 auto; width: 20vw; top: 8vh; font-size: 2vw""> 
            <font color=""green""> Bonus : $1.45 </font>
            </div>
        </div>
    ","null","","","","","","","",""
"","","","","","html-keyboard-response","223","214276","0.0-6.33-3.33","5c522508fcbef20001939a03","656d9e5e2de4f984cfed7d4d","656d9ee0372bc5e0fc9f1675","784","./stimuli//pack_shapes_1/cat_2/diff_4/ex_2_4_1.png","arrowright","response","ArrowRight","1","2","4","test","true",""
"","","","","","html-keyboard-response","224","215777","0.0-6.33-4.33","5c522508fcbef20001939a03","656d9e5e2de4f984cfed7d4d","656d9ee0372bc5e0fc9f1675","null","<p> <font color=""green"" size=""5vw""> Correct category! </font> <br> <br> <font color=""green"" size=""8vw""> + $0.05 </font> </p>","null","feedback","","","","","","","1.5"
"","","","","","html-keyboard-response","225","216138","0.0-6.34-0.34","5c522508fcbef20001939a03","656d9e5e2de4f984cfed7d4d","656d9ee0372bc5e0fc9f1675","361","
            
        <div style=""text-align: center; position: fixed; top: 5vh; left: 40vw;"">
            <div style=""margin:0 auto; width: 20vw; top: 8vh; font-size: 2vw""> 
            <font color=""green""> Bonus : $1.5 </font>
            </div>
        </div>
    
            <div> Please press any key to continue to the next image.</div>
        ","arrowright","ITI","","","","","","",""
"","","","","","html-keyboard-response","226","216739","0.0-6.34-1.34","5c522508fcbef20001939a03","656d9e5e2de4f984cfed7d4d","656d9ee0372bc5e0fc9f1675","null","
        
        <div style=""text-align: center; position: fixed; top: 5vh; left: 40vw;"">
            <div style=""margin:0 auto; width: 20vw; top: 8vh; font-size: 2vw""> 
            <font color=""green""> Bonus : $1.5 </font>
            </div>
        </div>
    
        <img class=""stim"" src=./stimuli//pack_shapes_1/cat_1/diff_5/ex_1_5_16.png></img>
    ","null","stimulus","","","","","","",""
"","","","","","html-keyboard-response","227","217740","0.0-6.34-2.34","5c522508fcbef20001939a03","656d9e5e2de4f984cfed7d4d","656d9ee0372bc5e0fc9f1675","null","
        <div style=""text-align: center; position: fixed; top: 5vh; left: 40vw;"">
            <div style=""margin:0 auto; width: 20vw; top: 8vh; font-size: 2vw""> 
            <font color=""green""> Bonus : $1.5 </font>
            </div>
        </div>
    ","null","","","","","","","",""
"","","","","","html-keyboard-response","228","217958","0.0-6.34-3.34","5c522508fcbef20001939a03","656d9e5e2de4f984cfed7d4d","656d9ee0372bc5e0fc9f1675","218","./stimuli//pack_shapes_1/cat_1/diff_5/ex_1_5_16.png","arrowleft","response","ArrowLeft","16","1","5","test","true",""
