"success","timeout","failed_images","failed_audio","failed_video","trial_type","trial_index","time_elapsed","internal_node_id","subject_id","study_id","session_id","rt","stimulus","response","task","correct_response","exemplar_ID","category","difficulty","phase","correct","bonus"
"true","false","[]","[]","[]","preload","0","7","0.0-0.0","64944e5edd31dfc2becbe54e","6573617f270241e5da3d355d","6576bfd2aec8c6cba6ef5572","","","","","","","","","","",""
"","","","","","html-keyboard-response","1","3041","0.0-1.0","64944e5edd31dfc2becbe54e","6573617f270241e5da3d355d","6576bfd2aec8c6cba6ef5572","3032","Welcome to the Category Learning experiment! Press any key to continue."," ","welcome","","","","","","",""
"","","","","","html-keyboard-response","2","35615","0.0-2.0","64944e5edd31dfc2becbe54e","6573617f270241e5da3d355d","6576bfd2aec8c6cba6ef5572","32572","
            <p>You will be shown movies. Each movie contains a sequence of shapes changing form. 
            <br> Some shapes are category A, some are category B. <b> Within a single movie, all shapes belong to the same category. </b>
            <br> You will not know in advance which category the shapes of each movie belong to.</p>
            <p> While you watch a movie, you have to guess the category that its shapes belong to <b>(left arrow for category A, right arrow for category B)</b></p>
            <p> After you choose, the screen will show you whether you were correct or not.</p>
            <p>Press any key to continue.</p>
            "," ","introduction_1","","","","","","",""
"","","","","","html-keyboard-response","3","53860","0.0-3.0","64944e5edd31dfc2becbe54e","6573617f270241e5da3d355d","6576bfd2aec8c6cba6ef5572","18250","
              <p><b>You will receive a bonus payment for each correct answer! The faster you answer the higher the bonus will be!</b></p>
              <p> So you can increase your bonus by guessing as quickly and accurately as possible.</p>
              <p><b>You will lose $0.05 from your bonus payment for each incorrect answer! The bonus can not become less that $0.</b> </p>
              <p>Press any key to continue.</p>
              "," ","introduction_2","","","","","","",""
"","","","","","html-keyboard-response","4","63829","0.0-4.0","64944e5edd31dfc2becbe54e","6573617f270241e5da3d355d","6576bfd2aec8c6cba6ef5572","9968","
            <p> <b>The first 10 trials are a practice round that will not count towards your bonus payment.</b></p>
            <p> You will be notified when practice finishes and the test begins. </p>
            <p> Press any key to begin the practice round.</p>
            "," ","introduction_3","","","","","","",""
"","","","","","html-keyboard-response","5","68355","0.0-5.0-0.0","64944e5edd31dfc2becbe54e","6573617f270241e5da3d355d","6576bfd2aec8c6cba6ef5572","4524","
            
        <div style=""text-align: center; position: fixed; top: 5vh; left: 40vw;"">
            <div style=""margin:0 auto; width: 20vw; top: 8vh; font-size: 2vw""> 
            <font color=""green""> Bonus : $0 </font>
            </div>
        </div>
    
            <div> Please press any key to continue to the next movie.</div>
        "," ","ITI","","","","","","",""
"","","","","","html-keyboard-response","6","70755","0.0-5.0-1.0","64944e5edd31dfc2becbe54e","6573617f270241e5da3d355d","6576bfd2aec8c6cba6ef5572","2395","./stimuli//pack_morph_shapes_1/cat_1/diff_1/ex_1_1_4.gif","arrowleft","response","ArrowLeft","4","1","1","train","true",""
"","","","","","html-keyboard-response","7","72270","0.0-5.0-2.0","64944e5edd31dfc2becbe54e","6573617f270241e5da3d355d","6576bfd2aec8c6cba6ef5572","null","<p> <font color=""green"" size=""5vw""> Correct category! </font> </p>","null","feedback","","","","","","","0"
"","","","","","html-keyboard-response","8","72900","0.0-5.0-0.1","64944e5edd31dfc2becbe54e","6573617f270241e5da3d355d","6576bfd2aec8c6cba6ef5572","629","
            
        <div style=""text-align: center; position: fixed; top: 5vh; left: 40vw;"">
            <div style=""margin:0 auto; width: 20vw; top: 8vh; font-size: 2vw""> 
            <font color=""green""> Bonus : $0 </font>
            </div>
        </div>
    
            <div> Please press any key to continue to the next movie.</div>
        ","arrowleft","ITI","","","","","","",""
"","","","","","html-keyboard-response","9","74509","0.0-5.0-1.1","64944e5edd31dfc2becbe54e","6573617f270241e5da3d355d","6576bfd2aec8c6cba6ef5572","1607","./stimuli//pack_morph_shapes_1/cat_1/diff_1/ex_1_1_12.gif","arrowleft","response","ArrowLeft","12","1","1","train","true",""
"","","","","","html-keyboard-response","10","76024","0.0-5.0-2.1","64944e5edd31dfc2becbe54e","6573617f270241e5da3d355d","6576bfd2aec8c6cba6ef5572","null","<p> <font color=""green"" size=""5vw""> Correct category! </font> </p>","null","feedback","","","","","","","0"
"","","","","","html-keyboard-response","11","76443","0.0-5.0-0.2","64944e5edd31dfc2becbe54e","6573617f270241e5da3d355d","6576bfd2aec8c6cba6ef5572","417","
            
        <div style=""text-align: center; position: fixed; top: 5vh; left: 40vw;"">
            <div style=""margin:0 auto; width: 20vw; top: 8vh; font-size: 2vw""> 
            <font color=""green""> Bonus : $0 </font>
            </div>
        </div>
    
            <div> Please press any key to continue to the next movie.</div>
        ","arrowleft","ITI","","","","","","",""
"","","","","","html-keyboard-response","12","77900","0.0-5.0-1.2","64944e5edd31dfc2becbe54e","6573617f270241e5da3d355d","6576bfd2aec8c6cba6ef5572","1455","./stimuli//pack_morph_shapes_1/cat_1/diff_2/ex_1_2_10.gif","arrowleft","response","ArrowLeft","10","1","2","train","true",""
"","","","","","html-keyboard-response","13","79402","0.0-5.0-2.2","64944e5edd31dfc2becbe54e","6573617f270241e5da3d355d","6576bfd2aec8c6cba6ef5572","null","<p> <font color=""green"" size=""5vw""> Correct category! </font> </p>","null","feedback","","","","","","","0"
"","","","","","html-keyboard-response","14","80005","0.0-5.0-0.3","64944e5edd31dfc2becbe54e","6573617f270241e5da3d355d","6576bfd2aec8c6cba6ef5572","601","
            
        <div style=""text-align: center; position: fixed; top: 5vh; left: 40vw;"">
            <div style=""margin:0 auto; width: 20vw; top: 8vh; font-size: 2vw""> 
            <font color=""green""> Bonus : $0 </font>
            </div>
        </div>
    
            <div> Please press any key to continue to the next movie.</div>
        ","arrowleft","ITI","","","","","","",""
"","","","","","html-keyboard-response","15","82114","0.0-5.0-1.3","64944e5edd31dfc2becbe54e","6573617f270241e5da3d355d","6576bfd2aec8c6cba6ef5572","2106","./stimuli//pack_morph_shapes_1/cat_2/diff_1/ex_2_1_12.gif","arrowleft","response","ArrowRight","12","2","1","train","false",""
"","","","","","html-keyboard-response","16","83618","0.0-5.0-2.3","64944e5edd31dfc2becbe54e","6573617f270241e5da3d355d","6576bfd2aec8c6cba6ef5572","null","<p> <font color=""red"" size=""5vw""> Wrong category! </font> </p>","null","feedback","","","","","","","0"
"","","","","","html-keyboard-response","17","84256","0.0-5.0-0.4","64944e5edd31dfc2becbe54e","6573617f270241e5da3d355d","6576bfd2aec8c6cba6ef5572","637","
            
        <div style=""text-align: center; position: fixed; top: 5vh; left: 40vw;"">
            <div style=""margin:0 auto; width: 20vw; top: 8vh; font-size: 2vw""> 
            <font color=""green""> Bonus : $0 </font>
            </div>
        </div>
    
            <div> Please press any key to continue to the next movie.</div>
        ","arrowleft","ITI","","","","","","",""
"","","","","","html-keyboard-response","18","85888","0.0-5.0-1.4","64944e5edd31dfc2becbe54e","6573617f270241e5da3d355d","6576bfd2aec8c6cba6ef5572","1632","./stimuli//pack_morph_shapes_1/cat_1/diff_2/ex_1_2_8.gif","arrowleft","response","ArrowLeft","8","1","2","train","true",""
"","","","","","html-keyboard-response","19","87400","0.0-5.0-2.4","64944e5edd31dfc2becbe54e","6573617f270241e5da3d355d","6576bfd2aec8c6cba6ef5572","null","<p> <font color=""green"" size=""5vw""> Correct category! </font> </p>","null","feedback","","","","","","","0"
"","","","","","html-keyboard-response","20","88206","0.0-5.0-0.5","64944e5edd31dfc2becbe54e","6573617f270241e5da3d355d","6576bfd2aec8c6cba6ef5572","805","
            
        <div style=""text-align: center; position: fixed; top: 5vh; left: 40vw;"">
            <div style=""margin:0 auto; width: 20vw; top: 8vh; font-size: 2vw""> 
            <font color=""green""> Bonus : $0 </font>
            </div>
        </div>
    
            <div> Please press any key to continue to the next movie.</div>
        ","arrowleft","ITI","","","","","","",""
"","","","","","html-keyboard-response","21","89142","0.0-5.0-1.5","64944e5edd31dfc2becbe54e","6573617f270241e5da3d355d","6576bfd2aec8c6cba6ef5572","935","./stimuli//pack_morph_shapes_1/cat_2/diff_2/ex_2_2_10.gif","arrowright","response","ArrowRight","10","2","2","train","true",""
"","","","","","html-keyboard-response","22","90643","0.0-5.0-2.5","64944e5edd31dfc2becbe54e","6573617f270241e5da3d355d","6576bfd2aec8c6cba6ef5572","null","<p> <font color=""green"" size=""5vw""> Correct category! </font> </p>","null","feedback","","","","","","","0"
"","","","","","html-keyboard-response","23","91281","0.0-5.0-0.6","64944e5edd31dfc2becbe54e","6573617f270241e5da3d355d","6576bfd2aec8c6cba6ef5572","637","
            
        <div style=""text-align: center; position: fixed; top: 5vh; left: 40vw;"">
            <div style=""margin:0 auto; width: 20vw; top: 8vh; font-size: 2vw""> 
            <font color=""green""> Bonus : $0 </font>
            </div>
        </div>
    
            <div> Please press any key to continue to the next movie.</div>
        ","arrowleft","ITI","","","","","","",""
"","","","","","html-keyboard-response","24","92446","0.0-5.0-1.6","64944e5edd31dfc2becbe54e","6573617f270241e5da3d355d","6576bfd2aec8c6cba6ef5572","1164","./stimuli//pack_morph_shapes_1/cat_2/diff_2/ex_2_2_5.gif","arrowright","response","ArrowRight","5","2","2","train","true",""
"","","","","","html-keyboard-response","25","93962","0.0-5.0-2.6","64944e5edd31dfc2becbe54e","6573617f270241e5da3d355d","6576bfd2aec8c6cba6ef5572","null","<p> <font color=""green"" size=""5vw""> Correct category! </font> </p>","null","feedback","","","","","","","0"
"","","","","","html-keyboard-response","26","94620","0.0-5.0-0.7","64944e5edd31dfc2becbe54e","6573617f270241e5da3d355d","6576bfd2aec8c6cba6ef5572","658","
            
        <div style=""text-align: center; position: fixed; top: 5vh; left: 40vw;"">
            <div style=""margin:0 auto; width: 20vw; top: 8vh; font-size: 2vw""> 
            <font color=""green""> Bonus : $0 </font>
            </div>
        </div>
    
            <div> Please press any key to continue to the next movie.</div>
        ","arrowleft","ITI","","","","","","",""
"","","","","","html-keyboard-response","27","96245","0.0-5.0-1.7","64944e5edd31dfc2becbe54e","6573617f270241e5da3d355d","6576bfd2aec8c6cba6ef5572","1624","./stimuli//pack_morph_shapes_1/cat_2/diff_1/ex_2_1_10.gif","arrowright","response","ArrowRight","10","2","1","train","true",""
"","","","","","html-keyboard-response","28","97759","0.0-5.0-2.7","64944e5edd31dfc2becbe54e","6573617f270241e5da3d355d","6576bfd2aec8c6cba6ef5572","null","<p> <font color=""green"" size=""5vw""> Correct category! </font> </p>","null","feedback","","","","","","","0"
"","","","","","html-keyboard-response","29","98477","0.0-5.0-0.8","64944e5edd31dfc2becbe54e","6573617f270241e5da3d355d","6576bfd2aec8c6cba6ef5572","718","
            
        <div style=""text-align: center; position: fixed; top: 5vh; left: 40vw;"">
            <div style=""margin:0 auto; width: 20vw; top: 8vh; font-size: 2vw""> 
            <font color=""green""> Bonus : $0 </font>
            </div>
        </div>
    
            <div> Please press any key to continue to the next movie.</div>
        ","arrowleft","ITI","","","","","","",""
"","","","","","html-keyboard-response","30","99498","0.0-5.0-1.8","64944e5edd31dfc2becbe54e","6573617f270241e5da3d355d","6576bfd2aec8c6cba6ef5572","1020","./stimuli//pack_morph_shapes_1/cat_1/diff_1/ex_1_1_13.gif","arrowleft","response","ArrowLeft","13","1","1","train","true",""
"","","","","","html-keyboard-response","31","101008","0.0-5.0-2.8","64944e5edd31dfc2becbe54e","6573617f270241e5da3d355d","6576bfd2aec8c6cba6ef5572","null","<p> <font color=""green"" size=""5vw""> Correct category! </font> </p>","null","feedback","","","","","","","0"
"","","","","","html-keyboard-response","32","101980","0.0-5.0-0.9","64944e5edd31dfc2becbe54e","6573617f270241e5da3d355d","6576bfd2aec8c6cba6ef5572","971","
            
        <div style=""text-align: center; position: fixed; top: 5vh; left: 40vw;"">
            <div style=""margin:0 auto; width: 20vw; top: 8vh; font-size: 2vw""> 
            <font color=""green""> Bonus : $0 </font>
            </div>
        </div>
    
            <div> Please press any key to continue to the next movie.</div>
        ","arrowleft","ITI","","","","","","",""
"","","","","","html-keyboard-response","33","102905","0.0-5.0-1.9","64944e5edd31dfc2becbe54e","6573617f270241e5da3d355d","6576bfd2aec8c6cba6ef5572","925","./stimuli//pack_morph_shapes_1/cat_2/diff_1/ex_2_1_2.gif","arrowright","response","ArrowRight","2","2","1","train","true",""
"","","","","","html-keyboard-response","34","104410","0.0-5.0-2.9","64944e5edd31dfc2becbe54e","6573617f270241e5da3d355d","6576bfd2aec8c6cba6ef5572","null","<p> <font color=""green"" size=""5vw""> Correct category! </font> </p>","null","feedback","","","","","","","0"
"","","","","","html-keyboard-response","35","113605","0.0-6.0","64944e5edd31dfc2becbe54e","6573617f270241e5da3d355d","6576bfd2aec8c6cba6ef5572","9194","
            <b> <p> The practice round has finished.</p>
            <b> <p> For the rest of the experiment you will receive a bonus payment for each correct answer, which will be higher the faster you answer!</b></p>
            <b> </p> Also you will lose $0.05 from your bonus payment for each incorrect answer!</p>
            <p> Press any key to begin the test. </p>
            ","arrowleft","intermission","","","","","","",""
"","","","","","html-keyboard-response","36","114752","0.0-7.0-0.0","64944e5edd31dfc2becbe54e","6573617f270241e5da3d355d","6576bfd2aec8c6cba6ef5572","1147","
            
        <div style=""text-align: center; position: fixed; top: 5vh; left: 40vw;"">
            <div style=""margin:0 auto; width: 20vw; top: 8vh; font-size: 2vw""> 
            <font color=""green""> Bonus : $0 </font>
            </div>
        </div>
    
            <div> Please press any key to continue to the next movie.</div>
        ","arrowleft","ITI","","","","","","",""
"","","","","","html-keyboard-response","37","116104","0.0-7.0-1.0","64944e5edd31dfc2becbe54e","6573617f270241e5da3d355d","6576bfd2aec8c6cba6ef5572","1350","./stimuli//pack_morph_shapes_1/cat_1/diff_1/ex_1_1_9.gif","arrowleft","response","ArrowLeft","9","1","1","test","true",""
"","","","","","html-keyboard-response","38","117620","0.0-7.0-2.0","64944e5edd31dfc2becbe54e","6573617f270241e5da3d355d","6576bfd2aec8c6cba6ef5572","null","<p> <font color=""green"" size=""5vw""> Correct category! </font> <br> <br> <font color=""green"" size=""8vw""> + $0.05 </font> </p>","null","feedback","","","","","","","0.05"
"","","","","","html-keyboard-response","39","117751","0.0-7.1-0.1","64944e5edd31dfc2becbe54e","6573617f270241e5da3d355d","6576bfd2aec8c6cba6ef5572","129","
            
        <div style=""text-align: center; position: fixed; top: 5vh; left: 40vw;"">
            <div style=""margin:0 auto; width: 20vw; top: 8vh; font-size: 2vw""> 
            <font color=""green""> Bonus : $0.05 </font>
            </div>
        </div>
    
            <div> Please press any key to continue to the next movie.</div>
        ","arrowleft","ITI","","","","","","",""
"","","","","","html-keyboard-response","40","118769","0.0-7.1-1.1","64944e5edd31dfc2becbe54e","6573617f270241e5da3d355d","6576bfd2aec8c6cba6ef5572","1017","./stimuli//pack_morph_shapes_1/cat_2/diff_1/ex_2_1_9.gif","arrowright","response","ArrowRight","9","2","1","test","true",""
"","","","","","html-keyboard-response","41","120284","0.0-7.1-2.1","64944e5edd31dfc2becbe54e","6573617f270241e5da3d355d","6576bfd2aec8c6cba6ef5572","null","<p> <font color=""green"" size=""5vw""> Correct category! </font> <br> <br> <font color=""green"" size=""8vw""> + $0.06 </font> </p>","null","feedback","","","","","","","0.11"
"","","","","","html-keyboard-response","42","120348","0.0-7.2-0.2","64944e5edd31dfc2becbe54e","6573617f270241e5da3d355d","6576bfd2aec8c6cba6ef5572","63","
            
        <div style=""text-align: center; position: fixed; top: 5vh; left: 40vw;"">
            <div style=""margin:0 auto; width: 20vw; top: 8vh; font-size: 2vw""> 
            <font color=""green""> Bonus : $0.11 </font>
            </div>
        </div>
    
            <div> Please press any key to continue to the next movie.</div>
        ","arrowleft","ITI","","","","","","",""
"","","","","","html-keyboard-response","43","121572","0.0-7.2-1.2","64944e5edd31dfc2becbe54e","6573617f270241e5da3d355d","6576bfd2aec8c6cba6ef5572","1223","./stimuli//pack_morph_shapes_1/cat_1/diff_1/ex_1_1_17.gif","arrowleft","response","ArrowLeft","17","1","1","test","true",""
"","","","","","html-keyboard-response","44","123083","0.0-7.2-2.2","64944e5edd31dfc2becbe54e","6573617f270241e5da3d355d","6576bfd2aec8c6cba6ef5572","null","<p> <font color=""green"" size=""5vw""> Correct category! </font> <br> <br> <font color=""green"" size=""8vw""> + $0.05 </font> </p>","null","feedback","","","","","","","0.16"
"","","","","","html-keyboard-response","45","123755","0.0-7.3-0.3","64944e5edd31dfc2becbe54e","6573617f270241e5da3d355d","6576bfd2aec8c6cba6ef5572","671","
            
        <div style=""text-align: center; position: fixed; top: 5vh; left: 40vw;"">
            <div style=""margin:0 auto; width: 20vw; top: 8vh; font-size: 2vw""> 
            <font color=""green""> Bonus : $0.16 </font>
            </div>
        </div>
    
            <div> Please press any key to continue to the next movie.</div>
        ","arrowright","ITI","","","","","","",""
"","","","","","html-keyboard-response","46","124846","0.0-7.3-1.3","64944e5edd31dfc2becbe54e","6573617f270241e5da3d355d","6576bfd2aec8c6cba6ef5572","1090","./stimuli//pack_morph_shapes_1/cat_1/diff_1/ex_1_1_9.gif","arrowleft","response","ArrowLeft","9","1","1","test","true",""
"","","","","","html-keyboard-response","47","126354","0.0-7.3-2.3","64944e5edd31dfc2becbe54e","6573617f270241e5da3d355d","6576bfd2aec8c6cba6ef5572","null","<p> <font color=""green"" size=""5vw""> Correct category! </font> <br> <br> <font color=""green"" size=""8vw""> + $0.06 </font> </p>","null","feedback","","","","","","","0.22"
"","","","","","html-keyboard-response","48","127123","0.0-7.4-0.4","64944e5edd31dfc2becbe54e","6573617f270241e5da3d355d","6576bfd2aec8c6cba6ef5572","768","
            
        <div style=""text-align: center; position: fixed; top: 5vh; left: 40vw;"">
            <div style=""margin:0 auto; width: 20vw; top: 8vh; font-size: 2vw""> 
            <font color=""green""> Bonus : $0.22 </font>
            </div>
        </div>
    
            <div> Please press any key to continue to the next movie.</div>
        ","arrowleft","ITI","","","","","","",""
"","","","","","html-keyboard-response","49","128738","0.0-7.4-1.4","64944e5edd31dfc2becbe54e","6573617f270241e5da3d355d","6576bfd2aec8c6cba6ef5572","1615","./stimuli//pack_morph_shapes_1/cat_1/diff_1/ex_1_1_8.gif","arrowleft","response","ArrowLeft","8","1","1","test","true",""
"","","","","","html-keyboard-response","50","130251","0.0-7.4-2.4","64944e5edd31dfc2becbe54e","6573617f270241e5da3d355d","6576bfd2aec8c6cba6ef5572","null","<p> <font color=""green"" size=""5vw""> Correct category! </font> <br> <br> <font color=""green"" size=""8vw""> + $0.04 </font> </p>","null","feedback","","","","","","","0.26"
"","","","","","html-keyboard-response","51","130853","0.0-7.5-0.5","64944e5edd31dfc2becbe54e","6573617f270241e5da3d355d","6576bfd2aec8c6cba6ef5572","600","
            
        <div style=""text-align: center; position: fixed; top: 5vh; left: 40vw;"">
            <div style=""margin:0 auto; width: 20vw; top: 8vh; font-size: 2vw""> 
            <font color=""green""> Bonus : $0.26 </font>
            </div>
        </div>
    
            <div> Please press any key to continue to the next movie.</div>
        ","arrowleft","ITI","","","","","","",""
"","","","","","html-keyboard-response","52","132090","0.0-7.5-1.5","64944e5edd31dfc2becbe54e","6573617f270241e5da3d355d","6576bfd2aec8c6cba6ef5572","1237","./stimuli//pack_morph_shapes_1/cat_1/diff_2/ex_1_2_3.gif","arrowright","response","ArrowLeft","3","1","2","test","false",""
"","","","","","html-keyboard-response","53","133593","0.0-7.5-2.5","64944e5edd31dfc2becbe54e","6573617f270241e5da3d355d","6576bfd2aec8c6cba6ef5572","null","<p> <font color=""red"" size=""5vw""> Wrong category! </font> <br> <br> <font color=""red"" size=""8vw""> - $0.05 </font> </p>","null","feedback","","","","","","","0.21"
"","","","","","html-keyboard-response","54","134413","0.0-7.6-0.6","64944e5edd31dfc2becbe54e","6573617f270241e5da3d355d","6576bfd2aec8c6cba6ef5572","819","
            
        <div style=""text-align: center; position: fixed; top: 5vh; left: 40vw;"">
            <div style=""margin:0 auto; width: 20vw; top: 8vh; font-size: 2vw""> 
            <font color=""green""> Bonus : $0.21 </font>
            </div>
        </div>
    
            <div> Please press any key to continue to the next movie.</div>
        ","arrowleft","ITI","","","","","","",""
"","","","","","html-keyboard-response","55","136277","0.0-7.6-1.6","64944e5edd31dfc2becbe54e","6573617f270241e5da3d355d","6576bfd2aec8c6cba6ef5572","1863","./stimuli//pack_morph_shapes_1/cat_2/diff_2/ex_2_2_14.gif","arrowright","response","ArrowRight","14","2","2","test","true",""
"","","","","","html-keyboard-response","56","137783","0.0-7.6-2.6","64944e5edd31dfc2becbe54e","6573617f270241e5da3d355d","6576bfd2aec8c6cba6ef5572","null","<p> <font color=""green"" size=""5vw""> Correct category! </font> <br> <br> <font color=""green"" size=""8vw""> + $0.04 </font> </p>","null","feedback","","","","","","","0.25"
"","","","","","html-keyboard-response","57","138348","0.0-7.7-0.7","64944e5edd31dfc2becbe54e","6573617f270241e5da3d355d","6576bfd2aec8c6cba6ef5572","564","
            
        <div style=""text-align: center; position: fixed; top: 5vh; left: 40vw;"">
            <div style=""margin:0 auto; width: 20vw; top: 8vh; font-size: 2vw""> 
            <font color=""green""> Bonus : $0.25 </font>
            </div>
        </div>
    
            <div> Please press any key to continue to the next movie.</div>
        ","arrowleft","ITI","","","","","","",""
"","","","","","html-keyboard-response","58","139495","0.0-7.7-1.7","64944e5edd31dfc2becbe54e","6573617f270241e5da3d355d","6576bfd2aec8c6cba6ef5572","1146","./stimuli//pack_morph_shapes_1/cat_2/diff_2/ex_2_2_17.gif","arrowright","response","ArrowRight","17","2","2","test","true",""
"","","","","","html-keyboard-response","59","141002","0.0-7.7-2.7","64944e5edd31dfc2becbe54e","6573617f270241e5da3d355d","6576bfd2aec8c6cba6ef5572","null","<p> <font color=""green"" size=""5vw""> Correct category! </font> <br> <br> <font color=""green"" size=""8vw""> + $0.06 </font> </p>","null","feedback","","","","","","","0.31"
"","","","","","html-keyboard-response","60","141516","0.0-7.8-0.8","64944e5edd31dfc2becbe54e","6573617f270241e5da3d355d","6576bfd2aec8c6cba6ef5572","513","
            
        <div style=""text-align: center; position: fixed; top: 5vh; left: 40vw;"">
            <div style=""margin:0 auto; width: 20vw; top: 8vh; font-size: 2vw""> 
            <font color=""green""> Bonus : $0.31 </font>
            </div>
        </div>
    
            <div> Please press any key to continue to the next movie.</div>
        ","arrowleft","ITI","","","","","","",""
"","","","","","html-keyboard-response","61","142630","0.0-7.8-1.8","64944e5edd31dfc2becbe54e","6573617f270241e5da3d355d","6576bfd2aec8c6cba6ef5572","1113","./stimuli//pack_morph_shapes_1/cat_2/diff_2/ex_2_2_2.gif","arrowright","response","ArrowRight","2","2","2","test","true",""
"","","","","","html-keyboard-response","62","144146","0.0-7.8-2.8","64944e5edd31dfc2becbe54e","6573617f270241e5da3d355d","6576bfd2aec8c6cba6ef5572","null","<p> <font color=""green"" size=""5vw""> Correct category! </font> <br> <br> <font color=""green"" size=""8vw""> + $0.06 </font> </p>","null","feedback","","","","","","","0.37"
"","","","","","html-keyboard-response","63","144809","0.0-7.9-0.9","64944e5edd31dfc2becbe54e","6573617f270241e5da3d355d","6576bfd2aec8c6cba6ef5572","662","
            
        <div style=""text-align: center; position: fixed; top: 5vh; left: 40vw;"">
            <div style=""margin:0 auto; width: 20vw; top: 8vh; font-size: 2vw""> 
            <font color=""green""> Bonus : $0.37 </font>
            </div>
        </div>
    
            <div> Please press any key to continue to the next movie.</div>
        ","arrowleft","ITI","","","","","","",""
"","","","","","html-keyboard-response","64","146145","0.0-7.9-1.9","64944e5edd31dfc2becbe54e","6573617f270241e5da3d355d","6576bfd2aec8c6cba6ef5572","1335","./stimuli//pack_morph_shapes_1/cat_1/diff_2/ex_1_2_14.gif","arrowleft","response","ArrowLeft","14","1","2","test","true",""
"","","","","","html-keyboard-response","65","147647","0.0-7.9-2.9","64944e5edd31dfc2becbe54e","6573617f270241e5da3d355d","6576bfd2aec8c6cba6ef5572","null","<p> <font color=""green"" size=""5vw""> Correct category! </font> <br> <br> <font color=""green"" size=""8vw""> + $0.05 </font> </p>","null","feedback","","","","","","","0.42"
"","","","","","html-keyboard-response","66","148194","0.0-7.10-0.10","64944e5edd31dfc2becbe54e","6573617f270241e5da3d355d","6576bfd2aec8c6cba6ef5572","546","
            
        <div style=""text-align: center; position: fixed; top: 5vh; left: 40vw;"">
            <div style=""margin:0 auto; width: 20vw; top: 8vh; font-size: 2vw""> 
            <font color=""green""> Bonus : $0.42 </font>
            </div>
        </div>
    
            <div> Please press any key to continue to the next movie.</div>
        ","arrowleft","ITI","","","","","","",""
"","","","","","html-keyboard-response","67","149325","0.0-7.10-1.10","64944e5edd31dfc2becbe54e","6573617f270241e5da3d355d","6576bfd2aec8c6cba6ef5572","1130","./stimuli//pack_morph_shapes_1/cat_1/diff_3/ex_1_3_1.gif","arrowleft","response","ArrowLeft","1","1","3","test","true",""
"","","","","","html-keyboard-response","68","150837","0.0-7.10-2.10","64944e5edd31dfc2becbe54e","6573617f270241e5da3d355d","6576bfd2aec8c6cba6ef5572","null","<p> <font color=""green"" size=""5vw""> Correct category! </font> <br> <br> <font color=""green"" size=""8vw""> + $0.06 </font> </p>","null","feedback","","","","","","","0.48"
"","","","","","html-keyboard-response","69","151703","0.0-7.11-0.11","64944e5edd31dfc2becbe54e","6573617f270241e5da3d355d","6576bfd2aec8c6cba6ef5572","866","
            
        <div style=""text-align: center; position: fixed; top: 5vh; left: 40vw;"">
            <div style=""margin:0 auto; width: 20vw; top: 8vh; font-size: 2vw""> 
            <font color=""green""> Bonus : $0.48 </font>
            </div>
        </div>
    
            <div> Please press any key to continue to the next movie.</div>
        ","arrowleft","ITI","","","","","","",""
"","","","","","html-keyboard-response","70","152565","0.0-7.11-1.11","64944e5edd31dfc2becbe54e","6573617f270241e5da3d355d","6576bfd2aec8c6cba6ef5572","861","./stimuli//pack_morph_shapes_1/cat_2/diff_3/ex_2_3_14.gif","arrowright","response","ArrowRight","14","2","3","test","true",""
"","","","","","html-keyboard-response","71","154071","0.0-7.11-2.11","64944e5edd31dfc2becbe54e","6573617f270241e5da3d355d","6576bfd2aec8c6cba6ef5572","null","<p> <font color=""green"" size=""5vw""> Correct category! </font> <br> <br> <font color=""green"" size=""8vw""> + $0.07 </font> </p>","null","feedback","","","","","","","0.55"
"","","","","","html-keyboard-response","72","154568","0.0-7.12-0.12","64944e5edd31dfc2becbe54e","6573617f270241e5da3d355d","6576bfd2aec8c6cba6ef5572","496","
            
        <div style=""text-align: center; position: fixed; top: 5vh; left: 40vw;"">
            <div style=""margin:0 auto; width: 20vw; top: 8vh; font-size: 2vw""> 
            <font color=""green""> Bonus : $0.55 </font>
            </div>
        </div>
    
            <div> Please press any key to continue to the next movie.</div>
        ","arrowleft","ITI","","","","","","",""
"","","","","","html-keyboard-response","73","156240","0.0-7.12-1.12","64944e5edd31dfc2becbe54e","6573617f270241e5da3d355d","6576bfd2aec8c6cba6ef5572","1671","./stimuli//pack_morph_shapes_1/cat_1/diff_3/ex_1_3_2.gif","arrowleft","response","ArrowLeft","2","1","3","test","true",""
"","","","","","html-keyboard-response","74","157746","0.0-7.12-2.12","64944e5edd31dfc2becbe54e","6573617f270241e5da3d355d","6576bfd2aec8c6cba6ef5572","null","<p> <font color=""green"" size=""5vw""> Correct category! </font> <br> <br> <font color=""green"" size=""8vw""> + $0.04 </font> </p>","null","feedback","","","","","","","0.59"
"","","","","","html-keyboard-response","75","158509","0.0-7.13-0.13","64944e5edd31dfc2becbe54e","6573617f270241e5da3d355d","6576bfd2aec8c6cba6ef5572","763","
            
        <div style=""text-align: center; position: fixed; top: 5vh; left: 40vw;"">
            <div style=""margin:0 auto; width: 20vw; top: 8vh; font-size: 2vw""> 
            <font color=""green""> Bonus : $0.59 </font>
            </div>
        </div>
    
            <div> Please press any key to continue to the next movie.</div>
        ","arrowleft","ITI","","","","","","",""
"","","","","","html-keyboard-response","76","159326","0.0-7.13-1.13","64944e5edd31dfc2becbe54e","6573617f270241e5da3d355d","6576bfd2aec8c6cba6ef5572","815","./stimuli//pack_morph_shapes_1/cat_1/diff_3/ex_1_3_13.gif","arrowright","response","ArrowLeft","13","1","3","test","false",""
"","","","","","html-keyboard-response","77","160830","0.0-7.13-2.13","64944e5edd31dfc2becbe54e","6573617f270241e5da3d355d","6576bfd2aec8c6cba6ef5572","null","<p> <font color=""red"" size=""5vw""> Wrong category! </font> <br> <br> <font color=""red"" size=""8vw""> - $0.05 </font> </p>","null","feedback","","","","","","","0.54"
"","","","","","html-keyboard-response","78","161392","0.0-7.14-0.14","64944e5edd31dfc2becbe54e","6573617f270241e5da3d355d","6576bfd2aec8c6cba6ef5572","561","
            
        <div style=""text-align: center; position: fixed; top: 5vh; left: 40vw;"">
            <div style=""margin:0 auto; width: 20vw; top: 8vh; font-size: 2vw""> 
            <font color=""green""> Bonus : $0.54 </font>
            </div>
        </div>
    
            <div> Please press any key to continue to the next movie.</div>
        ","arrowleft","ITI","","","","","","",""
"","","","","","html-keyboard-response","79","162567","0.0-7.14-1.14","64944e5edd31dfc2becbe54e","6573617f270241e5da3d355d","6576bfd2aec8c6cba6ef5572","1174","./stimuli//pack_morph_shapes_1/cat_2/diff_3/ex_2_3_4.gif","arrowright","response","ArrowRight","4","2","3","test","true",""
"","","","","","html-keyboard-response","80","164074","0.0-7.14-2.14","64944e5edd31dfc2becbe54e","6573617f270241e5da3d355d","6576bfd2aec8c6cba6ef5572","null","<p> <font color=""green"" size=""5vw""> Correct category! </font> <br> <br> <font color=""green"" size=""8vw""> + $0.06 </font> </p>","null","feedback","","","","","","","0.6"
"","","","","","html-keyboard-response","81","164724","0.0-7.15-0.15","64944e5edd31dfc2becbe54e","6573617f270241e5da3d355d","6576bfd2aec8c6cba6ef5572","649","
            
        <div style=""text-align: center; position: fixed; top: 5vh; left: 40vw;"">
            <div style=""margin:0 auto; width: 20vw; top: 8vh; font-size: 2vw""> 
            <font color=""green""> Bonus : $0.6 </font>
            </div>
        </div>
    
            <div> Please press any key to continue to the next movie.</div>
        ","arrowleft","ITI","","","","","","",""
"","","","","","html-keyboard-response","82","166526","0.0-7.15-1.15","64944e5edd31dfc2becbe54e","6573617f270241e5da3d355d","6576bfd2aec8c6cba6ef5572","1801","./stimuli//pack_morph_shapes_1/cat_2/diff_4/ex_2_4_5.gif","arrowright","response","ArrowRight","5","2","4","test","true",""
"","","","","","html-keyboard-response","83","168032","0.0-7.15-2.15","64944e5edd31dfc2becbe54e","6573617f270241e5da3d355d","6576bfd2aec8c6cba6ef5572","null","<p> <font color=""green"" size=""5vw""> Correct category! </font> <br> <br> <font color=""green"" size=""8vw""> + $0.04 </font> </p>","null","feedback","","","","","","","0.64"
"","","","","","html-keyboard-response","84","168550","0.0-7.16-0.16","64944e5edd31dfc2becbe54e","6573617f270241e5da3d355d","6576bfd2aec8c6cba6ef5572","517","
            
        <div style=""text-align: center; position: fixed; top: 5vh; left: 40vw;"">
            <div style=""margin:0 auto; width: 20vw; top: 8vh; font-size: 2vw""> 
            <font color=""green""> Bonus : $0.64 </font>
            </div>
        </div>
    
            <div> Please press any key to continue to the next movie.</div>
        ","arrowleft","ITI","","","","","","",""
"","","","","","html-keyboard-response","85","169787","0.0-7.16-1.16","64944e5edd31dfc2becbe54e","6573617f270241e5da3d355d","6576bfd2aec8c6cba6ef5572","1236","./stimuli//pack_morph_shapes_1/cat_2/diff_4/ex_2_4_17.gif","arrowleft","response","ArrowRight","17","2","4","test","false",""
"","","","","","html-keyboard-response","86","171296","0.0-7.16-2.16","64944e5edd31dfc2becbe54e","6573617f270241e5da3d355d","6576bfd2aec8c6cba6ef5572","null","<p> <font color=""red"" size=""5vw""> Wrong category! </font> <br> <br> <font color=""red"" size=""8vw""> - $0.05 </font> </p>","null","feedback","","","","","","","0.59"
"","","","","","html-keyboard-response","87","172011","0.0-7.17-0.17","64944e5edd31dfc2becbe54e","6573617f270241e5da3d355d","6576bfd2aec8c6cba6ef5572","713","
            
        <div style=""text-align: center; position: fixed; top: 5vh; left: 40vw;"">
            <div style=""margin:0 auto; width: 20vw; top: 8vh; font-size: 2vw""> 
            <font color=""green""> Bonus : $0.59 </font>
            </div>
        </div>
    
            <div> Please press any key to continue to the next movie.</div>
        ","arrowleft","ITI","","","","","","",""
"","","","","","html-keyboard-response","88","173055","0.0-7.17-1.17","64944e5edd31dfc2becbe54e","6573617f270241e5da3d355d","6576bfd2aec8c6cba6ef5572","1042","./stimuli//pack_morph_shapes_1/cat_1/diff_4/ex_1_4_15.gif","arrowleft","response","ArrowLeft","15","1","4","test","true",""
"","","","","","html-keyboard-response","89","174563","0.0-7.17-2.17","64944e5edd31dfc2becbe54e","6573617f270241e5da3d355d","6576bfd2aec8c6cba6ef5572","null","<p> <font color=""green"" size=""5vw""> Correct category! </font> <br> <br> <font color=""green"" size=""8vw""> + $0.06 </font> </p>","null","feedback","","","","","","","0.65"
"","","","","","html-keyboard-response","90","175064","0.0-7.18-0.18","64944e5edd31dfc2becbe54e","6573617f270241e5da3d355d","6576bfd2aec8c6cba6ef5572","489","
            
        <div style=""text-align: center; position: fixed; top: 5vh; left: 40vw;"">
            <div style=""margin:0 auto; width: 20vw; top: 8vh; font-size: 2vw""> 
            <font color=""green""> Bonus : $0.65 </font>
            </div>
        </div>
    
            <div> Please press any key to continue to the next movie.</div>
        ","arrowleft","ITI","","","","","","",""
"","","","","","html-keyboard-response","91","176484","0.0-7.18-1.18","64944e5edd31dfc2becbe54e","6573617f270241e5da3d355d","6576bfd2aec8c6cba6ef5572","1419","./stimuli//pack_morph_shapes_1/cat_1/diff_4/ex_1_4_2.gif","arrowleft","response","ArrowLeft","2","1","4","test","true",""
"","","","","","html-keyboard-response","92","177986","0.0-7.18-2.18","64944e5edd31dfc2becbe54e","6573617f270241e5da3d355d","6576bfd2aec8c6cba6ef5572","null","<p> <font color=""green"" size=""5vw""> Correct category! </font> <br> <br> <font color=""green"" size=""8vw""> + $0.05 </font> </p>","null","feedback","","","","","","","0.7"
"","","","","","html-keyboard-response","93","178078","0.0-7.19-0.19","64944e5edd31dfc2becbe54e","6573617f270241e5da3d355d","6576bfd2aec8c6cba6ef5572","90","
            
        <div style=""text-align: center; position: fixed; top: 5vh; left: 40vw;"">
            <div style=""margin:0 auto; width: 20vw; top: 8vh; font-size: 2vw""> 
            <font color=""green""> Bonus : $0.7 </font>
            </div>
        </div>
    
            <div> Please press any key to continue to the next movie.</div>
        ","arrowleft","ITI","","","","","","",""
"","","","","","html-keyboard-response","94","179219","0.0-7.19-1.19","64944e5edd31dfc2becbe54e","6573617f270241e5da3d355d","6576bfd2aec8c6cba6ef5572","1138","./stimuli//pack_morph_shapes_1/cat_2/diff_4/ex_2_4_10.gif","arrowright","response","ArrowRight","10","2","4","test","true",""
"","","","","","html-keyboard-response","95","180734","0.0-7.19-2.19","64944e5edd31dfc2becbe54e","6573617f270241e5da3d355d","6576bfd2aec8c6cba6ef5572","null","<p> <font color=""green"" size=""5vw""> Correct category! </font> <br> <br> <font color=""green"" size=""8vw""> + $0.06 </font> </p>","null","feedback","","","","","","","0.76"
"","","","","","html-keyboard-response","96","181536","0.0-7.20-0.20","64944e5edd31dfc2becbe54e","6573617f270241e5da3d355d","6576bfd2aec8c6cba6ef5572","799","
            
        <div style=""text-align: center; position: fixed; top: 5vh; left: 40vw;"">
            <div style=""margin:0 auto; width: 20vw; top: 8vh; font-size: 2vw""> 
            <font color=""green""> Bonus : $0.76 </font>
            </div>
        </div>
    
            <div> Please press any key to continue to the next movie.</div>
        ","arrowleft","ITI","","","","","","",""
"","","","","","html-keyboard-response","97","182584","0.0-7.20-1.20","64944e5edd31dfc2becbe54e","6573617f270241e5da3d355d","6576bfd2aec8c6cba6ef5572","1042","./stimuli//pack_morph_shapes_1/cat_1/diff_5/ex_1_5_2.gif","arrowleft","response","ArrowLeft","2","1","5","test","true",""
"","","","","","html-keyboard-response","98","184097","0.0-7.20-2.20","64944e5edd31dfc2becbe54e","6573617f270241e5da3d355d","6576bfd2aec8c6cba6ef5572","null","<p> <font color=""green"" size=""5vw""> Correct category! </font> <br> <br> <font color=""green"" size=""8vw""> + $0.06 </font> </p>","null","feedback","","","","","","","0.82"
"","","","","","html-keyboard-response","99","184629","0.0-7.21-0.21","64944e5edd31dfc2becbe54e","6573617f270241e5da3d355d","6576bfd2aec8c6cba6ef5572","531","
            
        <div style=""text-align: center; position: fixed; top: 5vh; left: 40vw;"">
            <div style=""margin:0 auto; width: 20vw; top: 8vh; font-size: 2vw""> 
            <font color=""green""> Bonus : $0.82 </font>
            </div>
        </div>
    
            <div> Please press any key to continue to the next movie.</div>
        ","arrowleft","ITI","","","","","","",""
"","","","","","html-keyboard-response","100","186164","0.0-7.21-1.21","64944e5edd31dfc2becbe54e","6573617f270241e5da3d355d","6576bfd2aec8c6cba6ef5572","1533","./stimuli//pack_morph_shapes_1/cat_1/diff_5/ex_1_5_15.gif","arrowright","response","ArrowLeft","15","1","5","test","false",""
"","","","","","html-keyboard-response","101","187678","0.0-7.21-2.21","64944e5edd31dfc2becbe54e","6573617f270241e5da3d355d","6576bfd2aec8c6cba6ef5572","null","<p> <font color=""red"" size=""5vw""> Wrong category! </font> <br> <br> <font color=""red"" size=""8vw""> - $0.05 </font> </p>","null","feedback","","","","","","","0.77"
"","","","","","html-keyboard-response","102","188257","0.0-7.22-0.22","64944e5edd31dfc2becbe54e","6573617f270241e5da3d355d","6576bfd2aec8c6cba6ef5572","577","
            
        <div style=""text-align: center; position: fixed; top: 5vh; left: 40vw;"">
            <div style=""margin:0 auto; width: 20vw; top: 8vh; font-size: 2vw""> 
            <font color=""green""> Bonus : $0.77 </font>
            </div>
        </div>
    
            <div> Please press any key to continue to the next movie.</div>
        ","arrowleft","ITI","","","","","","",""
"","","","","","html-keyboard-response","103","189652","0.0-7.22-1.22","64944e5edd31dfc2becbe54e","6573617f270241e5da3d355d","6576bfd2aec8c6cba6ef5572","1394","./stimuli//pack_morph_shapes_1/cat_2/diff_5/ex_2_5_15.gif","arrowleft","response","ArrowRight","15","2","5","test","false",""
"","","","","","html-keyboard-response","104","191155","0.0-7.22-2.22","64944e5edd31dfc2becbe54e","6573617f270241e5da3d355d","6576bfd2aec8c6cba6ef5572","null","<p> <font color=""red"" size=""5vw""> Wrong category! </font> <br> <br> <font color=""red"" size=""8vw""> - $0.05 </font> </p>","null","feedback","","","","","","","0.72"
"","","","","","html-keyboard-response","105","191729","0.0-7.23-0.23","64944e5edd31dfc2becbe54e","6573617f270241e5da3d355d","6576bfd2aec8c6cba6ef5572","572","
            
        <div style=""text-align: center; position: fixed; top: 5vh; left: 40vw;"">
            <div style=""margin:0 auto; width: 20vw; top: 8vh; font-size: 2vw""> 
            <font color=""green""> Bonus : $0.72 </font>
            </div>
        </div>
    
            <div> Please press any key to continue to the next movie.</div>
        ","arrowleft","ITI","","","","","","",""
"","","","","","html-keyboard-response","106","192907","0.0-7.23-1.23","64944e5edd31dfc2becbe54e","6573617f270241e5da3d355d","6576bfd2aec8c6cba6ef5572","1177","./stimuli//pack_morph_shapes_1/cat_2/diff_5/ex_2_5_10.gif","arrowright","response","ArrowRight","10","2","5","test","true",""
"","","","","","html-keyboard-response","107","194423","0.0-7.23-2.23","64944e5edd31dfc2becbe54e","6573617f270241e5da3d355d","6576bfd2aec8c6cba6ef5572","null","<p> <font color=""green"" size=""5vw""> Correct category! </font> <br> <br> <font color=""green"" size=""8vw""> + $0.06 </font> </p>","null","feedback","","","","","","","0.78"
"","","","","","html-keyboard-response","108","195053","0.0-7.24-0.24","64944e5edd31dfc2becbe54e","6573617f270241e5da3d355d","6576bfd2aec8c6cba6ef5572","629","
            
        <div style=""text-align: center; position: fixed; top: 5vh; left: 40vw;"">
            <div style=""margin:0 auto; width: 20vw; top: 8vh; font-size: 2vw""> 
            <font color=""green""> Bonus : $0.78 </font>
            </div>
        </div>
    
            <div> Please press any key to continue to the next movie.</div>
        ","arrowleft","ITI","","","","","","",""
"","","","","","html-keyboard-response","109","196718","0.0-7.24-1.24","64944e5edd31dfc2becbe54e","6573617f270241e5da3d355d","6576bfd2aec8c6cba6ef5572","1663","./stimuli//pack_morph_shapes_1/cat_1/diff_5/ex_1_5_5.gif","arrowleft","response","ArrowLeft","5","1","5","test","true",""
"","","","","","html-keyboard-response","110","198229","0.0-7.24-2.24","64944e5edd31dfc2becbe54e","6573617f270241e5da3d355d","6576bfd2aec8c6cba6ef5572","null","<p> <font color=""green"" size=""5vw""> Correct category! </font> <br> <br> <font color=""green"" size=""8vw""> + $0.04 </font> </p>","null","feedback","","","","","","","0.82"
"","","","","","html-keyboard-response","111","198454","0.0-7.25-0.25","64944e5edd31dfc2becbe54e","6573617f270241e5da3d355d","6576bfd2aec8c6cba6ef5572","224","
            
        <div style=""text-align: center; position: fixed; top: 5vh; left: 40vw;"">
            <div style=""margin:0 auto; width: 20vw; top: 8vh; font-size: 2vw""> 
            <font color=""green""> Bonus : $0.82 </font>
            </div>
        </div>
    
            <div> Please press any key to continue to the next movie.</div>
        ","arrowleft","ITI","","","","","","",""
"","","","","","html-keyboard-response","112","199660","0.0-7.25-1.25","64944e5edd31dfc2becbe54e","6573617f270241e5da3d355d","6576bfd2aec8c6cba6ef5572","1205","./stimuli//pack_morph_shapes_1/cat_2/diff_4/ex_2_4_6.gif","arrowleft","response","ArrowRight","6","2","4","test","false",""
"","","","","","html-keyboard-response","113","201177","0.0-7.25-2.25","64944e5edd31dfc2becbe54e","6573617f270241e5da3d355d","6576bfd2aec8c6cba6ef5572","null","<p> <font color=""red"" size=""5vw""> Wrong category! </font> <br> <br> <font color=""red"" size=""8vw""> - $0.05 </font> </p>","null","feedback","","","","","","","0.77"
"","","","","","html-keyboard-response","114","201766","0.0-7.26-0.26","64944e5edd31dfc2becbe54e","6573617f270241e5da3d355d","6576bfd2aec8c6cba6ef5572","588","
            
        <div style=""text-align: center; position: fixed; top: 5vh; left: 40vw;"">
            <div style=""margin:0 auto; width: 20vw; top: 8vh; font-size: 2vw""> 
            <font color=""green""> Bonus : $0.77 </font>
            </div>
        </div>
    
            <div> Please press any key to continue to the next movie.</div>
        ","arrowleft","ITI","","","","","","",""
"","","","","","html-keyboard-response","115","202719","0.0-7.26-1.26","64944e5edd31dfc2becbe54e","6573617f270241e5da3d355d","6576bfd2aec8c6cba6ef5572","950","./stimuli//pack_morph_shapes_1/cat_2/diff_4/ex_2_4_4.gif","arrowright","response","ArrowRight","4","2","4","test","true",""
"","","","","","html-keyboard-response","116","204228","0.0-7.26-2.26","64944e5edd31dfc2becbe54e","6573617f270241e5da3d355d","6576bfd2aec8c6cba6ef5572","null","<p> <font color=""green"" size=""5vw""> Correct category! </font> <br> <br> <font color=""green"" size=""8vw""> + $0.06 </font> </p>","null","feedback","","","","","","","0.83"
"","","","","","html-keyboard-response","117","204709","0.0-7.27-0.27","64944e5edd31dfc2becbe54e","6573617f270241e5da3d355d","6576bfd2aec8c6cba6ef5572","480","
            
        <div style=""text-align: center; position: fixed; top: 5vh; left: 40vw;"">
            <div style=""margin:0 auto; width: 20vw; top: 8vh; font-size: 2vw""> 
            <font color=""green""> Bonus : $0.83 </font>
            </div>
        </div>
    
            <div> Please press any key to continue to the next movie.</div>
        ","arrowleft","ITI","","","","","","",""
"","","","","","html-keyboard-response","118","205758","0.0-7.27-1.27","64944e5edd31dfc2becbe54e","6573617f270241e5da3d355d","6576bfd2aec8c6cba6ef5572","1047","./stimuli//pack_morph_shapes_1/cat_1/diff_4/ex_1_4_11.gif","arrowleft","response","ArrowLeft","11","1","4","test","true",""
"","","","","","html-keyboard-response","119","207270","0.0-7.27-2.27","64944e5edd31dfc2becbe54e","6573617f270241e5da3d355d","6576bfd2aec8c6cba6ef5572","null","<p> <font color=""green"" size=""5vw""> Correct category! </font> <br> <br> <font color=""green"" size=""8vw""> + $0.06 </font> </p>","null","feedback","","","","","","","0.89"
"","","","","","html-keyboard-response","120","207875","0.0-7.28-0.28","64944e5edd31dfc2becbe54e","6573617f270241e5da3d355d","6576bfd2aec8c6cba6ef5572","605","
            
        <div style=""text-align: center; position: fixed; top: 5vh; left: 40vw;"">
            <div style=""margin:0 auto; width: 20vw; top: 8vh; font-size: 2vw""> 
            <font color=""green""> Bonus : $0.89 </font>
            </div>
        </div>
    
            <div> Please press any key to continue to the next movie.</div>
        ","arrowleft","ITI","","","","","","",""
"","","","","","html-keyboard-response","121","208877","0.0-7.28-1.28","64944e5edd31dfc2becbe54e","6573617f270241e5da3d355d","6576bfd2aec8c6cba6ef5572","1000","./stimuli//pack_morph_shapes_1/cat_1/diff_4/ex_1_4_6.gif","arrowleft","response","ArrowLeft","6","1","4","test","true",""
"","","","","","html-keyboard-response","122","210386","0.0-7.28-2.28","64944e5edd31dfc2becbe54e","6573617f270241e5da3d355d","6576bfd2aec8c6cba6ef5572","null","<p> <font color=""green"" size=""5vw""> Correct category! </font> <br> <br> <font color=""green"" size=""8vw""> + $0.06 </font> </p>","null","feedback","","","","","","","0.95"
"","","","","","html-keyboard-response","123","210987","0.0-7.29-0.29","64944e5edd31dfc2becbe54e","6573617f270241e5da3d355d","6576bfd2aec8c6cba6ef5572","599","
            
        <div style=""text-align: center; position: fixed; top: 5vh; left: 40vw;"">
            <div style=""margin:0 auto; width: 20vw; top: 8vh; font-size: 2vw""> 
            <font color=""green""> Bonus : $0.95 </font>
            </div>
        </div>
    
            <div> Please press any key to continue to the next movie.</div>
        ","arrowleft","ITI","","","","","","",""
"","","","","","html-keyboard-response","124","212060","0.0-7.29-1.29","64944e5edd31dfc2becbe54e","6573617f270241e5da3d355d","6576bfd2aec8c6cba6ef5572","1072","./stimuli//pack_morph_shapes_1/cat_1/diff_4/ex_1_4_7.gif","arrowleft","response","ArrowLeft","7","1","4","test","true",""
"","","","","","html-keyboard-response","125","213565","0.0-7.29-2.29","64944e5edd31dfc2becbe54e","6573617f270241e5da3d355d","6576bfd2aec8c6cba6ef5572","null","<p> <font color=""green"" size=""5vw""> Correct category! </font> <br> <br> <font color=""green"" size=""8vw""> + $0.06 </font> </p>","null","feedback","","","","","","","1.01"
"","","","","","html-keyboard-response","126","215150","0.0-7.30-0.30","64944e5edd31dfc2becbe54e","6573617f270241e5da3d355d","6576bfd2aec8c6cba6ef5572","1584","
            
        <div style=""text-align: center; position: fixed; top: 5vh; left: 40vw;"">
            <div style=""margin:0 auto; width: 20vw; top: 8vh; font-size: 2vw""> 
            <font color=""green""> Bonus : $1.01 </font>
            </div>
        </div>
    
            <div> Please press any key to continue to the next movie.</div>
        ","arrowleft","ITI","","","","","","",""
"","","","","","html-keyboard-response","127","217035","0.0-7.30-1.30","64944e5edd31dfc2becbe54e","6573617f270241e5da3d355d","6576bfd2aec8c6cba6ef5572","1883","./stimuli//pack_morph_shapes_1/cat_2/diff_5/ex_2_5_4.gif","arrowright","response","ArrowRight","4","2","5","test","true",""
"","","","","","html-keyboard-response","128","218540","0.0-7.30-2.30","64944e5edd31dfc2becbe54e","6573617f270241e5da3d355d","6576bfd2aec8c6cba6ef5572","null","<p> <font color=""green"" size=""5vw""> Correct category! </font> <br> <br> <font color=""green"" size=""8vw""> + $0.04 </font> </p>","null","feedback","","","","","","","1.05"
"","","","","","html-keyboard-response","129","219052","0.0-7.31-0.31","64944e5edd31dfc2becbe54e","6573617f270241e5da3d355d","6576bfd2aec8c6cba6ef5572","511","
            
        <div style=""text-align: center; position: fixed; top: 5vh; left: 40vw;"">
            <div style=""margin:0 auto; width: 20vw; top: 8vh; font-size: 2vw""> 
            <font color=""green""> Bonus : $1.05 </font>
            </div>
        </div>
    
            <div> Please press any key to continue to the next movie.</div>
        ","arrowleft","ITI","","","","","","",""
"","","","","","html-keyboard-response","130","220039","0.0-7.31-1.31","64944e5edd31dfc2becbe54e","6573617f270241e5da3d355d","6576bfd2aec8c6cba6ef5572","986","./stimuli//pack_morph_shapes_1/cat_2/diff_5/ex_2_5_16.gif","arrowleft","response","ArrowRight","16","2","5","test","false",""
"","","","","","html-keyboard-response","131","221548","0.0-7.31-2.31","64944e5edd31dfc2becbe54e","6573617f270241e5da3d355d","6576bfd2aec8c6cba6ef5572","null","<p> <font color=""red"" size=""5vw""> Wrong category! </font> <br> <br> <font color=""red"" size=""8vw""> - $0.05 </font> </p>","null","feedback","","","","","","","1"
"","","","","","html-keyboard-response","132","222431","0.0-7.32-0.32","64944e5edd31dfc2becbe54e","6573617f270241e5da3d355d","6576bfd2aec8c6cba6ef5572","881","
            
        <div style=""text-align: center; position: fixed; top: 5vh; left: 40vw;"">
            <div style=""margin:0 auto; width: 20vw; top: 8vh; font-size: 2vw""> 
            <font color=""green""> Bonus : $1 </font>
            </div>
        </div>
    
            <div> Please press any key to continue to the next movie.</div>
        ","arrowleft","ITI","","","","","","",""
"","","","","","html-keyboard-response","133","223155","0.0-7.32-1.32","64944e5edd31dfc2becbe54e","6573617f270241e5da3d355d","6576bfd2aec8c6cba6ef5572","722","./stimuli//pack_morph_shapes_1/cat_1/diff_5/ex_1_5_2.gif","arrowleft","response","ArrowLeft","2","1","5","test","true",""
"","","","","","html-keyboard-response","134","224660","0.0-7.32-2.32","64944e5edd31dfc2becbe54e","6573617f270241e5da3d355d","6576bfd2aec8c6cba6ef5572","null","<p> <font color=""green"" size=""5vw""> Correct category! </font> <br> <br> <font color=""green"" size=""8vw""> + $0.07 </font> </p>","null","feedback","","","","","","","1.07"
"","","","","","html-keyboard-response","135","225255","0.0-7.33-0.33","64944e5edd31dfc2becbe54e","6573617f270241e5da3d355d","6576bfd2aec8c6cba6ef5572","593","
            
        <div style=""text-align: center; position: fixed; top: 5vh; left: 40vw;"">
            <div style=""margin:0 auto; width: 20vw; top: 8vh; font-size: 2vw""> 
            <font color=""green""> Bonus : $1.07 </font>
            </div>
        </div>
    
            <div> Please press any key to continue to the next movie.</div>
        ","arrowleft","ITI","","","","","","",""
"","","","","","html-keyboard-response","136","227004","0.0-7.33-1.33","64944e5edd31dfc2becbe54e","6573617f270241e5da3d355d","6576bfd2aec8c6cba6ef5572","1748","./stimuli//pack_morph_shapes_1/cat_1/diff_5/ex_1_5_17.gif","arrowright","response","ArrowLeft","17","1","5","test","false",""
"","","","","","html-keyboard-response","137","228506","0.0-7.33-2.33","64944e5edd31dfc2becbe54e","6573617f270241e5da3d355d","6576bfd2aec8c6cba6ef5572","null","<p> <font color=""red"" size=""5vw""> Wrong category! </font> <br> <br> <font color=""red"" size=""8vw""> - $0.05 </font> </p>","null","feedback","","","","","","","1.02"
"","","","","","html-keyboard-response","138","229016","0.0-7.34-0.34","64944e5edd31dfc2becbe54e","6573617f270241e5da3d355d","6576bfd2aec8c6cba6ef5572","509","
            
        <div style=""text-align: center; position: fixed; top: 5vh; left: 40vw;"">
            <div style=""margin:0 auto; width: 20vw; top: 8vh; font-size: 2vw""> 
            <font color=""green""> Bonus : $1.02 </font>
            </div>
        </div>
    
            <div> Please press any key to continue to the next movie.</div>
        ","arrowleft","ITI","","","","","","",""
"","","","","","html-keyboard-response","139","230657","0.0-7.34-1.34","64944e5edd31dfc2becbe54e","6573617f270241e5da3d355d","6576bfd2aec8c6cba6ef5572","1639","./stimuli//pack_morph_shapes_1/cat_2/diff_5/ex_2_5_17.gif","arrowright","response","ArrowRight","17","2","5","test","true",""
"","","","","","html-keyboard-response","140","232158","0.0-7.34-2.34","64944e5edd31dfc2becbe54e","6573617f270241e5da3d355d","6576bfd2aec8c6cba6ef5572","null","<p> <font color=""green"" size=""5vw""> Correct category! </font> <br> <br> <font color=""green"" size=""8vw""> + $0.04 </font> </p>","null","feedback","","","","","","","1.06"
"","","","","","html-keyboard-response","141","232678","0.0-7.35-0.35","64944e5edd31dfc2becbe54e","6573617f270241e5da3d355d","6576bfd2aec8c6cba6ef5572","518","
            
        <div style=""text-align: center; position: fixed; top: 5vh; left: 40vw;"">
            <div style=""margin:0 auto; width: 20vw; top: 8vh; font-size: 2vw""> 
            <font color=""green""> Bonus : $1.06 </font>
            </div>
        </div>
    
            <div> Please press any key to continue to the next movie.</div>
        ","arrowleft","ITI","","","","","","",""
"","","","","","html-keyboard-response","142","233641","0.0-7.35-1.35","64944e5edd31dfc2becbe54e","6573617f270241e5da3d355d","6576bfd2aec8c6cba6ef5572","961","./stimuli//pack_morph_shapes_1/cat_1/diff_4/ex_1_4_5.gif","arrowleft","response","ArrowLeft","5","1","4","test","true",""
"","","","","","html-keyboard-response","143","235151","0.0-7.35-2.35","64944e5edd31dfc2becbe54e","6573617f270241e5da3d355d","6576bfd2aec8c6cba6ef5572","null","<p> <font color=""green"" size=""5vw""> Correct category! </font> <br> <br> <font color=""green"" size=""8vw""> + $0.06 </font> </p>","null","feedback","","","","","","","1.12"
"","","","","","html-keyboard-response","144","235926","0.0-7.36-0.36","64944e5edd31dfc2becbe54e","6573617f270241e5da3d355d","6576bfd2aec8c6cba6ef5572","774","
            
        <div style=""text-align: center; position: fixed; top: 5vh; left: 40vw;"">
            <div style=""margin:0 auto; width: 20vw; top: 8vh; font-size: 2vw""> 
            <font color=""green""> Bonus : $1.12 </font>
            </div>
        </div>
    
            <div> Please press any key to continue to the next movie.</div>
        ","arrowleft","ITI","","","","","","",""
"","","","","","html-keyboard-response","145","237317","0.0-7.36-1.36","64944e5edd31dfc2becbe54e","6573617f270241e5da3d355d","6576bfd2aec8c6cba6ef5572","1387","./stimuli//pack_morph_shapes_1/cat_2/diff_4/ex_2_4_16.gif","arrowright","response","ArrowRight","16","2","4","test","true",""
"","","","","","html-keyboard-response","146","238832","0.0-7.36-2.36","64944e5edd31dfc2becbe54e","6573617f270241e5da3d355d","6576bfd2aec8c6cba6ef5572","null","<p> <font color=""green"" size=""5vw""> Correct category! </font> <br> <br> <font color=""green"" size=""8vw""> + $0.05 </font> </p>","null","feedback","","","","","","","1.17"
"","","","","","html-keyboard-response","147","239347","0.0-7.37-0.37","64944e5edd31dfc2becbe54e","6573617f270241e5da3d355d","6576bfd2aec8c6cba6ef5572","514","
            
        <div style=""text-align: center; position: fixed; top: 5vh; left: 40vw;"">
            <div style=""margin:0 auto; width: 20vw; top: 8vh; font-size: 2vw""> 
            <font color=""green""> Bonus : $1.17 </font>
            </div>
        </div>
    
            <div> Please press any key to continue to the next movie.</div>
        ","arrowleft","ITI","","","","","","",""
"","","","","","html-keyboard-response","148","240441","0.0-7.37-1.37","64944e5edd31dfc2becbe54e","6573617f270241e5da3d355d","6576bfd2aec8c6cba6ef5572","1092","./stimuli//pack_morph_shapes_1/cat_2/diff_4/ex_2_4_6.gif","arrowright","response","ArrowRight","6","2","4","test","true",""
"","","","","","html-keyboard-response","149","241949","0.0-7.37-2.37","64944e5edd31dfc2becbe54e","6573617f270241e5da3d355d","6576bfd2aec8c6cba6ef5572","null","<p> <font color=""green"" size=""5vw""> Correct category! </font> <br> <br> <font color=""green"" size=""8vw""> + $0.06 </font> </p>","null","feedback","","","","","","","1.23"
"","","","","","html-keyboard-response","150","242621","0.0-7.38-0.38","64944e5edd31dfc2becbe54e","6573617f270241e5da3d355d","6576bfd2aec8c6cba6ef5572","672","
            
        <div style=""text-align: center; position: fixed; top: 5vh; left: 40vw;"">
            <div style=""margin:0 auto; width: 20vw; top: 8vh; font-size: 2vw""> 
            <font color=""green""> Bonus : $1.23 </font>
            </div>
        </div>
    
            <div> Please press any key to continue to the next movie.</div>
        ","arrowleft","ITI","","","","","","",""
"","","","","","html-keyboard-response","151","243552","0.0-7.38-1.38","64944e5edd31dfc2becbe54e","6573617f270241e5da3d355d","6576bfd2aec8c6cba6ef5572","929","./stimuli//pack_morph_shapes_1/cat_1/diff_4/ex_1_4_8.gif","arrowleft","response","ArrowLeft","8","1","4","test","true",""
"","","","","","html-keyboard-response","152","245069","0.0-7.38-2.38","64944e5edd31dfc2becbe54e","6573617f270241e5da3d355d","6576bfd2aec8c6cba6ef5572","null","<p> <font color=""green"" size=""5vw""> Correct category! </font> <br> <br> <font color=""green"" size=""8vw""> + $0.06 </font> </p>","null","feedback","","","","","","","1.29"
"","","","","","html-keyboard-response","153","246623","0.0-7.39-0.39","64944e5edd31dfc2becbe54e","6573617f270241e5da3d355d","6576bfd2aec8c6cba6ef5572","1553","
            
        <div style=""text-align: center; position: fixed; top: 5vh; left: 40vw;"">
            <div style=""margin:0 auto; width: 20vw; top: 8vh; font-size: 2vw""> 
            <font color=""green""> Bonus : $1.29 </font>
            </div>
        </div>
    
            <div> Please press any key to continue to the next movie.</div>
        ","arrowleft","ITI","","","","","","",""
"","","","","","html-keyboard-response","154","247744","0.0-7.39-1.39","64944e5edd31dfc2becbe54e","6573617f270241e5da3d355d","6576bfd2aec8c6cba6ef5572","1119","./stimuli//pack_morph_shapes_1/cat_2/diff_4/ex_2_4_3.gif","arrowright","response","ArrowRight","3","2","4","test","true",""
"","","","","","html-keyboard-response","155","249258","0.0-7.39-2.39","64944e5edd31dfc2becbe54e","6573617f270241e5da3d355d","6576bfd2aec8c6cba6ef5572","null","<p> <font color=""green"" size=""5vw""> Correct category! </font> <br> <br> <font color=""green"" size=""8vw""> + $0.06 </font> </p>","null","feedback","","","","","","","1.35"
"","","","","","html-keyboard-response","156","250262","0.0-7.40-0.40","64944e5edd31dfc2becbe54e","6573617f270241e5da3d355d","6576bfd2aec8c6cba6ef5572","999","
            
        <div style=""text-align: center; position: fixed; top: 5vh; left: 40vw;"">
            <div style=""margin:0 auto; width: 20vw; top: 8vh; font-size: 2vw""> 
            <font color=""green""> Bonus : $1.35 </font>
            </div>
        </div>
    
            <div> Please press any key to continue to the next movie.</div>
        ","arrowleft","ITI","","","","","","",""
"","","","","","html-keyboard-response","157","251913","0.0-7.40-1.40","64944e5edd31dfc2becbe54e","6573617f270241e5da3d355d","6576bfd2aec8c6cba6ef5572","1650","./stimuli//pack_morph_shapes_1/cat_2/diff_5/ex_2_5_3.gif","arrowright","response","ArrowRight","3","2","5","test","true",""
"","","","","","html-keyboard-response","158","253425","0.0-7.40-2.40","64944e5edd31dfc2becbe54e","6573617f270241e5da3d355d","6576bfd2aec8c6cba6ef5572","null","<p> <font color=""green"" size=""5vw""> Correct category! </font> <br> <br> <font color=""green"" size=""8vw""> + $0.04 </font> </p>","null","feedback","","","","","","","1.39"
"","","","","","html-keyboard-response","159","254120","0.0-7.41-0.41","64944e5edd31dfc2becbe54e","6573617f270241e5da3d355d","6576bfd2aec8c6cba6ef5572","694","
            
        <div style=""text-align: center; position: fixed; top: 5vh; left: 40vw;"">
            <div style=""margin:0 auto; width: 20vw; top: 8vh; font-size: 2vw""> 
            <font color=""green""> Bonus : $1.39 </font>
            </div>
        </div>
    
            <div> Please press any key to continue to the next movie.</div>
        ","arrowleft","ITI","","","","","","",""
"","","","","","html-keyboard-response","160","255066","0.0-7.41-1.41","64944e5edd31dfc2becbe54e","6573617f270241e5da3d355d","6576bfd2aec8c6cba6ef5572","945","./stimuli//pack_morph_shapes_1/cat_1/diff_5/ex_1_5_1.gif","arrowleft","response","ArrowLeft","1","1","5","test","true",""
"","","","","","html-keyboard-response","161","256583","0.0-7.41-2.41","64944e5edd31dfc2becbe54e","6573617f270241e5da3d355d","6576bfd2aec8c6cba6ef5572","null","<p> <font color=""green"" size=""5vw""> Correct category! </font> <br> <br> <font color=""green"" size=""8vw""> + $0.06 </font> </p>","null","feedback","","","","","","","1.45"
"","","","","","html-keyboard-response","162","257552","0.0-7.42-0.42","64944e5edd31dfc2becbe54e","6573617f270241e5da3d355d","6576bfd2aec8c6cba6ef5572","968","
            
        <div style=""text-align: center; position: fixed; top: 5vh; left: 40vw;"">
            <div style=""margin:0 auto; width: 20vw; top: 8vh; font-size: 2vw""> 
            <font color=""green""> Bonus : $1.45 </font>
            </div>
        </div>
    
            <div> Please press any key to continue to the next movie.</div>
        ","arrowleft","ITI","","","","","","",""
"","","","","","html-keyboard-response","163","258479","0.0-7.42-1.42","64944e5edd31dfc2becbe54e","6573617f270241e5da3d355d","6576bfd2aec8c6cba6ef5572","925","./stimuli//pack_morph_shapes_1/cat_1/diff_5/ex_1_5_11.gif","arrowright","response","ArrowLeft","11","1","5","test","false",""
"","","","","","html-keyboard-response","164","259986","0.0-7.42-2.42","64944e5edd31dfc2becbe54e","6573617f270241e5da3d355d","6576bfd2aec8c6cba6ef5572","null","<p> <font color=""red"" size=""5vw""> Wrong category! </font> <br> <br> <font color=""red"" size=""8vw""> - $0.05 </font> </p>","null","feedback","","","","","","","1.4"
"","","","","","html-keyboard-response","165","260595","0.0-7.43-0.43","64944e5edd31dfc2becbe54e","6573617f270241e5da3d355d","6576bfd2aec8c6cba6ef5572","607","
            
        <div style=""text-align: center; position: fixed; top: 5vh; left: 40vw;"">
            <div style=""margin:0 auto; width: 20vw; top: 8vh; font-size: 2vw""> 
            <font color=""green""> Bonus : $1.4 </font>
            </div>
        </div>
    
            <div> Please press any key to continue to the next movie.</div>
        ","arrowleft","ITI","","","","","","",""
"","","","","","html-keyboard-response","166","262390","0.0-7.43-1.43","64944e5edd31dfc2becbe54e","6573617f270241e5da3d355d","6576bfd2aec8c6cba6ef5572","1793","./stimuli//pack_morph_shapes_1/cat_1/diff_5/ex_1_5_8.gif","arrowleft","response","ArrowLeft","8","1","5","test","true",""
"","","","","","html-keyboard-response","167","263901","0.0-7.43-2.43","64944e5edd31dfc2becbe54e","6573617f270241e5da3d355d","6576bfd2aec8c6cba6ef5572","null","<p> <font color=""green"" size=""5vw""> Correct category! </font> <br> <br> <font color=""green"" size=""8vw""> + $0.04 </font> </p>","null","feedback","","","","","","","1.44"
"","","","","","html-keyboard-response","168","264575","0.0-7.44-0.44","64944e5edd31dfc2becbe54e","6573617f270241e5da3d355d","6576bfd2aec8c6cba6ef5572","672","
            
        <div style=""text-align: center; position: fixed; top: 5vh; left: 40vw;"">
            <div style=""margin:0 auto; width: 20vw; top: 8vh; font-size: 2vw""> 
            <font color=""green""> Bonus : $1.44 </font>
            </div>
        </div>
    
            <div> Please press any key to continue to the next movie.</div>
        ","arrowleft","ITI","","","","","","",""
"","","","","","html-keyboard-response","169","265428","0.0-7.44-1.44","64944e5edd31dfc2becbe54e","6573617f270241e5da3d355d","6576bfd2aec8c6cba6ef5572","852","./stimuli//pack_morph_shapes_1/cat_1/diff_5/ex_1_5_9.gif","arrowleft","response","ArrowLeft","9","1","5","test","true",""
"","","","","","html-keyboard-response","170","266933","0.0-7.44-2.44","64944e5edd31dfc2becbe54e","6573617f270241e5da3d355d","6576bfd2aec8c6cba6ef5572","null","<p> <font color=""green"" size=""5vw""> Correct category! </font> <br> <br> <font color=""green"" size=""8vw""> + $0.07 </font> </p>","null","feedback","","","","","","","1.51"
"","","","","","html-keyboard-response","171","267571","0.0-7.45-0.45","64944e5edd31dfc2becbe54e","6573617f270241e5da3d355d","6576bfd2aec8c6cba6ef5572","636","
            
        <div style=""text-align: center; position: fixed; top: 5vh; left: 40vw;"">
            <div style=""margin:0 auto; width: 20vw; top: 8vh; font-size: 2vw""> 
            <font color=""green""> Bonus : $1.51 </font>
            </div>
        </div>
    
            <div> Please press any key to continue to the next movie.</div>
        ","arrowleft","ITI","","","","","","",""
"","","","","","html-keyboard-response","172","268419","0.0-7.45-1.45","64944e5edd31dfc2becbe54e","6573617f270241e5da3d355d","6576bfd2aec8c6cba6ef5572","847","./stimuli//pack_morph_shapes_1/cat_1/diff_5/ex_1_5_7.gif","arrowleft","response","ArrowLeft","7","1","5","test","true",""
"","","","","","html-keyboard-response","173","269929","0.0-7.45-2.45","64944e5edd31dfc2becbe54e","6573617f270241e5da3d355d","6576bfd2aec8c6cba6ef5572","null","<p> <font color=""green"" size=""5vw""> Correct category! </font> <br> <br> <font color=""green"" size=""8vw""> + $0.07 </font> </p>","null","feedback","","","","","","","1.58"
"","","","","","html-keyboard-response","174","271051","0.0-7.46-0.46","64944e5edd31dfc2becbe54e","6573617f270241e5da3d355d","6576bfd2aec8c6cba6ef5572","1120","
            
        <div style=""text-align: center; position: fixed; top: 5vh; left: 40vw;"">
            <div style=""margin:0 auto; width: 20vw; top: 8vh; font-size: 2vw""> 
            <font color=""green""> Bonus : $1.58 </font>
            </div>
        </div>
    
            <div> Please press any key to continue to the next movie.</div>
        ","arrowleft","ITI","","","","","","",""
"","","","","","html-keyboard-response","175","271860","0.0-7.46-1.46","64944e5edd31dfc2becbe54e","6573617f270241e5da3d355d","6576bfd2aec8c6cba6ef5572","808","./stimuli//pack_morph_shapes_1/cat_1/diff_5/ex_1_5_2.gif","arrowleft","response","ArrowLeft","2","1","5","test","true",""
"","","","","","html-keyboard-response","176","273372","0.0-7.46-2.46","64944e5edd31dfc2becbe54e","6573617f270241e5da3d355d","6576bfd2aec8c6cba6ef5572","null","<p> <font color=""green"" size=""5vw""> Correct category! </font> <br> <br> <font color=""green"" size=""8vw""> + $0.07 </font> </p>","null","feedback","","","","","","","1.65"
"","","","","","html-keyboard-response","177","274019","0.0-7.47-0.47","64944e5edd31dfc2becbe54e","6573617f270241e5da3d355d","6576bfd2aec8c6cba6ef5572","645","
            
        <div style=""text-align: center; position: fixed; top: 5vh; left: 40vw;"">
            <div style=""margin:0 auto; width: 20vw; top: 8vh; font-size: 2vw""> 
            <font color=""green""> Bonus : $1.65 </font>
            </div>
        </div>
    
            <div> Please press any key to continue to the next movie.</div>
        ","arrowleft","ITI","","","","","","",""
"","","","","","html-keyboard-response","178","275526","0.0-7.47-1.47","64944e5edd31dfc2becbe54e","6573617f270241e5da3d355d","6576bfd2aec8c6cba6ef5572","1505","./stimuli//pack_morph_shapes_1/cat_2/diff_5/ex_2_5_14.gif","arrowright","response","ArrowRight","14","2","5","test","true",""
"","","","","","html-keyboard-response","179","277029","0.0-7.47-2.47","64944e5edd31dfc2becbe54e","6573617f270241e5da3d355d","6576bfd2aec8c6cba6ef5572","null","<p> <font color=""green"" size=""5vw""> Correct category! </font> <br> <br> <font color=""green"" size=""8vw""> + $0.05 </font> </p>","null","feedback","","","","","","","1.7"
"","","","","","html-keyboard-response","180","277652","0.0-7.48-0.48","64944e5edd31dfc2becbe54e","6573617f270241e5da3d355d","6576bfd2aec8c6cba6ef5572","622","
            
        <div style=""text-align: center; position: fixed; top: 5vh; left: 40vw;"">
            <div style=""margin:0 auto; width: 20vw; top: 8vh; font-size: 2vw""> 
            <font color=""green""> Bonus : $1.7 </font>
            </div>
        </div>
    
            <div> Please press any key to continue to the next movie.</div>
        ","arrowleft","ITI","","","","","","",""
"","","","","","html-keyboard-response","181","279646","0.0-7.48-1.48","64944e5edd31dfc2becbe54e","6573617f270241e5da3d355d","6576bfd2aec8c6cba6ef5572","1992","./stimuli//pack_morph_shapes_1/cat_1/diff_5/ex_1_5_6.gif","arrowleft","response","ArrowLeft","6","1","5","test","true",""
"","","","","","html-keyboard-response","182","281153","0.0-7.48-2.48","64944e5edd31dfc2becbe54e","6573617f270241e5da3d355d","6576bfd2aec8c6cba6ef5572","null","<p> <font color=""green"" size=""5vw""> Correct category! </font> <br> <br> <font color=""green"" size=""8vw""> + $0.04 </font> </p>","null","feedback","","","","","","","1.74"
"","","","","","html-keyboard-response","183","281840","0.0-7.49-0.49","64944e5edd31dfc2becbe54e","6573617f270241e5da3d355d","6576bfd2aec8c6cba6ef5572","686","
            
        <div style=""text-align: center; position: fixed; top: 5vh; left: 40vw;"">
            <div style=""margin:0 auto; width: 20vw; top: 8vh; font-size: 2vw""> 
            <font color=""green""> Bonus : $1.74 </font>
            </div>
        </div>
    
            <div> Please press any key to continue to the next movie.</div>
        ","arrowleft","ITI","","","","","","",""
"","","","","","html-keyboard-response","184","282565","0.0-7.49-1.49","64944e5edd31dfc2becbe54e","6573617f270241e5da3d355d","6576bfd2aec8c6cba6ef5572","722","./stimuli//pack_morph_shapes_1/cat_2/diff_5/ex_2_5_17.gif","arrowright","response","ArrowRight","17","2","5","test","true",""
"","","","","","html-keyboard-response","185","284069","0.0-7.49-2.49","64944e5edd31dfc2becbe54e","6573617f270241e5da3d355d","6576bfd2aec8c6cba6ef5572","null","<p> <font color=""green"" size=""5vw""> Correct category! </font> <br> <br> <font color=""green"" size=""8vw""> + $0.07 </font> </p>","null","feedback","","","","","","","1.81"
"","","","","","html-keyboard-response","186","284692","0.0-7.50-0.50","64944e5edd31dfc2becbe54e","6573617f270241e5da3d355d","6576bfd2aec8c6cba6ef5572","621","
            
        <div style=""text-align: center; position: fixed; top: 5vh; left: 40vw;"">
            <div style=""margin:0 auto; width: 20vw; top: 8vh; font-size: 2vw""> 
            <font color=""green""> Bonus : $1.81 </font>
            </div>
        </div>
    
            <div> Please press any key to continue to the next movie.</div>
        ","arrowleft","ITI","","","","","","",""
"","","","","","html-keyboard-response","187","286392","0.0-7.50-1.50","64944e5edd31dfc2becbe54e","6573617f270241e5da3d355d","6576bfd2aec8c6cba6ef5572","1699","./stimuli//pack_morph_shapes_1/cat_2/diff_5/ex_2_5_6.gif","arrowright","response","ArrowRight","6","2","5","test","true",""
"","","","","","html-keyboard-response","188","287895","0.0-7.50-2.50","64944e5edd31dfc2becbe54e","6573617f270241e5da3d355d","6576bfd2aec8c6cba6ef5572","null","<p> <font color=""green"" size=""5vw""> Correct category! </font> <br> <br> <font color=""green"" size=""8vw""> + $0.04 </font> </p>","null","feedback","","","","","","","1.85"
"","","","","","html-keyboard-response","189","288408","0.0-7.51-0.51","64944e5edd31dfc2becbe54e","6573617f270241e5da3d355d","6576bfd2aec8c6cba6ef5572","512","
            
        <div style=""text-align: center; position: fixed; top: 5vh; left: 40vw;"">
            <div style=""margin:0 auto; width: 20vw; top: 8vh; font-size: 2vw""> 
            <font color=""green""> Bonus : $1.85 </font>
            </div>
        </div>
    
            <div> Please press any key to continue to the next movie.</div>
        ","arrowleft","ITI","","","","","","",""
"","","","","","html-keyboard-response","190","289146","0.0-7.51-1.51","64944e5edd31dfc2becbe54e","6573617f270241e5da3d355d","6576bfd2aec8c6cba6ef5572","735","./stimuli//pack_morph_shapes_1/cat_2/diff_5/ex_2_5_10.gif","arrowright","response","ArrowRight","10","2","5","test","true",""
"","","","","","html-keyboard-response","191","290655","0.0-7.51-2.51","64944e5edd31dfc2becbe54e","6573617f270241e5da3d355d","6576bfd2aec8c6cba6ef5572","null","<p> <font color=""green"" size=""5vw""> Correct category! </font> <br> <br> <font color=""green"" size=""8vw""> + $0.07 </font> </p>","null","feedback","","","","","","","1.92"
"","","","","","html-keyboard-response","192","291307","0.0-7.52-0.52","64944e5edd31dfc2becbe54e","6573617f270241e5da3d355d","6576bfd2aec8c6cba6ef5572","650","
            
        <div style=""text-align: center; position: fixed; top: 5vh; left: 40vw;"">
            <div style=""margin:0 auto; width: 20vw; top: 8vh; font-size: 2vw""> 
            <font color=""green""> Bonus : $1.92 </font>
            </div>
        </div>
    
            <div> Please press any key to continue to the next movie.</div>
        ","arrowleft","ITI","","","","","","",""
"","","","","","html-keyboard-response","193","293165","0.0-7.52-1.52","64944e5edd31dfc2becbe54e","6573617f270241e5da3d355d","6576bfd2aec8c6cba6ef5572","1857","./stimuli//pack_morph_shapes_1/cat_2/diff_5/ex_2_5_8.gif","arrowright","response","ArrowRight","8","2","5","test","true",""
"","","","","","html-keyboard-response","194","294673","0.0-7.52-2.52","64944e5edd31dfc2becbe54e","6573617f270241e5da3d355d","6576bfd2aec8c6cba6ef5572","null","<p> <font color=""green"" size=""5vw""> Correct category! </font> <br> <br> <font color=""green"" size=""8vw""> + $0.04 </font> </p>","null","feedback","","","","","","","1.96"
"","","","","","html-keyboard-response","195","295886","0.0-7.53-0.53","64944e5edd31dfc2becbe54e","6573617f270241e5da3d355d","6576bfd2aec8c6cba6ef5572","1214","
            
        <div style=""text-align: center; position: fixed; top: 5vh; left: 40vw;"">
            <div style=""margin:0 auto; width: 20vw; top: 8vh; font-size: 2vw""> 
            <font color=""green""> Bonus : $1.96 </font>
            </div>
        </div>
    
            <div> Please press any key to continue to the next movie.</div>
        ","arrowleft","ITI","","","","","","",""
"","","","","","html-keyboard-response","196","296630","0.0-7.53-1.53","64944e5edd31dfc2becbe54e","6573617f270241e5da3d355d","6576bfd2aec8c6cba6ef5572","743","./stimuli//pack_morph_shapes_1/cat_1/diff_5/ex_1_5_17.gif","arrowleft","response","ArrowLeft","17","1","5","test","true",""
"","","","","","html-keyboard-response","197","298133","0.0-7.53-2.53","64944e5edd31dfc2becbe54e","6573617f270241e5da3d355d","6576bfd2aec8c6cba6ef5572","null","<p> <font color=""green"" size=""5vw""> Correct category! </font> <br> <br> <font color=""green"" size=""8vw""> + $0.07 </font> </p>","null","feedback","","","","","","","2.03"
"","","","","","html-keyboard-response","198","299085","0.0-7.54-0.54","64944e5edd31dfc2becbe54e","6573617f270241e5da3d355d","6576bfd2aec8c6cba6ef5572","950","
            
        <div style=""text-align: center; position: fixed; top: 5vh; left: 40vw;"">
            <div style=""margin:0 auto; width: 20vw; top: 8vh; font-size: 2vw""> 
            <font color=""green""> Bonus : $2.03 </font>
            </div>
        </div>
    
            <div> Please press any key to continue to the next movie.</div>
        ","arrowleft","ITI","","","","","","",""
"","","","","","html-keyboard-response","199","299879","0.0-7.54-1.54","64944e5edd31dfc2becbe54e","6573617f270241e5da3d355d","6576bfd2aec8c6cba6ef5572","793","./stimuli//pack_morph_shapes_1/cat_2/diff_5/ex_2_5_14.gif","arrowright","response","ArrowRight","14","2","5","test","true",""
"","","","","","html-keyboard-response","200","301384","0.0-7.54-2.54","64944e5edd31dfc2becbe54e","6573617f270241e5da3d355d","6576bfd2aec8c6cba6ef5572","null","<p> <font color=""green"" size=""5vw""> Correct category! </font> <br> <br> <font color=""green"" size=""8vw""> + $0.07 </font> </p>","null","feedback","","","","","","","2.1"
"","","","","","html-keyboard-response","201","302069","0.0-7.55-0.55","64944e5edd31dfc2becbe54e","6573617f270241e5da3d355d","6576bfd2aec8c6cba6ef5572","683","
            
        <div style=""text-align: center; position: fixed; top: 5vh; left: 40vw;"">
            <div style=""margin:0 auto; width: 20vw; top: 8vh; font-size: 2vw""> 
            <font color=""green""> Bonus : $2.1 </font>
            </div>
        </div>
    
            <div> Please press any key to continue to the next movie.</div>
        ","arrowleft","ITI","","","","","","",""
"","","","","","html-keyboard-response","202","302807","0.0-7.55-1.55","64944e5edd31dfc2becbe54e","6573617f270241e5da3d355d","6576bfd2aec8c6cba6ef5572","735","./stimuli//pack_morph_shapes_1/cat_2/diff_5/ex_2_5_3.gif","arrowright","response","ArrowRight","3","2","5","test","true",""
"","","","","","html-keyboard-response","203","304315","0.0-7.55-2.55","64944e5edd31dfc2becbe54e","6573617f270241e5da3d355d","6576bfd2aec8c6cba6ef5572","null","<p> <font color=""green"" size=""5vw""> Correct category! </font> <br> <br> <font color=""green"" size=""8vw""> + $0.07 </font> </p>","null","feedback","","","","","","","2.17"
"","","","","","html-keyboard-response","204","305119","0.0-7.56-0.56","64944e5edd31dfc2becbe54e","6573617f270241e5da3d355d","6576bfd2aec8c6cba6ef5572","802","
            
        <div style=""text-align: center; position: fixed; top: 5vh; left: 40vw;"">
            <div style=""margin:0 auto; width: 20vw; top: 8vh; font-size: 2vw""> 
            <font color=""green""> Bonus : $2.17 </font>
            </div>
        </div>
    
            <div> Please press any key to continue to the next movie.</div>
        ","arrowleft","ITI","","","","","","",""
"","","","","","html-keyboard-response","205","306824","0.0-7.56-1.56","64944e5edd31dfc2becbe54e","6573617f270241e5da3d355d","6576bfd2aec8c6cba6ef5572","1703","./stimuli//pack_morph_shapes_1/cat_2/diff_5/ex_2_5_16.gif","arrowleft","response","ArrowRight","16","2","5","test","false",""
"","","","","","html-keyboard-response","206","308340","0.0-7.56-2.56","64944e5edd31dfc2becbe54e","6573617f270241e5da3d355d","6576bfd2aec8c6cba6ef5572","null","<p> <font color=""red"" size=""5vw""> Wrong category! </font> <br> <br> <font color=""red"" size=""8vw""> - $0.05 </font> </p>","null","feedback","","","","","","","2.12"
"","","","","","html-keyboard-response","207","308889","0.0-7.57-0.57","64944e5edd31dfc2becbe54e","6573617f270241e5da3d355d","6576bfd2aec8c6cba6ef5572","547","
            
        <div style=""text-align: center; position: fixed; top: 5vh; left: 40vw;"">
            <div style=""margin:0 auto; width: 20vw; top: 8vh; font-size: 2vw""> 
            <font color=""green""> Bonus : $2.12 </font>
            </div>
        </div>
    
            <div> Please press any key to continue to the next movie.</div>
        ","arrowleft","ITI","","","","","","",""
"","","","","","html-keyboard-response","208","309891","0.0-7.57-1.57","64944e5edd31dfc2becbe54e","6573617f270241e5da3d355d","6576bfd2aec8c6cba6ef5572","1001","./stimuli//pack_morph_shapes_1/cat_1/diff_5/ex_1_5_15.gif","arrowright","response","ArrowLeft","15","1","5","test","false",""
"","","","","","html-keyboard-response","209","311405","0.0-7.57-2.57","64944e5edd31dfc2becbe54e","6573617f270241e5da3d355d","6576bfd2aec8c6cba6ef5572","null","<p> <font color=""red"" size=""5vw""> Wrong category! </font> <br> <br> <font color=""red"" size=""8vw""> - $0.05 </font> </p>","null","feedback","","","","","","","2.07"
"","","","","","html-keyboard-response","210","311867","0.0-7.58-0.58","64944e5edd31dfc2becbe54e","6573617f270241e5da3d355d","6576bfd2aec8c6cba6ef5572","459","
            
        <div style=""text-align: center; position: fixed; top: 5vh; left: 40vw;"">
            <div style=""margin:0 auto; width: 20vw; top: 8vh; font-size: 2vw""> 
            <font color=""green""> Bonus : $2.07 </font>
            </div>
        </div>
    
            <div> Please press any key to continue to the next movie.</div>
        ","arrowleft","ITI","","","","","","",""
"","","","","","html-keyboard-response","211","313237","0.0-7.58-1.58","64944e5edd31dfc2becbe54e","6573617f270241e5da3d355d","6576bfd2aec8c6cba6ef5572","1369","./stimuli//pack_morph_shapes_1/cat_1/diff_4/ex_1_4_1.gif","arrowleft","response","ArrowLeft","1","1","4","test","true",""
"","","","","","html-keyboard-response","212","314753","0.0-7.58-2.58","64944e5edd31dfc2becbe54e","6573617f270241e5da3d355d","6576bfd2aec8c6cba6ef5572","null","<p> <font color=""green"" size=""5vw""> Correct category! </font> <br> <br> <font color=""green"" size=""8vw""> + $0.05 </font> </p>","null","feedback","","","","","","","2.12"
"","","","","","html-keyboard-response","213","315402","0.0-7.59-0.59","64944e5edd31dfc2becbe54e","6573617f270241e5da3d355d","6576bfd2aec8c6cba6ef5572","647","
            
        <div style=""text-align: center; position: fixed; top: 5vh; left: 40vw;"">
            <div style=""margin:0 auto; width: 20vw; top: 8vh; font-size: 2vw""> 
            <font color=""green""> Bonus : $2.12 </font>
            </div>
        </div>
    
            <div> Please press any key to continue to the next movie.</div>
        ","arrowleft","ITI","","","","","","",""
"","","","","","html-keyboard-response","214","316840","0.0-7.59-1.59","64944e5edd31dfc2becbe54e","6573617f270241e5da3d355d","6576bfd2aec8c6cba6ef5572","1437","./stimuli//pack_morph_shapes_1/cat_2/diff_4/ex_2_4_4.gif","arrowright","response","ArrowRight","4","2","4","test","true",""
"","","","","","html-keyboard-response","215","318349","0.0-7.59-2.59","64944e5edd31dfc2becbe54e","6573617f270241e5da3d355d","6576bfd2aec8c6cba6ef5572","null","<p> <font color=""green"" size=""5vw""> Correct category! </font> <br> <br> <font color=""green"" size=""8vw""> + $0.05 </font> </p>","null","feedback","","","","","","","2.17"
"","","","","","html-keyboard-response","216","319095","0.0-7.60-0.60","64944e5edd31dfc2becbe54e","6573617f270241e5da3d355d","6576bfd2aec8c6cba6ef5572","744","
            
        <div style=""text-align: center; position: fixed; top: 5vh; left: 40vw;"">
            <div style=""margin:0 auto; width: 20vw; top: 8vh; font-size: 2vw""> 
            <font color=""green""> Bonus : $2.17 </font>
            </div>
        </div>
    
            <div> Please press any key to continue to the next movie.</div>
        ","arrowleft","ITI","","","","","","",""
"","","","","","html-keyboard-response","217","319883","0.0-7.60-1.60","64944e5edd31dfc2becbe54e","6573617f270241e5da3d355d","6576bfd2aec8c6cba6ef5572","786","./stimuli//pack_morph_shapes_1/cat_1/diff_4/ex_1_4_1.gif","arrowleft","response","ArrowLeft","1","1","4","test","true",""
"","","","","","html-keyboard-response","218","321396","0.0-7.60-2.60","64944e5edd31dfc2becbe54e","6573617f270241e5da3d355d","6576bfd2aec8c6cba6ef5572","null","<p> <font color=""green"" size=""5vw""> Correct category! </font> <br> <br> <font color=""green"" size=""8vw""> + $0.07 </font> </p>","null","feedback","","","","","","","2.24"
"","","","","","html-keyboard-response","219","322017","0.0-7.61-0.61","64944e5edd31dfc2becbe54e","6573617f270241e5da3d355d","6576bfd2aec8c6cba6ef5572","618","
            
        <div style=""text-align: center; position: fixed; top: 5vh; left: 40vw;"">
            <div style=""margin:0 auto; width: 20vw; top: 8vh; font-size: 2vw""> 
            <font color=""green""> Bonus : $2.24 </font>
            </div>
        </div>
    
            <div> Please press any key to continue to the next movie.</div>
        ","arrowleft","ITI","","","","","","",""
"","","","","","html-keyboard-response","220","323704","0.0-7.61-1.61","64944e5edd31dfc2becbe54e","6573617f270241e5da3d355d","6576bfd2aec8c6cba6ef5572","1686","./stimuli//pack_morph_shapes_1/cat_1/diff_4/ex_1_4_7.gif","arrowleft","response","ArrowLeft","7","1","4","test","true",""
"","","","","","html-keyboard-response","221","325221","0.0-7.61-2.61","64944e5edd31dfc2becbe54e","6573617f270241e5da3d355d","6576bfd2aec8c6cba6ef5572","null","<p> <font color=""green"" size=""5vw""> Correct category! </font> <br> <br> <font color=""green"" size=""8vw""> + $0.04 </font> </p>","null","feedback","","","","","","","2.28"
"","","","","","html-keyboard-response","222","325863","0.0-7.62-0.62","64944e5edd31dfc2becbe54e","6573617f270241e5da3d355d","6576bfd2aec8c6cba6ef5572","641","
            
        <div style=""text-align: center; position: fixed; top: 5vh; left: 40vw;"">
            <div style=""margin:0 auto; width: 20vw; top: 8vh; font-size: 2vw""> 
            <font color=""green""> Bonus : $2.28 </font>
            </div>
        </div>
    
            <div> Please press any key to continue to the next movie.</div>
        ","arrowleft","ITI","","","","","","",""
"","","","","","html-keyboard-response","223","326943","0.0-7.62-1.62","64944e5edd31dfc2becbe54e","6573617f270241e5da3d355d","6576bfd2aec8c6cba6ef5572","1079","./stimuli//pack_morph_shapes_1/cat_2/diff_4/ex_2_4_13.gif","arrowright","response","ArrowRight","13","2","4","test","true",""
"","","","","","html-keyboard-response","224","328445","0.0-7.62-2.62","64944e5edd31dfc2becbe54e","6573617f270241e5da3d355d","6576bfd2aec8c6cba6ef5572","null","<p> <font color=""green"" size=""5vw""> Correct category! </font> <br> <br> <font color=""green"" size=""8vw""> + $0.06 </font> </p>","null","feedback","","","","","","","2.34"
"","","","","","html-keyboard-response","225","329099","0.0-7.63-0.63","64944e5edd31dfc2becbe54e","6573617f270241e5da3d355d","6576bfd2aec8c6cba6ef5572","652","
            
        <div style=""text-align: center; position: fixed; top: 5vh; left: 40vw;"">
            <div style=""margin:0 auto; width: 20vw; top: 8vh; font-size: 2vw""> 
            <font color=""green""> Bonus : $2.34 </font>
            </div>
        </div>
    
            <div> Please press any key to continue to the next movie.</div>
        ","arrowleft","ITI","","","","","","",""
"","","","","","html-keyboard-response","226","330244","0.0-7.63-1.63","64944e5edd31dfc2becbe54e","6573617f270241e5da3d355d","6576bfd2aec8c6cba6ef5572","1143","./stimuli//pack_morph_shapes_1/cat_2/diff_5/ex_2_5_14.gif","arrowright","response","ArrowRight","14","2","5","test","true",""
"","","","","","html-keyboard-response","227","331752","0.0-7.63-2.63","64944e5edd31dfc2becbe54e","6573617f270241e5da3d355d","6576bfd2aec8c6cba6ef5572","null","<p> <font color=""green"" size=""5vw""> Correct category! </font> <br> <br> <font color=""green"" size=""8vw""> + $0.06 </font> </p>","null","feedback","","","","","","","2.4"
"","","","","","html-keyboard-response","228","332457","0.0-7.64-0.64","64944e5edd31dfc2becbe54e","6573617f270241e5da3d355d","6576bfd2aec8c6cba6ef5572","703","
            
        <div style=""text-align: center; position: fixed; top: 5vh; left: 40vw;"">
            <div style=""margin:0 auto; width: 20vw; top: 8vh; font-size: 2vw""> 
            <font color=""green""> Bonus : $2.4 </font>
            </div>
        </div>
    
            <div> Please press any key to continue to the next movie.</div>
        ","arrowleft","ITI","","","","","","",""
"","","","","","html-keyboard-response","229","333390","0.0-7.64-1.64","64944e5edd31dfc2becbe54e","6573617f270241e5da3d355d","6576bfd2aec8c6cba6ef5572","932","./stimuli//pack_morph_shapes_1/cat_1/diff_5/ex_1_5_5.gif","arrowright","response","ArrowLeft","5","1","5","test","false",""
"","","","","","html-keyboard-response","230","334898","0.0-7.64-2.64","64944e5edd31dfc2becbe54e","6573617f270241e5da3d355d","6576bfd2aec8c6cba6ef5572","null","<p> <font color=""red"" size=""5vw""> Wrong category! </font> <br> <br> <font color=""red"" size=""8vw""> - $0.05 </font> </p>","null","feedback","","","","","","","2.35"
"","","","","","html-keyboard-response","231","335565","0.0-7.65-0.65","64944e5edd31dfc2becbe54e","6573617f270241e5da3d355d","6576bfd2aec8c6cba6ef5572","666","
            
        <div style=""text-align: center; position: fixed; top: 5vh; left: 40vw;"">
            <div style=""margin:0 auto; width: 20vw; top: 8vh; font-size: 2vw""> 
            <font color=""green""> Bonus : $2.35 </font>
            </div>
        </div>
    
            <div> Please press any key to continue to the next movie.</div>
        ","arrowleft","ITI","","","","","","",""
"","","","","","html-keyboard-response","232","336585","0.0-7.65-1.65","64944e5edd31dfc2becbe54e","6573617f270241e5da3d355d","6576bfd2aec8c6cba6ef5572","1019","./stimuli//pack_morph_shapes_1/cat_2/diff_5/ex_2_5_8.gif","arrowright","response","ArrowRight","8","2","5","test","true",""
"","","","","","html-keyboard-response","233","338090","0.0-7.65-2.65","64944e5edd31dfc2becbe54e","6573617f270241e5da3d355d","6576bfd2aec8c6cba6ef5572","null","<p> <font color=""green"" size=""5vw""> Correct category! </font> <br> <br> <font color=""green"" size=""8vw""> + $0.06 </font> </p>","null","feedback","","","","","","","2.41"
"","","","","","html-keyboard-response","234","338657","0.0-7.66-0.66","64944e5edd31dfc2becbe54e","6573617f270241e5da3d355d","6576bfd2aec8c6cba6ef5572","565","
            
        <div style=""text-align: center; position: fixed; top: 5vh; left: 40vw;"">
            <div style=""margin:0 auto; width: 20vw; top: 8vh; font-size: 2vw""> 
            <font color=""green""> Bonus : $2.41 </font>
            </div>
        </div>
    
            <div> Please press any key to continue to the next movie.</div>
        ","arrowleft","ITI","","","","","","",""
"","","","","","html-keyboard-response","235","340053","0.0-7.66-1.66","64944e5edd31dfc2becbe54e","6573617f270241e5da3d355d","6576bfd2aec8c6cba6ef5572","1395","./stimuli//pack_morph_shapes_1/cat_1/diff_5/ex_1_5_12.gif","arrowright","response","ArrowLeft","12","1","5","test","false",""
"","","","","","html-keyboard-response","236","341567","0.0-7.66-2.66","64944e5edd31dfc2becbe54e","6573617f270241e5da3d355d","6576bfd2aec8c6cba6ef5572","null","<p> <font color=""red"" size=""5vw""> Wrong category! </font> <br> <br> <font color=""red"" size=""8vw""> - $0.05 </font> </p>","null","feedback","","","","","","","2.36"
"","","","","","html-keyboard-response","237","342068","0.0-7.67-0.67","64944e5edd31dfc2becbe54e","6573617f270241e5da3d355d","6576bfd2aec8c6cba6ef5572","499","
            
        <div style=""text-align: center; position: fixed; top: 5vh; left: 40vw;"">
            <div style=""margin:0 auto; width: 20vw; top: 8vh; font-size: 2vw""> 
            <font color=""green""> Bonus : $2.36 </font>
            </div>
        </div>
    
            <div> Please press any key to continue to the next movie.</div>
        ","arrowleft","ITI","","","","","","",""
"","","","","","html-keyboard-response","238","342742","0.0-7.67-1.67","64944e5edd31dfc2becbe54e","6573617f270241e5da3d355d","6576bfd2aec8c6cba6ef5572","673","./stimuli//pack_morph_shapes_1/cat_1/diff_5/ex_1_5_12.gif","arrowleft","response","ArrowLeft","12","1","5","test","true",""
"","","","","","html-keyboard-response","239","344250","0.0-7.67-2.67","64944e5edd31dfc2becbe54e","6573617f270241e5da3d355d","6576bfd2aec8c6cba6ef5572","null","<p> <font color=""green"" size=""5vw""> Correct category! </font> <br> <br> <font color=""green"" size=""8vw""> + $0.07 </font> </p>","null","feedback","","","","","","","2.43"
"","","","","","html-keyboard-response","240","344803","0.0-7.68-0.68","64944e5edd31dfc2becbe54e","6573617f270241e5da3d355d","6576bfd2aec8c6cba6ef5572","552","
            
        <div style=""text-align: center; position: fixed; top: 5vh; left: 40vw;"">
            <div style=""margin:0 auto; width: 20vw; top: 8vh; font-size: 2vw""> 
            <font color=""green""> Bonus : $2.43 </font>
            </div>
        </div>
    
            <div> Please press any key to continue to the next movie.</div>
        ","arrowleft","ITI","","","","","","",""
"","","","","","html-keyboard-response","241","345766","0.0-7.68-1.68","64944e5edd31dfc2becbe54e","6573617f270241e5da3d355d","6576bfd2aec8c6cba6ef5572","961","./stimuli//pack_morph_shapes_1/cat_1/diff_4/ex_1_4_13.gif","arrowright","response","ArrowLeft","13","1","4","test","false",""
"","","","","","html-keyboard-response","242","347280","0.0-7.68-2.68","64944e5edd31dfc2becbe54e","6573617f270241e5da3d355d","6576bfd2aec8c6cba6ef5572","null","<p> <font color=""red"" size=""5vw""> Wrong category! </font> <br> <br> <font color=""red"" size=""8vw""> - $0.05 </font> </p>","null","feedback","","","","","","","2.38"
"","","","","","html-keyboard-response","243","347951","0.0-7.69-0.69","64944e5edd31dfc2becbe54e","6573617f270241e5da3d355d","6576bfd2aec8c6cba6ef5572","670","
            
        <div style=""text-align: center; position: fixed; top: 5vh; left: 40vw;"">
            <div style=""margin:0 auto; width: 20vw; top: 8vh; font-size: 2vw""> 
            <font color=""green""> Bonus : $2.38 </font>
            </div>
        </div>
    
            <div> Please press any key to continue to the next movie.</div>
        ","arrowleft","ITI","","","","","","",""
"","","","","","html-keyboard-response","244","349026","0.0-7.69-1.69","64944e5edd31dfc2becbe54e","6573617f270241e5da3d355d","6576bfd2aec8c6cba6ef5572","1073","./stimuli//pack_morph_shapes_1/cat_2/diff_4/ex_2_4_7.gif","arrowright","response","ArrowRight","7","2","4","test","true",""
"","","","","","html-keyboard-response","245","350535","0.0-7.69-2.69","64944e5edd31dfc2becbe54e","6573617f270241e5da3d355d","6576bfd2aec8c6cba6ef5572","null","<p> <font color=""green"" size=""5vw""> Correct category! </font> <br> <br> <font color=""green"" size=""8vw""> + $0.06 </font> </p>","null","feedback","","","","","","","2.44"
"","","","","","html-keyboard-response","246","351603","0.0-7.70-0.70","64944e5edd31dfc2becbe54e","6573617f270241e5da3d355d","6576bfd2aec8c6cba6ef5572","1067","
            
        <div style=""text-align: center; position: fixed; top: 5vh; left: 40vw;"">
            <div style=""margin:0 auto; width: 20vw; top: 8vh; font-size: 2vw""> 
            <font color=""green""> Bonus : $2.44 </font>
            </div>
        </div>
    
            <div> Please press any key to continue to the next movie.</div>
        ","arrowleft","ITI","","","","","","",""
"","","","","","html-keyboard-response","247","353540","0.0-7.70-1.70","64944e5edd31dfc2becbe54e","6573617f270241e5da3d355d","6576bfd2aec8c6cba6ef5572","1935","./stimuli//pack_morph_shapes_1/cat_2/diff_4/ex_2_4_10.gif","arrowright","response","ArrowRight","10","2","4","test","true",""
"","","","","","html-keyboard-response","248","355046","0.0-7.70-2.70","64944e5edd31dfc2becbe54e","6573617f270241e5da3d355d","6576bfd2aec8c6cba6ef5572","null","<p> <font color=""green"" size=""5vw""> Correct category! </font> <br> <br> <font color=""green"" size=""8vw""> + $0.04 </font> </p>","null","feedback","","","","","","","2.48"
"","","","","","html-keyboard-response","249","355622","0.0-7.71-0.71","64944e5edd31dfc2becbe54e","6573617f270241e5da3d355d","6576bfd2aec8c6cba6ef5572","574","
            
        <div style=""text-align: center; position: fixed; top: 5vh; left: 40vw;"">
            <div style=""margin:0 auto; width: 20vw; top: 8vh; font-size: 2vw""> 
            <font color=""green""> Bonus : $2.48 </font>
            </div>
        </div>
    
            <div> Please press any key to continue to the next movie.</div>
        ","arrowleft","ITI","","","","","","",""
"","","","","","html-keyboard-response","250","356346","0.0-7.71-1.71","64944e5edd31dfc2becbe54e","6573617f270241e5da3d355d","6576bfd2aec8c6cba6ef5572","733","./stimuli//pack_morph_shapes_1/cat_1/diff_4/ex_1_4_1.gif","arrowleft","response","ArrowLeft","1","1","4","test","true",""
"","","","","","html-keyboard-response","251","357852","0.0-7.71-2.71","64944e5edd31dfc2becbe54e","6573617f270241e5da3d355d","6576bfd2aec8c6cba6ef5572","null","<p> <font color=""green"" size=""5vw""> Correct category! </font> <br> <br> <font color=""green"" size=""8vw""> + $0.07 </font> </p>","null","feedback","","","","","","","2.55"
"","","","","","html-keyboard-response","252","358615","0.0-7.72-0.72","64944e5edd31dfc2becbe54e","6573617f270241e5da3d355d","6576bfd2aec8c6cba6ef5572","762","
            
        <div style=""text-align: center; position: fixed; top: 5vh; left: 40vw;"">
            <div style=""margin:0 auto; width: 20vw; top: 8vh; font-size: 2vw""> 
            <font color=""green""> Bonus : $2.55 </font>
            </div>
        </div>
    
            <div> Please press any key to continue to the next movie.</div>
        ","arrowleft","ITI","","","","","","",""
"","","","","","html-keyboard-response","253","359569","0.0-7.72-1.72","64944e5edd31dfc2becbe54e","6573617f270241e5da3d355d","6576bfd2aec8c6cba6ef5572","952","./stimuli//pack_morph_shapes_1/cat_2/diff_4/ex_2_4_12.gif","arrowright","response","ArrowRight","12","2","4","test","true",""
