"success","timeout","failed_images","failed_audio","failed_video","trial_type","trial_index","time_elapsed","internal_node_id","subject_id","study_id","session_id","rt","stimulus","response","task","correct_response","exemplar_ID","category","difficulty","phase","correct","bonus"
"true","false","[]","[]","[]","preload","0","32","0.0-0.0","59cbc66c4374e1000125c8b5","6573617f270241e5da3d355d","6576c090d4df4e86c7ffd960","","","","","","","","","","",""
"","","","","","html-keyboard-response","1","1837","0.0-1.0","59cbc66c4374e1000125c8b5","6573617f270241e5da3d355d","6576c090d4df4e86c7ffd960","1792","Welcome to the Category Learning experiment! Press any key to continue."," ","welcome","","","","","","",""
"","","","","","html-keyboard-response","2","13501","0.0-2.0","59cbc66c4374e1000125c8b5","6573617f270241e5da3d355d","6576c090d4df4e86c7ffd960","11661","
            <p>You will be shown movies. Each movie contains a sequence of shapes changing form. 
            <br> Some shapes are category A, some are category B. <b> Within a single movie, all shapes belong to the same category. </b>
            <br> You will not know in advance which category the shapes of each movie belong to.</p>
            <p> While you watch a movie, you have to guess the category that its shapes belong to <b>(left arrow for category A, right arrow for category B)</b></p>
            <p> After you choose, the screen will show you whether you were correct or not.</p>
            <p>Press any key to continue.</p>
            ","arrowdown","introduction_1","","","","","","",""
"","","","","","html-keyboard-response","3","20472","0.0-3.0","59cbc66c4374e1000125c8b5","6573617f270241e5da3d355d","6576c090d4df4e86c7ffd960","6968","
              <p><b>You will receive a bonus payment for each correct answer! The faster you answer the higher the bonus will be!</b></p>
              <p> So you can increase your bonus by guessing as quickly and accurately as possible.</p>
              <p><b>You will lose $0.05 from your bonus payment for each incorrect answer! The bonus can not become less that $0.</b> </p>
              <p>Press any key to continue.</p>
              ","arrowdown","introduction_2","","","","","","",""
"","","","","","html-keyboard-response","4","23128","0.0-4.0","59cbc66c4374e1000125c8b5","6573617f270241e5da3d355d","6576c090d4df4e86c7ffd960","2652","
            <p> <b>The first 10 trials are a practice round that will not count towards your bonus payment.</b></p>
            <p> You will be notified when practice finishes and the test begins. </p>
            <p> Press any key to begin the practice round.</p>
            ","arrowdown","introduction_3","","","","","","",""
"","","","","","html-keyboard-response","5","24533","0.0-5.0-0.0","59cbc66c4374e1000125c8b5","6573617f270241e5da3d355d","6576c090d4df4e86c7ffd960","1340","
            
        <div style=""text-align: center; position: fixed; top: 5vh; left: 40vw;"">
            <div style=""margin:0 auto; width: 20vw; top: 8vh; font-size: 2vw""> 
            <font color=""green""> Bonus : $0 </font>
            </div>
        </div>
    
            <div> Please press any key to continue to the next movie.</div>
        ","arrowdown","ITI","","","","","","",""
"","","","","","html-keyboard-response","6","26841","0.0-5.0-1.0","59cbc66c4374e1000125c8b5","6573617f270241e5da3d355d","6576c090d4df4e86c7ffd960","2304","./stimuli//pack_morph_shapes_1/cat_1/diff_1/ex_1_1_17.gif","arrowright","response","ArrowLeft","17","1","1","train","false",""
"","","","","","html-keyboard-response","7","28524","0.0-5.0-2.0","59cbc66c4374e1000125c8b5","6573617f270241e5da3d355d","6576c090d4df4e86c7ffd960","null","<p> <font color=""red"" size=""5vw""> Wrong category! </font> </p>","null","feedback","","","","","","","0"
"","","","","","html-keyboard-response","8","29396","0.0-5.0-0.1","59cbc66c4374e1000125c8b5","6573617f270241e5da3d355d","6576c090d4df4e86c7ffd960","870","
            
        <div style=""text-align: center; position: fixed; top: 5vh; left: 40vw;"">
            <div style=""margin:0 auto; width: 20vw; top: 8vh; font-size: 2vw""> 
            <font color=""green""> Bonus : $0 </font>
            </div>
        </div>
    
            <div> Please press any key to continue to the next movie.</div>
        ","arrowdown","ITI","","","","","","",""
"","","","","","html-keyboard-response","9","33409","0.0-5.0-1.1","59cbc66c4374e1000125c8b5","6573617f270241e5da3d355d","6576c090d4df4e86c7ffd960","null","./stimuli//pack_morph_shapes_1/cat_1/diff_2/ex_1_2_17.gif","null","response","ArrowLeft","17","1","2","train","false",""
"","","","","","html-keyboard-response","10","34911","0.0-5.0-2.1","59cbc66c4374e1000125c8b5","6573617f270241e5da3d355d","6576c090d4df4e86c7ffd960","null","<p> <font color=""red"" size=""5vw""> Time out! </font> <br> Please try to respond as quickly as possible. </p>","null","feedback","","","","","","","0"
"","","","","","html-keyboard-response","11","35559","0.0-5.0-0.2","59cbc66c4374e1000125c8b5","6573617f270241e5da3d355d","6576c090d4df4e86c7ffd960","645","
            
        <div style=""text-align: center; position: fixed; top: 5vh; left: 40vw;"">
            <div style=""margin:0 auto; width: 20vw; top: 8vh; font-size: 2vw""> 
            <font color=""green""> Bonus : $0 </font>
            </div>
        </div>
    
            <div> Please press any key to continue to the next movie.</div>
        ","arrowdown","ITI","","","","","","",""
"","","","","","html-keyboard-response","12","36422","0.0-5.0-1.2","59cbc66c4374e1000125c8b5","6573617f270241e5da3d355d","6576c090d4df4e86c7ffd960","862","./stimuli//pack_morph_shapes_1/cat_1/diff_1/ex_1_1_15.gif","arrowleft","response","ArrowLeft","15","1","1","train","true",""
"","","","","","html-keyboard-response","13","37938","0.0-5.0-2.2","59cbc66c4374e1000125c8b5","6573617f270241e5da3d355d","6576c090d4df4e86c7ffd960","null","<p> <font color=""green"" size=""5vw""> Correct category! </font> </p>","null","feedback","","","","","","","0"
"","","","","","html-keyboard-response","14","38446","0.0-5.0-0.3","59cbc66c4374e1000125c8b5","6573617f270241e5da3d355d","6576c090d4df4e86c7ffd960","506","
            
        <div style=""text-align: center; position: fixed; top: 5vh; left: 40vw;"">
            <div style=""margin:0 auto; width: 20vw; top: 8vh; font-size: 2vw""> 
            <font color=""green""> Bonus : $0 </font>
            </div>
        </div>
    
            <div> Please press any key to continue to the next movie.</div>
        ","arrowleft","ITI","","","","","","",""
"","","","","","html-keyboard-response","15","39461","0.0-5.0-1.3","59cbc66c4374e1000125c8b5","6573617f270241e5da3d355d","6576c090d4df4e86c7ffd960","1012","./stimuli//pack_morph_shapes_1/cat_2/diff_1/ex_2_1_6.gif","arrowright","response","ArrowRight","6","2","1","train","true",""
"","","","","","html-keyboard-response","16","40970","0.0-5.0-2.3","59cbc66c4374e1000125c8b5","6573617f270241e5da3d355d","6576c090d4df4e86c7ffd960","null","<p> <font color=""green"" size=""5vw""> Correct category! </font> </p>","null","feedback","","","","","","","0"
"","","","","","html-keyboard-response","17","41455","0.0-5.0-0.4","59cbc66c4374e1000125c8b5","6573617f270241e5da3d355d","6576c090d4df4e86c7ffd960","483","
            
        <div style=""text-align: center; position: fixed; top: 5vh; left: 40vw;"">
            <div style=""margin:0 auto; width: 20vw; top: 8vh; font-size: 2vw""> 
            <font color=""green""> Bonus : $0 </font>
            </div>
        </div>
    
            <div> Please press any key to continue to the next movie.</div>
        ","arrowleft","ITI","","","","","","",""
"","","","","","html-keyboard-response","18","42149","0.0-5.0-1.4","59cbc66c4374e1000125c8b5","6573617f270241e5da3d355d","6576c090d4df4e86c7ffd960","693","./stimuli//pack_morph_shapes_1/cat_2/diff_2/ex_2_2_2.gif","arrowright","response","ArrowRight","2","2","2","train","true",""
"","","","","","html-keyboard-response","19","43664","0.0-5.0-2.4","59cbc66c4374e1000125c8b5","6573617f270241e5da3d355d","6576c090d4df4e86c7ffd960","null","<p> <font color=""green"" size=""5vw""> Correct category! </font> </p>","null","feedback","","","","","","","0"
"","","","","","html-keyboard-response","20","44051","0.0-5.0-0.5","59cbc66c4374e1000125c8b5","6573617f270241e5da3d355d","6576c090d4df4e86c7ffd960","386","
            
        <div style=""text-align: center; position: fixed; top: 5vh; left: 40vw;"">
            <div style=""margin:0 auto; width: 20vw; top: 8vh; font-size: 2vw""> 
            <font color=""green""> Bonus : $0 </font>
            </div>
        </div>
    
            <div> Please press any key to continue to the next movie.</div>
        ","arrowleft","ITI","","","","","","",""
"","","","","","html-keyboard-response","21","44754","0.0-5.0-1.5","59cbc66c4374e1000125c8b5","6573617f270241e5da3d355d","6576c090d4df4e86c7ffd960","702","./stimuli//pack_morph_shapes_1/cat_2/diff_1/ex_2_1_16.gif","arrowright","response","ArrowRight","16","2","1","train","true",""
"","","","","","html-keyboard-response","22","46270","0.0-5.0-2.5","59cbc66c4374e1000125c8b5","6573617f270241e5da3d355d","6576c090d4df4e86c7ffd960","null","<p> <font color=""green"" size=""5vw""> Correct category! </font> </p>","null","feedback","","","","","","","0"
"","","","","","html-keyboard-response","23","46660","0.0-5.0-0.6","59cbc66c4374e1000125c8b5","6573617f270241e5da3d355d","6576c090d4df4e86c7ffd960","389","
            
        <div style=""text-align: center; position: fixed; top: 5vh; left: 40vw;"">
            <div style=""margin:0 auto; width: 20vw; top: 8vh; font-size: 2vw""> 
            <font color=""green""> Bonus : $0 </font>
            </div>
        </div>
    
            <div> Please press any key to continue to the next movie.</div>
        ","arrowleft","ITI","","","","","","",""
"","","","","","html-keyboard-response","24","47972","0.0-5.0-1.6","59cbc66c4374e1000125c8b5","6573617f270241e5da3d355d","6576c090d4df4e86c7ffd960","1310","./stimuli//pack_morph_shapes_1/cat_2/diff_2/ex_2_2_17.gif","arrowleft","response","ArrowRight","17","2","2","train","false",""
"","","","","","html-keyboard-response","25","49482","0.0-5.0-2.6","59cbc66c4374e1000125c8b5","6573617f270241e5da3d355d","6576c090d4df4e86c7ffd960","null","<p> <font color=""red"" size=""5vw""> Wrong category! </font> </p>","null","feedback","","","","","","","0"
"","","","","","html-keyboard-response","26","49961","0.0-5.0-0.7","59cbc66c4374e1000125c8b5","6573617f270241e5da3d355d","6576c090d4df4e86c7ffd960","478","
            
        <div style=""text-align: center; position: fixed; top: 5vh; left: 40vw;"">
            <div style=""margin:0 auto; width: 20vw; top: 8vh; font-size: 2vw""> 
            <font color=""green""> Bonus : $0 </font>
            </div>
        </div>
    
            <div> Please press any key to continue to the next movie.</div>
        ","arrowleft","ITI","","","","","","",""
"","","","","","html-keyboard-response","27","50781","0.0-5.0-1.7","59cbc66c4374e1000125c8b5","6573617f270241e5da3d355d","6576c090d4df4e86c7ffd960","818","./stimuli//pack_morph_shapes_1/cat_1/diff_2/ex_1_2_4.gif","arrowleft","response","ArrowLeft","4","1","2","train","true",""
"","","","","","html-keyboard-response","28","52284","0.0-5.0-2.7","59cbc66c4374e1000125c8b5","6573617f270241e5da3d355d","6576c090d4df4e86c7ffd960","null","<p> <font color=""green"" size=""5vw""> Correct category! </font> </p>","null","feedback","","","","","","","0"
"","","","","","html-keyboard-response","29","52568","0.0-5.0-0.8","59cbc66c4374e1000125c8b5","6573617f270241e5da3d355d","6576c090d4df4e86c7ffd960","281","
            
        <div style=""text-align: center; position: fixed; top: 5vh; left: 40vw;"">
            <div style=""margin:0 auto; width: 20vw; top: 8vh; font-size: 2vw""> 
            <font color=""green""> Bonus : $0 </font>
            </div>
        </div>
    
            <div> Please press any key to continue to the next movie.</div>
        ","arrowleft","ITI","","","","","","",""
"","","","","","html-keyboard-response","30","53254","0.0-5.0-1.8","59cbc66c4374e1000125c8b5","6573617f270241e5da3d355d","6576c090d4df4e86c7ffd960","685","./stimuli//pack_morph_shapes_1/cat_1/diff_1/ex_1_1_2.gif","arrowleft","response","ArrowLeft","2","1","1","train","true",""
"","","","","","html-keyboard-response","31","54761","0.0-5.0-2.8","59cbc66c4374e1000125c8b5","6573617f270241e5da3d355d","6576c090d4df4e86c7ffd960","null","<p> <font color=""green"" size=""5vw""> Correct category! </font> </p>","null","feedback","","","","","","","0"
"","","","","","html-keyboard-response","32","55131","0.0-5.0-0.9","59cbc66c4374e1000125c8b5","6573617f270241e5da3d355d","6576c090d4df4e86c7ffd960","367","
            
        <div style=""text-align: center; position: fixed; top: 5vh; left: 40vw;"">
            <div style=""margin:0 auto; width: 20vw; top: 8vh; font-size: 2vw""> 
            <font color=""green""> Bonus : $0 </font>
            </div>
        </div>
    
            <div> Please press any key to continue to the next movie.</div>
        ","arrowleft","ITI","","","","","","",""
"","","","","","html-keyboard-response","33","55695","0.0-5.0-1.9","59cbc66c4374e1000125c8b5","6573617f270241e5da3d355d","6576c090d4df4e86c7ffd960","557","./stimuli//pack_morph_shapes_1/cat_2/diff_1/ex_2_1_14.gif","arrowright","response","ArrowRight","14","2","1","train","true",""
"","","","","","html-keyboard-response","34","57224","0.0-5.0-2.9","59cbc66c4374e1000125c8b5","6573617f270241e5da3d355d","6576c090d4df4e86c7ffd960","null","<p> <font color=""green"" size=""5vw""> Correct category! </font> </p>","null","feedback","","","","","","","0"
"","","","","","html-keyboard-response","35","61080","0.0-6.0","59cbc66c4374e1000125c8b5","6573617f270241e5da3d355d","6576c090d4df4e86c7ffd960","3761","
            <b> <p> The practice round has finished.</p>
            <b> <p> For the rest of the experiment you will receive a bonus payment for each correct answer, which will be higher the faster you answer!</b></p>
            <b> </p> Also you will lose $0.05 from your bonus payment for each incorrect answer!</p>
            <p> Press any key to begin the test. </p>
            ","arrowleft","intermission","","","","","","",""
"","","","","","html-keyboard-response","36","61698","0.0-7.0-0.0","59cbc66c4374e1000125c8b5","6573617f270241e5da3d355d","6576c090d4df4e86c7ffd960","619","
            
        <div style=""text-align: center; position: fixed; top: 5vh; left: 40vw;"">
            <div style=""margin:0 auto; width: 20vw; top: 8vh; font-size: 2vw""> 
            <font color=""green""> Bonus : $0 </font>
            </div>
        </div>
    
            <div> Please press any key to continue to the next movie.</div>
        ","arrowleft","ITI","","","","","","",""
"","","","","","html-keyboard-response","37","62361","0.0-7.0-1.0","59cbc66c4374e1000125c8b5","6573617f270241e5da3d355d","6576c090d4df4e86c7ffd960","659","./stimuli//pack_morph_shapes_1/cat_2/diff_1/ex_2_1_12.gif","arrowright","response","ArrowRight","12","2","1","test","true",""
"","","","","","html-keyboard-response","38","63868","0.0-7.0-2.0","59cbc66c4374e1000125c8b5","6573617f270241e5da3d355d","6576c090d4df4e86c7ffd960","null","<p> <font color=""green"" size=""5vw""> Correct category! </font> <br> <br> <font color=""green"" size=""8vw""> + $0.07 </font> </p>","null","feedback","","","","","","","0.07"
"","","","","","html-keyboard-response","39","64532","0.0-7.1-0.1","59cbc66c4374e1000125c8b5","6573617f270241e5da3d355d","6576c090d4df4e86c7ffd960","661","
            
        <div style=""text-align: center; position: fixed; top: 5vh; left: 40vw;"">
            <div style=""margin:0 auto; width: 20vw; top: 8vh; font-size: 2vw""> 
            <font color=""green""> Bonus : $0.07 </font>
            </div>
        </div>
    
            <div> Please press any key to continue to the next movie.</div>
        ","arrowdown","ITI","","","","","","",""
"","","","","","html-keyboard-response","40","65125","0.0-7.1-1.1","59cbc66c4374e1000125c8b5","6573617f270241e5da3d355d","6576c090d4df4e86c7ffd960","590","./stimuli//pack_morph_shapes_1/cat_2/diff_1/ex_2_1_13.gif","arrowright","response","ArrowRight","13","2","1","test","true",""
"","","","","","html-keyboard-response","41","66636","0.0-7.1-2.1","59cbc66c4374e1000125c8b5","6573617f270241e5da3d355d","6576c090d4df4e86c7ffd960","null","<p> <font color=""green"" size=""5vw""> Correct category! </font> <br> <br> <font color=""green"" size=""8vw""> + $0.07 </font> </p>","null","feedback","","","","","","","0.14"
"","","","","","html-keyboard-response","42","67126","0.0-7.2-0.2","59cbc66c4374e1000125c8b5","6573617f270241e5da3d355d","6576c090d4df4e86c7ffd960","489","
            
        <div style=""text-align: center; position: fixed; top: 5vh; left: 40vw;"">
            <div style=""margin:0 auto; width: 20vw; top: 8vh; font-size: 2vw""> 
            <font color=""green""> Bonus : $0.14 </font>
            </div>
        </div>
    
            <div> Please press any key to continue to the next movie.</div>
        ","arrowup","ITI","","","","","","",""
"","","","","","html-keyboard-response","43","67768","0.0-7.2-1.2","59cbc66c4374e1000125c8b5","6573617f270241e5da3d355d","6576c090d4df4e86c7ffd960","640","./stimuli//pack_morph_shapes_1/cat_1/diff_1/ex_1_1_14.gif","arrowleft","response","ArrowLeft","14","1","1","test","true",""
"","","","","","html-keyboard-response","44","69285","0.0-7.2-2.2","59cbc66c4374e1000125c8b5","6573617f270241e5da3d355d","6576c090d4df4e86c7ffd960","null","<p> <font color=""green"" size=""5vw""> Correct category! </font> <br> <br> <font color=""green"" size=""8vw""> + $0.07 </font> </p>","null","feedback","","","","","","","0.21"
"","","","","","html-keyboard-response","45","69642","0.0-7.3-0.3","59cbc66c4374e1000125c8b5","6573617f270241e5da3d355d","6576c090d4df4e86c7ffd960","353","
            
        <div style=""text-align: center; position: fixed; top: 5vh; left: 40vw;"">
            <div style=""margin:0 auto; width: 20vw; top: 8vh; font-size: 2vw""> 
            <font color=""green""> Bonus : $0.21 </font>
            </div>
        </div>
    
            <div> Please press any key to continue to the next movie.</div>
        ","arrowup","ITI","","","","","","",""
"","","","","","html-keyboard-response","46","70545","0.0-7.3-1.3","59cbc66c4374e1000125c8b5","6573617f270241e5da3d355d","6576c090d4df4e86c7ffd960","899","./stimuli//pack_morph_shapes_1/cat_2/diff_1/ex_2_1_7.gif","arrowright","response","ArrowRight","7","2","1","test","true",""
"","","","","","html-keyboard-response","47","72053","0.0-7.3-2.3","59cbc66c4374e1000125c8b5","6573617f270241e5da3d355d","6576c090d4df4e86c7ffd960","null","<p> <font color=""green"" size=""5vw""> Correct category! </font> <br> <br> <font color=""green"" size=""8vw""> + $0.06 </font> </p>","null","feedback","","","","","","","0.27"
"","","","","","html-keyboard-response","48","72649","0.0-7.4-0.4","59cbc66c4374e1000125c8b5","6573617f270241e5da3d355d","6576c090d4df4e86c7ffd960","595","
            
        <div style=""text-align: center; position: fixed; top: 5vh; left: 40vw;"">
            <div style=""margin:0 auto; width: 20vw; top: 8vh; font-size: 2vw""> 
            <font color=""green""> Bonus : $0.27 </font>
            </div>
        </div>
    
            <div> Please press any key to continue to the next movie.</div>
        ","arrowup","ITI","","","","","","",""
"","","","","","html-keyboard-response","49","73276","0.0-7.4-1.4","59cbc66c4374e1000125c8b5","6573617f270241e5da3d355d","6576c090d4df4e86c7ffd960","624","./stimuli//pack_morph_shapes_1/cat_1/diff_1/ex_1_1_5.gif","arrowleft","response","ArrowLeft","5","1","1","test","true",""
"","","","","","html-keyboard-response","50","74781","0.0-7.4-2.4","59cbc66c4374e1000125c8b5","6573617f270241e5da3d355d","6576c090d4df4e86c7ffd960","null","<p> <font color=""green"" size=""5vw""> Correct category! </font> <br> <br> <font color=""green"" size=""8vw""> + $0.07 </font> </p>","null","feedback","","","","","","","0.34"
"","","","","","html-keyboard-response","51","75141","0.0-7.5-0.5","59cbc66c4374e1000125c8b5","6573617f270241e5da3d355d","6576c090d4df4e86c7ffd960","356","
            
        <div style=""text-align: center; position: fixed; top: 5vh; left: 40vw;"">
            <div style=""margin:0 auto; width: 20vw; top: 8vh; font-size: 2vw""> 
            <font color=""green""> Bonus : $0.34 </font>
            </div>
        </div>
    
            <div> Please press any key to continue to the next movie.</div>
        ","arrowup","ITI","","","","","","",""
"","","","","","html-keyboard-response","52","75836","0.0-7.5-1.5","59cbc66c4374e1000125c8b5","6573617f270241e5da3d355d","6576c090d4df4e86c7ffd960","692","./stimuli//pack_morph_shapes_1/cat_1/diff_2/ex_1_2_1.gif","arrowleft","response","ArrowLeft","1","1","2","test","true",""
"","","","","","html-keyboard-response","53","77344","0.0-7.5-2.5","59cbc66c4374e1000125c8b5","6573617f270241e5da3d355d","6576c090d4df4e86c7ffd960","null","<p> <font color=""green"" size=""5vw""> Correct category! </font> <br> <br> <font color=""green"" size=""8vw""> + $0.07 </font> </p>","null","feedback","","","","","","","0.41"
"","","","","","html-keyboard-response","54","77747","0.0-7.6-0.6","59cbc66c4374e1000125c8b5","6573617f270241e5da3d355d","6576c090d4df4e86c7ffd960","403","
            
        <div style=""text-align: center; position: fixed; top: 5vh; left: 40vw;"">
            <div style=""margin:0 auto; width: 20vw; top: 8vh; font-size: 2vw""> 
            <font color=""green""> Bonus : $0.41 </font>
            </div>
        </div>
    
            <div> Please press any key to continue to the next movie.</div>
        ","arrowup","ITI","","","","","","",""
"","","","","","html-keyboard-response","55","78416","0.0-7.6-1.6","59cbc66c4374e1000125c8b5","6573617f270241e5da3d355d","6576c090d4df4e86c7ffd960","665","./stimuli//pack_morph_shapes_1/cat_1/diff_2/ex_1_2_11.gif","arrowleft","response","ArrowLeft","11","1","2","test","true",""
"","","","","","html-keyboard-response","56","79928","0.0-7.6-2.6","59cbc66c4374e1000125c8b5","6573617f270241e5da3d355d","6576c090d4df4e86c7ffd960","null","<p> <font color=""green"" size=""5vw""> Correct category! </font> <br> <br> <font color=""green"" size=""8vw""> + $0.07 </font> </p>","null","feedback","","","","","","","0.48"
"","","","","","html-keyboard-response","57","80318","0.0-7.7-0.7","59cbc66c4374e1000125c8b5","6573617f270241e5da3d355d","6576c090d4df4e86c7ffd960","389","
            
        <div style=""text-align: center; position: fixed; top: 5vh; left: 40vw;"">
            <div style=""margin:0 auto; width: 20vw; top: 8vh; font-size: 2vw""> 
            <font color=""green""> Bonus : $0.48 </font>
            </div>
        </div>
    
            <div> Please press any key to continue to the next movie.</div>
        ","arrowup","ITI","","","","","","",""
"","","","","","html-keyboard-response","58","80933","0.0-7.7-1.7","59cbc66c4374e1000125c8b5","6573617f270241e5da3d355d","6576c090d4df4e86c7ffd960","611","./stimuli//pack_morph_shapes_1/cat_1/diff_2/ex_1_2_13.gif","arrowleft","response","ArrowLeft","13","1","2","test","true",""
"","","","","","html-keyboard-response","59","82440","0.0-7.7-2.7","59cbc66c4374e1000125c8b5","6573617f270241e5da3d355d","6576c090d4df4e86c7ffd960","null","<p> <font color=""green"" size=""5vw""> Correct category! </font> <br> <br> <font color=""green"" size=""8vw""> + $0.07 </font> </p>","null","feedback","","","","","","","0.55"
"","","","","","html-keyboard-response","60","82794","0.0-7.8-0.8","59cbc66c4374e1000125c8b5","6573617f270241e5da3d355d","6576c090d4df4e86c7ffd960","353","
            
        <div style=""text-align: center; position: fixed; top: 5vh; left: 40vw;"">
            <div style=""margin:0 auto; width: 20vw; top: 8vh; font-size: 2vw""> 
            <font color=""green""> Bonus : $0.55 </font>
            </div>
        </div>
    
            <div> Please press any key to continue to the next movie.</div>
        ","arrowup","ITI","","","","","","",""
"","","","","","html-keyboard-response","61","83367","0.0-7.8-1.8","59cbc66c4374e1000125c8b5","6573617f270241e5da3d355d","6576c090d4df4e86c7ffd960","569","./stimuli//pack_morph_shapes_1/cat_2/diff_2/ex_2_2_15.gif","arrowright","response","ArrowRight","15","2","2","test","true",""
"","","","","","html-keyboard-response","62","84929","0.0-7.8-2.8","59cbc66c4374e1000125c8b5","6573617f270241e5da3d355d","6576c090d4df4e86c7ffd960","null","<p> <font color=""green"" size=""5vw""> Correct category! </font> <br> <br> <font color=""green"" size=""8vw""> + $0.08 </font> </p>","null","feedback","","","","","","","0.63"
"","","","","","html-keyboard-response","63","85238","0.0-7.9-0.9","59cbc66c4374e1000125c8b5","6573617f270241e5da3d355d","6576c090d4df4e86c7ffd960","307","
            
        <div style=""text-align: center; position: fixed; top: 5vh; left: 40vw;"">
            <div style=""margin:0 auto; width: 20vw; top: 8vh; font-size: 2vw""> 
            <font color=""green""> Bonus : $0.63 </font>
            </div>
        </div>
    
            <div> Please press any key to continue to the next movie.</div>
        ","arrowup","ITI","","","","","","",""
"","","","","","html-keyboard-response","64","85790","0.0-7.9-1.9","59cbc66c4374e1000125c8b5","6573617f270241e5da3d355d","6576c090d4df4e86c7ffd960","549","./stimuli//pack_morph_shapes_1/cat_1/diff_2/ex_1_2_15.gif","arrowleft","response","ArrowLeft","15","1","2","test","true",""
"","","","","","html-keyboard-response","65","87297","0.0-7.9-2.9","59cbc66c4374e1000125c8b5","6573617f270241e5da3d355d","6576c090d4df4e86c7ffd960","null","<p> <font color=""green"" size=""5vw""> Correct category! </font> <br> <br> <font color=""green"" size=""8vw""> + $0.08 </font> </p>","null","feedback","","","","","","","0.71"
"","","","","","html-keyboard-response","66","87666","0.0-7.10-0.10","59cbc66c4374e1000125c8b5","6573617f270241e5da3d355d","6576c090d4df4e86c7ffd960","367","
            
        <div style=""text-align: center; position: fixed; top: 5vh; left: 40vw;"">
            <div style=""margin:0 auto; width: 20vw; top: 8vh; font-size: 2vw""> 
            <font color=""green""> Bonus : $0.71 </font>
            </div>
        </div>
    
            <div> Please press any key to continue to the next movie.</div>
        ","arrowup","ITI","","","","","","",""
"","","","","","html-keyboard-response","67","88257","0.0-7.10-1.10","59cbc66c4374e1000125c8b5","6573617f270241e5da3d355d","6576c090d4df4e86c7ffd960","587","./stimuli//pack_morph_shapes_1/cat_1/diff_3/ex_1_3_1.gif","arrowleft","response","ArrowLeft","1","1","3","test","true",""
"","","","","","html-keyboard-response","68","89773","0.0-7.10-2.10","59cbc66c4374e1000125c8b5","6573617f270241e5da3d355d","6576c090d4df4e86c7ffd960","null","<p> <font color=""green"" size=""5vw""> Correct category! </font> <br> <br> <font color=""green"" size=""8vw""> + $0.07 </font> </p>","null","feedback","","","","","","","0.78"
"","","","","","html-keyboard-response","69","90115","0.0-7.11-0.11","59cbc66c4374e1000125c8b5","6573617f270241e5da3d355d","6576c090d4df4e86c7ffd960","341","
            
        <div style=""text-align: center; position: fixed; top: 5vh; left: 40vw;"">
            <div style=""margin:0 auto; width: 20vw; top: 8vh; font-size: 2vw""> 
            <font color=""green""> Bonus : $0.78 </font>
            </div>
        </div>
    
            <div> Please press any key to continue to the next movie.</div>
        ","arrowleft","ITI","","","","","","",""
"","","","","","html-keyboard-response","70","90765","0.0-7.11-1.11","59cbc66c4374e1000125c8b5","6573617f270241e5da3d355d","6576c090d4df4e86c7ffd960","648","./stimuli//pack_morph_shapes_1/cat_1/diff_3/ex_1_3_16.gif","arrowleft","response","ArrowLeft","16","1","3","test","true",""
"","","","","","html-keyboard-response","71","92277","0.0-7.11-2.11","59cbc66c4374e1000125c8b5","6573617f270241e5da3d355d","6576c090d4df4e86c7ffd960","null","<p> <font color=""green"" size=""5vw""> Correct category! </font> <br> <br> <font color=""green"" size=""8vw""> + $0.07 </font> </p>","null","feedback","","","","","","","0.85"
"","","","","","html-keyboard-response","72","92593","0.0-7.12-0.12","59cbc66c4374e1000125c8b5","6573617f270241e5da3d355d","6576c090d4df4e86c7ffd960","314","
            
        <div style=""text-align: center; position: fixed; top: 5vh; left: 40vw;"">
            <div style=""margin:0 auto; width: 20vw; top: 8vh; font-size: 2vw""> 
            <font color=""green""> Bonus : $0.85 </font>
            </div>
        </div>
    
            <div> Please press any key to continue to the next movie.</div>
        ","arrowup","ITI","","","","","","",""
"","","","","","html-keyboard-response","73","93753","0.0-7.12-1.12","59cbc66c4374e1000125c8b5","6573617f270241e5da3d355d","6576c090d4df4e86c7ffd960","1157","./stimuli//pack_morph_shapes_1/cat_1/diff_3/ex_1_3_12.gif","arrowleft","response","ArrowLeft","12","1","3","test","true",""
"","","","","","html-keyboard-response","74","95267","0.0-7.12-2.12","59cbc66c4374e1000125c8b5","6573617f270241e5da3d355d","6576c090d4df4e86c7ffd960","null","<p> <font color=""green"" size=""5vw""> Correct category! </font> <br> <br> <font color=""green"" size=""8vw""> + $0.06 </font> </p>","null","feedback","","","","","","","0.91"
"","","","","","html-keyboard-response","75","95638","0.0-7.13-0.13","59cbc66c4374e1000125c8b5","6573617f270241e5da3d355d","6576c090d4df4e86c7ffd960","368","
            
        <div style=""text-align: center; position: fixed; top: 5vh; left: 40vw;"">
            <div style=""margin:0 auto; width: 20vw; top: 8vh; font-size: 2vw""> 
            <font color=""green""> Bonus : $0.91 </font>
            </div>
        </div>
    
            <div> Please press any key to continue to the next movie.</div>
        ","arrowup","ITI","","","","","","",""
"","","","","","html-keyboard-response","76","96225","0.0-7.13-1.13","59cbc66c4374e1000125c8b5","6573617f270241e5da3d355d","6576c090d4df4e86c7ffd960","583","./stimuli//pack_morph_shapes_1/cat_1/diff_3/ex_1_3_3.gif","arrowleft","response","ArrowLeft","3","1","3","test","true",""
"","","","","","html-keyboard-response","77","97728","0.0-7.13-2.13","59cbc66c4374e1000125c8b5","6573617f270241e5da3d355d","6576c090d4df4e86c7ffd960","null","<p> <font color=""green"" size=""5vw""> Correct category! </font> <br> <br> <font color=""green"" size=""8vw""> + $0.07 </font> </p>","null","feedback","","","","","","","0.98"
"","","","","","html-keyboard-response","78","98062","0.0-7.14-0.14","59cbc66c4374e1000125c8b5","6573617f270241e5da3d355d","6576c090d4df4e86c7ffd960","333","
            
        <div style=""text-align: center; position: fixed; top: 5vh; left: 40vw;"">
            <div style=""margin:0 auto; width: 20vw; top: 8vh; font-size: 2vw""> 
            <font color=""green""> Bonus : $0.98 </font>
            </div>
        </div>
    
            <div> Please press any key to continue to the next movie.</div>
        ","arrowup","ITI","","","","","","",""
"","","","","","html-keyboard-response","79","98838","0.0-7.14-1.14","59cbc66c4374e1000125c8b5","6573617f270241e5da3d355d","6576c090d4df4e86c7ffd960","774","./stimuli//pack_morph_shapes_1/cat_1/diff_3/ex_1_3_15.gif","arrowleft","response","ArrowLeft","15","1","3","test","true",""
"","","","","","html-keyboard-response","80","100341","0.0-7.14-2.14","59cbc66c4374e1000125c8b5","6573617f270241e5da3d355d","6576c090d4df4e86c7ffd960","null","<p> <font color=""green"" size=""5vw""> Correct category! </font> <br> <br> <font color=""green"" size=""8vw""> + $0.07 </font> </p>","null","feedback","","","","","","","1.05"
"","","","","","html-keyboard-response","81","100662","0.0-7.15-0.15","59cbc66c4374e1000125c8b5","6573617f270241e5da3d355d","6576c090d4df4e86c7ffd960","319","
            
        <div style=""text-align: center; position: fixed; top: 5vh; left: 40vw;"">
            <div style=""margin:0 auto; width: 20vw; top: 8vh; font-size: 2vw""> 
            <font color=""green""> Bonus : $1.05 </font>
            </div>
        </div>
    
            <div> Please press any key to continue to the next movie.</div>
        ","arrowup","ITI","","","","","","",""
"","","","","","html-keyboard-response","82","104122","0.0-7.15-1.15","59cbc66c4374e1000125c8b5","6573617f270241e5da3d355d","6576c090d4df4e86c7ffd960","3456","./stimuli//pack_morph_shapes_1/cat_2/diff_4/ex_2_4_5.gif","arrowright","response","ArrowRight","5","2","4","test","true",""
"","","","","","html-keyboard-response","83","105632","0.0-7.15-2.15","59cbc66c4374e1000125c8b5","6573617f270241e5da3d355d","6576c090d4df4e86c7ffd960","null","<p> <font color=""green"" size=""5vw""> Correct category! </font> <br> <br> <font color=""green"" size=""8vw""> + $0.02 </font> </p>","null","feedback","","","","","","","1.07"
"","","","","","html-keyboard-response","84","106377","0.0-7.16-0.16","59cbc66c4374e1000125c8b5","6573617f270241e5da3d355d","6576c090d4df4e86c7ffd960","743","
            
        <div style=""text-align: center; position: fixed; top: 5vh; left: 40vw;"">
            <div style=""margin:0 auto; width: 20vw; top: 8vh; font-size: 2vw""> 
            <font color=""green""> Bonus : $1.07 </font>
            </div>
        </div>
    
            <div> Please press any key to continue to the next movie.</div>
        ","arrowup","ITI","","","","","","",""
"","","","","","html-keyboard-response","85","110264","0.0-7.16-1.16","59cbc66c4374e1000125c8b5","6573617f270241e5da3d355d","6576c090d4df4e86c7ffd960","3885","./stimuli//pack_morph_shapes_1/cat_2/diff_4/ex_2_4_4.gif","arrowright","response","ArrowRight","4","2","4","test","true",""
"","","","","","html-keyboard-response","86","111780","0.0-7.16-2.16","59cbc66c4374e1000125c8b5","6573617f270241e5da3d355d","6576c090d4df4e86c7ffd960","null","<p> <font color=""green"" size=""5vw""> Correct category! </font> <br> <br> <font color=""green"" size=""8vw""> + $0.01 </font> </p>","null","feedback","","","","","","","1.08"
"","","","","","html-keyboard-response","87","113761","0.0-7.17-0.17","59cbc66c4374e1000125c8b5","6573617f270241e5da3d355d","6576c090d4df4e86c7ffd960","1980","
            
        <div style=""text-align: center; position: fixed; top: 5vh; left: 40vw;"">
            <div style=""margin:0 auto; width: 20vw; top: 8vh; font-size: 2vw""> 
            <font color=""green""> Bonus : $1.08 </font>
            </div>
        </div>
    
            <div> Please press any key to continue to the next movie.</div>
        ","arrowdown","ITI","","","","","","",""
"","","","","","html-keyboard-response","88","114356","0.0-7.17-1.17","59cbc66c4374e1000125c8b5","6573617f270241e5da3d355d","6576c090d4df4e86c7ffd960","595","./stimuli//pack_morph_shapes_1/cat_1/diff_4/ex_1_4_3.gif","arrowleft","response","ArrowLeft","3","1","4","test","true",""
"","","","","","html-keyboard-response","89","115859","0.0-7.17-2.17","59cbc66c4374e1000125c8b5","6573617f270241e5da3d355d","6576c090d4df4e86c7ffd960","null","<p> <font color=""green"" size=""5vw""> Correct category! </font> <br> <br> <font color=""green"" size=""8vw""> + $0.07 </font> </p>","null","feedback","","","","","","","1.15"
"","","","","","html-keyboard-response","90","116221","0.0-7.18-0.18","59cbc66c4374e1000125c8b5","6573617f270241e5da3d355d","6576c090d4df4e86c7ffd960","360","
            
        <div style=""text-align: center; position: fixed; top: 5vh; left: 40vw;"">
            <div style=""margin:0 auto; width: 20vw; top: 8vh; font-size: 2vw""> 
            <font color=""green""> Bonus : $1.15 </font>
            </div>
        </div>
    
            <div> Please press any key to continue to the next movie.</div>
        ","arrowleft","ITI","","","","","","",""
"","","","","","html-keyboard-response","91","117040","0.0-7.18-1.18","59cbc66c4374e1000125c8b5","6573617f270241e5da3d355d","6576c090d4df4e86c7ffd960","817","./stimuli//pack_morph_shapes_1/cat_1/diff_4/ex_1_4_6.gif","arrowleft","response","ArrowLeft","6","1","4","test","true",""
"","","","","","html-keyboard-response","92","118546","0.0-7.18-2.18","59cbc66c4374e1000125c8b5","6573617f270241e5da3d355d","6576c090d4df4e86c7ffd960","null","<p> <font color=""green"" size=""5vw""> Correct category! </font> <br> <br> <font color=""green"" size=""8vw""> + $0.07 </font> </p>","null","feedback","","","","","","","1.22"
"","","","","","html-keyboard-response","93","118851","0.0-7.19-0.19","59cbc66c4374e1000125c8b5","6573617f270241e5da3d355d","6576c090d4df4e86c7ffd960","304","
            
        <div style=""text-align: center; position: fixed; top: 5vh; left: 40vw;"">
            <div style=""margin:0 auto; width: 20vw; top: 8vh; font-size: 2vw""> 
            <font color=""green""> Bonus : $1.22 </font>
            </div>
        </div>
    
            <div> Please press any key to continue to the next movie.</div>
        ","arrowleft","ITI","","","","","","",""
"","","","","","html-keyboard-response","94","120055","0.0-7.19-1.19","59cbc66c4374e1000125c8b5","6573617f270241e5da3d355d","6576c090d4df4e86c7ffd960","1201","./stimuli//pack_morph_shapes_1/cat_1/diff_4/ex_1_4_14.gif","arrowleft","response","ArrowLeft","14","1","4","test","true",""
"","","","","","html-keyboard-response","95","121564","0.0-7.19-2.19","59cbc66c4374e1000125c8b5","6573617f270241e5da3d355d","6576c090d4df4e86c7ffd960","null","<p> <font color=""green"" size=""5vw""> Correct category! </font> <br> <br> <font color=""green"" size=""8vw""> + $0.05 </font> </p>","null","feedback","","","","","","","1.27"
"","","","","","html-keyboard-response","96","121920","0.0-7.20-0.20","59cbc66c4374e1000125c8b5","6573617f270241e5da3d355d","6576c090d4df4e86c7ffd960","354","
            
        <div style=""text-align: center; position: fixed; top: 5vh; left: 40vw;"">
            <div style=""margin:0 auto; width: 20vw; top: 8vh; font-size: 2vw""> 
            <font color=""green""> Bonus : $1.27 </font>
            </div>
        </div>
    
            <div> Please press any key to continue to the next movie.</div>
        ","arrowleft","ITI","","","","","","",""
"","","","","","html-keyboard-response","97","122614","0.0-7.20-1.20","59cbc66c4374e1000125c8b5","6573617f270241e5da3d355d","6576c090d4df4e86c7ffd960","690","./stimuli//pack_morph_shapes_1/cat_2/diff_5/ex_2_5_4.gif","arrowright","response","ArrowRight","4","2","5","test","true",""
"","","","","","html-keyboard-response","98","124131","0.0-7.20-2.20","59cbc66c4374e1000125c8b5","6573617f270241e5da3d355d","6576c090d4df4e86c7ffd960","null","<p> <font color=""green"" size=""5vw""> Correct category! </font> <br> <br> <font color=""green"" size=""8vw""> + $0.07 </font> </p>","null","feedback","","","","","","","1.34"
"","","","","","html-keyboard-response","99","124548","0.0-7.21-0.21","59cbc66c4374e1000125c8b5","6573617f270241e5da3d355d","6576c090d4df4e86c7ffd960","417","
            
        <div style=""text-align: center; position: fixed; top: 5vh; left: 40vw;"">
            <div style=""margin:0 auto; width: 20vw; top: 8vh; font-size: 2vw""> 
            <font color=""green""> Bonus : $1.34 </font>
            </div>
        </div>
    
            <div> Please press any key to continue to the next movie.</div>
        ","arrowleft","ITI","","","","","","",""
"","","","","","html-keyboard-response","100","125998","0.0-7.21-1.21","59cbc66c4374e1000125c8b5","6573617f270241e5da3d355d","6576c090d4df4e86c7ffd960","1447","./stimuli//pack_morph_shapes_1/cat_2/diff_5/ex_2_5_14.gif","arrowright","response","ArrowRight","14","2","5","test","true",""
"","","","","","html-keyboard-response","101","127600","0.0-7.21-2.21","59cbc66c4374e1000125c8b5","6573617f270241e5da3d355d","6576c090d4df4e86c7ffd960","null","<p> <font color=""green"" size=""5vw""> Correct category! </font> <br> <br> <font color=""green"" size=""8vw""> + $0.05 </font> </p>","null","feedback","","","","","","","1.39"
"","","","","","html-keyboard-response","102","128828","0.0-7.22-0.22","59cbc66c4374e1000125c8b5","6573617f270241e5da3d355d","6576c090d4df4e86c7ffd960","1227","
            
        <div style=""text-align: center; position: fixed; top: 5vh; left: 40vw;"">
            <div style=""margin:0 auto; width: 20vw; top: 8vh; font-size: 2vw""> 
            <font color=""green""> Bonus : $1.39 </font>
            </div>
        </div>
    
            <div> Please press any key to continue to the next movie.</div>
        ","arrowleft","ITI","","","","","","",""
"","","","","","html-keyboard-response","103","129464","0.0-7.22-1.22","59cbc66c4374e1000125c8b5","6573617f270241e5da3d355d","6576c090d4df4e86c7ffd960","634","./stimuli//pack_morph_shapes_1/cat_1/diff_5/ex_1_5_16.gif","arrowright","response","ArrowLeft","16","1","5","test","false",""
"","","","","","html-keyboard-response","104","130968","0.0-7.22-2.22","59cbc66c4374e1000125c8b5","6573617f270241e5da3d355d","6576c090d4df4e86c7ffd960","null","<p> <font color=""red"" size=""5vw""> Wrong category! </font> <br> <br> <font color=""red"" size=""8vw""> - $0.05 </font> </p>","null","feedback","","","","","","","1.34"
"","","","","","html-keyboard-response","105","131878","0.0-7.23-0.23","59cbc66c4374e1000125c8b5","6573617f270241e5da3d355d","6576c090d4df4e86c7ffd960","909","
            
        <div style=""text-align: center; position: fixed; top: 5vh; left: 40vw;"">
            <div style=""margin:0 auto; width: 20vw; top: 8vh; font-size: 2vw""> 
            <font color=""green""> Bonus : $1.34 </font>
            </div>
        </div>
    
            <div> Please press any key to continue to the next movie.</div>
        ","arrowleft","ITI","","","","","","",""
"","","","","","html-keyboard-response","106","132600","0.0-7.23-1.23","59cbc66c4374e1000125c8b5","6573617f270241e5da3d355d","6576c090d4df4e86c7ffd960","719","./stimuli//pack_morph_shapes_1/cat_1/diff_5/ex_1_5_12.gif","arrowleft","response","ArrowLeft","12","1","5","test","true",""
"","","","","","html-keyboard-response","107","134109","0.0-7.23-2.23","59cbc66c4374e1000125c8b5","6573617f270241e5da3d355d","6576c090d4df4e86c7ffd960","null","<p> <font color=""green"" size=""5vw""> Correct category! </font> <br> <br> <font color=""green"" size=""8vw""> + $0.07 </font> </p>","null","feedback","","","","","","","1.41"
"","","","","","html-keyboard-response","108","134618","0.0-7.24-0.24","59cbc66c4374e1000125c8b5","6573617f270241e5da3d355d","6576c090d4df4e86c7ffd960","507","
            
        <div style=""text-align: center; position: fixed; top: 5vh; left: 40vw;"">
            <div style=""margin:0 auto; width: 20vw; top: 8vh; font-size: 2vw""> 
            <font color=""green""> Bonus : $1.41 </font>
            </div>
        </div>
    
            <div> Please press any key to continue to the next movie.</div>
        ","arrowleft","ITI","","","","","","",""
"","","","","","html-keyboard-response","109","135241","0.0-7.24-1.24","59cbc66c4374e1000125c8b5","6573617f270241e5da3d355d","6576c090d4df4e86c7ffd960","622","./stimuli//pack_morph_shapes_1/cat_1/diff_5/ex_1_5_1.gif","arrowleft","response","ArrowLeft","1","1","5","test","true",""
"","","","","","html-keyboard-response","110","136750","0.0-7.24-2.24","59cbc66c4374e1000125c8b5","6573617f270241e5da3d355d","6576c090d4df4e86c7ffd960","null","<p> <font color=""green"" size=""5vw""> Correct category! </font> <br> <br> <font color=""green"" size=""8vw""> + $0.07 </font> </p>","null","feedback","","","","","","","1.48"
"","","","","","html-keyboard-response","111","137223","0.0-7.25-0.25","59cbc66c4374e1000125c8b5","6573617f270241e5da3d355d","6576c090d4df4e86c7ffd960","471","
            
        <div style=""text-align: center; position: fixed; top: 5vh; left: 40vw;"">
            <div style=""margin:0 auto; width: 20vw; top: 8vh; font-size: 2vw""> 
            <font color=""green""> Bonus : $1.48 </font>
            </div>
        </div>
    
            <div> Please press any key to continue to the next movie.</div>
        ","arrowleft","ITI","","","","","","",""
"","","","","","html-keyboard-response","112","137807","0.0-7.25-1.25","59cbc66c4374e1000125c8b5","6573617f270241e5da3d355d","6576c090d4df4e86c7ffd960","583","./stimuli//pack_morph_shapes_1/cat_2/diff_5/ex_2_5_1.gif","arrowright","response","ArrowRight","1","2","5","test","true",""
"","","","","","html-keyboard-response","113","139308","0.0-7.25-2.25","59cbc66c4374e1000125c8b5","6573617f270241e5da3d355d","6576c090d4df4e86c7ffd960","null","<p> <font color=""green"" size=""5vw""> Correct category! </font> <br> <br> <font color=""green"" size=""8vw""> + $0.07 </font> </p>","null","feedback","","","","","","","1.55"
"","","","","","html-keyboard-response","114","139743","0.0-7.26-0.26","59cbc66c4374e1000125c8b5","6573617f270241e5da3d355d","6576c090d4df4e86c7ffd960","434","
            
        <div style=""text-align: center; position: fixed; top: 5vh; left: 40vw;"">
            <div style=""margin:0 auto; width: 20vw; top: 8vh; font-size: 2vw""> 
            <font color=""green""> Bonus : $1.55 </font>
            </div>
        </div>
    
            <div> Please press any key to continue to the next movie.</div>
        ","arrowleft","ITI","","","","","","",""
"","","","","","html-keyboard-response","115","140283","0.0-7.26-1.26","59cbc66c4374e1000125c8b5","6573617f270241e5da3d355d","6576c090d4df4e86c7ffd960","538","./stimuli//pack_morph_shapes_1/cat_1/diff_5/ex_1_5_10.gif","arrowleft","response","ArrowLeft","10","1","5","test","true",""
"","","","","","html-keyboard-response","116","141886","0.0-7.26-2.26","59cbc66c4374e1000125c8b5","6573617f270241e5da3d355d","6576c090d4df4e86c7ffd960","null","<p> <font color=""green"" size=""5vw""> Correct category! </font> <br> <br> <font color=""green"" size=""8vw""> + $0.08 </font> </p>","null","feedback","","","","","","","1.63"
"","","","","","html-keyboard-response","117","142466","0.0-7.27-0.27","59cbc66c4374e1000125c8b5","6573617f270241e5da3d355d","6576c090d4df4e86c7ffd960","579","
            
        <div style=""text-align: center; position: fixed; top: 5vh; left: 40vw;"">
            <div style=""margin:0 auto; width: 20vw; top: 8vh; font-size: 2vw""> 
            <font color=""green""> Bonus : $1.63 </font>
            </div>
        </div>
    
            <div> Please press any key to continue to the next movie.</div>
        ","arrowleft","ITI","","","","","","",""
"","","","","","html-keyboard-response","118","143394","0.0-7.27-1.27","59cbc66c4374e1000125c8b5","6573617f270241e5da3d355d","6576c090d4df4e86c7ffd960","926","./stimuli//pack_morph_shapes_1/cat_1/diff_5/ex_1_5_15.gif","arrowleft","response","ArrowLeft","15","1","5","test","true",""
"","","","","","html-keyboard-response","119","144960","0.0-7.27-2.27","59cbc66c4374e1000125c8b5","6573617f270241e5da3d355d","6576c090d4df4e86c7ffd960","null","<p> <font color=""green"" size=""5vw""> Correct category! </font> <br> <br> <font color=""green"" size=""8vw""> + $0.06 </font> </p>","null","feedback","","","","","","","1.69"
"","","","","","html-keyboard-response","120","145468","0.0-7.28-0.28","59cbc66c4374e1000125c8b5","6573617f270241e5da3d355d","6576c090d4df4e86c7ffd960","508","
            
        <div style=""text-align: center; position: fixed; top: 5vh; left: 40vw;"">
            <div style=""margin:0 auto; width: 20vw; top: 8vh; font-size: 2vw""> 
            <font color=""green""> Bonus : $1.69 </font>
            </div>
        </div>
    
            <div> Please press any key to continue to the next movie.</div>
        ","arrowleft","ITI","","","","","","",""
"","","","","","html-keyboard-response","121","146143","0.0-7.28-1.28","59cbc66c4374e1000125c8b5","6573617f270241e5da3d355d","6576c090d4df4e86c7ffd960","672","./stimuli//pack_morph_shapes_1/cat_1/diff_5/ex_1_5_14.gif","arrowleft","response","ArrowLeft","14","1","5","test","true",""
"","","","","","html-keyboard-response","122","147649","0.0-7.28-2.28","59cbc66c4374e1000125c8b5","6573617f270241e5da3d355d","6576c090d4df4e86c7ffd960","null","<p> <font color=""green"" size=""5vw""> Correct category! </font> <br> <br> <font color=""green"" size=""8vw""> + $0.07 </font> </p>","null","feedback","","","","","","","1.76"
"","","","","","html-keyboard-response","123","148023","0.0-7.29-0.29","59cbc66c4374e1000125c8b5","6573617f270241e5da3d355d","6576c090d4df4e86c7ffd960","371","
            
        <div style=""text-align: center; position: fixed; top: 5vh; left: 40vw;"">
            <div style=""margin:0 auto; width: 20vw; top: 8vh; font-size: 2vw""> 
            <font color=""green""> Bonus : $1.76 </font>
            </div>
        </div>
    
            <div> Please press any key to continue to the next movie.</div>
        ","arrowleft","ITI","","","","","","",""
"","","","","","html-keyboard-response","124","148614","0.0-7.29-1.29","59cbc66c4374e1000125c8b5","6573617f270241e5da3d355d","6576c090d4df4e86c7ffd960","590","./stimuli//pack_morph_shapes_1/cat_2/diff_5/ex_2_5_9.gif","arrowleft","response","ArrowRight","9","2","5","test","false",""
"","","","","","html-keyboard-response","125","150126","0.0-7.29-2.29","59cbc66c4374e1000125c8b5","6573617f270241e5da3d355d","6576c090d4df4e86c7ffd960","null","<p> <font color=""red"" size=""5vw""> Wrong category! </font> <br> <br> <font color=""red"" size=""8vw""> - $0.05 </font> </p>","null","feedback","","","","","","","1.71"
"","","","","","html-keyboard-response","126","150518","0.0-7.30-0.30","59cbc66c4374e1000125c8b5","6573617f270241e5da3d355d","6576c090d4df4e86c7ffd960","391","
            
        <div style=""text-align: center; position: fixed; top: 5vh; left: 40vw;"">
            <div style=""margin:0 auto; width: 20vw; top: 8vh; font-size: 2vw""> 
            <font color=""green""> Bonus : $1.71 </font>
            </div>
        </div>
    
            <div> Please press any key to continue to the next movie.</div>
        ","arrowleft","ITI","","","","","","",""
"","","","","","html-keyboard-response","127","151056","0.0-7.30-1.30","59cbc66c4374e1000125c8b5","6573617f270241e5da3d355d","6576c090d4df4e86c7ffd960","534","./stimuli//pack_morph_shapes_1/cat_2/diff_5/ex_2_5_7.gif","arrowright","response","ArrowRight","7","2","5","test","true",""
"","","","","","html-keyboard-response","128","152561","0.0-7.30-2.30","59cbc66c4374e1000125c8b5","6573617f270241e5da3d355d","6576c090d4df4e86c7ffd960","null","<p> <font color=""green"" size=""5vw""> Correct category! </font> <br> <br> <font color=""green"" size=""8vw""> + $0.08 </font> </p>","null","feedback","","","","","","","1.79"
"","","","","","html-keyboard-response","129","152857","0.0-7.31-0.31","59cbc66c4374e1000125c8b5","6573617f270241e5da3d355d","6576c090d4df4e86c7ffd960","295","
            
        <div style=""text-align: center; position: fixed; top: 5vh; left: 40vw;"">
            <div style=""margin:0 auto; width: 20vw; top: 8vh; font-size: 2vw""> 
            <font color=""green""> Bonus : $1.79 </font>
            </div>
        </div>
    
            <div> Please press any key to continue to the next movie.</div>
        ","arrowleft","ITI","","","","","","",""
"","","","","","html-keyboard-response","130","153536","0.0-7.31-1.31","59cbc66c4374e1000125c8b5","6573617f270241e5da3d355d","6576c090d4df4e86c7ffd960","678","./stimuli//pack_morph_shapes_1/cat_1/diff_5/ex_1_5_4.gif","arrowleft","response","ArrowLeft","4","1","5","test","true",""
"","","","","","html-keyboard-response","131","155040","0.0-7.31-2.31","59cbc66c4374e1000125c8b5","6573617f270241e5da3d355d","6576c090d4df4e86c7ffd960","null","<p> <font color=""green"" size=""5vw""> Correct category! </font> <br> <br> <font color=""green"" size=""8vw""> + $0.07 </font> </p>","null","feedback","","","","","","","1.86"
"","","","","","html-keyboard-response","132","155320","0.0-7.32-0.32","59cbc66c4374e1000125c8b5","6573617f270241e5da3d355d","6576c090d4df4e86c7ffd960","279","
            
        <div style=""text-align: center; position: fixed; top: 5vh; left: 40vw;"">
            <div style=""margin:0 auto; width: 20vw; top: 8vh; font-size: 2vw""> 
            <font color=""green""> Bonus : $1.86 </font>
            </div>
        </div>
    
            <div> Please press any key to continue to the next movie.</div>
        ","arrowleft","ITI","","","","","","",""
"","","","","","html-keyboard-response","133","155919","0.0-7.32-1.32","59cbc66c4374e1000125c8b5","6573617f270241e5da3d355d","6576c090d4df4e86c7ffd960","596","./stimuli//pack_morph_shapes_1/cat_1/diff_5/ex_1_5_3.gif","arrowleft","response","ArrowLeft","3","1","5","test","true",""
"","","","","","html-keyboard-response","134","157431","0.0-7.32-2.32","59cbc66c4374e1000125c8b5","6573617f270241e5da3d355d","6576c090d4df4e86c7ffd960","null","<p> <font color=""green"" size=""5vw""> Correct category! </font> <br> <br> <font color=""green"" size=""8vw""> + $0.07 </font> </p>","null","feedback","","","","","","","1.93"
"","","","","","html-keyboard-response","135","157794","0.0-7.33-0.33","59cbc66c4374e1000125c8b5","6573617f270241e5da3d355d","6576c090d4df4e86c7ffd960","361","
            
        <div style=""text-align: center; position: fixed; top: 5vh; left: 40vw;"">
            <div style=""margin:0 auto; width: 20vw; top: 8vh; font-size: 2vw""> 
            <font color=""green""> Bonus : $1.93 </font>
            </div>
        </div>
    
            <div> Please press any key to continue to the next movie.</div>
        ","arrowleft","ITI","","","","","","",""
"","","","","","html-keyboard-response","136","158482","0.0-7.33-1.33","59cbc66c4374e1000125c8b5","6573617f270241e5da3d355d","6576c090d4df4e86c7ffd960","687","./stimuli//pack_morph_shapes_1/cat_1/diff_5/ex_1_5_16.gif","arrowright","response","ArrowLeft","16","1","5","test","false",""
"","","","","","html-keyboard-response","137","159986","0.0-7.33-2.33","59cbc66c4374e1000125c8b5","6573617f270241e5da3d355d","6576c090d4df4e86c7ffd960","null","<p> <font color=""red"" size=""5vw""> Wrong category! </font> <br> <br> <font color=""red"" size=""8vw""> - $0.05 </font> </p>","null","feedback","","","","","","","1.88"
"","","","","","html-keyboard-response","138","160296","0.0-7.34-0.34","59cbc66c4374e1000125c8b5","6573617f270241e5da3d355d","6576c090d4df4e86c7ffd960","308","
            
        <div style=""text-align: center; position: fixed; top: 5vh; left: 40vw;"">
            <div style=""margin:0 auto; width: 20vw; top: 8vh; font-size: 2vw""> 
            <font color=""green""> Bonus : $1.88 </font>
            </div>
        </div>
    
            <div> Please press any key to continue to the next movie.</div>
        ","arrowleft","ITI","","","","","","",""
"","","","","","html-keyboard-response","139","160829","0.0-7.34-1.34","59cbc66c4374e1000125c8b5","6573617f270241e5da3d355d","6576c090d4df4e86c7ffd960","532","./stimuli//pack_morph_shapes_1/cat_1/diff_4/ex_1_4_14.gif","arrowleft","response","ArrowLeft","14","1","4","test","true",""
"","","","","","html-keyboard-response","140","162345","0.0-7.34-2.34","59cbc66c4374e1000125c8b5","6573617f270241e5da3d355d","6576c090d4df4e86c7ffd960","null","<p> <font color=""green"" size=""5vw""> Correct category! </font> <br> <br> <font color=""green"" size=""8vw""> + $0.08 </font> </p>","null","feedback","","","","","","","1.96"
"","","","","","html-keyboard-response","141","162716","0.0-7.35-0.35","59cbc66c4374e1000125c8b5","6573617f270241e5da3d355d","6576c090d4df4e86c7ffd960","370","
            
        <div style=""text-align: center; position: fixed; top: 5vh; left: 40vw;"">
            <div style=""margin:0 auto; width: 20vw; top: 8vh; font-size: 2vw""> 
            <font color=""green""> Bonus : $1.96 </font>
            </div>
        </div>
    
            <div> Please press any key to continue to the next movie.</div>
        ","arrowleft","ITI","","","","","","",""
"","","","","","html-keyboard-response","142","163190","0.0-7.35-1.35","59cbc66c4374e1000125c8b5","6573617f270241e5da3d355d","6576c090d4df4e86c7ffd960","472","./stimuli//pack_morph_shapes_1/cat_1/diff_4/ex_1_4_6.gif","arrowleft","response","ArrowLeft","6","1","4","test","true",""
"","","","","","html-keyboard-response","143","164692","0.0-7.35-2.35","59cbc66c4374e1000125c8b5","6573617f270241e5da3d355d","6576c090d4df4e86c7ffd960","null","<p> <font color=""green"" size=""5vw""> Correct category! </font> <br> <br> <font color=""green"" size=""8vw""> + $0.08 </font> </p>","null","feedback","","","","","","","2.04"
"","","","","","html-keyboard-response","144","165141","0.0-7.36-0.36","59cbc66c4374e1000125c8b5","6573617f270241e5da3d355d","6576c090d4df4e86c7ffd960","446","
            
        <div style=""text-align: center; position: fixed; top: 5vh; left: 40vw;"">
            <div style=""margin:0 auto; width: 20vw; top: 8vh; font-size: 2vw""> 
            <font color=""green""> Bonus : $2.04 </font>
            </div>
        </div>
    
            <div> Please press any key to continue to the next movie.</div>
        ","arrowleft","ITI","","","","","","",""
"","","","","","html-keyboard-response","145","165699","0.0-7.36-1.36","59cbc66c4374e1000125c8b5","6573617f270241e5da3d355d","6576c090d4df4e86c7ffd960","555","./stimuli//pack_morph_shapes_1/cat_1/diff_4/ex_1_4_4.gif","arrowleft","response","ArrowLeft","4","1","4","test","true",""
"","","","","","html-keyboard-response","146","167209","0.0-7.36-2.36","59cbc66c4374e1000125c8b5","6573617f270241e5da3d355d","6576c090d4df4e86c7ffd960","null","<p> <font color=""green"" size=""5vw""> Correct category! </font> <br> <br> <font color=""green"" size=""8vw""> + $0.08 </font> </p>","null","feedback","","","","","","","2.12"
"","","","","","html-keyboard-response","147","167564","0.0-7.37-0.37","59cbc66c4374e1000125c8b5","6573617f270241e5da3d355d","6576c090d4df4e86c7ffd960","354","
            
        <div style=""text-align: center; position: fixed; top: 5vh; left: 40vw;"">
            <div style=""margin:0 auto; width: 20vw; top: 8vh; font-size: 2vw""> 
            <font color=""green""> Bonus : $2.12 </font>
            </div>
        </div>
    
            <div> Please press any key to continue to the next movie.</div>
        ","arrowleft","ITI","","","","","","",""
"","","","","","html-keyboard-response","148","168042","0.0-7.37-1.37","59cbc66c4374e1000125c8b5","6573617f270241e5da3d355d","6576c090d4df4e86c7ffd960","477","./stimuli//pack_morph_shapes_1/cat_1/diff_4/ex_1_4_14.gif","arrowleft","response","ArrowLeft","14","1","4","test","true",""
"","","","","","html-keyboard-response","149","169555","0.0-7.37-2.37","59cbc66c4374e1000125c8b5","6573617f270241e5da3d355d","6576c090d4df4e86c7ffd960","null","<p> <font color=""green"" size=""5vw""> Correct category! </font> <br> <br> <font color=""green"" size=""8vw""> + $0.08 </font> </p>","null","feedback","","","","","","","2.2"
"","","","","","html-keyboard-response","150","170101","0.0-7.38-0.38","59cbc66c4374e1000125c8b5","6573617f270241e5da3d355d","6576c090d4df4e86c7ffd960","544","
            
        <div style=""text-align: center; position: fixed; top: 5vh; left: 40vw;"">
            <div style=""margin:0 auto; width: 20vw; top: 8vh; font-size: 2vw""> 
            <font color=""green""> Bonus : $2.2 </font>
            </div>
        </div>
    
            <div> Please press any key to continue to the next movie.</div>
        ","arrowleft","ITI","","","","","","",""
"","","","","","html-keyboard-response","151","170796","0.0-7.38-1.38","59cbc66c4374e1000125c8b5","6573617f270241e5da3d355d","6576c090d4df4e86c7ffd960","693","./stimuli//pack_morph_shapes_1/cat_1/diff_4/ex_1_4_1.gif","arrowleft","response","ArrowLeft","1","1","4","test","true",""
"","","","","","html-keyboard-response","152","172301","0.0-7.38-2.38","59cbc66c4374e1000125c8b5","6573617f270241e5da3d355d","6576c090d4df4e86c7ffd960","null","<p> <font color=""green"" size=""5vw""> Correct category! </font> <br> <br> <font color=""green"" size=""8vw""> + $0.07 </font> </p>","null","feedback","","","","","","","2.27"
"","","","","","html-keyboard-response","153","172647","0.0-7.39-0.39","59cbc66c4374e1000125c8b5","6573617f270241e5da3d355d","6576c090d4df4e86c7ffd960","344","
            
        <div style=""text-align: center; position: fixed; top: 5vh; left: 40vw;"">
            <div style=""margin:0 auto; width: 20vw; top: 8vh; font-size: 2vw""> 
            <font color=""green""> Bonus : $2.27 </font>
            </div>
        </div>
    
            <div> Please press any key to continue to the next movie.</div>
        ","arrowleft","ITI","","","","","","",""
"","","","","","html-keyboard-response","154","173160","0.0-7.39-1.39","59cbc66c4374e1000125c8b5","6573617f270241e5da3d355d","6576c090d4df4e86c7ffd960","512","./stimuli//pack_morph_shapes_1/cat_2/diff_5/ex_2_5_1.gif","arrowright","response","ArrowRight","1","2","5","test","true",""
"","","","","","html-keyboard-response","155","174676","0.0-7.39-2.39","59cbc66c4374e1000125c8b5","6573617f270241e5da3d355d","6576c090d4df4e86c7ffd960","null","<p> <font color=""green"" size=""5vw""> Correct category! </font> <br> <br> <font color=""green"" size=""8vw""> + $0.08 </font> </p>","null","feedback","","","","","","","2.35"
"","","","","","html-keyboard-response","156","174966","0.0-7.40-0.40","59cbc66c4374e1000125c8b5","6573617f270241e5da3d355d","6576c090d4df4e86c7ffd960","288","
            
        <div style=""text-align: center; position: fixed; top: 5vh; left: 40vw;"">
            <div style=""margin:0 auto; width: 20vw; top: 8vh; font-size: 2vw""> 
            <font color=""green""> Bonus : $2.35 </font>
            </div>
        </div>
    
            <div> Please press any key to continue to the next movie.</div>
        ","arrowleft","ITI","","","","","","",""
"","","","","","html-keyboard-response","157","175697","0.0-7.40-1.40","59cbc66c4374e1000125c8b5","6573617f270241e5da3d355d","6576c090d4df4e86c7ffd960","729","./stimuli//pack_morph_shapes_1/cat_2/diff_5/ex_2_5_12.gif","arrowleft","response","ArrowRight","12","2","5","test","false",""
"","","","","","html-keyboard-response","158","177205","0.0-7.40-2.40","59cbc66c4374e1000125c8b5","6573617f270241e5da3d355d","6576c090d4df4e86c7ffd960","null","<p> <font color=""red"" size=""5vw""> Wrong category! </font> <br> <br> <font color=""red"" size=""8vw""> - $0.05 </font> </p>","null","feedback","","","","","","","2.3"
"","","","","","html-keyboard-response","159","177625","0.0-7.41-0.41","59cbc66c4374e1000125c8b5","6573617f270241e5da3d355d","6576c090d4df4e86c7ffd960","417","
            
        <div style=""text-align: center; position: fixed; top: 5vh; left: 40vw;"">
            <div style=""margin:0 auto; width: 20vw; top: 8vh; font-size: 2vw""> 
            <font color=""green""> Bonus : $2.3 </font>
            </div>
        </div>
    
            <div> Please press any key to continue to the next movie.</div>
        ","arrowleft","ITI","","","","","","",""
"","","","","","html-keyboard-response","160","178286","0.0-7.41-1.41","59cbc66c4374e1000125c8b5","6573617f270241e5da3d355d","6576c090d4df4e86c7ffd960","660","./stimuli//pack_morph_shapes_1/cat_2/diff_5/ex_2_5_17.gif","arrowleft","response","ArrowRight","17","2","5","test","false",""
"","","","","","html-keyboard-response","161","179788","0.0-7.41-2.41","59cbc66c4374e1000125c8b5","6573617f270241e5da3d355d","6576c090d4df4e86c7ffd960","null","<p> <font color=""red"" size=""5vw""> Wrong category! </font> <br> <br> <font color=""red"" size=""8vw""> - $0.05 </font> </p>","null","feedback","","","","","","","2.25"
"","","","","","html-keyboard-response","162","180238","0.0-7.42-0.42","59cbc66c4374e1000125c8b5","6573617f270241e5da3d355d","6576c090d4df4e86c7ffd960","449","
            
        <div style=""text-align: center; position: fixed; top: 5vh; left: 40vw;"">
            <div style=""margin:0 auto; width: 20vw; top: 8vh; font-size: 2vw""> 
            <font color=""green""> Bonus : $2.25 </font>
            </div>
        </div>
    
            <div> Please press any key to continue to the next movie.</div>
        ","arrowleft","ITI","","","","","","",""
"","","","","","html-keyboard-response","163","180832","0.0-7.42-1.42","59cbc66c4374e1000125c8b5","6573617f270241e5da3d355d","6576c090d4df4e86c7ffd960","592","./stimuli//pack_morph_shapes_1/cat_2/diff_5/ex_2_5_13.gif","arrowright","response","ArrowRight","13","2","5","test","true",""
"","","","","","html-keyboard-response","164","182333","0.0-7.42-2.42","59cbc66c4374e1000125c8b5","6573617f270241e5da3d355d","6576c090d4df4e86c7ffd960","null","<p> <font color=""green"" size=""5vw""> Correct category! </font> <br> <br> <font color=""green"" size=""8vw""> + $0.07 </font> </p>","null","feedback","","","","","","","2.32"
"","","","","","html-keyboard-response","165","182595","0.0-7.43-0.43","59cbc66c4374e1000125c8b5","6573617f270241e5da3d355d","6576c090d4df4e86c7ffd960","260","
            
        <div style=""text-align: center; position: fixed; top: 5vh; left: 40vw;"">
            <div style=""margin:0 auto; width: 20vw; top: 8vh; font-size: 2vw""> 
            <font color=""green""> Bonus : $2.32 </font>
            </div>
        </div>
    
            <div> Please press any key to continue to the next movie.</div>
        ","arrowleft","ITI","","","","","","",""
"","","","","","html-keyboard-response","166","183217","0.0-7.43-1.43","59cbc66c4374e1000125c8b5","6573617f270241e5da3d355d","6576c090d4df4e86c7ffd960","618","./stimuli//pack_morph_shapes_1/cat_1/diff_5/ex_1_5_2.gif","arrowleft","response","ArrowLeft","2","1","5","test","true",""
"","","","","","html-keyboard-response","167","184724","0.0-7.43-2.43","59cbc66c4374e1000125c8b5","6573617f270241e5da3d355d","6576c090d4df4e86c7ffd960","null","<p> <font color=""green"" size=""5vw""> Correct category! </font> <br> <br> <font color=""green"" size=""8vw""> + $0.07 </font> </p>","null","feedback","","","","","","","2.39"
"","","","","","html-keyboard-response","168","185076","0.0-7.44-0.44","59cbc66c4374e1000125c8b5","6573617f270241e5da3d355d","6576c090d4df4e86c7ffd960","348","
            
        <div style=""text-align: center; position: fixed; top: 5vh; left: 40vw;"">
            <div style=""margin:0 auto; width: 20vw; top: 8vh; font-size: 2vw""> 
            <font color=""green""> Bonus : $2.39 </font>
            </div>
        </div>
    
            <div> Please press any key to continue to the next movie.</div>
        ","arrowleft","ITI","","","","","","",""
"","","","","","html-keyboard-response","169","185979","0.0-7.44-1.44","59cbc66c4374e1000125c8b5","6573617f270241e5da3d355d","6576c090d4df4e86c7ffd960","902","./stimuli//pack_morph_shapes_1/cat_2/diff_4/ex_2_4_6.gif","arrowleft","response","ArrowRight","6","2","4","test","false",""
"","","","","","html-keyboard-response","170","187487","0.0-7.44-2.44","59cbc66c4374e1000125c8b5","6573617f270241e5da3d355d","6576c090d4df4e86c7ffd960","null","<p> <font color=""red"" size=""5vw""> Wrong category! </font> <br> <br> <font color=""red"" size=""8vw""> - $0.05 </font> </p>","null","feedback","","","","","","","2.34"
"","","","","","html-keyboard-response","171","187770","0.0-7.45-0.45","59cbc66c4374e1000125c8b5","6573617f270241e5da3d355d","6576c090d4df4e86c7ffd960","280","
            
        <div style=""text-align: center; position: fixed; top: 5vh; left: 40vw;"">
            <div style=""margin:0 auto; width: 20vw; top: 8vh; font-size: 2vw""> 
            <font color=""green""> Bonus : $2.34 </font>
            </div>
        </div>
    
            <div> Please press any key to continue to the next movie.</div>
        ","arrowleft","ITI","","","","","","",""
"","","","","","html-keyboard-response","172","188340","0.0-7.45-1.45","59cbc66c4374e1000125c8b5","6573617f270241e5da3d355d","6576c090d4df4e86c7ffd960","570","./stimuli//pack_morph_shapes_1/cat_2/diff_4/ex_2_4_15.gif","arrowright","response","ArrowRight","15","2","4","test","true",""
"","","","","","html-keyboard-response","173","189856","0.0-7.45-2.45","59cbc66c4374e1000125c8b5","6573617f270241e5da3d355d","6576c090d4df4e86c7ffd960","null","<p> <font color=""green"" size=""5vw""> Correct category! </font> <br> <br> <font color=""green"" size=""8vw""> + $0.08 </font> </p>","null","feedback","","","","","","","2.42"
"","","","","","html-keyboard-response","174","190378","0.0-7.46-0.46","59cbc66c4374e1000125c8b5","6573617f270241e5da3d355d","6576c090d4df4e86c7ffd960","519","
            
        <div style=""text-align: center; position: fixed; top: 5vh; left: 40vw;"">
            <div style=""margin:0 auto; width: 20vw; top: 8vh; font-size: 2vw""> 
            <font color=""green""> Bonus : $2.42 </font>
            </div>
        </div>
    
            <div> Please press any key to continue to the next movie.</div>
        ","arrowleft","ITI","","","","","","",""
"","","","","","html-keyboard-response","175","191045","0.0-7.46-1.46","59cbc66c4374e1000125c8b5","6573617f270241e5da3d355d","6576c090d4df4e86c7ffd960","664","./stimuli//pack_morph_shapes_1/cat_1/diff_4/ex_1_4_17.gif","arrowright","response","ArrowLeft","17","1","4","test","false",""
"","","","","","html-keyboard-response","176","192562","0.0-7.46-2.46","59cbc66c4374e1000125c8b5","6573617f270241e5da3d355d","6576c090d4df4e86c7ffd960","null","<p> <font color=""red"" size=""5vw""> Wrong category! </font> <br> <br> <font color=""red"" size=""8vw""> - $0.05 </font> </p>","null","feedback","","","","","","","2.37"
"","","","","","html-keyboard-response","177","192846","0.0-7.47-0.47","59cbc66c4374e1000125c8b5","6573617f270241e5da3d355d","6576c090d4df4e86c7ffd960","282","
            
        <div style=""text-align: center; position: fixed; top: 5vh; left: 40vw;"">
            <div style=""margin:0 auto; width: 20vw; top: 8vh; font-size: 2vw""> 
            <font color=""green""> Bonus : $2.37 </font>
            </div>
        </div>
    
            <div> Please press any key to continue to the next movie.</div>
        ","arrowleft","ITI","","","","","","",""
"","","","","","html-keyboard-response","178","193464","0.0-7.47-1.47","59cbc66c4374e1000125c8b5","6573617f270241e5da3d355d","6576c090d4df4e86c7ffd960","616","./stimuli//pack_morph_shapes_1/cat_2/diff_4/ex_2_4_9.gif","arrowright","response","ArrowRight","9","2","4","test","true",""
"","","","","","html-keyboard-response","179","194966","0.0-7.47-2.47","59cbc66c4374e1000125c8b5","6573617f270241e5da3d355d","6576c090d4df4e86c7ffd960","null","<p> <font color=""green"" size=""5vw""> Correct category! </font> <br> <br> <font color=""green"" size=""8vw""> + $0.07 </font> </p>","null","feedback","","","","","","","2.44"
"","","","","","html-keyboard-response","180","195397","0.0-7.48-0.48","59cbc66c4374e1000125c8b5","6573617f270241e5da3d355d","6576c090d4df4e86c7ffd960","430","
            
        <div style=""text-align: center; position: fixed; top: 5vh; left: 40vw;"">
            <div style=""margin:0 auto; width: 20vw; top: 8vh; font-size: 2vw""> 
            <font color=""green""> Bonus : $2.44 </font>
            </div>
        </div>
    
            <div> Please press any key to continue to the next movie.</div>
        ","arrowleft","ITI","","","","","","",""
"","","","","","html-keyboard-response","181","196027","0.0-7.48-1.48","59cbc66c4374e1000125c8b5","6573617f270241e5da3d355d","6576c090d4df4e86c7ffd960","627","./stimuli//pack_morph_shapes_1/cat_2/diff_4/ex_2_4_16.gif","arrowright","response","ArrowRight","16","2","4","test","true",""
"","","","","","html-keyboard-response","182","197531","0.0-7.48-2.48","59cbc66c4374e1000125c8b5","6573617f270241e5da3d355d","6576c090d4df4e86c7ffd960","null","<p> <font color=""green"" size=""5vw""> Correct category! </font> <br> <br> <font color=""green"" size=""8vw""> + $0.07 </font> </p>","null","feedback","","","","","","","2.51"
"","","","","","html-keyboard-response","183","197929","0.0-7.49-0.49","59cbc66c4374e1000125c8b5","6573617f270241e5da3d355d","6576c090d4df4e86c7ffd960","397","
            
        <div style=""text-align: center; position: fixed; top: 5vh; left: 40vw;"">
            <div style=""margin:0 auto; width: 20vw; top: 8vh; font-size: 2vw""> 
            <font color=""green""> Bonus : $2.51 </font>
            </div>
        </div>
    
            <div> Please press any key to continue to the next movie.</div>
        ","arrowleft","ITI","","","","","","",""
"","","","","","html-keyboard-response","184","198655","0.0-7.49-1.49","59cbc66c4374e1000125c8b5","6573617f270241e5da3d355d","6576c090d4df4e86c7ffd960","721","./stimuli//pack_morph_shapes_1/cat_2/diff_3/ex_2_3_17.gif","arrowleft","response","ArrowRight","17","2","3","test","false",""
"","","","","","html-keyboard-response","185","200168","0.0-7.49-2.49","59cbc66c4374e1000125c8b5","6573617f270241e5da3d355d","6576c090d4df4e86c7ffd960","null","<p> <font color=""red"" size=""5vw""> Wrong category! </font> <br> <br> <font color=""red"" size=""8vw""> - $0.05 </font> </p>","null","feedback","","","","","","","2.46"
"","","","","","html-keyboard-response","186","200637","0.0-7.50-0.50","59cbc66c4374e1000125c8b5","6573617f270241e5da3d355d","6576c090d4df4e86c7ffd960","468","
            
        <div style=""text-align: center; position: fixed; top: 5vh; left: 40vw;"">
            <div style=""margin:0 auto; width: 20vw; top: 8vh; font-size: 2vw""> 
            <font color=""green""> Bonus : $2.46 </font>
            </div>
        </div>
    
            <div> Please press any key to continue to the next movie.</div>
        ","arrowleft","ITI","","","","","","",""
"","","","","","html-keyboard-response","187","201394","0.0-7.50-1.50","59cbc66c4374e1000125c8b5","6573617f270241e5da3d355d","6576c090d4df4e86c7ffd960","718","./stimuli//pack_morph_shapes_1/cat_2/diff_3/ex_2_3_2.gif","arrowright","response","ArrowRight","2","2","3","test","true",""
"","","","","","html-keyboard-response","188","202912","0.0-7.50-2.50","59cbc66c4374e1000125c8b5","6573617f270241e5da3d355d","6576c090d4df4e86c7ffd960","null","<p> <font color=""green"" size=""5vw""> Correct category! </font> <br> <br> <font color=""green"" size=""8vw""> + $0.07 </font> </p>","null","feedback","","","","","","","2.53"
"","","","","","html-keyboard-response","189","203381","0.0-7.51-0.51","59cbc66c4374e1000125c8b5","6573617f270241e5da3d355d","6576c090d4df4e86c7ffd960","468","
            
        <div style=""text-align: center; position: fixed; top: 5vh; left: 40vw;"">
            <div style=""margin:0 auto; width: 20vw; top: 8vh; font-size: 2vw""> 
            <font color=""green""> Bonus : $2.53 </font>
            </div>
        </div>
    
            <div> Please press any key to continue to the next movie.</div>
        ","arrowleft","ITI","","","","","","",""
"","","","","","html-keyboard-response","190","203887","0.0-7.51-1.51","59cbc66c4374e1000125c8b5","6573617f270241e5da3d355d","6576c090d4df4e86c7ffd960","504","./stimuli//pack_morph_shapes_1/cat_2/diff_3/ex_2_3_2.gif","arrowright","response","ArrowRight","2","2","3","test","true",""
"","","","","","html-keyboard-response","191","205404","0.0-7.51-2.51","59cbc66c4374e1000125c8b5","6573617f270241e5da3d355d","6576c090d4df4e86c7ffd960","null","<p> <font color=""green"" size=""5vw""> Correct category! </font> <br> <br> <font color=""green"" size=""8vw""> + $0.08 </font> </p>","null","feedback","","","","","","","2.61"
"","","","","","html-keyboard-response","192","205702","0.0-7.52-0.52","59cbc66c4374e1000125c8b5","6573617f270241e5da3d355d","6576c090d4df4e86c7ffd960","294","
            
        <div style=""text-align: center; position: fixed; top: 5vh; left: 40vw;"">
            <div style=""margin:0 auto; width: 20vw; top: 8vh; font-size: 2vw""> 
            <font color=""green""> Bonus : $2.61 </font>
            </div>
        </div>
    
            <div> Please press any key to continue to the next movie.</div>
        ","arrowleft","ITI","","","","","","",""
"","","","","","html-keyboard-response","193","206581","0.0-7.52-1.52","59cbc66c4374e1000125c8b5","6573617f270241e5da3d355d","6576c090d4df4e86c7ffd960","877","./stimuli//pack_morph_shapes_1/cat_2/diff_3/ex_2_3_5.gif","arrowleft","response","ArrowRight","5","2","3","test","false",""
"","","","","","html-keyboard-response","194","208088","0.0-7.52-2.52","59cbc66c4374e1000125c8b5","6573617f270241e5da3d355d","6576c090d4df4e86c7ffd960","null","<p> <font color=""red"" size=""5vw""> Wrong category! </font> <br> <br> <font color=""red"" size=""8vw""> - $0.05 </font> </p>","null","feedback","","","","","","","2.56"
"","","","","","html-keyboard-response","195","208355","0.0-7.53-0.53","59cbc66c4374e1000125c8b5","6573617f270241e5da3d355d","6576c090d4df4e86c7ffd960","265","
            
        <div style=""text-align: center; position: fixed; top: 5vh; left: 40vw;"">
            <div style=""margin:0 auto; width: 20vw; top: 8vh; font-size: 2vw""> 
            <font color=""green""> Bonus : $2.56 </font>
            </div>
        </div>
    
            <div> Please press any key to continue to the next movie.</div>
        ","arrowleft","ITI","","","","","","",""
"","","","","","html-keyboard-response","196","209007","0.0-7.53-1.53","59cbc66c4374e1000125c8b5","6573617f270241e5da3d355d","6576c090d4df4e86c7ffd960","650","./stimuli//pack_morph_shapes_1/cat_2/diff_3/ex_2_3_13.gif","arrowleft","response","ArrowRight","13","2","3","test","false",""
"","","","","","html-keyboard-response","197","210514","0.0-7.53-2.53","59cbc66c4374e1000125c8b5","6573617f270241e5da3d355d","6576c090d4df4e86c7ffd960","null","<p> <font color=""red"" size=""5vw""> Wrong category! </font> <br> <br> <font color=""red"" size=""8vw""> - $0.05 </font> </p>","null","feedback","","","","","","","2.51"
"","","","","","html-keyboard-response","198","210894","0.0-7.54-0.54","59cbc66c4374e1000125c8b5","6573617f270241e5da3d355d","6576c090d4df4e86c7ffd960","377","
            
        <div style=""text-align: center; position: fixed; top: 5vh; left: 40vw;"">
            <div style=""margin:0 auto; width: 20vw; top: 8vh; font-size: 2vw""> 
            <font color=""green""> Bonus : $2.51 </font>
            </div>
        </div>
    
            <div> Please press any key to continue to the next movie.</div>
        ","arrowleft","ITI","","","","","","",""
"","","","","","html-keyboard-response","199","212239","0.0-7.54-1.54","59cbc66c4374e1000125c8b5","6573617f270241e5da3d355d","6576c090d4df4e86c7ffd960","1343","./stimuli//pack_morph_shapes_1/cat_2/diff_2/ex_2_2_15.gif","arrowright","response","ArrowRight","15","2","2","test","true",""
"","","","","","html-keyboard-response","200","213750","0.0-7.54-2.54","59cbc66c4374e1000125c8b5","6573617f270241e5da3d355d","6576c090d4df4e86c7ffd960","null","<p> <font color=""green"" size=""5vw""> Correct category! </font> <br> <br> <font color=""green"" size=""8vw""> + $0.05 </font> </p>","null","feedback","","","","","","","2.56"
"","","","","","html-keyboard-response","201","214060","0.0-7.55-0.55","59cbc66c4374e1000125c8b5","6573617f270241e5da3d355d","6576c090d4df4e86c7ffd960","309","
            
        <div style=""text-align: center; position: fixed; top: 5vh; left: 40vw;"">
            <div style=""margin:0 auto; width: 20vw; top: 8vh; font-size: 2vw""> 
            <font color=""green""> Bonus : $2.56 </font>
            </div>
        </div>
    
            <div> Please press any key to continue to the next movie.</div>
        ","arrowleft","ITI","","","","","","",""
"","","","","","html-keyboard-response","202","214751","0.0-7.55-1.55","59cbc66c4374e1000125c8b5","6573617f270241e5da3d355d","6576c090d4df4e86c7ffd960","688","./stimuli//pack_morph_shapes_1/cat_1/diff_2/ex_1_2_3.gif","arrowleft","response","ArrowLeft","3","1","2","test","true",""
"","","","","","html-keyboard-response","203","216254","0.0-7.55-2.55","59cbc66c4374e1000125c8b5","6573617f270241e5da3d355d","6576c090d4df4e86c7ffd960","null","<p> <font color=""green"" size=""5vw""> Correct category! </font> <br> <br> <font color=""green"" size=""8vw""> + $0.07 </font> </p>","null","feedback","","","","","","","2.63"
"","","","","","html-keyboard-response","204","216583","0.0-7.56-0.56","59cbc66c4374e1000125c8b5","6573617f270241e5da3d355d","6576c090d4df4e86c7ffd960","327","
            
        <div style=""text-align: center; position: fixed; top: 5vh; left: 40vw;"">
            <div style=""margin:0 auto; width: 20vw; top: 8vh; font-size: 2vw""> 
            <font color=""green""> Bonus : $2.63 </font>
            </div>
        </div>
    
            <div> Please press any key to continue to the next movie.</div>
        ","arrowleft","ITI","","","","","","",""
"","","","","","html-keyboard-response","205","217411","0.0-7.56-1.56","59cbc66c4374e1000125c8b5","6573617f270241e5da3d355d","6576c090d4df4e86c7ffd960","826","./stimuli//pack_morph_shapes_1/cat_2/diff_2/ex_2_2_10.gif","arrowleft","response","ArrowRight","10","2","2","test","false",""
"","","","","","html-keyboard-response","206","218919","0.0-7.56-2.56","59cbc66c4374e1000125c8b5","6573617f270241e5da3d355d","6576c090d4df4e86c7ffd960","null","<p> <font color=""red"" size=""5vw""> Wrong category! </font> <br> <br> <font color=""red"" size=""8vw""> - $0.05 </font> </p>","null","feedback","","","","","","","2.58"
"","","","","","html-keyboard-response","207","219323","0.0-7.57-0.57","59cbc66c4374e1000125c8b5","6573617f270241e5da3d355d","6576c090d4df4e86c7ffd960","394","
            
        <div style=""text-align: center; position: fixed; top: 5vh; left: 40vw;"">
            <div style=""margin:0 auto; width: 20vw; top: 8vh; font-size: 2vw""> 
            <font color=""green""> Bonus : $2.58 </font>
            </div>
        </div>
    
            <div> Please press any key to continue to the next movie.</div>
        ","arrowleft","ITI","","","","","","",""
"","","","","","html-keyboard-response","208","220004","0.0-7.57-1.57","59cbc66c4374e1000125c8b5","6573617f270241e5da3d355d","6576c090d4df4e86c7ffd960","679","./stimuli//pack_morph_shapes_1/cat_1/diff_2/ex_1_2_15.gif","arrowleft","response","ArrowLeft","15","1","2","test","true",""
"","","","","","html-keyboard-response","209","221516","0.0-7.57-2.57","59cbc66c4374e1000125c8b5","6573617f270241e5da3d355d","6576c090d4df4e86c7ffd960","null","<p> <font color=""green"" size=""5vw""> Correct category! </font> <br> <br> <font color=""green"" size=""8vw""> + $0.07 </font> </p>","null","feedback","","","","","","","2.65"
"","","","","","html-keyboard-response","210","221792","0.0-7.58-0.58","59cbc66c4374e1000125c8b5","6573617f270241e5da3d355d","6576c090d4df4e86c7ffd960","274","
            
        <div style=""text-align: center; position: fixed; top: 5vh; left: 40vw;"">
            <div style=""margin:0 auto; width: 20vw; top: 8vh; font-size: 2vw""> 
            <font color=""green""> Bonus : $2.65 </font>
            </div>
        </div>
    
            <div> Please press any key to continue to the next movie.</div>
        ","arrowleft","ITI","","","","","","",""
"","","","","","html-keyboard-response","211","222382","0.0-7.58-1.58","59cbc66c4374e1000125c8b5","6573617f270241e5da3d355d","6576c090d4df4e86c7ffd960","589","./stimuli//pack_morph_shapes_1/cat_2/diff_2/ex_2_2_3.gif","arrowright","response","ArrowRight","3","2","2","test","true",""
"","","","","","html-keyboard-response","212","223897","0.0-7.58-2.58","59cbc66c4374e1000125c8b5","6573617f270241e5da3d355d","6576c090d4df4e86c7ffd960","null","<p> <font color=""green"" size=""5vw""> Correct category! </font> <br> <br> <font color=""green"" size=""8vw""> + $0.07 </font> </p>","null","feedback","","","","","","","2.72"
"","","","","","html-keyboard-response","213","224229","0.0-7.59-0.59","59cbc66c4374e1000125c8b5","6573617f270241e5da3d355d","6576c090d4df4e86c7ffd960","320","
            
        <div style=""text-align: center; position: fixed; top: 5vh; left: 40vw;"">
            <div style=""margin:0 auto; width: 20vw; top: 8vh; font-size: 2vw""> 
            <font color=""green""> Bonus : $2.72 </font>
            </div>
        </div>
    
            <div> Please press any key to continue to the next movie.</div>
        ","arrowleft","ITI","","","","","","",""
"","","","","","html-keyboard-response","214","224823","0.0-7.59-1.59","59cbc66c4374e1000125c8b5","6573617f270241e5da3d355d","6576c090d4df4e86c7ffd960","590","./stimuli//pack_morph_shapes_1/cat_1/diff_3/ex_1_3_2.gif","arrowleft","response","ArrowLeft","2","1","3","test","true",""
"","","","","","html-keyboard-response","215","226324","0.0-7.59-2.59","59cbc66c4374e1000125c8b5","6573617f270241e5da3d355d","6576c090d4df4e86c7ffd960","null","<p> <font color=""green"" size=""5vw""> Correct category! </font> <br> <br> <font color=""green"" size=""8vw""> + $0.07 </font> </p>","null","feedback","","","","","","","2.79"
"","","","","","html-keyboard-response","216","226637","0.0-7.60-0.60","59cbc66c4374e1000125c8b5","6573617f270241e5da3d355d","6576c090d4df4e86c7ffd960","312","
            
        <div style=""text-align: center; position: fixed; top: 5vh; left: 40vw;"">
            <div style=""margin:0 auto; width: 20vw; top: 8vh; font-size: 2vw""> 
            <font color=""green""> Bonus : $2.79 </font>
            </div>
        </div>
    
            <div> Please press any key to continue to the next movie.</div>
        ","arrowleft","ITI","","","","","","",""
"","","","","","html-keyboard-response","217","227435","0.0-7.60-1.60","59cbc66c4374e1000125c8b5","6573617f270241e5da3d355d","6576c090d4df4e86c7ffd960","795","./stimuli//pack_morph_shapes_1/cat_1/diff_3/ex_1_3_17.gif","arrowleft","response","ArrowLeft","17","1","3","test","true",""
"","","","","","html-keyboard-response","218","228938","0.0-7.60-2.60","59cbc66c4374e1000125c8b5","6573617f270241e5da3d355d","6576c090d4df4e86c7ffd960","null","<p> <font color=""green"" size=""5vw""> Correct category! </font> <br> <br> <font color=""green"" size=""8vw""> + $0.07 </font> </p>","null","feedback","","","","","","","2.86"
"","","","","","html-keyboard-response","219","229404","0.0-7.61-0.61","59cbc66c4374e1000125c8b5","6573617f270241e5da3d355d","6576c090d4df4e86c7ffd960","465","
            
        <div style=""text-align: center; position: fixed; top: 5vh; left: 40vw;"">
            <div style=""margin:0 auto; width: 20vw; top: 8vh; font-size: 2vw""> 
            <font color=""green""> Bonus : $2.86 </font>
            </div>
        </div>
    
            <div> Please press any key to continue to the next movie.</div>
        ","arrowleft","ITI","","","","","","",""
"","","","","","html-keyboard-response","220","230043","0.0-7.61-1.61","59cbc66c4374e1000125c8b5","6573617f270241e5da3d355d","6576c090d4df4e86c7ffd960","637","./stimuli//pack_morph_shapes_1/cat_1/diff_3/ex_1_3_15.gif","arrowleft","response","ArrowLeft","15","1","3","test","true",""
"","","","","","html-keyboard-response","221","231547","0.0-7.61-2.61","59cbc66c4374e1000125c8b5","6573617f270241e5da3d355d","6576c090d4df4e86c7ffd960","null","<p> <font color=""green"" size=""5vw""> Correct category! </font> <br> <br> <font color=""green"" size=""8vw""> + $0.07 </font> </p>","null","feedback","","","","","","","2.93"
"","","","","","html-keyboard-response","222","231847","0.0-7.62-0.62","59cbc66c4374e1000125c8b5","6573617f270241e5da3d355d","6576c090d4df4e86c7ffd960","298","
            
        <div style=""text-align: center; position: fixed; top: 5vh; left: 40vw;"">
            <div style=""margin:0 auto; width: 20vw; top: 8vh; font-size: 2vw""> 
            <font color=""green""> Bonus : $2.93 </font>
            </div>
        </div>
    
            <div> Please press any key to continue to the next movie.</div>
        ","arrowleft","ITI","","","","","","",""
"","","","","","html-keyboard-response","223","232566","0.0-7.62-1.62","59cbc66c4374e1000125c8b5","6573617f270241e5da3d355d","6576c090d4df4e86c7ffd960","716","./stimuli//pack_morph_shapes_1/cat_2/diff_3/ex_2_3_17.gif","arrowleft","response","ArrowRight","17","2","3","test","false",""
"","","","","","html-keyboard-response","224","234069","0.0-7.62-2.62","59cbc66c4374e1000125c8b5","6573617f270241e5da3d355d","6576c090d4df4e86c7ffd960","null","<p> <font color=""red"" size=""5vw""> Wrong category! </font> <br> <br> <font color=""red"" size=""8vw""> - $0.05 </font> </p>","null","feedback","","","","","","","2.88"
"","","","","","html-keyboard-response","225","234357","0.0-7.63-0.63","59cbc66c4374e1000125c8b5","6573617f270241e5da3d355d","6576c090d4df4e86c7ffd960","285","
            
        <div style=""text-align: center; position: fixed; top: 5vh; left: 40vw;"">
            <div style=""margin:0 auto; width: 20vw; top: 8vh; font-size: 2vw""> 
            <font color=""green""> Bonus : $2.88 </font>
            </div>
        </div>
    
            <div> Please press any key to continue to the next movie.</div>
        ","arrowleft","ITI","","","","","","",""
"","","","","","html-keyboard-response","226","235025","0.0-7.63-1.63","59cbc66c4374e1000125c8b5","6573617f270241e5da3d355d","6576c090d4df4e86c7ffd960","666","./stimuli//pack_morph_shapes_1/cat_2/diff_3/ex_2_3_7.gif","arrowright","response","ArrowRight","7","2","3","test","true",""
"","","","","","html-keyboard-response","227","236640","0.0-7.63-2.63","59cbc66c4374e1000125c8b5","6573617f270241e5da3d355d","6576c090d4df4e86c7ffd960","null","<p> <font color=""green"" size=""5vw""> Correct category! </font> <br> <br> <font color=""green"" size=""8vw""> + $0.07 </font> </p>","null","feedback","","","","","","","2.95"
"","","","","","html-keyboard-response","228","236934","0.0-7.64-0.64","59cbc66c4374e1000125c8b5","6573617f270241e5da3d355d","6576c090d4df4e86c7ffd960","293","
            
        <div style=""text-align: center; position: fixed; top: 5vh; left: 40vw;"">
            <div style=""margin:0 auto; width: 20vw; top: 8vh; font-size: 2vw""> 
            <font color=""green""> Bonus : $2.95 </font>
            </div>
        </div>
    
            <div> Please press any key to continue to the next movie.</div>
        ","arrowleft","ITI","","","","","","",""
"","","","","","html-keyboard-response","229","237484","0.0-7.64-1.64","59cbc66c4374e1000125c8b5","6573617f270241e5da3d355d","6576c090d4df4e86c7ffd960","548","./stimuli//pack_morph_shapes_1/cat_2/diff_4/ex_2_4_2.gif","arrowright","response","ArrowRight","2","2","4","test","true",""
"","","","","","html-keyboard-response","230","238996","0.0-7.64-2.64","59cbc66c4374e1000125c8b5","6573617f270241e5da3d355d","6576c090d4df4e86c7ffd960","null","<p> <font color=""green"" size=""5vw""> Correct category! </font> <br> <br> <font color=""green"" size=""8vw""> + $0.08 </font> </p>","null","feedback","","","","","","","3.03"
"","","","","","html-keyboard-response","231","239272","0.0-7.65-0.65","59cbc66c4374e1000125c8b5","6573617f270241e5da3d355d","6576c090d4df4e86c7ffd960","274","
            
        <div style=""text-align: center; position: fixed; top: 5vh; left: 40vw;"">
            <div style=""margin:0 auto; width: 20vw; top: 8vh; font-size: 2vw""> 
            <font color=""green""> Bonus : $3.03 </font>
            </div>
        </div>
    
            <div> Please press any key to continue to the next movie.</div>
        ","arrowleft","ITI","","","","","","",""
"","","","","","html-keyboard-response","232","239950","0.0-7.65-1.65","59cbc66c4374e1000125c8b5","6573617f270241e5da3d355d","6576c090d4df4e86c7ffd960","676","./stimuli//pack_morph_shapes_1/cat_2/diff_4/ex_2_4_8.gif","arrowleft","response","ArrowRight","8","2","4","test","false",""
"","","","","","html-keyboard-response","233","241462","0.0-7.65-2.65","59cbc66c4374e1000125c8b5","6573617f270241e5da3d355d","6576c090d4df4e86c7ffd960","null","<p> <font color=""red"" size=""5vw""> Wrong category! </font> <br> <br> <font color=""red"" size=""8vw""> - $0.05 </font> </p>","null","feedback","","","","","","","2.98"
"","","","","","html-keyboard-response","234","242021","0.0-7.66-0.66","59cbc66c4374e1000125c8b5","6573617f270241e5da3d355d","6576c090d4df4e86c7ffd960","556","
            
        <div style=""text-align: center; position: fixed; top: 5vh; left: 40vw;"">
            <div style=""margin:0 auto; width: 20vw; top: 8vh; font-size: 2vw""> 
            <font color=""green""> Bonus : $2.98 </font>
            </div>
        </div>
    
            <div> Please press any key to continue to the next movie.</div>
        ","arrowleft","ITI","","","","","","",""
"","","","","","html-keyboard-response","235","242543","0.0-7.66-1.66","59cbc66c4374e1000125c8b5","6573617f270241e5da3d355d","6576c090d4df4e86c7ffd960","521","./stimuli//pack_morph_shapes_1/cat_1/diff_4/ex_1_4_1.gif","arrowleft","response","ArrowLeft","1","1","4","test","true",""
"","","","","","html-keyboard-response","236","244045","0.0-7.66-2.66","59cbc66c4374e1000125c8b5","6573617f270241e5da3d355d","6576c090d4df4e86c7ffd960","null","<p> <font color=""green"" size=""5vw""> Correct category! </font> <br> <br> <font color=""green"" size=""8vw""> + $0.08 </font> </p>","null","feedback","","","","","","","3.06"
"","","","","","html-keyboard-response","237","244489","0.0-7.67-0.67","59cbc66c4374e1000125c8b5","6573617f270241e5da3d355d","6576c090d4df4e86c7ffd960","442","
            
        <div style=""text-align: center; position: fixed; top: 5vh; left: 40vw;"">
            <div style=""margin:0 auto; width: 20vw; top: 8vh; font-size: 2vw""> 
            <font color=""green""> Bonus : $3.06 </font>
            </div>
        </div>
    
            <div> Please press any key to continue to the next movie.</div>
        ","arrowleft","ITI","","","","","","",""
"","","","","","html-keyboard-response","238","245258","0.0-7.67-1.67","59cbc66c4374e1000125c8b5","6573617f270241e5da3d355d","6576c090d4df4e86c7ffd960","767","./stimuli//pack_morph_shapes_1/cat_2/diff_4/ex_2_4_6.gif","arrowright","response","ArrowRight","6","2","4","test","true",""
"","","","","","html-keyboard-response","239","246760","0.0-7.67-2.67","59cbc66c4374e1000125c8b5","6573617f270241e5da3d355d","6576c090d4df4e86c7ffd960","null","<p> <font color=""green"" size=""5vw""> Correct category! </font> <br> <br> <font color=""green"" size=""8vw""> + $0.07 </font> </p>","null","feedback","","","","","","","3.13"
"","","","","","html-keyboard-response","240","247044","0.0-7.68-0.68","59cbc66c4374e1000125c8b5","6573617f270241e5da3d355d","6576c090d4df4e86c7ffd960","282","
            
        <div style=""text-align: center; position: fixed; top: 5vh; left: 40vw;"">
            <div style=""margin:0 auto; width: 20vw; top: 8vh; font-size: 2vw""> 
            <font color=""green""> Bonus : $3.13 </font>
            </div>
        </div>
    
            <div> Please press any key to continue to the next movie.</div>
        ","arrowleft","ITI","","","","","","",""
"","","","","","html-keyboard-response","241","247789","0.0-7.68-1.68","59cbc66c4374e1000125c8b5","6573617f270241e5da3d355d","6576c090d4df4e86c7ffd960","743","./stimuli//pack_morph_shapes_1/cat_1/diff_4/ex_1_4_13.gif","arrowleft","response","ArrowLeft","13","1","4","test","true",""
"","","","","","html-keyboard-response","242","249292","0.0-7.68-2.68","59cbc66c4374e1000125c8b5","6573617f270241e5da3d355d","6576c090d4df4e86c7ffd960","null","<p> <font color=""green"" size=""5vw""> Correct category! </font> <br> <br> <font color=""green"" size=""8vw""> + $0.07 </font> </p>","null","feedback","","","","","","","3.2"
"","","","","","html-keyboard-response","243","249626","0.0-7.69-0.69","59cbc66c4374e1000125c8b5","6573617f270241e5da3d355d","6576c090d4df4e86c7ffd960","332","
            
        <div style=""text-align: center; position: fixed; top: 5vh; left: 40vw;"">
            <div style=""margin:0 auto; width: 20vw; top: 8vh; font-size: 2vw""> 
            <font color=""green""> Bonus : $3.2 </font>
            </div>
        </div>
    
            <div> Please press any key to continue to the next movie.</div>
        ","arrowleft","ITI","","","","","","",""
"","","","","","html-keyboard-response","244","250306","0.0-7.69-1.69","59cbc66c4374e1000125c8b5","6573617f270241e5da3d355d","6576c090d4df4e86c7ffd960","678","./stimuli//pack_morph_shapes_1/cat_2/diff_5/ex_2_5_17.gif","arrowright","response","ArrowRight","17","2","5","test","true",""
"","","","","","html-keyboard-response","245","251818","0.0-7.69-2.69","59cbc66c4374e1000125c8b5","6573617f270241e5da3d355d","6576c090d4df4e86c7ffd960","null","<p> <font color=""green"" size=""5vw""> Correct category! </font> <br> <br> <font color=""green"" size=""8vw""> + $0.07 </font> </p>","null","feedback","","","","","","","3.27"
"","","","","","html-keyboard-response","246","252114","0.0-7.70-0.70","59cbc66c4374e1000125c8b5","6573617f270241e5da3d355d","6576c090d4df4e86c7ffd960","293","
            
        <div style=""text-align: center; position: fixed; top: 5vh; left: 40vw;"">
            <div style=""margin:0 auto; width: 20vw; top: 8vh; font-size: 2vw""> 
            <font color=""green""> Bonus : $3.27 </font>
            </div>
        </div>
    
            <div> Please press any key to continue to the next movie.</div>
        ","arrowleft","ITI","","","","","","",""
"","","","","","html-keyboard-response","247","252756","0.0-7.70-1.70","59cbc66c4374e1000125c8b5","6573617f270241e5da3d355d","6576c090d4df4e86c7ffd960","641","./stimuli//pack_morph_shapes_1/cat_1/diff_5/ex_1_5_7.gif","arrowleft","response","ArrowLeft","7","1","5","test","true",""
"","","","","","html-keyboard-response","248","254270","0.0-7.70-2.70","59cbc66c4374e1000125c8b5","6573617f270241e5da3d355d","6576c090d4df4e86c7ffd960","null","<p> <font color=""green"" size=""5vw""> Correct category! </font> <br> <br> <font color=""green"" size=""8vw""> + $0.07 </font> </p>","null","feedback","","","","","","","3.34"
"","","","","","html-keyboard-response","249","254636","0.0-7.71-0.71","59cbc66c4374e1000125c8b5","6573617f270241e5da3d355d","6576c090d4df4e86c7ffd960","366","
            
        <div style=""text-align: center; position: fixed; top: 5vh; left: 40vw;"">
            <div style=""margin:0 auto; width: 20vw; top: 8vh; font-size: 2vw""> 
            <font color=""green""> Bonus : $3.34 </font>
            </div>
        </div>
    
            <div> Please press any key to continue to the next movie.</div>
        ","arrowleft","ITI","","","","","","",""
"","","","","","html-keyboard-response","250","255179","0.0-7.71-1.71","59cbc66c4374e1000125c8b5","6573617f270241e5da3d355d","6576c090d4df4e86c7ffd960","539","./stimuli//pack_morph_shapes_1/cat_2/diff_5/ex_2_5_11.gif","arrowright","response","ArrowRight","11","2","5","test","true",""
"","","","","","html-keyboard-response","251","256684","0.0-7.71-2.71","59cbc66c4374e1000125c8b5","6573617f270241e5da3d355d","6576c090d4df4e86c7ffd960","null","<p> <font color=""green"" size=""5vw""> Correct category! </font> <br> <br> <font color=""green"" size=""8vw""> + $0.08 </font> </p>","null","feedback","","","","","","","3.42"
"","","","","","html-keyboard-response","252","256944","0.0-7.72-0.72","59cbc66c4374e1000125c8b5","6573617f270241e5da3d355d","6576c090d4df4e86c7ffd960","259","
            
        <div style=""text-align: center; position: fixed; top: 5vh; left: 40vw;"">
            <div style=""margin:0 auto; width: 20vw; top: 8vh; font-size: 2vw""> 
            <font color=""green""> Bonus : $3.42 </font>
            </div>
        </div>
    
            <div> Please press any key to continue to the next movie.</div>
        ","arrowleft","ITI","","","","","","",""
"","","","","","html-keyboard-response","253","257414","0.0-7.72-1.72","59cbc66c4374e1000125c8b5","6573617f270241e5da3d355d","6576c090d4df4e86c7ffd960","469","./stimuli//pack_morph_shapes_1/cat_2/diff_5/ex_2_5_11.gif","arrowright","response","ArrowRight","11","2","5","test","true",""
