"success","timeout","failed_images","failed_audio","failed_video","trial_type","trial_index","time_elapsed","internal_node_id","subject_id","study_id","session_id","rt","stimulus","response","task","correct_response","exemplar_ID","category","difficulty","phase","correct","bonus"
"true","false","[]","[]","[]","preload","0","4","0.0-0.0","610f6ad52d97d9a654d5c14c","6573617f270241e5da3d355d","6576c0d96b1b9a91cba7a879","","","","","","","","","","",""
"","","","","","html-keyboard-response","1","6667","0.0-1.0","610f6ad52d97d9a654d5c14c","6573617f270241e5da3d355d","6576c0d96b1b9a91cba7a879","6662","Welcome to the Category Learning experiment! Press any key to continue."," ","welcome","","","","","","",""
"","","","","","html-keyboard-response","2","29651","0.0-2.0","610f6ad52d97d9a654d5c14c","6573617f270241e5da3d355d","6576c0d96b1b9a91cba7a879","22982","
            <p>You will be shown movies. Each movie contains a sequence of shapes changing form. 
            <br> Some shapes are category A, some are category B. <b> Within a single movie, all shapes belong to the same category. </b>
            <br> You will not know in advance which category the shapes of each movie belong to.</p>
            <p> While you watch a movie, you have to guess the category that its shapes belong to <b>(left arrow for category A, right arrow for category B)</b></p>
            <p> After you choose, the screen will show you whether you were correct or not.</p>
            <p>Press any key to continue.</p>
            "," ","introduction_1","","","","","","",""
"","","","","","html-keyboard-response","3","39312","0.0-3.0","610f6ad52d97d9a654d5c14c","6573617f270241e5da3d355d","6576c0d96b1b9a91cba7a879","9660","
              <p><b>You will receive a bonus payment for each correct answer! The faster you answer the higher the bonus will be!</b></p>
              <p> So you can increase your bonus by guessing as quickly and accurately as possible.</p>
              <p><b>You will lose $0.05 from your bonus payment for each incorrect answer! The bonus can not become less that $0.</b> </p>
              <p>Press any key to continue.</p>
              "," ","introduction_2","","","","","","",""
"","","","","","html-keyboard-response","4","45398","0.0-4.0","610f6ad52d97d9a654d5c14c","6573617f270241e5da3d355d","6576c0d96b1b9a91cba7a879","6085","
            <p> <b>The first 10 trials are a practice round that will not count towards your bonus payment.</b></p>
            <p> You will be notified when practice finishes and the test begins. </p>
            <p> Press any key to begin the practice round.</p>
            "," ","introduction_3","","","","","","",""
"","","","","","html-keyboard-response","5","46548","0.0-5.0-0.0","610f6ad52d97d9a654d5c14c","6573617f270241e5da3d355d","6576c0d96b1b9a91cba7a879","1149","
            
        <div style=""text-align: center; position: fixed; top: 5vh; left: 40vw;"">
            <div style=""margin:0 auto; width: 20vw; top: 8vh; font-size: 2vw""> 
            <font color=""green""> Bonus : $0 </font>
            </div>
        </div>
    
            <div> Please press any key to continue to the next movie.</div>
        "," ","ITI","","","","","","",""
"","","","","","html-keyboard-response","6","50559","0.0-5.0-1.0","610f6ad52d97d9a654d5c14c","6573617f270241e5da3d355d","6576c0d96b1b9a91cba7a879","null","./stimuli//pack_morph_shapes_1/cat_2/diff_2/ex_2_2_9.gif","null","response","ArrowRight","9","2","2","train","false",""
"","","","","","html-keyboard-response","7","52075","0.0-5.0-2.0","610f6ad52d97d9a654d5c14c","6573617f270241e5da3d355d","6576c0d96b1b9a91cba7a879","null","<p> <font color=""red"" size=""5vw""> Time out! </font> <br> Please try to respond as quickly as possible. </p>","null","feedback","","","","","","","0"
"","","","","","html-keyboard-response","8","53231","0.0-5.0-0.1","610f6ad52d97d9a654d5c14c","6573617f270241e5da3d355d","6576c0d96b1b9a91cba7a879","1155","
            
        <div style=""text-align: center; position: fixed; top: 5vh; left: 40vw;"">
            <div style=""margin:0 auto; width: 20vw; top: 8vh; font-size: 2vw""> 
            <font color=""green""> Bonus : $0 </font>
            </div>
        </div>
    
            <div> Please press any key to continue to the next movie.</div>
        "," ","ITI","","","","","","",""
"","","","","","html-keyboard-response","9","55008","0.0-5.0-1.1","610f6ad52d97d9a654d5c14c","6573617f270241e5da3d355d","6576c0d96b1b9a91cba7a879","1775","./stimuli//pack_morph_shapes_1/cat_2/diff_1/ex_2_1_12.gif","arrowleft","response","ArrowRight","12","2","1","train","false",""
"","","","","","html-keyboard-response","10","56518","0.0-5.0-2.1","610f6ad52d97d9a654d5c14c","6573617f270241e5da3d355d","6576c0d96b1b9a91cba7a879","null","<p> <font color=""red"" size=""5vw""> Wrong category! </font> </p>","null","feedback","","","","","","","0"
"","","","","","html-keyboard-response","11","57688","0.0-5.0-0.2","610f6ad52d97d9a654d5c14c","6573617f270241e5da3d355d","6576c0d96b1b9a91cba7a879","1169","
            
        <div style=""text-align: center; position: fixed; top: 5vh; left: 40vw;"">
            <div style=""margin:0 auto; width: 20vw; top: 8vh; font-size: 2vw""> 
            <font color=""green""> Bonus : $0 </font>
            </div>
        </div>
    
            <div> Please press any key to continue to the next movie.</div>
        "," ","ITI","","","","","","",""
"","","","","","html-keyboard-response","12","58978","0.0-5.0-1.2","610f6ad52d97d9a654d5c14c","6573617f270241e5da3d355d","6576c0d96b1b9a91cba7a879","1289","./stimuli//pack_morph_shapes_1/cat_2/diff_1/ex_2_1_11.gif","arrowright","response","ArrowRight","11","2","1","train","true",""
"","","","","","html-keyboard-response","13","60482","0.0-5.0-2.2","610f6ad52d97d9a654d5c14c","6573617f270241e5da3d355d","6576c0d96b1b9a91cba7a879","null","<p> <font color=""green"" size=""5vw""> Correct category! </font> </p>","null","feedback","","","","","","","0"
"","","","","","html-keyboard-response","14","60742","0.0-5.0-0.3","610f6ad52d97d9a654d5c14c","6573617f270241e5da3d355d","6576c0d96b1b9a91cba7a879","259","
            
        <div style=""text-align: center; position: fixed; top: 5vh; left: 40vw;"">
            <div style=""margin:0 auto; width: 20vw; top: 8vh; font-size: 2vw""> 
            <font color=""green""> Bonus : $0 </font>
            </div>
        </div>
    
            <div> Please press any key to continue to the next movie.</div>
        "," ","ITI","","","","","","",""
"","","","","","html-keyboard-response","15","61637","0.0-5.0-1.3","610f6ad52d97d9a654d5c14c","6573617f270241e5da3d355d","6576c0d96b1b9a91cba7a879","895","./stimuli//pack_morph_shapes_1/cat_1/diff_1/ex_1_1_17.gif","arrowleft","response","ArrowLeft","17","1","1","train","true",""
"","","","","","html-keyboard-response","16","63145","0.0-5.0-2.3","610f6ad52d97d9a654d5c14c","6573617f270241e5da3d355d","6576c0d96b1b9a91cba7a879","null","<p> <font color=""green"" size=""5vw""> Correct category! </font> </p>","null","feedback","","","","","","","0"
"","","","","","html-keyboard-response","17","63640","0.0-5.0-0.4","610f6ad52d97d9a654d5c14c","6573617f270241e5da3d355d","6576c0d96b1b9a91cba7a879","494","
            
        <div style=""text-align: center; position: fixed; top: 5vh; left: 40vw;"">
            <div style=""margin:0 auto; width: 20vw; top: 8vh; font-size: 2vw""> 
            <font color=""green""> Bonus : $0 </font>
            </div>
        </div>
    
            <div> Please press any key to continue to the next movie.</div>
        "," ","ITI","","","","","","",""
"","","","","","html-keyboard-response","18","64680","0.0-5.0-1.4","610f6ad52d97d9a654d5c14c","6573617f270241e5da3d355d","6576c0d96b1b9a91cba7a879","1039","./stimuli//pack_morph_shapes_1/cat_1/diff_2/ex_1_2_2.gif","arrowright","response","ArrowLeft","2","1","2","train","false",""
"","","","","","html-keyboard-response","19","66193","0.0-5.0-2.4","610f6ad52d97d9a654d5c14c","6573617f270241e5da3d355d","6576c0d96b1b9a91cba7a879","null","<p> <font color=""red"" size=""5vw""> Wrong category! </font> </p>","null","feedback","","","","","","","0"
"","","","","","html-keyboard-response","20","66644","0.0-5.0-0.5","610f6ad52d97d9a654d5c14c","6573617f270241e5da3d355d","6576c0d96b1b9a91cba7a879","450","
            
        <div style=""text-align: center; position: fixed; top: 5vh; left: 40vw;"">
            <div style=""margin:0 auto; width: 20vw; top: 8vh; font-size: 2vw""> 
            <font color=""green""> Bonus : $0 </font>
            </div>
        </div>
    
            <div> Please press any key to continue to the next movie.</div>
        "," ","ITI","","","","","","",""
"","","","","","html-keyboard-response","21","68006","0.0-5.0-1.5","610f6ad52d97d9a654d5c14c","6573617f270241e5da3d355d","6576c0d96b1b9a91cba7a879","1361","./stimuli//pack_morph_shapes_1/cat_2/diff_1/ex_2_1_8.gif","arrowleft","response","ArrowRight","8","2","1","train","false",""
"","","","","","html-keyboard-response","22","69511","0.0-5.0-2.5","610f6ad52d97d9a654d5c14c","6573617f270241e5da3d355d","6576c0d96b1b9a91cba7a879","null","<p> <font color=""red"" size=""5vw""> Wrong category! </font> </p>","null","feedback","","","","","","","0"
"","","","","","html-keyboard-response","23","69992","0.0-5.0-0.6","610f6ad52d97d9a654d5c14c","6573617f270241e5da3d355d","6576c0d96b1b9a91cba7a879","480","
            
        <div style=""text-align: center; position: fixed; top: 5vh; left: 40vw;"">
            <div style=""margin:0 auto; width: 20vw; top: 8vh; font-size: 2vw""> 
            <font color=""green""> Bonus : $0 </font>
            </div>
        </div>
    
            <div> Please press any key to continue to the next movie.</div>
        "," ","ITI","","","","","","",""
"","","","","","html-keyboard-response","24","71435","0.0-5.0-1.6","610f6ad52d97d9a654d5c14c","6573617f270241e5da3d355d","6576c0d96b1b9a91cba7a879","1443","./stimuli//pack_morph_shapes_1/cat_1/diff_1/ex_1_1_15.gif","arrowright","response","ArrowLeft","15","1","1","train","false",""
"","","","","","html-keyboard-response","25","72938","0.0-5.0-2.6","610f6ad52d97d9a654d5c14c","6573617f270241e5da3d355d","6576c0d96b1b9a91cba7a879","null","<p> <font color=""red"" size=""5vw""> Wrong category! </font> </p>","null","feedback","","","","","","","0"
"","","","","","html-keyboard-response","26","73376","0.0-5.0-0.7","610f6ad52d97d9a654d5c14c","6573617f270241e5da3d355d","6576c0d96b1b9a91cba7a879","437","
            
        <div style=""text-align: center; position: fixed; top: 5vh; left: 40vw;"">
            <div style=""margin:0 auto; width: 20vw; top: 8vh; font-size: 2vw""> 
            <font color=""green""> Bonus : $0 </font>
            </div>
        </div>
    
            <div> Please press any key to continue to the next movie.</div>
        "," ","ITI","","","","","","",""
"","","","","","html-keyboard-response","27","74616","0.0-5.0-1.7","610f6ad52d97d9a654d5c14c","6573617f270241e5da3d355d","6576c0d96b1b9a91cba7a879","1239","./stimuli//pack_morph_shapes_1/cat_1/diff_2/ex_1_2_4.gif","arrowleft","response","ArrowLeft","4","1","2","train","true",""
"","","","","","html-keyboard-response","28","76131","0.0-5.0-2.7","610f6ad52d97d9a654d5c14c","6573617f270241e5da3d355d","6576c0d96b1b9a91cba7a879","null","<p> <font color=""green"" size=""5vw""> Correct category! </font> </p>","null","feedback","","","","","","","0"
"","","","","","html-keyboard-response","29","76671","0.0-5.0-0.8","610f6ad52d97d9a654d5c14c","6573617f270241e5da3d355d","6576c0d96b1b9a91cba7a879","540","
            
        <div style=""text-align: center; position: fixed; top: 5vh; left: 40vw;"">
            <div style=""margin:0 auto; width: 20vw; top: 8vh; font-size: 2vw""> 
            <font color=""green""> Bonus : $0 </font>
            </div>
        </div>
    
            <div> Please press any key to continue to the next movie.</div>
        "," ","ITI","","","","","","",""
"","","","","","html-keyboard-response","30","78283","0.0-5.0-1.8","610f6ad52d97d9a654d5c14c","6573617f270241e5da3d355d","6576c0d96b1b9a91cba7a879","1610","./stimuli//pack_morph_shapes_1/cat_2/diff_2/ex_2_2_13.gif","arrowright","response","ArrowRight","13","2","2","train","true",""
"","","","","","html-keyboard-response","31","79798","0.0-5.0-2.8","610f6ad52d97d9a654d5c14c","6573617f270241e5da3d355d","6576c0d96b1b9a91cba7a879","null","<p> <font color=""green"" size=""5vw""> Correct category! </font> </p>","null","feedback","","","","","","","0"
"","","","","","html-keyboard-response","32","80204","0.0-5.0-0.9","610f6ad52d97d9a654d5c14c","6573617f270241e5da3d355d","6576c0d96b1b9a91cba7a879","405","
            
        <div style=""text-align: center; position: fixed; top: 5vh; left: 40vw;"">
            <div style=""margin:0 auto; width: 20vw; top: 8vh; font-size: 2vw""> 
            <font color=""green""> Bonus : $0 </font>
            </div>
        </div>
    
            <div> Please press any key to continue to the next movie.</div>
        "," ","ITI","","","","","","",""
"","","","","","html-keyboard-response","33","81629","0.0-5.0-1.9","610f6ad52d97d9a654d5c14c","6573617f270241e5da3d355d","6576c0d96b1b9a91cba7a879","1424","./stimuli//pack_morph_shapes_1/cat_1/diff_1/ex_1_1_14.gif","arrowleft","response","ArrowLeft","14","1","1","train","true",""
"","","","","","html-keyboard-response","34","83144","0.0-5.0-2.9","610f6ad52d97d9a654d5c14c","6573617f270241e5da3d355d","6576c0d96b1b9a91cba7a879","null","<p> <font color=""green"" size=""5vw""> Correct category! </font> </p>","null","feedback","","","","","","","0"
"","","","","","html-keyboard-response","35","94778","0.0-6.0","610f6ad52d97d9a654d5c14c","6573617f270241e5da3d355d","6576c0d96b1b9a91cba7a879","11632","
            <b> <p> The practice round has finished.</p>
            <b> <p> For the rest of the experiment you will receive a bonus payment for each correct answer, which will be higher the faster you answer!</b></p>
            <b> </p> Also you will lose $0.05 from your bonus payment for each incorrect answer!</p>
            <p> Press any key to begin the test. </p>
            ","arrowdown","intermission","","","","","","",""
"","","","","","html-keyboard-response","36","95852","0.0-7.0-0.0","610f6ad52d97d9a654d5c14c","6573617f270241e5da3d355d","6576c0d96b1b9a91cba7a879","1073","
            
        <div style=""text-align: center; position: fixed; top: 5vh; left: 40vw;"">
            <div style=""margin:0 auto; width: 20vw; top: 8vh; font-size: 2vw""> 
            <font color=""green""> Bonus : $0 </font>
            </div>
        </div>
    
            <div> Please press any key to continue to the next movie.</div>
        ","arrowdown","ITI","","","","","","",""
"","","","","","html-keyboard-response","37","97202","0.0-7.0-1.0","610f6ad52d97d9a654d5c14c","6573617f270241e5da3d355d","6576c0d96b1b9a91cba7a879","1348","./stimuli//pack_morph_shapes_1/cat_2/diff_1/ex_2_1_7.gif","arrowright","response","ArrowRight","7","2","1","test","true",""
"","","","","","html-keyboard-response","38","98710","0.0-7.0-2.0","610f6ad52d97d9a654d5c14c","6573617f270241e5da3d355d","6576c0d96b1b9a91cba7a879","null","<p> <font color=""green"" size=""5vw""> Correct category! </font> <br> <br> <font color=""green"" size=""8vw""> + $0.05 </font> </p>","null","feedback","","","","","","","0.05"
"","","","","","html-keyboard-response","39","100113","0.0-7.1-0.1","610f6ad52d97d9a654d5c14c","6573617f270241e5da3d355d","6576c0d96b1b9a91cba7a879","1402","
            
        <div style=""text-align: center; position: fixed; top: 5vh; left: 40vw;"">
            <div style=""margin:0 auto; width: 20vw; top: 8vh; font-size: 2vw""> 
            <font color=""green""> Bonus : $0.05 </font>
            </div>
        </div>
    
            <div> Please press any key to continue to the next movie.</div>
        ","arrowleft","ITI","","","","","","",""
"","","","","","html-keyboard-response","40","101324","0.0-7.1-1.1","610f6ad52d97d9a654d5c14c","6573617f270241e5da3d355d","6576c0d96b1b9a91cba7a879","1209","./stimuli//pack_morph_shapes_1/cat_1/diff_1/ex_1_1_7.gif","arrowleft","response","ArrowLeft","7","1","1","test","true",""
"","","","","","html-keyboard-response","41","102827","0.0-7.1-2.1","610f6ad52d97d9a654d5c14c","6573617f270241e5da3d355d","6576c0d96b1b9a91cba7a879","null","<p> <font color=""green"" size=""5vw""> Correct category! </font> <br> <br> <font color=""green"" size=""8vw""> + $0.05 </font> </p>","null","feedback","","","","","","","0.1"
"","","","","","html-keyboard-response","42","103456","0.0-7.2-0.2","610f6ad52d97d9a654d5c14c","6573617f270241e5da3d355d","6576c0d96b1b9a91cba7a879","628","
            
        <div style=""text-align: center; position: fixed; top: 5vh; left: 40vw;"">
            <div style=""margin:0 auto; width: 20vw; top: 8vh; font-size: 2vw""> 
            <font color=""green""> Bonus : $0.1 </font>
            </div>
        </div>
    
            <div> Please press any key to continue to the next movie.</div>
        ","arrowdown","ITI","","","","","","",""
"","","","","","html-keyboard-response","43","104701","0.0-7.2-1.2","610f6ad52d97d9a654d5c14c","6573617f270241e5da3d355d","6576c0d96b1b9a91cba7a879","1243","./stimuli//pack_morph_shapes_1/cat_1/diff_1/ex_1_1_12.gif","arrowleft","response","ArrowLeft","12","1","1","test","true",""
"","","","","","html-keyboard-response","44","106211","0.0-7.2-2.2","610f6ad52d97d9a654d5c14c","6573617f270241e5da3d355d","6576c0d96b1b9a91cba7a879","null","<p> <font color=""green"" size=""5vw""> Correct category! </font> <br> <br> <font color=""green"" size=""8vw""> + $0.05 </font> </p>","null","feedback","","","","","","","0.15"
"","","","","","html-keyboard-response","45","106779","0.0-7.3-0.3","610f6ad52d97d9a654d5c14c","6573617f270241e5da3d355d","6576c0d96b1b9a91cba7a879","566","
            
        <div style=""text-align: center; position: fixed; top: 5vh; left: 40vw;"">
            <div style=""margin:0 auto; width: 20vw; top: 8vh; font-size: 2vw""> 
            <font color=""green""> Bonus : $0.15 </font>
            </div>
        </div>
    
            <div> Please press any key to continue to the next movie.</div>
        ","arrowdown","ITI","","","","","","",""
"","","","","","html-keyboard-response","46","108188","0.0-7.3-1.3","610f6ad52d97d9a654d5c14c","6573617f270241e5da3d355d","6576c0d96b1b9a91cba7a879","1408","./stimuli//pack_morph_shapes_1/cat_1/diff_1/ex_1_1_1.gif","arrowleft","response","ArrowLeft","1","1","1","test","true",""
"","","","","","html-keyboard-response","47","109700","0.0-7.3-2.3","610f6ad52d97d9a654d5c14c","6573617f270241e5da3d355d","6576c0d96b1b9a91cba7a879","null","<p> <font color=""green"" size=""5vw""> Correct category! </font> <br> <br> <font color=""green"" size=""8vw""> + $0.05 </font> </p>","null","feedback","","","","","","","0.2"
"","","","","","html-keyboard-response","48","110379","0.0-7.4-0.4","610f6ad52d97d9a654d5c14c","6573617f270241e5da3d355d","6576c0d96b1b9a91cba7a879","678","
            
        <div style=""text-align: center; position: fixed; top: 5vh; left: 40vw;"">
            <div style=""margin:0 auto; width: 20vw; top: 8vh; font-size: 2vw""> 
            <font color=""green""> Bonus : $0.2 </font>
            </div>
        </div>
    
            <div> Please press any key to continue to the next movie.</div>
        ","arrowdown","ITI","","","","","","",""
"","","","","","html-keyboard-response","49","111575","0.0-7.4-1.4","610f6ad52d97d9a654d5c14c","6573617f270241e5da3d355d","6576c0d96b1b9a91cba7a879","1194","./stimuli//pack_morph_shapes_1/cat_2/diff_1/ex_2_1_6.gif","arrowright","response","ArrowRight","6","2","1","test","true",""
"","","","","","html-keyboard-response","50","113075","0.0-7.4-2.4","610f6ad52d97d9a654d5c14c","6573617f270241e5da3d355d","6576c0d96b1b9a91cba7a879","null","<p> <font color=""green"" size=""5vw""> Correct category! </font> <br> <br> <font color=""green"" size=""8vw""> + $0.06 </font> </p>","null","feedback","","","","","","","0.26"
"","","","","","html-keyboard-response","51","113646","0.0-7.5-0.5","610f6ad52d97d9a654d5c14c","6573617f270241e5da3d355d","6576c0d96b1b9a91cba7a879","569","
            
        <div style=""text-align: center; position: fixed; top: 5vh; left: 40vw;"">
            <div style=""margin:0 auto; width: 20vw; top: 8vh; font-size: 2vw""> 
            <font color=""green""> Bonus : $0.26 </font>
            </div>
        </div>
    
            <div> Please press any key to continue to the next movie.</div>
        ","arrowdown","ITI","","","","","","",""
"","","","","","html-keyboard-response","52","114675","0.0-7.5-1.5","610f6ad52d97d9a654d5c14c","6573617f270241e5da3d355d","6576c0d96b1b9a91cba7a879","1028","./stimuli//pack_morph_shapes_1/cat_1/diff_2/ex_1_2_6.gif","arrowleft","response","ArrowLeft","6","1","2","test","true",""
"","","","","","html-keyboard-response","53","116178","0.0-7.5-2.5","610f6ad52d97d9a654d5c14c","6573617f270241e5da3d355d","6576c0d96b1b9a91cba7a879","null","<p> <font color=""green"" size=""5vw""> Correct category! </font> <br> <br> <font color=""green"" size=""8vw""> + $0.06 </font> </p>","null","feedback","","","","","","","0.32"
"","","","","","html-keyboard-response","54","116520","0.0-7.6-0.6","610f6ad52d97d9a654d5c14c","6573617f270241e5da3d355d","6576c0d96b1b9a91cba7a879","341","
            
        <div style=""text-align: center; position: fixed; top: 5vh; left: 40vw;"">
            <div style=""margin:0 auto; width: 20vw; top: 8vh; font-size: 2vw""> 
            <font color=""green""> Bonus : $0.32 </font>
            </div>
        </div>
    
            <div> Please press any key to continue to the next movie.</div>
        ","arrowdown","ITI","","","","","","",""
"","","","","","html-keyboard-response","55","117832","0.0-7.6-1.6","610f6ad52d97d9a654d5c14c","6573617f270241e5da3d355d","6576c0d96b1b9a91cba7a879","1310","./stimuli//pack_morph_shapes_1/cat_2/diff_2/ex_2_2_6.gif","arrowright","response","ArrowRight","6","2","2","test","true",""
"","","","","","html-keyboard-response","56","119336","0.0-7.6-2.6","610f6ad52d97d9a654d5c14c","6573617f270241e5da3d355d","6576c0d96b1b9a91cba7a879","null","<p> <font color=""green"" size=""5vw""> Correct category! </font> <br> <br> <font color=""green"" size=""8vw""> + $0.05 </font> </p>","null","feedback","","","","","","","0.37"
"","","","","","html-keyboard-response","57","119724","0.0-7.7-0.7","610f6ad52d97d9a654d5c14c","6573617f270241e5da3d355d","6576c0d96b1b9a91cba7a879","387","
            
        <div style=""text-align: center; position: fixed; top: 5vh; left: 40vw;"">
            <div style=""margin:0 auto; width: 20vw; top: 8vh; font-size: 2vw""> 
            <font color=""green""> Bonus : $0.37 </font>
            </div>
        </div>
    
            <div> Please press any key to continue to the next movie.</div>
        ","arrowdown","ITI","","","","","","",""
"","","","","","html-keyboard-response","58","120819","0.0-7.7-1.7","610f6ad52d97d9a654d5c14c","6573617f270241e5da3d355d","6576c0d96b1b9a91cba7a879","1094","./stimuli//pack_morph_shapes_1/cat_1/diff_2/ex_1_2_12.gif","arrowleft","response","ArrowLeft","12","1","2","test","true",""
"","","","","","html-keyboard-response","59","122331","0.0-7.7-2.7","610f6ad52d97d9a654d5c14c","6573617f270241e5da3d355d","6576c0d96b1b9a91cba7a879","null","<p> <font color=""green"" size=""5vw""> Correct category! </font> <br> <br> <font color=""green"" size=""8vw""> + $0.06 </font> </p>","null","feedback","","","","","","","0.43"
"","","","","","html-keyboard-response","60","122915","0.0-7.8-0.8","610f6ad52d97d9a654d5c14c","6573617f270241e5da3d355d","6576c0d96b1b9a91cba7a879","583","
            
        <div style=""text-align: center; position: fixed; top: 5vh; left: 40vw;"">
            <div style=""margin:0 auto; width: 20vw; top: 8vh; font-size: 2vw""> 
            <font color=""green""> Bonus : $0.43 </font>
            </div>
        </div>
    
            <div> Please press any key to continue to the next movie.</div>
        ","arrowdown","ITI","","","","","","",""
"","","","","","html-keyboard-response","61","124366","0.0-7.8-1.8","610f6ad52d97d9a654d5c14c","6573617f270241e5da3d355d","6576c0d96b1b9a91cba7a879","1450","./stimuli//pack_morph_shapes_1/cat_1/diff_2/ex_1_2_15.gif","arrowleft","response","ArrowLeft","15","1","2","test","true",""
"","","","","","html-keyboard-response","62","125876","0.0-7.8-2.8","610f6ad52d97d9a654d5c14c","6573617f270241e5da3d355d","6576c0d96b1b9a91cba7a879","null","<p> <font color=""green"" size=""5vw""> Correct category! </font> <br> <br> <font color=""green"" size=""8vw""> + $0.05 </font> </p>","null","feedback","","","","","","","0.48"
"","","","","","html-keyboard-response","63","126397","0.0-7.9-0.9","610f6ad52d97d9a654d5c14c","6573617f270241e5da3d355d","6576c0d96b1b9a91cba7a879","525","
            
        <div style=""text-align: center; position: fixed; top: 5vh; left: 40vw;"">
            <div style=""margin:0 auto; width: 20vw; top: 8vh; font-size: 2vw""> 
            <font color=""green""> Bonus : $0.48 </font>
            </div>
        </div>
    
            <div> Please press any key to continue to the next movie.</div>
        ","arrowdown","ITI","","","","","","",""
"","","","","","html-keyboard-response","64","127907","0.0-7.9-1.9","610f6ad52d97d9a654d5c14c","6573617f270241e5da3d355d","6576c0d96b1b9a91cba7a879","1508","./stimuli//pack_morph_shapes_1/cat_2/diff_2/ex_2_2_14.gif","arrowright","response","ArrowRight","14","2","2","test","true",""
"","","","","","html-keyboard-response","65","129412","0.0-7.9-2.9","610f6ad52d97d9a654d5c14c","6573617f270241e5da3d355d","6576c0d96b1b9a91cba7a879","null","<p> <font color=""green"" size=""5vw""> Correct category! </font> <br> <br> <font color=""green"" size=""8vw""> + $0.05 </font> </p>","null","feedback","","","","","","","0.53"
"","","","","","html-keyboard-response","66","129823","0.0-7.10-0.10","610f6ad52d97d9a654d5c14c","6573617f270241e5da3d355d","6576c0d96b1b9a91cba7a879","410","
            
        <div style=""text-align: center; position: fixed; top: 5vh; left: 40vw;"">
            <div style=""margin:0 auto; width: 20vw; top: 8vh; font-size: 2vw""> 
            <font color=""green""> Bonus : $0.53 </font>
            </div>
        </div>
    
            <div> Please press any key to continue to the next movie.</div>
        ","arrowdown","ITI","","","","","","",""
"","","","","","html-keyboard-response","67","130924","0.0-7.10-1.10","610f6ad52d97d9a654d5c14c","6573617f270241e5da3d355d","6576c0d96b1b9a91cba7a879","1100","./stimuli//pack_morph_shapes_1/cat_2/diff_3/ex_2_3_8.gif","arrowright","response","ArrowRight","8","2","3","test","true",""
"","","","","","html-keyboard-response","68","132438","0.0-7.10-2.10","610f6ad52d97d9a654d5c14c","6573617f270241e5da3d355d","6576c0d96b1b9a91cba7a879","null","<p> <font color=""green"" size=""5vw""> Correct category! </font> <br> <br> <font color=""green"" size=""8vw""> + $0.06 </font> </p>","null","feedback","","","","","","","0.59"
"","","","","","html-keyboard-response","69","132690","0.0-7.11-0.11","610f6ad52d97d9a654d5c14c","6573617f270241e5da3d355d","6576c0d96b1b9a91cba7a879","251","
            
        <div style=""text-align: center; position: fixed; top: 5vh; left: 40vw;"">
            <div style=""margin:0 auto; width: 20vw; top: 8vh; font-size: 2vw""> 
            <font color=""green""> Bonus : $0.59 </font>
            </div>
        </div>
    
            <div> Please press any key to continue to the next movie.</div>
        ","arrowdown","ITI","","","","","","",""
"","","","","","html-keyboard-response","70","133620","0.0-7.11-1.11","610f6ad52d97d9a654d5c14c","6573617f270241e5da3d355d","6576c0d96b1b9a91cba7a879","929","./stimuli//pack_morph_shapes_1/cat_1/diff_3/ex_1_3_15.gif","arrowleft","response","ArrowLeft","15","1","3","test","true",""
"","","","","","html-keyboard-response","71","135132","0.0-7.11-2.11","610f6ad52d97d9a654d5c14c","6573617f270241e5da3d355d","6576c0d96b1b9a91cba7a879","null","<p> <font color=""green"" size=""5vw""> Correct category! </font> <br> <br> <font color=""green"" size=""8vw""> + $0.06 </font> </p>","null","feedback","","","","","","","0.65"
"","","","","","html-keyboard-response","72","135371","0.0-7.12-0.12","610f6ad52d97d9a654d5c14c","6573617f270241e5da3d355d","6576c0d96b1b9a91cba7a879","238","
            
        <div style=""text-align: center; position: fixed; top: 5vh; left: 40vw;"">
            <div style=""margin:0 auto; width: 20vw; top: 8vh; font-size: 2vw""> 
            <font color=""green""> Bonus : $0.65 </font>
            </div>
        </div>
    
            <div> Please press any key to continue to the next movie.</div>
        ","arrowdown","ITI","","","","","","",""
"","","","","","html-keyboard-response","73","136700","0.0-7.12-1.12","610f6ad52d97d9a654d5c14c","6573617f270241e5da3d355d","6576c0d96b1b9a91cba7a879","1328","./stimuli//pack_morph_shapes_1/cat_1/diff_3/ex_1_3_16.gif","arrowleft","response","ArrowLeft","16","1","3","test","true",""
"","","","","","html-keyboard-response","74","138216","0.0-7.12-2.12","610f6ad52d97d9a654d5c14c","6573617f270241e5da3d355d","6576c0d96b1b9a91cba7a879","null","<p> <font color=""green"" size=""5vw""> Correct category! </font> <br> <br> <font color=""green"" size=""8vw""> + $0.05 </font> </p>","null","feedback","","","","","","","0.7"
"","","","","","html-keyboard-response","75","138469","0.0-7.13-0.13","610f6ad52d97d9a654d5c14c","6573617f270241e5da3d355d","6576c0d96b1b9a91cba7a879","251","
            
        <div style=""text-align: center; position: fixed; top: 5vh; left: 40vw;"">
            <div style=""margin:0 auto; width: 20vw; top: 8vh; font-size: 2vw""> 
            <font color=""green""> Bonus : $0.7 </font>
            </div>
        </div>
    
            <div> Please press any key to continue to the next movie.</div>
        ","arrowdown","ITI","","","","","","",""
"","","","","","html-keyboard-response","76","139697","0.0-7.13-1.13","610f6ad52d97d9a654d5c14c","6573617f270241e5da3d355d","6576c0d96b1b9a91cba7a879","1227","./stimuli//pack_morph_shapes_1/cat_1/diff_3/ex_1_3_17.gif","arrowleft","response","ArrowLeft","17","1","3","test","true",""
"","","","","","html-keyboard-response","77","141203","0.0-7.13-2.13","610f6ad52d97d9a654d5c14c","6573617f270241e5da3d355d","6576c0d96b1b9a91cba7a879","null","<p> <font color=""green"" size=""5vw""> Correct category! </font> <br> <br> <font color=""green"" size=""8vw""> + $0.05 </font> </p>","null","feedback","","","","","","","0.75"
"","","","","","html-keyboard-response","78","141564","0.0-7.14-0.14","610f6ad52d97d9a654d5c14c","6573617f270241e5da3d355d","6576c0d96b1b9a91cba7a879","360","
            
        <div style=""text-align: center; position: fixed; top: 5vh; left: 40vw;"">
            <div style=""margin:0 auto; width: 20vw; top: 8vh; font-size: 2vw""> 
            <font color=""green""> Bonus : $0.75 </font>
            </div>
        </div>
    
            <div> Please press any key to continue to the next movie.</div>
        ","arrowdown","ITI","","","","","","",""
"","","","","","html-keyboard-response","79","142363","0.0-7.14-1.14","610f6ad52d97d9a654d5c14c","6573617f270241e5da3d355d","6576c0d96b1b9a91cba7a879","798","./stimuli//pack_morph_shapes_1/cat_2/diff_3/ex_2_3_10.gif","arrowright","response","ArrowRight","10","2","3","test","true",""
"","","","","","html-keyboard-response","80","143867","0.0-7.14-2.14","610f6ad52d97d9a654d5c14c","6573617f270241e5da3d355d","6576c0d96b1b9a91cba7a879","null","<p> <font color=""green"" size=""5vw""> Correct category! </font> <br> <br> <font color=""green"" size=""8vw""> + $0.07 </font> </p>","null","feedback","","","","","","","0.82"
"","","","","","html-keyboard-response","81","144335","0.0-7.15-0.15","610f6ad52d97d9a654d5c14c","6573617f270241e5da3d355d","6576c0d96b1b9a91cba7a879","467","
            
        <div style=""text-align: center; position: fixed; top: 5vh; left: 40vw;"">
            <div style=""margin:0 auto; width: 20vw; top: 8vh; font-size: 2vw""> 
            <font color=""green""> Bonus : $0.82 </font>
            </div>
        </div>
    
            <div> Please press any key to continue to the next movie.</div>
        ","arrowdown","ITI","","","","","","",""
"","","","","","html-keyboard-response","82","145225","0.0-7.15-1.15","610f6ad52d97d9a654d5c14c","6573617f270241e5da3d355d","6576c0d96b1b9a91cba7a879","889","./stimuli//pack_morph_shapes_1/cat_1/diff_4/ex_1_4_14.gif","arrowleft","response","ArrowLeft","14","1","4","test","true",""
"","","","","","html-keyboard-response","83","146734","0.0-7.15-2.15","610f6ad52d97d9a654d5c14c","6573617f270241e5da3d355d","6576c0d96b1b9a91cba7a879","null","<p> <font color=""green"" size=""5vw""> Correct category! </font> <br> <br> <font color=""green"" size=""8vw""> + $0.06 </font> </p>","null","feedback","","","","","","","0.88"
"","","","","","html-keyboard-response","84","147205","0.0-7.16-0.16","610f6ad52d97d9a654d5c14c","6573617f270241e5da3d355d","6576c0d96b1b9a91cba7a879","470","
            
        <div style=""text-align: center; position: fixed; top: 5vh; left: 40vw;"">
            <div style=""margin:0 auto; width: 20vw; top: 8vh; font-size: 2vw""> 
            <font color=""green""> Bonus : $0.88 </font>
            </div>
        </div>
    
            <div> Please press any key to continue to the next movie.</div>
        ","arrowdown","ITI","","","","","","",""
"","","","","","html-keyboard-response","85","148307","0.0-7.16-1.16","610f6ad52d97d9a654d5c14c","6573617f270241e5da3d355d","6576c0d96b1b9a91cba7a879","1100","./stimuli//pack_morph_shapes_1/cat_1/diff_4/ex_1_4_12.gif","arrowleft","response","ArrowLeft","12","1","4","test","true",""
"","","","","","html-keyboard-response","86","149809","0.0-7.16-2.16","610f6ad52d97d9a654d5c14c","6573617f270241e5da3d355d","6576c0d96b1b9a91cba7a879","null","<p> <font color=""green"" size=""5vw""> Correct category! </font> <br> <br> <font color=""green"" size=""8vw""> + $0.06 </font> </p>","null","feedback","","","","","","","0.94"
"","","","","","html-keyboard-response","87","150253","0.0-7.17-0.17","610f6ad52d97d9a654d5c14c","6573617f270241e5da3d355d","6576c0d96b1b9a91cba7a879","442","
            
        <div style=""text-align: center; position: fixed; top: 5vh; left: 40vw;"">
            <div style=""margin:0 auto; width: 20vw; top: 8vh; font-size: 2vw""> 
            <font color=""green""> Bonus : $0.94 </font>
            </div>
        </div>
    
            <div> Please press any key to continue to the next movie.</div>
        ","arrowdown","ITI","","","","","","",""
"","","","","","html-keyboard-response","88","151584","0.0-7.17-1.17","610f6ad52d97d9a654d5c14c","6573617f270241e5da3d355d","6576c0d96b1b9a91cba7a879","1328","./stimuli//pack_morph_shapes_1/cat_2/diff_4/ex_2_4_1.gif","arrowright","response","ArrowRight","1","2","4","test","true",""
"","","","","","html-keyboard-response","89","153088","0.0-7.17-2.17","610f6ad52d97d9a654d5c14c","6573617f270241e5da3d355d","6576c0d96b1b9a91cba7a879","null","<p> <font color=""green"" size=""5vw""> Correct category! </font> <br> <br> <font color=""green"" size=""8vw""> + $0.05 </font> </p>","null","feedback","","","","","","","0.99"
"","","","","","html-keyboard-response","90","153529","0.0-7.18-0.18","610f6ad52d97d9a654d5c14c","6573617f270241e5da3d355d","6576c0d96b1b9a91cba7a879","440","
            
        <div style=""text-align: center; position: fixed; top: 5vh; left: 40vw;"">
            <div style=""margin:0 auto; width: 20vw; top: 8vh; font-size: 2vw""> 
            <font color=""green""> Bonus : $0.99 </font>
            </div>
        </div>
    
            <div> Please press any key to continue to the next movie.</div>
        ","arrowdown","ITI","","","","","","",""
"","","","","","html-keyboard-response","91","154580","0.0-7.18-1.18","610f6ad52d97d9a654d5c14c","6573617f270241e5da3d355d","6576c0d96b1b9a91cba7a879","1050","./stimuli//pack_morph_shapes_1/cat_2/diff_4/ex_2_4_16.gif","arrowleft","response","ArrowRight","16","2","4","test","false",""
"","","","","","html-keyboard-response","92","156086","0.0-7.18-2.18","610f6ad52d97d9a654d5c14c","6573617f270241e5da3d355d","6576c0d96b1b9a91cba7a879","null","<p> <font color=""red"" size=""5vw""> Wrong category! </font> <br> <br> <font color=""red"" size=""8vw""> - $0.05 </font> </p>","null","feedback","","","","","","","0.94"
"","","","","","html-keyboard-response","93","156506","0.0-7.19-0.19","610f6ad52d97d9a654d5c14c","6573617f270241e5da3d355d","6576c0d96b1b9a91cba7a879","419","
            
        <div style=""text-align: center; position: fixed; top: 5vh; left: 40vw;"">
            <div style=""margin:0 auto; width: 20vw; top: 8vh; font-size: 2vw""> 
            <font color=""green""> Bonus : $0.94 </font>
            </div>
        </div>
    
            <div> Please press any key to continue to the next movie.</div>
        ","arrowdown","ITI","","","","","","",""
"","","","","","html-keyboard-response","94","157629","0.0-7.19-1.19","610f6ad52d97d9a654d5c14c","6573617f270241e5da3d355d","6576c0d96b1b9a91cba7a879","1123","./stimuli//pack_morph_shapes_1/cat_1/diff_4/ex_1_4_5.gif","arrowleft","response","ArrowLeft","5","1","4","test","true",""
"","","","","","html-keyboard-response","95","159142","0.0-7.19-2.19","610f6ad52d97d9a654d5c14c","6573617f270241e5da3d355d","6576c0d96b1b9a91cba7a879","null","<p> <font color=""green"" size=""5vw""> Correct category! </font> <br> <br> <font color=""green"" size=""8vw""> + $0.06 </font> </p>","null","feedback","","","","","","","1"
"","","","","","html-keyboard-response","96","159617","0.0-7.20-0.20","610f6ad52d97d9a654d5c14c","6573617f270241e5da3d355d","6576c0d96b1b9a91cba7a879","474","
            
        <div style=""text-align: center; position: fixed; top: 5vh; left: 40vw;"">
            <div style=""margin:0 auto; width: 20vw; top: 8vh; font-size: 2vw""> 
            <font color=""green""> Bonus : $1 </font>
            </div>
        </div>
    
            <div> Please press any key to continue to the next movie.</div>
        ","arrowdown","ITI","","","","","","",""
"","","","","","html-keyboard-response","97","160471","0.0-7.20-1.20","610f6ad52d97d9a654d5c14c","6573617f270241e5da3d355d","6576c0d96b1b9a91cba7a879","853","./stimuli//pack_morph_shapes_1/cat_2/diff_5/ex_2_5_11.gif","arrowright","response","ArrowRight","11","2","5","test","true",""
"","","","","","html-keyboard-response","98","161984","0.0-7.20-2.20","610f6ad52d97d9a654d5c14c","6573617f270241e5da3d355d","6576c0d96b1b9a91cba7a879","null","<p> <font color=""green"" size=""5vw""> Correct category! </font> <br> <br> <font color=""green"" size=""8vw""> + $0.07 </font> </p>","null","feedback","","","","","","","1.07"
"","","","","","html-keyboard-response","99","162413","0.0-7.21-0.21","610f6ad52d97d9a654d5c14c","6573617f270241e5da3d355d","6576c0d96b1b9a91cba7a879","428","
            
        <div style=""text-align: center; position: fixed; top: 5vh; left: 40vw;"">
            <div style=""margin:0 auto; width: 20vw; top: 8vh; font-size: 2vw""> 
            <font color=""green""> Bonus : $1.07 </font>
            </div>
        </div>
    
            <div> Please press any key to continue to the next movie.</div>
        ","arrowdown","ITI","","","","","","",""
"","","","","","html-keyboard-response","100","163889","0.0-7.21-1.21","610f6ad52d97d9a654d5c14c","6573617f270241e5da3d355d","6576c0d96b1b9a91cba7a879","1475","./stimuli//pack_morph_shapes_1/cat_2/diff_5/ex_2_5_4.gif","arrowright","response","ArrowRight","4","2","5","test","true",""
"","","","","","html-keyboard-response","101","165395","0.0-7.21-2.21","610f6ad52d97d9a654d5c14c","6573617f270241e5da3d355d","6576c0d96b1b9a91cba7a879","null","<p> <font color=""green"" size=""5vw""> Correct category! </font> <br> <br> <font color=""green"" size=""8vw""> + $0.05 </font> </p>","null","feedback","","","","","","","1.12"
"","","","","","html-keyboard-response","102","165685","0.0-7.22-0.22","610f6ad52d97d9a654d5c14c","6573617f270241e5da3d355d","6576c0d96b1b9a91cba7a879","289","
            
        <div style=""text-align: center; position: fixed; top: 5vh; left: 40vw;"">
            <div style=""margin:0 auto; width: 20vw; top: 8vh; font-size: 2vw""> 
            <font color=""green""> Bonus : $1.12 </font>
            </div>
        </div>
    
            <div> Please press any key to continue to the next movie.</div>
        ","arrowdown","ITI","","","","","","",""
"","","","","","html-keyboard-response","103","166530","0.0-7.22-1.22","610f6ad52d97d9a654d5c14c","6573617f270241e5da3d355d","6576c0d96b1b9a91cba7a879","844","./stimuli//pack_morph_shapes_1/cat_2/diff_5/ex_2_5_13.gif","arrowleft","response","ArrowRight","13","2","5","test","false",""
"","","","","","html-keyboard-response","104","168044","0.0-7.22-2.22","610f6ad52d97d9a654d5c14c","6573617f270241e5da3d355d","6576c0d96b1b9a91cba7a879","null","<p> <font color=""red"" size=""5vw""> Wrong category! </font> <br> <br> <font color=""red"" size=""8vw""> - $0.05 </font> </p>","null","feedback","","","","","","","1.07"
"","","","","","html-keyboard-response","105","168412","0.0-7.23-0.23","610f6ad52d97d9a654d5c14c","6573617f270241e5da3d355d","6576c0d96b1b9a91cba7a879","367","
            
        <div style=""text-align: center; position: fixed; top: 5vh; left: 40vw;"">
            <div style=""margin:0 auto; width: 20vw; top: 8vh; font-size: 2vw""> 
            <font color=""green""> Bonus : $1.07 </font>
            </div>
        </div>
    
            <div> Please press any key to continue to the next movie.</div>
        ","arrowdown","ITI","","","","","","",""
"","","","","","html-keyboard-response","106","169421","0.0-7.23-1.23","610f6ad52d97d9a654d5c14c","6573617f270241e5da3d355d","6576c0d96b1b9a91cba7a879","1009","./stimuli//pack_morph_shapes_1/cat_2/diff_5/ex_2_5_14.gif","arrowright","response","ArrowRight","14","2","5","test","true",""
"","","","","","html-keyboard-response","107","170936","0.0-7.23-2.23","610f6ad52d97d9a654d5c14c","6573617f270241e5da3d355d","6576c0d96b1b9a91cba7a879","null","<p> <font color=""green"" size=""5vw""> Correct category! </font> <br> <br> <font color=""green"" size=""8vw""> + $0.06 </font> </p>","null","feedback","","","","","","","1.13"
"","","","","","html-keyboard-response","108","171213","0.0-7.24-0.24","610f6ad52d97d9a654d5c14c","6573617f270241e5da3d355d","6576c0d96b1b9a91cba7a879","275","
            
        <div style=""text-align: center; position: fixed; top: 5vh; left: 40vw;"">
            <div style=""margin:0 auto; width: 20vw; top: 8vh; font-size: 2vw""> 
            <font color=""green""> Bonus : $1.13 </font>
            </div>
        </div>
    
            <div> Please press any key to continue to the next movie.</div>
        ","arrowdown","ITI","","","","","","",""
"","","","","","html-keyboard-response","109","172291","0.0-7.24-1.24","610f6ad52d97d9a654d5c14c","6573617f270241e5da3d355d","6576c0d96b1b9a91cba7a879","1078","./stimuli//pack_morph_shapes_1/cat_1/diff_5/ex_1_5_4.gif","arrowleft","response","ArrowLeft","4","1","5","test","true",""
"","","","","","html-keyboard-response","110","173802","0.0-7.24-2.24","610f6ad52d97d9a654d5c14c","6573617f270241e5da3d355d","6576c0d96b1b9a91cba7a879","null","<p> <font color=""green"" size=""5vw""> Correct category! </font> <br> <br> <font color=""green"" size=""8vw""> + $0.06 </font> </p>","null","feedback","","","","","","","1.19"
"","","","","","html-keyboard-response","111","174329","0.0-7.25-0.25","610f6ad52d97d9a654d5c14c","6573617f270241e5da3d355d","6576c0d96b1b9a91cba7a879","526","
            
        <div style=""text-align: center; position: fixed; top: 5vh; left: 40vw;"">
            <div style=""margin:0 auto; width: 20vw; top: 8vh; font-size: 2vw""> 
            <font color=""green""> Bonus : $1.19 </font>
            </div>
        </div>
    
            <div> Please press any key to continue to the next movie.</div>
        ","arrowdown","ITI","","","","","","",""
"","","","","","html-keyboard-response","112","175448","0.0-7.25-1.25","610f6ad52d97d9a654d5c14c","6573617f270241e5da3d355d","6576c0d96b1b9a91cba7a879","1119","./stimuli//pack_morph_shapes_1/cat_1/diff_5/ex_1_5_7.gif","arrowleft","response","ArrowLeft","7","1","5","test","true",""
"","","","","","html-keyboard-response","113","176960","0.0-7.25-2.25","610f6ad52d97d9a654d5c14c","6573617f270241e5da3d355d","6576c0d96b1b9a91cba7a879","null","<p> <font color=""green"" size=""5vw""> Correct category! </font> <br> <br> <font color=""green"" size=""8vw""> + $0.06 </font> </p>","null","feedback","","","","","","","1.25"
"","","","","","html-keyboard-response","114","177431","0.0-7.26-0.26","610f6ad52d97d9a654d5c14c","6573617f270241e5da3d355d","6576c0d96b1b9a91cba7a879","470","
            
        <div style=""text-align: center; position: fixed; top: 5vh; left: 40vw;"">
            <div style=""margin:0 auto; width: 20vw; top: 8vh; font-size: 2vw""> 
            <font color=""green""> Bonus : $1.25 </font>
            </div>
        </div>
    
            <div> Please press any key to continue to the next movie.</div>
        ","arrowdown","ITI","","","","","","",""
"","","","","","html-keyboard-response","115","178565","0.0-7.26-1.26","610f6ad52d97d9a654d5c14c","6573617f270241e5da3d355d","6576c0d96b1b9a91cba7a879","1134","./stimuli//pack_morph_shapes_1/cat_1/diff_5/ex_1_5_2.gif","arrowleft","response","ArrowLeft","2","1","5","test","true",""
"","","","","","html-keyboard-response","116","180067","0.0-7.26-2.26","610f6ad52d97d9a654d5c14c","6573617f270241e5da3d355d","6576c0d96b1b9a91cba7a879","null","<p> <font color=""green"" size=""5vw""> Correct category! </font> <br> <br> <font color=""green"" size=""8vw""> + $0.06 </font> </p>","null","feedback","","","","","","","1.31"
"","","","","","html-keyboard-response","117","180326","0.0-7.27-0.27","610f6ad52d97d9a654d5c14c","6573617f270241e5da3d355d","6576c0d96b1b9a91cba7a879","258","
            
        <div style=""text-align: center; position: fixed; top: 5vh; left: 40vw;"">
            <div style=""margin:0 auto; width: 20vw; top: 8vh; font-size: 2vw""> 
            <font color=""green""> Bonus : $1.31 </font>
            </div>
        </div>
    
            <div> Please press any key to continue to the next movie.</div>
        ","arrowdown","ITI","","","","","","",""
"","","","","","html-keyboard-response","118","181072","0.0-7.27-1.27","610f6ad52d97d9a654d5c14c","6573617f270241e5da3d355d","6576c0d96b1b9a91cba7a879","745","./stimuli//pack_morph_shapes_1/cat_2/diff_5/ex_2_5_14.gif","arrowright","response","ArrowRight","14","2","5","test","true",""
"","","","","","html-keyboard-response","119","182588","0.0-7.27-2.27","610f6ad52d97d9a654d5c14c","6573617f270241e5da3d355d","6576c0d96b1b9a91cba7a879","null","<p> <font color=""green"" size=""5vw""> Correct category! </font> <br> <br> <font color=""green"" size=""8vw""> + $0.07 </font> </p>","null","feedback","","","","","","","1.38"
"","","","","","html-keyboard-response","120","183027","0.0-7.28-0.28","610f6ad52d97d9a654d5c14c","6573617f270241e5da3d355d","6576c0d96b1b9a91cba7a879","437","
            
        <div style=""text-align: center; position: fixed; top: 5vh; left: 40vw;"">
            <div style=""margin:0 auto; width: 20vw; top: 8vh; font-size: 2vw""> 
            <font color=""green""> Bonus : $1.38 </font>
            </div>
        </div>
    
            <div> Please press any key to continue to the next movie.</div>
        ","arrowdown","ITI","","","","","","",""
"","","","","","html-keyboard-response","121","184541","0.0-7.28-1.28","610f6ad52d97d9a654d5c14c","6573617f270241e5da3d355d","6576c0d96b1b9a91cba7a879","1514","./stimuli//pack_morph_shapes_1/cat_2/diff_5/ex_2_5_12.gif","arrowright","response","ArrowRight","12","2","5","test","true",""
"","","","","","html-keyboard-response","122","186046","0.0-7.28-2.28","610f6ad52d97d9a654d5c14c","6573617f270241e5da3d355d","6576c0d96b1b9a91cba7a879","null","<p> <font color=""green"" size=""5vw""> Correct category! </font> <br> <br> <font color=""green"" size=""8vw""> + $0.05 </font> </p>","null","feedback","","","","","","","1.43"
"","","","","","html-keyboard-response","123","202229","0.0-7.29-0.29","610f6ad52d97d9a654d5c14c","6573617f270241e5da3d355d","6576c0d96b1b9a91cba7a879","16177","
            
        <div style=""text-align: center; position: fixed; top: 5vh; left: 40vw;"">
            <div style=""margin:0 auto; width: 20vw; top: 8vh; font-size: 2vw""> 
            <font color=""green""> Bonus : $1.43 </font>
            </div>
        </div>
    
            <div> Please press any key to continue to the next movie.</div>
        ","arrowdown","ITI","","","","","","",""
"","","","","","html-keyboard-response","124","203417","0.0-7.29-1.29","610f6ad52d97d9a654d5c14c","6573617f270241e5da3d355d","6576c0d96b1b9a91cba7a879","1188","./stimuli//pack_morph_shapes_1/cat_1/diff_5/ex_1_5_11.gif","arrowleft","response","ArrowLeft","11","1","5","test","true",""
"","","","","","html-keyboard-response","125","204922","0.0-7.29-2.29","610f6ad52d97d9a654d5c14c","6573617f270241e5da3d355d","6576c0d96b1b9a91cba7a879","null","<p> <font color=""green"" size=""5vw""> Correct category! </font> <br> <br> <font color=""green"" size=""8vw""> + $0.06 </font> </p>","null","feedback","","","","","","","1.49"
"","","","","","html-keyboard-response","126","205283","0.0-7.30-0.30","610f6ad52d97d9a654d5c14c","6573617f270241e5da3d355d","6576c0d96b1b9a91cba7a879","360","
            
        <div style=""text-align: center; position: fixed; top: 5vh; left: 40vw;"">
            <div style=""margin:0 auto; width: 20vw; top: 8vh; font-size: 2vw""> 
            <font color=""green""> Bonus : $1.49 </font>
            </div>
        </div>
    
            <div> Please press any key to continue to the next movie.</div>
        ","arrowdown","ITI","","","","","","",""
"","","","","","html-keyboard-response","127","206314","0.0-7.30-1.30","610f6ad52d97d9a654d5c14c","6573617f270241e5da3d355d","6576c0d96b1b9a91cba7a879","1030","./stimuli//pack_morph_shapes_1/cat_1/diff_5/ex_1_5_2.gif","arrowleft","response","ArrowLeft","2","1","5","test","true",""
"","","","","","html-keyboard-response","128","207831","0.0-7.30-2.30","610f6ad52d97d9a654d5c14c","6573617f270241e5da3d355d","6576c0d96b1b9a91cba7a879","null","<p> <font color=""green"" size=""5vw""> Correct category! </font> <br> <br> <font color=""green"" size=""8vw""> + $0.06 </font> </p>","null","feedback","","","","","","","1.55"
"","","","","","html-keyboard-response","129","208097","0.0-7.31-0.31","610f6ad52d97d9a654d5c14c","6573617f270241e5da3d355d","6576c0d96b1b9a91cba7a879","266","
            
        <div style=""text-align: center; position: fixed; top: 5vh; left: 40vw;"">
            <div style=""margin:0 auto; width: 20vw; top: 8vh; font-size: 2vw""> 
            <font color=""green""> Bonus : $1.55 </font>
            </div>
        </div>
    
            <div> Please press any key to continue to the next movie.</div>
        ","arrowdown","ITI","","","","","","",""
"","","","","","html-keyboard-response","130","208902","0.0-7.31-1.31","610f6ad52d97d9a654d5c14c","6573617f270241e5da3d355d","6576c0d96b1b9a91cba7a879","803","./stimuli//pack_morph_shapes_1/cat_2/diff_5/ex_2_5_9.gif","arrowright","response","ArrowRight","9","2","5","test","true",""
"","","","","","html-keyboard-response","131","210414","0.0-7.31-2.31","610f6ad52d97d9a654d5c14c","6573617f270241e5da3d355d","6576c0d96b1b9a91cba7a879","null","<p> <font color=""green"" size=""5vw""> Correct category! </font> <br> <br> <font color=""green"" size=""8vw""> + $0.07 </font> </p>","null","feedback","","","","","","","1.62"
"","","","","","html-keyboard-response","132","210913","0.0-7.32-0.32","610f6ad52d97d9a654d5c14c","6573617f270241e5da3d355d","6576c0d96b1b9a91cba7a879","497","
            
        <div style=""text-align: center; position: fixed; top: 5vh; left: 40vw;"">
            <div style=""margin:0 auto; width: 20vw; top: 8vh; font-size: 2vw""> 
            <font color=""green""> Bonus : $1.62 </font>
            </div>
        </div>
    
            <div> Please press any key to continue to the next movie.</div>
        ","arrowdown","ITI","","","","","","",""
"","","","","","html-keyboard-response","133","211583","0.0-7.32-1.32","610f6ad52d97d9a654d5c14c","6573617f270241e5da3d355d","6576c0d96b1b9a91cba7a879","669","./stimuli//pack_morph_shapes_1/cat_2/diff_5/ex_2_5_4.gif","arrowright","response","ArrowRight","4","2","5","test","true",""
"","","","","","html-keyboard-response","134","213096","0.0-7.32-2.32","610f6ad52d97d9a654d5c14c","6573617f270241e5da3d355d","6576c0d96b1b9a91cba7a879","null","<p> <font color=""green"" size=""5vw""> Correct category! </font> <br> <br> <font color=""green"" size=""8vw""> + $0.07 </font> </p>","null","feedback","","","","","","","1.69"
"","","","","","html-keyboard-response","135","213424","0.0-7.33-0.33","610f6ad52d97d9a654d5c14c","6573617f270241e5da3d355d","6576c0d96b1b9a91cba7a879","327","
            
        <div style=""text-align: center; position: fixed; top: 5vh; left: 40vw;"">
            <div style=""margin:0 auto; width: 20vw; top: 8vh; font-size: 2vw""> 
            <font color=""green""> Bonus : $1.69 </font>
            </div>
        </div>
    
            <div> Please press any key to continue to the next movie.</div>
        ","arrowdown","ITI","","","","","","",""
"","","","","","html-keyboard-response","136","214031","0.0-7.33-1.33","610f6ad52d97d9a654d5c14c","6573617f270241e5da3d355d","6576c0d96b1b9a91cba7a879","604","./stimuli//pack_morph_shapes_1/cat_1/diff_5/ex_1_5_11.gif","arrowleft","response","ArrowLeft","11","1","5","test","true",""
"","","","","","html-keyboard-response","137","215548","0.0-7.33-2.33","610f6ad52d97d9a654d5c14c","6573617f270241e5da3d355d","6576c0d96b1b9a91cba7a879","null","<p> <font color=""green"" size=""5vw""> Correct category! </font> <br> <br> <font color=""green"" size=""8vw""> + $0.07 </font> </p>","null","feedback","","","","","","","1.76"
"","","","","","html-keyboard-response","138","216087","0.0-7.34-0.34","610f6ad52d97d9a654d5c14c","6573617f270241e5da3d355d","6576c0d96b1b9a91cba7a879","538","
            
        <div style=""text-align: center; position: fixed; top: 5vh; left: 40vw;"">
            <div style=""margin:0 auto; width: 20vw; top: 8vh; font-size: 2vw""> 
            <font color=""green""> Bonus : $1.76 </font>
            </div>
        </div>
    
            <div> Please press any key to continue to the next movie.</div>
        ","arrowdown","ITI","","","","","","",""
"","","","","","html-keyboard-response","139","216666","0.0-7.34-1.34","610f6ad52d97d9a654d5c14c","6573617f270241e5da3d355d","6576c0d96b1b9a91cba7a879","578","./stimuli//pack_morph_shapes_1/cat_2/diff_5/ex_2_5_14.gif","arrowright","response","ArrowRight","14","2","5","test","true",""
"","","","","","html-keyboard-response","140","218173","0.0-7.34-2.34","610f6ad52d97d9a654d5c14c","6573617f270241e5da3d355d","6576c0d96b1b9a91cba7a879","null","<p> <font color=""green"" size=""5vw""> Correct category! </font> <br> <br> <font color=""green"" size=""8vw""> + $0.07 </font> </p>","null","feedback","","","","","","","1.83"
"","","","","","html-keyboard-response","141","218552","0.0-7.35-0.35","610f6ad52d97d9a654d5c14c","6573617f270241e5da3d355d","6576c0d96b1b9a91cba7a879","377","
            
        <div style=""text-align: center; position: fixed; top: 5vh; left: 40vw;"">
            <div style=""margin:0 auto; width: 20vw; top: 8vh; font-size: 2vw""> 
            <font color=""green""> Bonus : $1.83 </font>
            </div>
        </div>
    
            <div> Please press any key to continue to the next movie.</div>
        ","arrowdown","ITI","","","","","","",""
"","","","","","html-keyboard-response","142","219202","0.0-7.35-1.35","610f6ad52d97d9a654d5c14c","6573617f270241e5da3d355d","6576c0d96b1b9a91cba7a879","649","./stimuli//pack_morph_shapes_1/cat_2/diff_5/ex_2_5_13.gif","arrowright","response","ArrowRight","13","2","5","test","true",""
"","","","","","html-keyboard-response","143","220706","0.0-7.35-2.35","610f6ad52d97d9a654d5c14c","6573617f270241e5da3d355d","6576c0d96b1b9a91cba7a879","null","<p> <font color=""green"" size=""5vw""> Correct category! </font> <br> <br> <font color=""green"" size=""8vw""> + $0.07 </font> </p>","null","feedback","","","","","","","1.9"
"","","","","","html-keyboard-response","144","221158","0.0-7.36-0.36","610f6ad52d97d9a654d5c14c","6573617f270241e5da3d355d","6576c0d96b1b9a91cba7a879","452","
            
        <div style=""text-align: center; position: fixed; top: 5vh; left: 40vw;"">
            <div style=""margin:0 auto; width: 20vw; top: 8vh; font-size: 2vw""> 
            <font color=""green""> Bonus : $1.9 </font>
            </div>
        </div>
    
            <div> Please press any key to continue to the next movie.</div>
        ","arrowdown","ITI","","","","","","",""
"","","","","","html-keyboard-response","145","221888","0.0-7.36-1.36","610f6ad52d97d9a654d5c14c","6573617f270241e5da3d355d","6576c0d96b1b9a91cba7a879","729","./stimuli//pack_morph_shapes_1/cat_2/diff_5/ex_2_5_2.gif","arrowright","response","ArrowRight","2","2","5","test","true",""
"","","","","","html-keyboard-response","146","223396","0.0-7.36-2.36","610f6ad52d97d9a654d5c14c","6573617f270241e5da3d355d","6576c0d96b1b9a91cba7a879","null","<p> <font color=""green"" size=""5vw""> Correct category! </font> <br> <br> <font color=""green"" size=""8vw""> + $0.07 </font> </p>","null","feedback","","","","","","","1.97"
"","","","","","html-keyboard-response","147","223924","0.0-7.37-0.37","610f6ad52d97d9a654d5c14c","6573617f270241e5da3d355d","6576c0d96b1b9a91cba7a879","527","
            
        <div style=""text-align: center; position: fixed; top: 5vh; left: 40vw;"">
            <div style=""margin:0 auto; width: 20vw; top: 8vh; font-size: 2vw""> 
            <font color=""green""> Bonus : $1.97 </font>
            </div>
        </div>
    
            <div> Please press any key to continue to the next movie.</div>
        ","arrowdown","ITI","","","","","","",""
"","","","","","html-keyboard-response","148","224795","0.0-7.37-1.37","610f6ad52d97d9a654d5c14c","6573617f270241e5da3d355d","6576c0d96b1b9a91cba7a879","870","./stimuli//pack_morph_shapes_1/cat_1/diff_5/ex_1_5_8.gif","arrowleft","response","ArrowLeft","8","1","5","test","true",""
"","","","","","html-keyboard-response","149","226297","0.0-7.37-2.37","610f6ad52d97d9a654d5c14c","6573617f270241e5da3d355d","6576c0d96b1b9a91cba7a879","null","<p> <font color=""green"" size=""5vw""> Correct category! </font> <br> <br> <font color=""green"" size=""8vw""> + $0.06 </font> </p>","null","feedback","","","","","","","2.03"
"","","","","","html-keyboard-response","150","226726","0.0-7.38-0.38","610f6ad52d97d9a654d5c14c","6573617f270241e5da3d355d","6576c0d96b1b9a91cba7a879","428","
            
        <div style=""text-align: center; position: fixed; top: 5vh; left: 40vw;"">
            <div style=""margin:0 auto; width: 20vw; top: 8vh; font-size: 2vw""> 
            <font color=""green""> Bonus : $2.03 </font>
            </div>
        </div>
    
            <div> Please press any key to continue to the next movie.</div>
        ","arrowdown","ITI","","","","","","",""
"","","","","","html-keyboard-response","151","227506","0.0-7.38-1.38","610f6ad52d97d9a654d5c14c","6573617f270241e5da3d355d","6576c0d96b1b9a91cba7a879","778","./stimuli//pack_morph_shapes_1/cat_1/diff_5/ex_1_5_7.gif","arrowleft","response","ArrowLeft","7","1","5","test","true",""
"","","","","","html-keyboard-response","152","229009","0.0-7.38-2.38","610f6ad52d97d9a654d5c14c","6573617f270241e5da3d355d","6576c0d96b1b9a91cba7a879","null","<p> <font color=""green"" size=""5vw""> Correct category! </font> <br> <br> <font color=""green"" size=""8vw""> + $0.07 </font> </p>","null","feedback","","","","","","","2.1"
"","","","","","html-keyboard-response","153","229388","0.0-7.39-0.39","610f6ad52d97d9a654d5c14c","6573617f270241e5da3d355d","6576c0d96b1b9a91cba7a879","378","
            
        <div style=""text-align: center; position: fixed; top: 5vh; left: 40vw;"">
            <div style=""margin:0 auto; width: 20vw; top: 8vh; font-size: 2vw""> 
            <font color=""green""> Bonus : $2.1 </font>
            </div>
        </div>
    
            <div> Please press any key to continue to the next movie.</div>
        ","arrowdown","ITI","","","","","","",""
"","","","","","html-keyboard-response","154","230798","0.0-7.39-1.39","610f6ad52d97d9a654d5c14c","6573617f270241e5da3d355d","6576c0d96b1b9a91cba7a879","1408","./stimuli//pack_morph_shapes_1/cat_2/diff_5/ex_2_5_16.gif","arrowright","response","ArrowRight","16","2","5","test","true",""
"","","","","","html-keyboard-response","155","232312","0.0-7.39-2.39","610f6ad52d97d9a654d5c14c","6573617f270241e5da3d355d","6576c0d96b1b9a91cba7a879","null","<p> <font color=""green"" size=""5vw""> Correct category! </font> <br> <br> <font color=""green"" size=""8vw""> + $0.05 </font> </p>","null","feedback","","","","","","","2.15"
"","","","","","html-keyboard-response","156","232734","0.0-7.40-0.40","610f6ad52d97d9a654d5c14c","6573617f270241e5da3d355d","6576c0d96b1b9a91cba7a879","421","
            
        <div style=""text-align: center; position: fixed; top: 5vh; left: 40vw;"">
            <div style=""margin:0 auto; width: 20vw; top: 8vh; font-size: 2vw""> 
            <font color=""green""> Bonus : $2.15 </font>
            </div>
        </div>
    
            <div> Please press any key to continue to the next movie.</div>
        ","arrowdown","ITI","","","","","","",""
"","","","","","html-keyboard-response","157","233606","0.0-7.40-1.40","610f6ad52d97d9a654d5c14c","6573617f270241e5da3d355d","6576c0d96b1b9a91cba7a879","870","./stimuli//pack_morph_shapes_1/cat_2/diff_5/ex_2_5_7.gif","arrowright","response","ArrowRight","7","2","5","test","true",""
"","","","","","html-keyboard-response","158","235115","0.0-7.40-2.40","610f6ad52d97d9a654d5c14c","6573617f270241e5da3d355d","6576c0d96b1b9a91cba7a879","null","<p> <font color=""green"" size=""5vw""> Correct category! </font> <br> <br> <font color=""green"" size=""8vw""> + $0.06 </font> </p>","null","feedback","","","","","","","2.21"
"","","","","","html-keyboard-response","159","235470","0.0-7.41-0.41","610f6ad52d97d9a654d5c14c","6573617f270241e5da3d355d","6576c0d96b1b9a91cba7a879","354","
            
        <div style=""text-align: center; position: fixed; top: 5vh; left: 40vw;"">
            <div style=""margin:0 auto; width: 20vw; top: 8vh; font-size: 2vw""> 
            <font color=""green""> Bonus : $2.21 </font>
            </div>
        </div>
    
            <div> Please press any key to continue to the next movie.</div>
        ","arrowdown","ITI","","","","","","",""
"","","","","","html-keyboard-response","160","236048","0.0-7.41-1.41","610f6ad52d97d9a654d5c14c","6573617f270241e5da3d355d","6576c0d96b1b9a91cba7a879","576","./stimuli//pack_morph_shapes_1/cat_1/diff_5/ex_1_5_11.gif","arrowleft","response","ArrowLeft","11","1","5","test","true",""
"","","","","","html-keyboard-response","161","237557","0.0-7.41-2.41","610f6ad52d97d9a654d5c14c","6573617f270241e5da3d355d","6576c0d96b1b9a91cba7a879","null","<p> <font color=""green"" size=""5vw""> Correct category! </font> <br> <br> <font color=""green"" size=""8vw""> + $0.07 </font> </p>","null","feedback","","","","","","","2.28"
"","","","","","html-keyboard-response","162","238064","0.0-7.42-0.42","610f6ad52d97d9a654d5c14c","6573617f270241e5da3d355d","6576c0d96b1b9a91cba7a879","505","
            
        <div style=""text-align: center; position: fixed; top: 5vh; left: 40vw;"">
            <div style=""margin:0 auto; width: 20vw; top: 8vh; font-size: 2vw""> 
            <font color=""green""> Bonus : $2.28 </font>
            </div>
        </div>
    
            <div> Please press any key to continue to the next movie.</div>
        ","arrowdown","ITI","","","","","","",""
"","","","","","html-keyboard-response","163","239362","0.0-7.42-1.42","610f6ad52d97d9a654d5c14c","6573617f270241e5da3d355d","6576c0d96b1b9a91cba7a879","1297","./stimuli//pack_morph_shapes_1/cat_1/diff_5/ex_1_5_5.gif","arrowleft","response","ArrowLeft","5","1","5","test","true",""
"","","","","","html-keyboard-response","164","240873","0.0-7.42-2.42","610f6ad52d97d9a654d5c14c","6573617f270241e5da3d355d","6576c0d96b1b9a91cba7a879","null","<p> <font color=""green"" size=""5vw""> Correct category! </font> <br> <br> <font color=""green"" size=""8vw""> + $0.05 </font> </p>","null","feedback","","","","","","","2.33"
"","","","","","html-keyboard-response","165","241219","0.0-7.43-0.43","610f6ad52d97d9a654d5c14c","6573617f270241e5da3d355d","6576c0d96b1b9a91cba7a879","345","
            
        <div style=""text-align: center; position: fixed; top: 5vh; left: 40vw;"">
            <div style=""margin:0 auto; width: 20vw; top: 8vh; font-size: 2vw""> 
            <font color=""green""> Bonus : $2.33 </font>
            </div>
        </div>
    
            <div> Please press any key to continue to the next movie.</div>
        ","arrowdown","ITI","","","","","","",""
"","","","","","html-keyboard-response","166","241953","0.0-7.43-1.43","610f6ad52d97d9a654d5c14c","6573617f270241e5da3d355d","6576c0d96b1b9a91cba7a879","733","./stimuli//pack_morph_shapes_1/cat_2/diff_5/ex_2_5_5.gif","arrowright","response","ArrowRight","5","2","5","test","true",""
"","","","","","html-keyboard-response","167","243467","0.0-7.43-2.43","610f6ad52d97d9a654d5c14c","6573617f270241e5da3d355d","6576c0d96b1b9a91cba7a879","null","<p> <font color=""green"" size=""5vw""> Correct category! </font> <br> <br> <font color=""green"" size=""8vw""> + $0.07 </font> </p>","null","feedback","","","","","","","2.4"
"","","","","","html-keyboard-response","168","243856","0.0-7.44-0.44","610f6ad52d97d9a654d5c14c","6573617f270241e5da3d355d","6576c0d96b1b9a91cba7a879","388","
            
        <div style=""text-align: center; position: fixed; top: 5vh; left: 40vw;"">
            <div style=""margin:0 auto; width: 20vw; top: 8vh; font-size: 2vw""> 
            <font color=""green""> Bonus : $2.4 </font>
            </div>
        </div>
    
            <div> Please press any key to continue to the next movie.</div>
        ","arrowdown","ITI","","","","","","",""
"","","","","","html-keyboard-response","169","244472","0.0-7.44-1.44","610f6ad52d97d9a654d5c14c","6573617f270241e5da3d355d","6576c0d96b1b9a91cba7a879","614","./stimuli//pack_morph_shapes_1/cat_2/diff_5/ex_2_5_9.gif","arrowright","response","ArrowRight","9","2","5","test","true",""
"","","","","","html-keyboard-response","170","245975","0.0-7.44-2.44","610f6ad52d97d9a654d5c14c","6573617f270241e5da3d355d","6576c0d96b1b9a91cba7a879","null","<p> <font color=""green"" size=""5vw""> Correct category! </font> <br> <br> <font color=""green"" size=""8vw""> + $0.07 </font> </p>","null","feedback","","","","","","","2.47"
"","","","","","html-keyboard-response","171","246612","0.0-7.45-0.45","610f6ad52d97d9a654d5c14c","6573617f270241e5da3d355d","6576c0d96b1b9a91cba7a879","635","
            
        <div style=""text-align: center; position: fixed; top: 5vh; left: 40vw;"">
            <div style=""margin:0 auto; width: 20vw; top: 8vh; font-size: 2vw""> 
            <font color=""green""> Bonus : $2.47 </font>
            </div>
        </div>
    
            <div> Please press any key to continue to the next movie.</div>
        ","arrowdown","ITI","","","","","","",""
"","","","","","html-keyboard-response","172","247232","0.0-7.45-1.45","610f6ad52d97d9a654d5c14c","6573617f270241e5da3d355d","6576c0d96b1b9a91cba7a879","619","./stimuli//pack_morph_shapes_1/cat_2/diff_5/ex_2_5_16.gif","arrowright","response","ArrowRight","16","2","5","test","true",""
"","","","","","html-keyboard-response","173","248742","0.0-7.45-2.45","610f6ad52d97d9a654d5c14c","6573617f270241e5da3d355d","6576c0d96b1b9a91cba7a879","null","<p> <font color=""green"" size=""5vw""> Correct category! </font> <br> <br> <font color=""green"" size=""8vw""> + $0.07 </font> </p>","null","feedback","","","","","","","2.54"
"","","","","","html-keyboard-response","174","249779","0.0-7.46-0.46","610f6ad52d97d9a654d5c14c","6573617f270241e5da3d355d","6576c0d96b1b9a91cba7a879","1035","
            
        <div style=""text-align: center; position: fixed; top: 5vh; left: 40vw;"">
            <div style=""margin:0 auto; width: 20vw; top: 8vh; font-size: 2vw""> 
            <font color=""green""> Bonus : $2.54 </font>
            </div>
        </div>
    
            <div> Please press any key to continue to the next movie.</div>
        ","arrowdown","ITI","","","","","","",""
"","","","","","html-keyboard-response","175","250490","0.0-7.46-1.46","610f6ad52d97d9a654d5c14c","6573617f270241e5da3d355d","6576c0d96b1b9a91cba7a879","709","./stimuli//pack_morph_shapes_1/cat_1/diff_5/ex_1_5_5.gif","arrowleft","response","ArrowLeft","5","1","5","test","true",""
"","","","","","html-keyboard-response","176","251995","0.0-7.46-2.46","610f6ad52d97d9a654d5c14c","6573617f270241e5da3d355d","6576c0d96b1b9a91cba7a879","null","<p> <font color=""green"" size=""5vw""> Correct category! </font> <br> <br> <font color=""green"" size=""8vw""> + $0.07 </font> </p>","null","feedback","","","","","","","2.61"
"","","","","","html-keyboard-response","177","252811","0.0-7.47-0.47","610f6ad52d97d9a654d5c14c","6573617f270241e5da3d355d","6576c0d96b1b9a91cba7a879","815","
            
        <div style=""text-align: center; position: fixed; top: 5vh; left: 40vw;"">
            <div style=""margin:0 auto; width: 20vw; top: 8vh; font-size: 2vw""> 
            <font color=""green""> Bonus : $2.61 </font>
            </div>
        </div>
    
            <div> Please press any key to continue to the next movie.</div>
        ","arrowdown","ITI","","","","","","",""
"","","","","","html-keyboard-response","178","253417","0.0-7.47-1.47","610f6ad52d97d9a654d5c14c","6573617f270241e5da3d355d","6576c0d96b1b9a91cba7a879","605","./stimuli//pack_morph_shapes_1/cat_2/diff_5/ex_2_5_11.gif","arrowright","response","ArrowRight","11","2","5","test","true",""
"","","","","","html-keyboard-response","179","254929","0.0-7.47-2.47","610f6ad52d97d9a654d5c14c","6573617f270241e5da3d355d","6576c0d96b1b9a91cba7a879","null","<p> <font color=""green"" size=""5vw""> Correct category! </font> <br> <br> <font color=""green"" size=""8vw""> + $0.07 </font> </p>","null","feedback","","","","","","","2.68"
"","","","","","html-keyboard-response","180","255783","0.0-7.48-0.48","610f6ad52d97d9a654d5c14c","6573617f270241e5da3d355d","6576c0d96b1b9a91cba7a879","853","
            
        <div style=""text-align: center; position: fixed; top: 5vh; left: 40vw;"">
            <div style=""margin:0 auto; width: 20vw; top: 8vh; font-size: 2vw""> 
            <font color=""green""> Bonus : $2.68 </font>
            </div>
        </div>
    
            <div> Please press any key to continue to the next movie.</div>
        ","arrowdown","ITI","","","","","","",""
"","","","","","html-keyboard-response","181","256404","0.0-7.48-1.48","610f6ad52d97d9a654d5c14c","6573617f270241e5da3d355d","6576c0d96b1b9a91cba7a879","619","./stimuli//pack_morph_shapes_1/cat_1/diff_5/ex_1_5_8.gif","arrowleft","response","ArrowLeft","8","1","5","test","true",""
"","","","","","html-keyboard-response","182","257921","0.0-7.48-2.48","610f6ad52d97d9a654d5c14c","6573617f270241e5da3d355d","6576c0d96b1b9a91cba7a879","null","<p> <font color=""green"" size=""5vw""> Correct category! </font> <br> <br> <font color=""green"" size=""8vw""> + $0.07 </font> </p>","null","feedback","","","","","","","2.75"
"","","","","","html-keyboard-response","183","258590","0.0-7.49-0.49","610f6ad52d97d9a654d5c14c","6573617f270241e5da3d355d","6576c0d96b1b9a91cba7a879","668","
            
        <div style=""text-align: center; position: fixed; top: 5vh; left: 40vw;"">
            <div style=""margin:0 auto; width: 20vw; top: 8vh; font-size: 2vw""> 
            <font color=""green""> Bonus : $2.75 </font>
            </div>
        </div>
    
            <div> Please press any key to continue to the next movie.</div>
        ","arrowdown","ITI","","","","","","",""
"","","","","","html-keyboard-response","184","259429","0.0-7.49-1.49","610f6ad52d97d9a654d5c14c","6573617f270241e5da3d355d","6576c0d96b1b9a91cba7a879","838","./stimuli//pack_morph_shapes_1/cat_2/diff_5/ex_2_5_1.gif","arrowright","response","ArrowRight","1","2","5","test","true",""
"","","","","","html-keyboard-response","185","260931","0.0-7.49-2.49","610f6ad52d97d9a654d5c14c","6573617f270241e5da3d355d","6576c0d96b1b9a91cba7a879","null","<p> <font color=""green"" size=""5vw""> Correct category! </font> <br> <br> <font color=""green"" size=""8vw""> + $0.07 </font> </p>","null","feedback","","","","","","","2.82"
"","","","","","html-keyboard-response","186","261412","0.0-7.50-0.50","610f6ad52d97d9a654d5c14c","6573617f270241e5da3d355d","6576c0d96b1b9a91cba7a879","479","
            
        <div style=""text-align: center; position: fixed; top: 5vh; left: 40vw;"">
            <div style=""margin:0 auto; width: 20vw; top: 8vh; font-size: 2vw""> 
            <font color=""green""> Bonus : $2.82 </font>
            </div>
        </div>
    
            <div> Please press any key to continue to the next movie.</div>
        ","arrowdown","ITI","","","","","","",""
"","","","","","html-keyboard-response","187","262045","0.0-7.50-1.50","610f6ad52d97d9a654d5c14c","6573617f270241e5da3d355d","6576c0d96b1b9a91cba7a879","632","./stimuli//pack_morph_shapes_1/cat_2/diff_5/ex_2_5_1.gif","arrowright","response","ArrowRight","1","2","5","test","true",""
"","","","","","html-keyboard-response","188","263555","0.0-7.50-2.50","610f6ad52d97d9a654d5c14c","6573617f270241e5da3d355d","6576c0d96b1b9a91cba7a879","null","<p> <font color=""green"" size=""5vw""> Correct category! </font> <br> <br> <font color=""green"" size=""8vw""> + $0.07 </font> </p>","null","feedback","","","","","","","2.89"
"","","","","","html-keyboard-response","189","264110","0.0-7.51-0.51","610f6ad52d97d9a654d5c14c","6573617f270241e5da3d355d","6576c0d96b1b9a91cba7a879","554","
            
        <div style=""text-align: center; position: fixed; top: 5vh; left: 40vw;"">
            <div style=""margin:0 auto; width: 20vw; top: 8vh; font-size: 2vw""> 
            <font color=""green""> Bonus : $2.89 </font>
            </div>
        </div>
    
            <div> Please press any key to continue to the next movie.</div>
        ","arrowdown","ITI","","","","","","",""
"","","","","","html-keyboard-response","190","265273","0.0-7.51-1.51","610f6ad52d97d9a654d5c14c","6573617f270241e5da3d355d","6576c0d96b1b9a91cba7a879","1162","./stimuli//pack_morph_shapes_1/cat_1/diff_5/ex_1_5_13.gif","arrowleft","response","ArrowLeft","13","1","5","test","true",""
"","","","","","html-keyboard-response","191","266778","0.0-7.51-2.51","610f6ad52d97d9a654d5c14c","6573617f270241e5da3d355d","6576c0d96b1b9a91cba7a879","null","<p> <font color=""green"" size=""5vw""> Correct category! </font> <br> <br> <font color=""green"" size=""8vw""> + $0.06 </font> </p>","null","feedback","","","","","","","2.95"
"","","","","","html-keyboard-response","192","267329","0.0-7.52-0.52","610f6ad52d97d9a654d5c14c","6573617f270241e5da3d355d","6576c0d96b1b9a91cba7a879","550","
            
        <div style=""text-align: center; position: fixed; top: 5vh; left: 40vw;"">
            <div style=""margin:0 auto; width: 20vw; top: 8vh; font-size: 2vw""> 
            <font color=""green""> Bonus : $2.95 </font>
            </div>
        </div>
    
            <div> Please press any key to continue to the next movie.</div>
        ","arrowdown","ITI","","","","","","",""
"","","","","","html-keyboard-response","193","268081","0.0-7.52-1.52","610f6ad52d97d9a654d5c14c","6573617f270241e5da3d355d","6576c0d96b1b9a91cba7a879","750","./stimuli//pack_morph_shapes_1/cat_1/diff_5/ex_1_5_11.gif","arrowleft","response","ArrowLeft","11","1","5","test","true",""
"","","","","","html-keyboard-response","194","269597","0.0-7.52-2.52","610f6ad52d97d9a654d5c14c","6573617f270241e5da3d355d","6576c0d96b1b9a91cba7a879","null","<p> <font color=""green"" size=""5vw""> Correct category! </font> <br> <br> <font color=""green"" size=""8vw""> + $0.07 </font> </p>","null","feedback","","","","","","","3.02"
"","","","","","html-keyboard-response","195","270092","0.0-7.53-0.53","610f6ad52d97d9a654d5c14c","6573617f270241e5da3d355d","6576c0d96b1b9a91cba7a879","494","
            
        <div style=""text-align: center; position: fixed; top: 5vh; left: 40vw;"">
            <div style=""margin:0 auto; width: 20vw; top: 8vh; font-size: 2vw""> 
            <font color=""green""> Bonus : $3.02 </font>
            </div>
        </div>
    
            <div> Please press any key to continue to the next movie.</div>
        ","arrowdown","ITI","","","","","","",""
"","","","","","html-keyboard-response","196","270686","0.0-7.53-1.53","610f6ad52d97d9a654d5c14c","6573617f270241e5da3d355d","6576c0d96b1b9a91cba7a879","592","./stimuli//pack_morph_shapes_1/cat_2/diff_5/ex_2_5_7.gif","arrowright","response","ArrowRight","7","2","5","test","true",""
"","","","","","html-keyboard-response","197","272193","0.0-7.53-2.53","610f6ad52d97d9a654d5c14c","6573617f270241e5da3d355d","6576c0d96b1b9a91cba7a879","null","<p> <font color=""green"" size=""5vw""> Correct category! </font> <br> <br> <font color=""green"" size=""8vw""> + $0.07 </font> </p>","null","feedback","","","","","","","3.09"
"","","","","","html-keyboard-response","198","272934","0.0-7.54-0.54","610f6ad52d97d9a654d5c14c","6573617f270241e5da3d355d","6576c0d96b1b9a91cba7a879","740","
            
        <div style=""text-align: center; position: fixed; top: 5vh; left: 40vw;"">
            <div style=""margin:0 auto; width: 20vw; top: 8vh; font-size: 2vw""> 
            <font color=""green""> Bonus : $3.09 </font>
            </div>
        </div>
    
            <div> Please press any key to continue to the next movie.</div>
        ","arrowdown","ITI","","","","","","",""
"","","","","","html-keyboard-response","199","273874","0.0-7.54-1.54","610f6ad52d97d9a654d5c14c","6573617f270241e5da3d355d","6576c0d96b1b9a91cba7a879","940","./stimuli//pack_morph_shapes_1/cat_2/diff_5/ex_2_5_11.gif","arrowright","response","ArrowRight","11","2","5","test","true",""
"","","","","","html-keyboard-response","200","275388","0.0-7.54-2.54","610f6ad52d97d9a654d5c14c","6573617f270241e5da3d355d","6576c0d96b1b9a91cba7a879","null","<p> <font color=""green"" size=""5vw""> Correct category! </font> <br> <br> <font color=""green"" size=""8vw""> + $0.06 </font> </p>","null","feedback","","","","","","","3.15"
"","","","","","html-keyboard-response","201","275989","0.0-7.55-0.55","610f6ad52d97d9a654d5c14c","6573617f270241e5da3d355d","6576c0d96b1b9a91cba7a879","600","
            
        <div style=""text-align: center; position: fixed; top: 5vh; left: 40vw;"">
            <div style=""margin:0 auto; width: 20vw; top: 8vh; font-size: 2vw""> 
            <font color=""green""> Bonus : $3.15 </font>
            </div>
        </div>
    
            <div> Please press any key to continue to the next movie.</div>
        ","arrowdown","ITI","","","","","","",""
"","","","","","html-keyboard-response","202","276950","0.0-7.55-1.55","610f6ad52d97d9a654d5c14c","6573617f270241e5da3d355d","6576c0d96b1b9a91cba7a879","958","./stimuli//pack_morph_shapes_1/cat_1/diff_5/ex_1_5_13.gif","arrowleft","response","ArrowLeft","13","1","5","test","true",""
"","","","","","html-keyboard-response","203","278453","0.0-7.55-2.55","610f6ad52d97d9a654d5c14c","6573617f270241e5da3d355d","6576c0d96b1b9a91cba7a879","null","<p> <font color=""green"" size=""5vw""> Correct category! </font> <br> <br> <font color=""green"" size=""8vw""> + $0.06 </font> </p>","null","feedback","","","","","","","3.21"
"","","","","","html-keyboard-response","204","278937","0.0-7.56-0.56","610f6ad52d97d9a654d5c14c","6573617f270241e5da3d355d","6576c0d96b1b9a91cba7a879","483","
            
        <div style=""text-align: center; position: fixed; top: 5vh; left: 40vw;"">
            <div style=""margin:0 auto; width: 20vw; top: 8vh; font-size: 2vw""> 
            <font color=""green""> Bonus : $3.21 </font>
            </div>
        </div>
    
            <div> Please press any key to continue to the next movie.</div>
        ","arrowdown","ITI","","","","","","",""
"","","","","","html-keyboard-response","205","279947","0.0-7.56-1.56","610f6ad52d97d9a654d5c14c","6573617f270241e5da3d355d","6576c0d96b1b9a91cba7a879","1009","./stimuli//pack_morph_shapes_1/cat_2/diff_5/ex_2_5_5.gif","arrowright","response","ArrowRight","5","2","5","test","true",""
"","","","","","html-keyboard-response","206","281449","0.0-7.56-2.56","610f6ad52d97d9a654d5c14c","6573617f270241e5da3d355d","6576c0d96b1b9a91cba7a879","null","<p> <font color=""green"" size=""5vw""> Correct category! </font> <br> <br> <font color=""green"" size=""8vw""> + $0.06 </font> </p>","null","feedback","","","","","","","3.27"
"","","","","","html-keyboard-response","207","282135","0.0-7.57-0.57","610f6ad52d97d9a654d5c14c","6573617f270241e5da3d355d","6576c0d96b1b9a91cba7a879","684","
            
        <div style=""text-align: center; position: fixed; top: 5vh; left: 40vw;"">
            <div style=""margin:0 auto; width: 20vw; top: 8vh; font-size: 2vw""> 
            <font color=""green""> Bonus : $3.27 </font>
            </div>
        </div>
    
            <div> Please press any key to continue to the next movie.</div>
        ","arrowdown","ITI","","","","","","",""
"","","","","","html-keyboard-response","208","283144","0.0-7.57-1.57","610f6ad52d97d9a654d5c14c","6573617f270241e5da3d355d","6576c0d96b1b9a91cba7a879","1008","./stimuli//pack_morph_shapes_1/cat_1/diff_5/ex_1_5_12.gif","arrowleft","response","ArrowLeft","12","1","5","test","true",""
"","","","","","html-keyboard-response","209","284656","0.0-7.57-2.57","610f6ad52d97d9a654d5c14c","6573617f270241e5da3d355d","6576c0d96b1b9a91cba7a879","null","<p> <font color=""green"" size=""5vw""> Correct category! </font> <br> <br> <font color=""green"" size=""8vw""> + $0.06 </font> </p>","null","feedback","","","","","","","3.33"
"","","","","","html-keyboard-response","210","284991","0.0-7.58-0.58","610f6ad52d97d9a654d5c14c","6573617f270241e5da3d355d","6576c0d96b1b9a91cba7a879","333","
            
        <div style=""text-align: center; position: fixed; top: 5vh; left: 40vw;"">
            <div style=""margin:0 auto; width: 20vw; top: 8vh; font-size: 2vw""> 
            <font color=""green""> Bonus : $3.33 </font>
            </div>
        </div>
    
            <div> Please press any key to continue to the next movie.</div>
        ","arrowdown","ITI","","","","","","",""
"","","","","","html-keyboard-response","211","285590","0.0-7.58-1.58","610f6ad52d97d9a654d5c14c","6573617f270241e5da3d355d","6576c0d96b1b9a91cba7a879","598","./stimuli//pack_morph_shapes_1/cat_2/diff_5/ex_2_5_11.gif","arrowright","response","ArrowRight","11","2","5","test","true",""
"","","","","","html-keyboard-response","212","287098","0.0-7.58-2.58","610f6ad52d97d9a654d5c14c","6573617f270241e5da3d355d","6576c0d96b1b9a91cba7a879","null","<p> <font color=""green"" size=""5vw""> Correct category! </font> <br> <br> <font color=""green"" size=""8vw""> + $0.07 </font> </p>","null","feedback","","","","","","","3.4"
"","","","","","html-keyboard-response","213","287578","0.0-7.59-0.59","610f6ad52d97d9a654d5c14c","6573617f270241e5da3d355d","6576c0d96b1b9a91cba7a879","478","
            
        <div style=""text-align: center; position: fixed; top: 5vh; left: 40vw;"">
            <div style=""margin:0 auto; width: 20vw; top: 8vh; font-size: 2vw""> 
            <font color=""green""> Bonus : $3.4 </font>
            </div>
        </div>
    
            <div> Please press any key to continue to the next movie.</div>
        ","arrowdown","ITI","","","","","","",""
"","","","","","html-keyboard-response","214","288537","0.0-7.59-1.59","610f6ad52d97d9a654d5c14c","6573617f270241e5da3d355d","6576c0d96b1b9a91cba7a879","958","./stimuli//pack_morph_shapes_1/cat_2/diff_5/ex_2_5_10.gif","arrowleft","response","ArrowRight","10","2","5","test","false",""
"","","","","","html-keyboard-response","215","290040","0.0-7.59-2.59","610f6ad52d97d9a654d5c14c","6573617f270241e5da3d355d","6576c0d96b1b9a91cba7a879","null","<p> <font color=""red"" size=""5vw""> Wrong category! </font> <br> <br> <font color=""red"" size=""8vw""> - $0.05 </font> </p>","null","feedback","","","","","","","3.35"
"","","","","","html-keyboard-response","216","290399","0.0-7.60-0.60","610f6ad52d97d9a654d5c14c","6573617f270241e5da3d355d","6576c0d96b1b9a91cba7a879","358","
            
        <div style=""text-align: center; position: fixed; top: 5vh; left: 40vw;"">
            <div style=""margin:0 auto; width: 20vw; top: 8vh; font-size: 2vw""> 
            <font color=""green""> Bonus : $3.35 </font>
            </div>
        </div>
    
            <div> Please press any key to continue to the next movie.</div>
        ","arrowdown","ITI","","","","","","",""
"","","","","","html-keyboard-response","217","291239","0.0-7.60-1.60","610f6ad52d97d9a654d5c14c","6573617f270241e5da3d355d","6576c0d96b1b9a91cba7a879","839","./stimuli//pack_morph_shapes_1/cat_1/diff_5/ex_1_5_10.gif","arrowright","response","ArrowLeft","10","1","5","test","false",""
"","","","","","html-keyboard-response","218","292740","0.0-7.60-2.60","610f6ad52d97d9a654d5c14c","6573617f270241e5da3d355d","6576c0d96b1b9a91cba7a879","null","<p> <font color=""red"" size=""5vw""> Wrong category! </font> <br> <br> <font color=""red"" size=""8vw""> - $0.05 </font> </p>","null","feedback","","","","","","","3.3"
"","","","","","html-keyboard-response","219","294152","0.0-7.61-0.61","610f6ad52d97d9a654d5c14c","6573617f270241e5da3d355d","6576c0d96b1b9a91cba7a879","1410","
            
        <div style=""text-align: center; position: fixed; top: 5vh; left: 40vw;"">
            <div style=""margin:0 auto; width: 20vw; top: 8vh; font-size: 2vw""> 
            <font color=""green""> Bonus : $3.3 </font>
            </div>
        </div>
    
            <div> Please press any key to continue to the next movie.</div>
        ","arrowdown","ITI","","","","","","",""
"","","","","","html-keyboard-response","220","295181","0.0-7.61-1.61","610f6ad52d97d9a654d5c14c","6573617f270241e5da3d355d","6576c0d96b1b9a91cba7a879","1028","./stimuli//pack_morph_shapes_1/cat_1/diff_4/ex_1_4_10.gif","arrowleft","response","ArrowLeft","10","1","4","test","true",""
"","","","","","html-keyboard-response","221","296684","0.0-7.61-2.61","610f6ad52d97d9a654d5c14c","6573617f270241e5da3d355d","6576c0d96b1b9a91cba7a879","null","<p> <font color=""green"" size=""5vw""> Correct category! </font> <br> <br> <font color=""green"" size=""8vw""> + $0.06 </font> </p>","null","feedback","","","","","","","3.36"
"","","","","","html-keyboard-response","222","297187","0.0-7.62-0.62","610f6ad52d97d9a654d5c14c","6573617f270241e5da3d355d","6576c0d96b1b9a91cba7a879","501","
            
        <div style=""text-align: center; position: fixed; top: 5vh; left: 40vw;"">
            <div style=""margin:0 auto; width: 20vw; top: 8vh; font-size: 2vw""> 
            <font color=""green""> Bonus : $3.36 </font>
            </div>
        </div>
    
            <div> Please press any key to continue to the next movie.</div>
        ","arrowdown","ITI","","","","","","",""
"","","","","","html-keyboard-response","223","298170","0.0-7.62-1.62","610f6ad52d97d9a654d5c14c","6573617f270241e5da3d355d","6576c0d96b1b9a91cba7a879","982","./stimuli//pack_morph_shapes_1/cat_1/diff_4/ex_1_4_3.gif","arrowleft","response","ArrowLeft","3","1","4","test","true",""
"","","","","","html-keyboard-response","224","299687","0.0-7.62-2.62","610f6ad52d97d9a654d5c14c","6573617f270241e5da3d355d","6576c0d96b1b9a91cba7a879","null","<p> <font color=""green"" size=""5vw""> Correct category! </font> <br> <br> <font color=""green"" size=""8vw""> + $0.06 </font> </p>","null","feedback","","","","","","","3.42"
"","","","","","html-keyboard-response","225","300200","0.0-7.63-0.63","610f6ad52d97d9a654d5c14c","6573617f270241e5da3d355d","6576c0d96b1b9a91cba7a879","512","
            
        <div style=""text-align: center; position: fixed; top: 5vh; left: 40vw;"">
            <div style=""margin:0 auto; width: 20vw; top: 8vh; font-size: 2vw""> 
            <font color=""green""> Bonus : $3.42 </font>
            </div>
        </div>
    
            <div> Please press any key to continue to the next movie.</div>
        ","arrowdown","ITI","","","","","","",""
"","","","","","html-keyboard-response","226","301165","0.0-7.63-1.63","610f6ad52d97d9a654d5c14c","6573617f270241e5da3d355d","6576c0d96b1b9a91cba7a879","964","./stimuli//pack_morph_shapes_1/cat_1/diff_4/ex_1_4_12.gif","arrowleft","response","ArrowLeft","12","1","4","test","true",""
"","","","","","html-keyboard-response","227","302672","0.0-7.63-2.63","610f6ad52d97d9a654d5c14c","6573617f270241e5da3d355d","6576c0d96b1b9a91cba7a879","null","<p> <font color=""green"" size=""5vw""> Correct category! </font> <br> <br> <font color=""green"" size=""8vw""> + $0.06 </font> </p>","null","feedback","","","","","","","3.48"
"","","","","","html-keyboard-response","228","302756","0.0-7.64-0.64","610f6ad52d97d9a654d5c14c","6573617f270241e5da3d355d","6576c0d96b1b9a91cba7a879","84","
            
        <div style=""text-align: center; position: fixed; top: 5vh; left: 40vw;"">
            <div style=""margin:0 auto; width: 20vw; top: 8vh; font-size: 2vw""> 
            <font color=""green""> Bonus : $3.48 </font>
            </div>
        </div>
    
            <div> Please press any key to continue to the next movie.</div>
        ","arrowdown","ITI","","","","","","",""
"","","","","","html-keyboard-response","229","303420","0.0-7.64-1.64","610f6ad52d97d9a654d5c14c","6573617f270241e5da3d355d","6576c0d96b1b9a91cba7a879","663","./stimuli//pack_morph_shapes_1/cat_2/diff_4/ex_2_4_1.gif","arrowright","response","ArrowRight","1","2","4","test","true",""
"","","","","","html-keyboard-response","230","304922","0.0-7.64-2.64","610f6ad52d97d9a654d5c14c","6573617f270241e5da3d355d","6576c0d96b1b9a91cba7a879","null","<p> <font color=""green"" size=""5vw""> Correct category! </font> <br> <br> <font color=""green"" size=""8vw""> + $0.07 </font> </p>","null","feedback","","","","","","","3.55"
"","","","","","html-keyboard-response","231","305262","0.0-7.65-0.65","610f6ad52d97d9a654d5c14c","6573617f270241e5da3d355d","6576c0d96b1b9a91cba7a879","339","
            
        <div style=""text-align: center; position: fixed; top: 5vh; left: 40vw;"">
            <div style=""margin:0 auto; width: 20vw; top: 8vh; font-size: 2vw""> 
            <font color=""green""> Bonus : $3.55 </font>
            </div>
        </div>
    
            <div> Please press any key to continue to the next movie.</div>
        ","arrowdown","ITI","","","","","","",""
"","","","","","html-keyboard-response","232","305812","0.0-7.65-1.65","610f6ad52d97d9a654d5c14c","6573617f270241e5da3d355d","6576c0d96b1b9a91cba7a879","548","./stimuli//pack_morph_shapes_1/cat_2/diff_4/ex_2_4_1.gif","arrowright","response","ArrowRight","1","2","4","test","true",""
"","","","","","html-keyboard-response","233","307314","0.0-7.65-2.65","610f6ad52d97d9a654d5c14c","6573617f270241e5da3d355d","6576c0d96b1b9a91cba7a879","null","<p> <font color=""green"" size=""5vw""> Correct category! </font> <br> <br> <font color=""green"" size=""8vw""> + $0.08 </font> </p>","null","feedback","","","","","","","3.63"
"","","","","","html-keyboard-response","234","307863","0.0-7.66-0.66","610f6ad52d97d9a654d5c14c","6573617f270241e5da3d355d","6576c0d96b1b9a91cba7a879","548","
            
        <div style=""text-align: center; position: fixed; top: 5vh; left: 40vw;"">
            <div style=""margin:0 auto; width: 20vw; top: 8vh; font-size: 2vw""> 
            <font color=""green""> Bonus : $3.63 </font>
            </div>
        </div>
    
            <div> Please press any key to continue to the next movie.</div>
        ","arrowdown","ITI","","","","","","",""
"","","","","","html-keyboard-response","235","308654","0.0-7.66-1.66","610f6ad52d97d9a654d5c14c","6573617f270241e5da3d355d","6576c0d96b1b9a91cba7a879","789","./stimuli//pack_morph_shapes_1/cat_1/diff_5/ex_1_5_4.gif","arrowleft","response","ArrowLeft","4","1","5","test","true",""
"","","","","","html-keyboard-response","236","310160","0.0-7.66-2.66","610f6ad52d97d9a654d5c14c","6573617f270241e5da3d355d","6576c0d96b1b9a91cba7a879","null","<p> <font color=""green"" size=""5vw""> Correct category! </font> <br> <br> <font color=""green"" size=""8vw""> + $0.07 </font> </p>","null","feedback","","","","","","","3.7"
"","","","","","html-keyboard-response","237","310566","0.0-7.67-0.67","610f6ad52d97d9a654d5c14c","6573617f270241e5da3d355d","6576c0d96b1b9a91cba7a879","404","
            
        <div style=""text-align: center; position: fixed; top: 5vh; left: 40vw;"">
            <div style=""margin:0 auto; width: 20vw; top: 8vh; font-size: 2vw""> 
            <font color=""green""> Bonus : $3.7 </font>
            </div>
        </div>
    
            <div> Please press any key to continue to the next movie.</div>
        ","arrowdown","ITI","","","","","","",""
"","","","","","html-keyboard-response","238","311107","0.0-7.67-1.67","610f6ad52d97d9a654d5c14c","6573617f270241e5da3d355d","6576c0d96b1b9a91cba7a879","540","./stimuli//pack_morph_shapes_1/cat_2/diff_5/ex_2_5_7.gif","arrowright","response","ArrowRight","7","2","5","test","true",""
"","","","","","html-keyboard-response","239","312614","0.0-7.67-2.67","610f6ad52d97d9a654d5c14c","6573617f270241e5da3d355d","6576c0d96b1b9a91cba7a879","null","<p> <font color=""green"" size=""5vw""> Correct category! </font> <br> <br> <font color=""green"" size=""8vw""> + $0.08 </font> </p>","null","feedback","","","","","","","3.78"
"","","","","","html-keyboard-response","240","313607","0.0-7.68-0.68","610f6ad52d97d9a654d5c14c","6573617f270241e5da3d355d","6576c0d96b1b9a91cba7a879","992","
            
        <div style=""text-align: center; position: fixed; top: 5vh; left: 40vw;"">
            <div style=""margin:0 auto; width: 20vw; top: 8vh; font-size: 2vw""> 
            <font color=""green""> Bonus : $3.78 </font>
            </div>
        </div>
    
            <div> Please press any key to continue to the next movie.</div>
        ","arrowdown","ITI","","","","","","",""
"","","","","","html-keyboard-response","241","314386","0.0-7.68-1.68","610f6ad52d97d9a654d5c14c","6573617f270241e5da3d355d","6576c0d96b1b9a91cba7a879","778","./stimuli//pack_morph_shapes_1/cat_1/diff_5/ex_1_5_1.gif","arrowleft","response","ArrowLeft","1","1","5","test","true",""
"","","","","","html-keyboard-response","242","315891","0.0-7.68-2.68","610f6ad52d97d9a654d5c14c","6573617f270241e5da3d355d","6576c0d96b1b9a91cba7a879","null","<p> <font color=""green"" size=""5vw""> Correct category! </font> <br> <br> <font color=""green"" size=""8vw""> + $0.07 </font> </p>","null","feedback","","","","","","","3.85"
"","","","","","html-keyboard-response","243","316354","0.0-7.69-0.69","610f6ad52d97d9a654d5c14c","6573617f270241e5da3d355d","6576c0d96b1b9a91cba7a879","462","
            
        <div style=""text-align: center; position: fixed; top: 5vh; left: 40vw;"">
            <div style=""margin:0 auto; width: 20vw; top: 8vh; font-size: 2vw""> 
            <font color=""green""> Bonus : $3.85 </font>
            </div>
        </div>
    
            <div> Please press any key to continue to the next movie.</div>
        ","arrowdown","ITI","","","","","","",""
"","","","","","html-keyboard-response","244","317070","0.0-7.69-1.69","610f6ad52d97d9a654d5c14c","6573617f270241e5da3d355d","6576c0d96b1b9a91cba7a879","714","./stimuli//pack_morph_shapes_1/cat_2/diff_5/ex_2_5_5.gif","arrowright","response","ArrowRight","5","2","5","test","true",""
"","","","","","html-keyboard-response","245","318586","0.0-7.69-2.69","610f6ad52d97d9a654d5c14c","6573617f270241e5da3d355d","6576c0d96b1b9a91cba7a879","null","<p> <font color=""green"" size=""5vw""> Correct category! </font> <br> <br> <font color=""green"" size=""8vw""> + $0.07 </font> </p>","null","feedback","","","","","","","3.92"
"","","","","","html-keyboard-response","246","319021","0.0-7.70-0.70","610f6ad52d97d9a654d5c14c","6573617f270241e5da3d355d","6576c0d96b1b9a91cba7a879","433","
            
        <div style=""text-align: center; position: fixed; top: 5vh; left: 40vw;"">
            <div style=""margin:0 auto; width: 20vw; top: 8vh; font-size: 2vw""> 
            <font color=""green""> Bonus : $3.92 </font>
            </div>
        </div>
    
            <div> Please press any key to continue to the next movie.</div>
        ","arrowdown","ITI","","","","","","",""
"","","","","","html-keyboard-response","247","319981","0.0-7.70-1.70","610f6ad52d97d9a654d5c14c","6573617f270241e5da3d355d","6576c0d96b1b9a91cba7a879","959","./stimuli//pack_morph_shapes_1/cat_2/diff_5/ex_2_5_3.gif","arrowright","response","ArrowRight","3","2","5","test","true",""
"","","","","","html-keyboard-response","248","321484","0.0-7.70-2.70","610f6ad52d97d9a654d5c14c","6573617f270241e5da3d355d","6576c0d96b1b9a91cba7a879","null","<p> <font color=""green"" size=""5vw""> Correct category! </font> <br> <br> <font color=""green"" size=""8vw""> + $0.06 </font> </p>","null","feedback","","","","","","","3.98"
"","","","","","html-keyboard-response","249","321848","0.0-7.71-0.71","610f6ad52d97d9a654d5c14c","6573617f270241e5da3d355d","6576c0d96b1b9a91cba7a879","362","
            
        <div style=""text-align: center; position: fixed; top: 5vh; left: 40vw;"">
            <div style=""margin:0 auto; width: 20vw; top: 8vh; font-size: 2vw""> 
            <font color=""green""> Bonus : $3.98 </font>
            </div>
        </div>
    
            <div> Please press any key to continue to the next movie.</div>
        ","arrowdown","ITI","","","","","","",""
"","","","","","html-keyboard-response","250","322588","0.0-7.71-1.71","610f6ad52d97d9a654d5c14c","6573617f270241e5da3d355d","6576c0d96b1b9a91cba7a879","739","./stimuli//pack_morph_shapes_1/cat_2/diff_5/ex_2_5_17.gif","arrowleft","response","ArrowRight","17","2","5","test","false",""
"","","","","","html-keyboard-response","251","324094","0.0-7.71-2.71","610f6ad52d97d9a654d5c14c","6573617f270241e5da3d355d","6576c0d96b1b9a91cba7a879","null","<p> <font color=""red"" size=""5vw""> Wrong category! </font> <br> <br> <font color=""red"" size=""8vw""> - $0.05 </font> </p>","null","feedback","","","","","","","3.93"
"","","","","","html-keyboard-response","252","324443","0.0-7.72-0.72","610f6ad52d97d9a654d5c14c","6573617f270241e5da3d355d","6576c0d96b1b9a91cba7a879","348","
            
        <div style=""text-align: center; position: fixed; top: 5vh; left: 40vw;"">
            <div style=""margin:0 auto; width: 20vw; top: 8vh; font-size: 2vw""> 
            <font color=""green""> Bonus : $3.93 </font>
            </div>
        </div>
    
            <div> Please press any key to continue to the next movie.</div>
        ","arrowdown","ITI","","","","","","",""
"","","","","","html-keyboard-response","253","325365","0.0-7.72-1.72","610f6ad52d97d9a654d5c14c","6573617f270241e5da3d355d","6576c0d96b1b9a91cba7a879","920","./stimuli//pack_morph_shapes_1/cat_1/diff_5/ex_1_5_1.gif","arrowleft","response","ArrowLeft","1","1","5","test","true",""
