"success","timeout","failed_images","failed_audio","failed_video","trial_type","trial_index","time_elapsed","internal_node_id","subject_id","study_id","session_id","rt","stimulus","response","task","correct_response","exemplar_ID","category","difficulty","phase","correct","bonus"
"true","false","[]","[]","[]","preload","0","2","0.0-0.0","6536863d842725446b9012ce","6573617f270241e5da3d355d","6576cf21c11e076e274f4154","","","","","","","","","","",""
"","","","","","html-keyboard-response","1","3164","0.0-1.0","6536863d842725446b9012ce","6573617f270241e5da3d355d","6576cf21c11e076e274f4154","3161","Welcome to the Category Learning experiment! Press any key to continue."," ","welcome","","","","","","",""
"","","","","","html-keyboard-response","2","90761","0.0-2.0","6536863d842725446b9012ce","6573617f270241e5da3d355d","6576cf21c11e076e274f4154","87596","
            <p>You will be shown movies. Each movie contains a sequence of shapes changing form. 
            <br> Some shapes are category A, some are category B. <b> Within a single movie, all shapes belong to the same category. </b>
            <br> You will not know in advance which category the shapes of each movie belong to.</p>
            <p> While you watch a movie, you have to guess the category that its shapes belong to <b>(left arrow for category A, right arrow for category B)</b></p>
            <p> After you choose, the screen will show you whether you were correct or not.</p>
            <p>Press any key to continue.</p>
            ","arrowleft","introduction_1","","","","","","",""
"","","","","","html-keyboard-response","3","91932","0.0-3.0","6536863d842725446b9012ce","6573617f270241e5da3d355d","6576cf21c11e076e274f4154","1171","
              <p><b>You will receive a bonus payment for each correct answer! The faster you answer the higher the bonus will be!</b></p>
              <p> So you can increase your bonus by guessing as quickly and accurately as possible.</p>
              <p><b>You will lose $0.05 from your bonus payment for each incorrect answer! The bonus can not become less that $0.</b> </p>
              <p>Press any key to continue.</p>
              ","arrowright","introduction_2","","","","","","",""
"","","","","","html-keyboard-response","4","99030","0.0-4.0","6536863d842725446b9012ce","6573617f270241e5da3d355d","6576cf21c11e076e274f4154","7098","
            <p> <b>The first 10 trials are a practice round that will not count towards your bonus payment.</b></p>
            <p> You will be notified when practice finishes and the test begins. </p>
            <p> Press any key to begin the practice round.</p>
            ","arrowleft","introduction_3","","","","","","",""
"","","","","","html-keyboard-response","5","103091","0.0-5.0-0.0","6536863d842725446b9012ce","6573617f270241e5da3d355d","6576cf21c11e076e274f4154","4060","
            
        <div style=""text-align: center; position: fixed; top: 5vh; left: 40vw;"">
            <div style=""margin:0 auto; width: 20vw; top: 8vh; font-size: 2vw""> 
            <font color=""green""> Bonus : $0 </font>
            </div>
        </div>
    
            <div> Please press any key to continue to the next movie.</div>
        ","arrowright","ITI","","","","","","",""
"","","","","","html-keyboard-response","6","105020","0.0-5.0-1.0","6536863d842725446b9012ce","6573617f270241e5da3d355d","6576cf21c11e076e274f4154","1928","./stimuli//pack_morph_shapes_1/cat_1/diff_2/ex_1_2_8.gif","arrowleft","response","ArrowLeft","8","1","2","train","true",""
"","","","","","html-keyboard-response","7","106524","0.0-5.0-2.0","6536863d842725446b9012ce","6573617f270241e5da3d355d","6576cf21c11e076e274f4154","null","<p> <font color=""green"" size=""5vw""> Correct category! </font> </p>","null","feedback","","","","","","","0"
"","","","","","html-keyboard-response","8","109663","0.0-5.0-0.1","6536863d842725446b9012ce","6573617f270241e5da3d355d","6576cf21c11e076e274f4154","3138","
            
        <div style=""text-align: center; position: fixed; top: 5vh; left: 40vw;"">
            <div style=""margin:0 auto; width: 20vw; top: 8vh; font-size: 2vw""> 
            <font color=""green""> Bonus : $0 </font>
            </div>
        </div>
    
            <div> Please press any key to continue to the next movie.</div>
        ","arrowleft","ITI","","","","","","",""
"","","","","","html-keyboard-response","9","111562","0.0-5.0-1.1","6536863d842725446b9012ce","6573617f270241e5da3d355d","6576cf21c11e076e274f4154","1899","./stimuli//pack_morph_shapes_1/cat_2/diff_2/ex_2_2_2.gif","arrowright","response","ArrowRight","2","2","2","train","true",""
"","","","","","html-keyboard-response","10","113066","0.0-5.0-2.1","6536863d842725446b9012ce","6573617f270241e5da3d355d","6576cf21c11e076e274f4154","null","<p> <font color=""green"" size=""5vw""> Correct category! </font> </p>","null","feedback","","","","","","","0"
"","","","","","html-keyboard-response","11","114618","0.0-5.0-0.2","6536863d842725446b9012ce","6573617f270241e5da3d355d","6576cf21c11e076e274f4154","1552","
            
        <div style=""text-align: center; position: fixed; top: 5vh; left: 40vw;"">
            <div style=""margin:0 auto; width: 20vw; top: 8vh; font-size: 2vw""> 
            <font color=""green""> Bonus : $0 </font>
            </div>
        </div>
    
            <div> Please press any key to continue to the next movie.</div>
        ","arrowright","ITI","","","","","","",""
"","","","","","html-keyboard-response","12","115760","0.0-5.0-1.2","6536863d842725446b9012ce","6573617f270241e5da3d355d","6576cf21c11e076e274f4154","1142","./stimuli//pack_morph_shapes_1/cat_2/diff_1/ex_2_1_15.gif","arrowleft","response","ArrowRight","15","2","1","train","false",""
"","","","","","html-keyboard-response","13","117262","0.0-5.0-2.2","6536863d842725446b9012ce","6573617f270241e5da3d355d","6576cf21c11e076e274f4154","null","<p> <font color=""red"" size=""5vw""> Wrong category! </font> </p>","null","feedback","","","","","","","0"
"","","","","","html-keyboard-response","14","118326","0.0-5.0-0.3","6536863d842725446b9012ce","6573617f270241e5da3d355d","6576cf21c11e076e274f4154","1063","
            
        <div style=""text-align: center; position: fixed; top: 5vh; left: 40vw;"">
            <div style=""margin:0 auto; width: 20vw; top: 8vh; font-size: 2vw""> 
            <font color=""green""> Bonus : $0 </font>
            </div>
        </div>
    
            <div> Please press any key to continue to the next movie.</div>
        ","arrowleft","ITI","","","","","","",""
"","","","","","html-keyboard-response","15","119416","0.0-5.0-1.3","6536863d842725446b9012ce","6573617f270241e5da3d355d","6576cf21c11e076e274f4154","1090","./stimuli//pack_morph_shapes_1/cat_2/diff_2/ex_2_2_6.gif","arrowright","response","ArrowRight","6","2","2","train","true",""
"","","","","","html-keyboard-response","16","120928","0.0-5.0-2.3","6536863d842725446b9012ce","6573617f270241e5da3d355d","6576cf21c11e076e274f4154","null","<p> <font color=""green"" size=""5vw""> Correct category! </font> </p>","null","feedback","","","","","","","0"
"","","","","","html-keyboard-response","17","121915","0.0-5.0-0.4","6536863d842725446b9012ce","6573617f270241e5da3d355d","6576cf21c11e076e274f4154","986","
            
        <div style=""text-align: center; position: fixed; top: 5vh; left: 40vw;"">
            <div style=""margin:0 auto; width: 20vw; top: 8vh; font-size: 2vw""> 
            <font color=""green""> Bonus : $0 </font>
            </div>
        </div>
    
            <div> Please press any key to continue to the next movie.</div>
        ","arrowright","ITI","","","","","","",""
"","","","","","html-keyboard-response","18","122841","0.0-5.0-1.4","6536863d842725446b9012ce","6573617f270241e5da3d355d","6576cf21c11e076e274f4154","926","./stimuli//pack_morph_shapes_1/cat_1/diff_1/ex_1_1_1.gif","arrowleft","response","ArrowLeft","1","1","1","train","true",""
"","","","","","html-keyboard-response","19","124349","0.0-5.0-2.4","6536863d842725446b9012ce","6573617f270241e5da3d355d","6576cf21c11e076e274f4154","null","<p> <font color=""green"" size=""5vw""> Correct category! </font> </p>","null","feedback","","","","","","","0"
"","","","","","html-keyboard-response","20","125379","0.0-5.0-0.5","6536863d842725446b9012ce","6573617f270241e5da3d355d","6576cf21c11e076e274f4154","1030","
            
        <div style=""text-align: center; position: fixed; top: 5vh; left: 40vw;"">
            <div style=""margin:0 auto; width: 20vw; top: 8vh; font-size: 2vw""> 
            <font color=""green""> Bonus : $0 </font>
            </div>
        </div>
    
            <div> Please press any key to continue to the next movie.</div>
        ","arrowright","ITI","","","","","","",""
"","","","","","html-keyboard-response","21","126471","0.0-5.0-1.5","6536863d842725446b9012ce","6573617f270241e5da3d355d","6576cf21c11e076e274f4154","1092","./stimuli//pack_morph_shapes_1/cat_2/diff_1/ex_2_1_11.gif","arrowright","response","ArrowRight","11","2","1","train","true",""
"","","","","","html-keyboard-response","22","127975","0.0-5.0-2.5","6536863d842725446b9012ce","6573617f270241e5da3d355d","6576cf21c11e076e274f4154","null","<p> <font color=""green"" size=""5vw""> Correct category! </font> </p>","null","feedback","","","","","","","0"
"","","","","","html-keyboard-response","23","128795","0.0-5.0-0.6","6536863d842725446b9012ce","6573617f270241e5da3d355d","6576cf21c11e076e274f4154","820","
            
        <div style=""text-align: center; position: fixed; top: 5vh; left: 40vw;"">
            <div style=""margin:0 auto; width: 20vw; top: 8vh; font-size: 2vw""> 
            <font color=""green""> Bonus : $0 </font>
            </div>
        </div>
    
            <div> Please press any key to continue to the next movie.</div>
        ","arrowright","ITI","","","","","","",""
"","","","","","html-keyboard-response","24","129798","0.0-5.0-1.6","6536863d842725446b9012ce","6573617f270241e5da3d355d","6576cf21c11e076e274f4154","1002","./stimuli//pack_morph_shapes_1/cat_1/diff_2/ex_1_2_14.gif","arrowleft","response","ArrowLeft","14","1","2","train","true",""
"","","","","","html-keyboard-response","25","131310","0.0-5.0-2.6","6536863d842725446b9012ce","6573617f270241e5da3d355d","6576cf21c11e076e274f4154","null","<p> <font color=""green"" size=""5vw""> Correct category! </font> </p>","null","feedback","","","","","","","0"
"","","","","","html-keyboard-response","26","132072","0.0-5.0-0.7","6536863d842725446b9012ce","6573617f270241e5da3d355d","6576cf21c11e076e274f4154","762","
            
        <div style=""text-align: center; position: fixed; top: 5vh; left: 40vw;"">
            <div style=""margin:0 auto; width: 20vw; top: 8vh; font-size: 2vw""> 
            <font color=""green""> Bonus : $0 </font>
            </div>
        </div>
    
            <div> Please press any key to continue to the next movie.</div>
        ","arrowright","ITI","","","","","","",""
"","","","","","html-keyboard-response","27","133020","0.0-5.0-1.7","6536863d842725446b9012ce","6573617f270241e5da3d355d","6576cf21c11e076e274f4154","947","./stimuli//pack_morph_shapes_1/cat_1/diff_1/ex_1_1_13.gif","arrowleft","response","ArrowLeft","13","1","1","train","true",""
"","","","","","html-keyboard-response","28","134524","0.0-5.0-2.7","6536863d842725446b9012ce","6573617f270241e5da3d355d","6576cf21c11e076e274f4154","null","<p> <font color=""green"" size=""5vw""> Correct category! </font> </p>","null","feedback","","","","","","","0"
"","","","","","html-keyboard-response","29","134961","0.0-5.0-0.8","6536863d842725446b9012ce","6573617f270241e5da3d355d","6576cf21c11e076e274f4154","437","
            
        <div style=""text-align: center; position: fixed; top: 5vh; left: 40vw;"">
            <div style=""margin:0 auto; width: 20vw; top: 8vh; font-size: 2vw""> 
            <font color=""green""> Bonus : $0 </font>
            </div>
        </div>
    
            <div> Please press any key to continue to the next movie.</div>
        ","arrowright","ITI","","","","","","",""
"","","","","","html-keyboard-response","30","135927","0.0-5.0-1.8","6536863d842725446b9012ce","6573617f270241e5da3d355d","6576cf21c11e076e274f4154","965","./stimuli//pack_morph_shapes_1/cat_2/diff_1/ex_2_1_16.gif","arrowright","response","ArrowRight","16","2","1","train","true",""
"","","","","","html-keyboard-response","31","137429","0.0-5.0-2.8","6536863d842725446b9012ce","6573617f270241e5da3d355d","6576cf21c11e076e274f4154","null","<p> <font color=""green"" size=""5vw""> Correct category! </font> </p>","null","feedback","","","","","","","0"
"","","","","","html-keyboard-response","32","138150","0.0-5.0-0.9","6536863d842725446b9012ce","6573617f270241e5da3d355d","6576cf21c11e076e274f4154","721","
            
        <div style=""text-align: center; position: fixed; top: 5vh; left: 40vw;"">
            <div style=""margin:0 auto; width: 20vw; top: 8vh; font-size: 2vw""> 
            <font color=""green""> Bonus : $0 </font>
            </div>
        </div>
    
            <div> Please press any key to continue to the next movie.</div>
        ","arrowright","ITI","","","","","","",""
"","","","","","html-keyboard-response","33","138872","0.0-5.0-1.9","6536863d842725446b9012ce","6573617f270241e5da3d355d","6576cf21c11e076e274f4154","721","./stimuli//pack_morph_shapes_1/cat_1/diff_1/ex_1_1_4.gif","arrowleft","response","ArrowLeft","4","1","1","train","true",""
"","","","","","html-keyboard-response","34","140380","0.0-5.0-2.9","6536863d842725446b9012ce","6573617f270241e5da3d355d","6576cf21c11e076e274f4154","null","<p> <font color=""green"" size=""5vw""> Correct category! </font> </p>","null","feedback","","","","","","","0"
"","","","","","html-keyboard-response","35","154053","0.0-6.0","6536863d842725446b9012ce","6573617f270241e5da3d355d","6576cf21c11e076e274f4154","13671","
            <b> <p> The practice round has finished.</p>
            <b> <p> For the rest of the experiment you will receive a bonus payment for each correct answer, which will be higher the faster you answer!</b></p>
            <b> </p> Also you will lose $0.05 from your bonus payment for each incorrect answer!</p>
            <p> Press any key to begin the test. </p>
            ","arrowright","intermission","","","","","","",""
"","","","","","html-keyboard-response","36","156038","0.0-7.0-0.0","6536863d842725446b9012ce","6573617f270241e5da3d355d","6576cf21c11e076e274f4154","1985","
            
        <div style=""text-align: center; position: fixed; top: 5vh; left: 40vw;"">
            <div style=""margin:0 auto; width: 20vw; top: 8vh; font-size: 2vw""> 
            <font color=""green""> Bonus : $0 </font>
            </div>
        </div>
    
            <div> Please press any key to continue to the next movie.</div>
        ","arrowright","ITI","","","","","","",""
"","","","","","html-keyboard-response","37","156654","0.0-7.0-1.0","6536863d842725446b9012ce","6573617f270241e5da3d355d","6576cf21c11e076e274f4154","614","./stimuli//pack_morph_shapes_1/cat_1/diff_1/ex_1_1_9.gif","arrowleft","response","ArrowLeft","9","1","1","test","true",""
"","","","","","html-keyboard-response","38","158167","0.0-7.0-2.0","6536863d842725446b9012ce","6573617f270241e5da3d355d","6576cf21c11e076e274f4154","null","<p> <font color=""green"" size=""5vw""> Correct category! </font> <br> <br> <font color=""green"" size=""8vw""> + $0.07 </font> </p>","null","feedback","","","","","","","0.07"
"","","","","","html-keyboard-response","39","159358","0.0-7.1-0.1","6536863d842725446b9012ce","6573617f270241e5da3d355d","6576cf21c11e076e274f4154","1190","
            
        <div style=""text-align: center; position: fixed; top: 5vh; left: 40vw;"">
            <div style=""margin:0 auto; width: 20vw; top: 8vh; font-size: 2vw""> 
            <font color=""green""> Bonus : $0.07 </font>
            </div>
        </div>
    
            <div> Please press any key to continue to the next movie.</div>
        ","arrowleft","ITI","","","","","","",""
"","","","","","html-keyboard-response","40","159930","0.0-7.1-1.1","6536863d842725446b9012ce","6573617f270241e5da3d355d","6576cf21c11e076e274f4154","572","./stimuli//pack_morph_shapes_1/cat_2/diff_1/ex_2_1_17.gif","arrowright","response","ArrowRight","17","2","1","test","true",""
"","","","","","html-keyboard-response","41","161444","0.0-7.1-2.1","6536863d842725446b9012ce","6573617f270241e5da3d355d","6576cf21c11e076e274f4154","null","<p> <font color=""green"" size=""5vw""> Correct category! </font> <br> <br> <font color=""green"" size=""8vw""> + $0.08 </font> </p>","null","feedback","","","","","","","0.15"
"","","","","","html-keyboard-response","42","162208","0.0-7.2-0.2","6536863d842725446b9012ce","6573617f270241e5da3d355d","6576cf21c11e076e274f4154","763","
            
        <div style=""text-align: center; position: fixed; top: 5vh; left: 40vw;"">
            <div style=""margin:0 auto; width: 20vw; top: 8vh; font-size: 2vw""> 
            <font color=""green""> Bonus : $0.15 </font>
            </div>
        </div>
    
            <div> Please press any key to continue to the next movie.</div>
        ","arrowleft","ITI","","","","","","",""
"","","","","","html-keyboard-response","43","162883","0.0-7.2-1.2","6536863d842725446b9012ce","6573617f270241e5da3d355d","6576cf21c11e076e274f4154","674","./stimuli//pack_morph_shapes_1/cat_2/diff_1/ex_2_1_6.gif","arrowleft","response","ArrowRight","6","2","1","test","false",""
"","","","","","html-keyboard-response","44","164391","0.0-7.2-2.2","6536863d842725446b9012ce","6573617f270241e5da3d355d","6576cf21c11e076e274f4154","null","<p> <font color=""red"" size=""5vw""> Wrong category! </font> <br> <br> <font color=""red"" size=""8vw""> - $0.05 </font> </p>","null","feedback","","","","","","","0.1"
"","","","","","html-keyboard-response","45","165143","0.0-7.3-0.3","6536863d842725446b9012ce","6573617f270241e5da3d355d","6576cf21c11e076e274f4154","751","
            
        <div style=""text-align: center; position: fixed; top: 5vh; left: 40vw;"">
            <div style=""margin:0 auto; width: 20vw; top: 8vh; font-size: 2vw""> 
            <font color=""green""> Bonus : $0.1 </font>
            </div>
        </div>
    
            <div> Please press any key to continue to the next movie.</div>
        ","arrowleft","ITI","","","","","","",""
"","","","","","html-keyboard-response","46","166014","0.0-7.3-1.3","6536863d842725446b9012ce","6573617f270241e5da3d355d","6576cf21c11e076e274f4154","871","./stimuli//pack_morph_shapes_1/cat_2/diff_1/ex_2_1_4.gif","arrowright","response","ArrowRight","4","2","1","test","true",""
"","","","","","html-keyboard-response","47","167523","0.0-7.3-2.3","6536863d842725446b9012ce","6573617f270241e5da3d355d","6576cf21c11e076e274f4154","null","<p> <font color=""green"" size=""5vw""> Correct category! </font> <br> <br> <font color=""green"" size=""8vw""> + $0.06 </font> </p>","null","feedback","","","","","","","0.16"
"","","","","","html-keyboard-response","48","168045","0.0-7.4-0.4","6536863d842725446b9012ce","6573617f270241e5da3d355d","6576cf21c11e076e274f4154","521","
            
        <div style=""text-align: center; position: fixed; top: 5vh; left: 40vw;"">
            <div style=""margin:0 auto; width: 20vw; top: 8vh; font-size: 2vw""> 
            <font color=""green""> Bonus : $0.16 </font>
            </div>
        </div>
    
            <div> Please press any key to continue to the next movie.</div>
        ","arrowright","ITI","","","","","","",""
"","","","","","html-keyboard-response","49","168718","0.0-7.4-1.4","6536863d842725446b9012ce","6573617f270241e5da3d355d","6576cf21c11e076e274f4154","672","./stimuli//pack_morph_shapes_1/cat_2/diff_1/ex_2_1_10.gif","arrowright","response","ArrowRight","10","2","1","test","true",""
"","","","","","html-keyboard-response","50","170227","0.0-7.4-2.4","6536863d842725446b9012ce","6573617f270241e5da3d355d","6576cf21c11e076e274f4154","null","<p> <font color=""green"" size=""5vw""> Correct category! </font> <br> <br> <font color=""green"" size=""8vw""> + $0.07 </font> </p>","null","feedback","","","","","","","0.23"
"","","","","","html-keyboard-response","51","170906","0.0-7.5-0.5","6536863d842725446b9012ce","6573617f270241e5da3d355d","6576cf21c11e076e274f4154","678","
            
        <div style=""text-align: center; position: fixed; top: 5vh; left: 40vw;"">
            <div style=""margin:0 auto; width: 20vw; top: 8vh; font-size: 2vw""> 
            <font color=""green""> Bonus : $0.23 </font>
            </div>
        </div>
    
            <div> Please press any key to continue to the next movie.</div>
        ","arrowright","ITI","","","","","","",""
"","","","","","html-keyboard-response","52","171575","0.0-7.5-1.5","6536863d842725446b9012ce","6573617f270241e5da3d355d","6576cf21c11e076e274f4154","669","./stimuli//pack_morph_shapes_1/cat_1/diff_2/ex_1_2_5.gif","arrowleft","response","ArrowLeft","5","1","2","test","true",""
"","","","","","html-keyboard-response","53","173078","0.0-7.5-2.5","6536863d842725446b9012ce","6573617f270241e5da3d355d","6576cf21c11e076e274f4154","null","<p> <font color=""green"" size=""5vw""> Correct category! </font> <br> <br> <font color=""green"" size=""8vw""> + $0.07 </font> </p>","null","feedback","","","","","","","0.3"
"","","","","","html-keyboard-response","54","173482","0.0-7.6-0.6","6536863d842725446b9012ce","6573617f270241e5da3d355d","6576cf21c11e076e274f4154","403","
            
        <div style=""text-align: center; position: fixed; top: 5vh; left: 40vw;"">
            <div style=""margin:0 auto; width: 20vw; top: 8vh; font-size: 2vw""> 
            <font color=""green""> Bonus : $0.3 </font>
            </div>
        </div>
    
            <div> Please press any key to continue to the next movie.</div>
        ","arrowright","ITI","","","","","","",""
"","","","","","html-keyboard-response","55","174322","0.0-7.6-1.6","6536863d842725446b9012ce","6573617f270241e5da3d355d","6576cf21c11e076e274f4154","839","./stimuli//pack_morph_shapes_1/cat_1/diff_2/ex_1_2_2.gif","arrowleft","response","ArrowLeft","2","1","2","test","true",""
"","","","","","html-keyboard-response","56","175829","0.0-7.6-2.6","6536863d842725446b9012ce","6573617f270241e5da3d355d","6576cf21c11e076e274f4154","null","<p> <font color=""green"" size=""5vw""> Correct category! </font> <br> <br> <font color=""green"" size=""8vw""> + $0.07 </font> </p>","null","feedback","","","","","","","0.37"
"","","","","","html-keyboard-response","57","176678","0.0-7.7-0.7","6536863d842725446b9012ce","6573617f270241e5da3d355d","6576cf21c11e076e274f4154","849","
            
        <div style=""text-align: center; position: fixed; top: 5vh; left: 40vw;"">
            <div style=""margin:0 auto; width: 20vw; top: 8vh; font-size: 2vw""> 
            <font color=""green""> Bonus : $0.37 </font>
            </div>
        </div>
    
            <div> Please press any key to continue to the next movie.</div>
        ","arrowleft","ITI","","","","","","",""
"","","","","","html-keyboard-response","58","177423","0.0-7.7-1.7","6536863d842725446b9012ce","6573617f270241e5da3d355d","6576cf21c11e076e274f4154","744","./stimuli//pack_morph_shapes_1/cat_1/diff_2/ex_1_2_11.gif","arrowleft","response","ArrowLeft","11","1","2","test","true",""
"","","","","","html-keyboard-response","59","178933","0.0-7.7-2.7","6536863d842725446b9012ce","6573617f270241e5da3d355d","6576cf21c11e076e274f4154","null","<p> <font color=""green"" size=""5vw""> Correct category! </font> <br> <br> <font color=""green"" size=""8vw""> + $0.07 </font> </p>","null","feedback","","","","","","","0.44"
"","","","","","html-keyboard-response","60","179534","0.0-7.8-0.8","6536863d842725446b9012ce","6573617f270241e5da3d355d","6576cf21c11e076e274f4154","600","
            
        <div style=""text-align: center; position: fixed; top: 5vh; left: 40vw;"">
            <div style=""margin:0 auto; width: 20vw; top: 8vh; font-size: 2vw""> 
            <font color=""green""> Bonus : $0.44 </font>
            </div>
        </div>
    
            <div> Please press any key to continue to the next movie.</div>
        ","arrowleft","ITI","","","","","","",""
"","","","","","html-keyboard-response","61","180178","0.0-7.8-1.8","6536863d842725446b9012ce","6573617f270241e5da3d355d","6576cf21c11e076e274f4154","644","./stimuli//pack_morph_shapes_1/cat_1/diff_2/ex_1_2_7.gif","arrowleft","response","ArrowLeft","7","1","2","test","true",""
"","","","","","html-keyboard-response","62","181685","0.0-7.8-2.8","6536863d842725446b9012ce","6573617f270241e5da3d355d","6576cf21c11e076e274f4154","null","<p> <font color=""green"" size=""5vw""> Correct category! </font> <br> <br> <font color=""green"" size=""8vw""> + $0.07 </font> </p>","null","feedback","","","","","","","0.51"
"","","","","","html-keyboard-response","63","182342","0.0-7.9-0.9","6536863d842725446b9012ce","6573617f270241e5da3d355d","6576cf21c11e076e274f4154","657","
            
        <div style=""text-align: center; position: fixed; top: 5vh; left: 40vw;"">
            <div style=""margin:0 auto; width: 20vw; top: 8vh; font-size: 2vw""> 
            <font color=""green""> Bonus : $0.51 </font>
            </div>
        </div>
    
            <div> Please press any key to continue to the next movie.</div>
        ","arrowleft","ITI","","","","","","",""
"","","","","","html-keyboard-response","64","182915","0.0-7.9-1.9","6536863d842725446b9012ce","6573617f270241e5da3d355d","6576cf21c11e076e274f4154","573","./stimuli//pack_morph_shapes_1/cat_2/diff_2/ex_2_2_8.gif","arrowright","response","ArrowRight","8","2","2","test","true",""
"","","","","","html-keyboard-response","65","184421","0.0-7.9-2.9","6536863d842725446b9012ce","6573617f270241e5da3d355d","6576cf21c11e076e274f4154","null","<p> <font color=""green"" size=""5vw""> Correct category! </font> <br> <br> <font color=""green"" size=""8vw""> + $0.08 </font> </p>","null","feedback","","","","","","","0.59"
"","","","","","html-keyboard-response","66","185381","0.0-7.10-0.10","6536863d842725446b9012ce","6573617f270241e5da3d355d","6576cf21c11e076e274f4154","960","
            
        <div style=""text-align: center; position: fixed; top: 5vh; left: 40vw;"">
            <div style=""margin:0 auto; width: 20vw; top: 8vh; font-size: 2vw""> 
            <font color=""green""> Bonus : $0.59 </font>
            </div>
        </div>
    
            <div> Please press any key to continue to the next movie.</div>
        ","arrowleft","ITI","","","","","","",""
"","","","","","html-keyboard-response","67","186076","0.0-7.10-1.10","6536863d842725446b9012ce","6573617f270241e5da3d355d","6576cf21c11e076e274f4154","695","./stimuli//pack_morph_shapes_1/cat_1/diff_3/ex_1_3_4.gif","arrowleft","response","ArrowLeft","4","1","3","test","true",""
"","","","","","html-keyboard-response","68","187586","0.0-7.10-2.10","6536863d842725446b9012ce","6573617f270241e5da3d355d","6576cf21c11e076e274f4154","null","<p> <font color=""green"" size=""5vw""> Correct category! </font> <br> <br> <font color=""green"" size=""8vw""> + $0.07 </font> </p>","null","feedback","","","","","","","0.66"
"","","","","","html-keyboard-response","69","188341","0.0-7.11-0.11","6536863d842725446b9012ce","6573617f270241e5da3d355d","6576cf21c11e076e274f4154","754","
            
        <div style=""text-align: center; position: fixed; top: 5vh; left: 40vw;"">
            <div style=""margin:0 auto; width: 20vw; top: 8vh; font-size: 2vw""> 
            <font color=""green""> Bonus : $0.66 </font>
            </div>
        </div>
    
            <div> Please press any key to continue to the next movie.</div>
        ","arrowleft","ITI","","","","","","",""
"","","","","","html-keyboard-response","70","188986","0.0-7.11-1.11","6536863d842725446b9012ce","6573617f270241e5da3d355d","6576cf21c11e076e274f4154","645","./stimuli//pack_morph_shapes_1/cat_1/diff_3/ex_1_3_7.gif","arrowleft","response","ArrowLeft","7","1","3","test","true",""
"","","","","","html-keyboard-response","71","190487","0.0-7.11-2.11","6536863d842725446b9012ce","6573617f270241e5da3d355d","6576cf21c11e076e274f4154","null","<p> <font color=""green"" size=""5vw""> Correct category! </font> <br> <br> <font color=""green"" size=""8vw""> + $0.07 </font> </p>","null","feedback","","","","","","","0.73"
"","","","","","html-keyboard-response","72","191007","0.0-7.12-0.12","6536863d842725446b9012ce","6573617f270241e5da3d355d","6576cf21c11e076e274f4154","519","
            
        <div style=""text-align: center; position: fixed; top: 5vh; left: 40vw;"">
            <div style=""margin:0 auto; width: 20vw; top: 8vh; font-size: 2vw""> 
            <font color=""green""> Bonus : $0.73 </font>
            </div>
        </div>
    
            <div> Please press any key to continue to the next movie.</div>
        ","arrowleft","ITI","","","","","","",""
"","","","","","html-keyboard-response","73","191934","0.0-7.12-1.12","6536863d842725446b9012ce","6573617f270241e5da3d355d","6576cf21c11e076e274f4154","926","./stimuli//pack_morph_shapes_1/cat_2/diff_3/ex_2_3_17.gif","arrowright","response","ArrowRight","17","2","3","test","true",""
"","","","","","html-keyboard-response","74","193446","0.0-7.12-2.12","6536863d842725446b9012ce","6573617f270241e5da3d355d","6576cf21c11e076e274f4154","null","<p> <font color=""green"" size=""5vw""> Correct category! </font> <br> <br> <font color=""green"" size=""8vw""> + $0.06 </font> </p>","null","feedback","","","","","","","0.79"
"","","","","","html-keyboard-response","75","195147","0.0-7.13-0.13","6536863d842725446b9012ce","6573617f270241e5da3d355d","6576cf21c11e076e274f4154","1700","
            
        <div style=""text-align: center; position: fixed; top: 5vh; left: 40vw;"">
            <div style=""margin:0 auto; width: 20vw; top: 8vh; font-size: 2vw""> 
            <font color=""green""> Bonus : $0.79 </font>
            </div>
        </div>
    
            <div> Please press any key to continue to the next movie.</div>
        ","arrowright","ITI","","","","","","",""
"","","","","","html-keyboard-response","76","195805","0.0-7.13-1.13","6536863d842725446b9012ce","6573617f270241e5da3d355d","6576cf21c11e076e274f4154","658","./stimuli//pack_morph_shapes_1/cat_1/diff_3/ex_1_3_10.gif","arrowleft","response","ArrowLeft","10","1","3","test","true",""
"","","","","","html-keyboard-response","77","197319","0.0-7.13-2.13","6536863d842725446b9012ce","6573617f270241e5da3d355d","6576cf21c11e076e274f4154","null","<p> <font color=""green"" size=""5vw""> Correct category! </font> <br> <br> <font color=""green"" size=""8vw""> + $0.07 </font> </p>","null","feedback","","","","","","","0.86"
"","","","","","html-keyboard-response","78","199518","0.0-7.14-0.14","6536863d842725446b9012ce","6573617f270241e5da3d355d","6576cf21c11e076e274f4154","2198","
            
        <div style=""text-align: center; position: fixed; top: 5vh; left: 40vw;"">
            <div style=""margin:0 auto; width: 20vw; top: 8vh; font-size: 2vw""> 
            <font color=""green""> Bonus : $0.86 </font>
            </div>
        </div>
    
            <div> Please press any key to continue to the next movie.</div>
        ","arrowright","ITI","","","","","","",""
"","","","","","html-keyboard-response","79","200034","0.0-7.14-1.14","6536863d842725446b9012ce","6573617f270241e5da3d355d","6576cf21c11e076e274f4154","516","./stimuli//pack_morph_shapes_1/cat_2/diff_3/ex_2_3_9.gif","arrowleft","response","ArrowRight","9","2","3","test","false",""
"","","","","","html-keyboard-response","80","201547","0.0-7.14-2.14","6536863d842725446b9012ce","6573617f270241e5da3d355d","6576cf21c11e076e274f4154","null","<p> <font color=""red"" size=""5vw""> Wrong category! </font> <br> <br> <font color=""red"" size=""8vw""> - $0.05 </font> </p>","null","feedback","","","","","","","0.81"
"","","","","","html-keyboard-response","81","202328","0.0-7.15-0.15","6536863d842725446b9012ce","6573617f270241e5da3d355d","6576cf21c11e076e274f4154","780","
            
        <div style=""text-align: center; position: fixed; top: 5vh; left: 40vw;"">
            <div style=""margin:0 auto; width: 20vw; top: 8vh; font-size: 2vw""> 
            <font color=""green""> Bonus : $0.81 </font>
            </div>
        </div>
    
            <div> Please press any key to continue to the next movie.</div>
        ","arrowleft","ITI","","","","","","",""
"","","","","","html-keyboard-response","82","203029","0.0-7.15-1.15","6536863d842725446b9012ce","6573617f270241e5da3d355d","6576cf21c11e076e274f4154","700","./stimuli//pack_morph_shapes_1/cat_2/diff_4/ex_2_4_8.gif","arrowright","response","ArrowRight","8","2","4","test","true",""
"","","","","","html-keyboard-response","83","204535","0.0-7.15-2.15","6536863d842725446b9012ce","6573617f270241e5da3d355d","6576cf21c11e076e274f4154","null","<p> <font color=""green"" size=""5vw""> Correct category! </font> <br> <br> <font color=""green"" size=""8vw""> + $0.07 </font> </p>","null","feedback","","","","","","","0.88"
"","","","","","html-keyboard-response","84","205481","0.0-7.16-0.16","6536863d842725446b9012ce","6573617f270241e5da3d355d","6576cf21c11e076e274f4154","946","
            
        <div style=""text-align: center; position: fixed; top: 5vh; left: 40vw;"">
            <div style=""margin:0 auto; width: 20vw; top: 8vh; font-size: 2vw""> 
            <font color=""green""> Bonus : $0.88 </font>
            </div>
        </div>
    
            <div> Please press any key to continue to the next movie.</div>
        ","arrowleft","ITI","","","","","","",""
"","","","","","html-keyboard-response","85","206030","0.0-7.16-1.16","6536863d842725446b9012ce","6573617f270241e5da3d355d","6576cf21c11e076e274f4154","548","./stimuli//pack_morph_shapes_1/cat_1/diff_4/ex_1_4_10.gif","arrowleft","response","ArrowLeft","10","1","4","test","true",""
"","","","","","html-keyboard-response","86","207541","0.0-7.16-2.16","6536863d842725446b9012ce","6573617f270241e5da3d355d","6576cf21c11e076e274f4154","null","<p> <font color=""green"" size=""5vw""> Correct category! </font> <br> <br> <font color=""green"" size=""8vw""> + $0.08 </font> </p>","null","feedback","","","","","","","0.96"
"","","","","","html-keyboard-response","87","208359","0.0-7.17-0.17","6536863d842725446b9012ce","6573617f270241e5da3d355d","6576cf21c11e076e274f4154","817","
            
        <div style=""text-align: center; position: fixed; top: 5vh; left: 40vw;"">
            <div style=""margin:0 auto; width: 20vw; top: 8vh; font-size: 2vw""> 
            <font color=""green""> Bonus : $0.96 </font>
            </div>
        </div>
    
            <div> Please press any key to continue to the next movie.</div>
        ","arrowleft","ITI","","","","","","",""
"","","","","","html-keyboard-response","88","208909","0.0-7.17-1.17","6536863d842725446b9012ce","6573617f270241e5da3d355d","6576cf21c11e076e274f4154","550","./stimuli//pack_morph_shapes_1/cat_1/diff_4/ex_1_4_3.gif","arrowleft","response","ArrowLeft","3","1","4","test","true",""
"","","","","","html-keyboard-response","89","210416","0.0-7.17-2.17","6536863d842725446b9012ce","6573617f270241e5da3d355d","6576cf21c11e076e274f4154","null","<p> <font color=""green"" size=""5vw""> Correct category! </font> <br> <br> <font color=""green"" size=""8vw""> + $0.08 </font> </p>","null","feedback","","","","","","","1.04"
"","","","","","html-keyboard-response","90","211416","0.0-7.18-0.18","6536863d842725446b9012ce","6573617f270241e5da3d355d","6576cf21c11e076e274f4154","1000","
            
        <div style=""text-align: center; position: fixed; top: 5vh; left: 40vw;"">
            <div style=""margin:0 auto; width: 20vw; top: 8vh; font-size: 2vw""> 
            <font color=""green""> Bonus : $1.04 </font>
            </div>
        </div>
    
            <div> Please press any key to continue to the next movie.</div>
        ","arrowleft","ITI","","","","","","",""
"","","","","","html-keyboard-response","91","211943","0.0-7.18-1.18","6536863d842725446b9012ce","6573617f270241e5da3d355d","6576cf21c11e076e274f4154","526","./stimuli//pack_morph_shapes_1/cat_1/diff_4/ex_1_4_3.gif","arrowleft","response","ArrowLeft","3","1","4","test","true",""
"","","","","","html-keyboard-response","92","213451","0.0-7.18-2.18","6536863d842725446b9012ce","6573617f270241e5da3d355d","6576cf21c11e076e274f4154","null","<p> <font color=""green"" size=""5vw""> Correct category! </font> <br> <br> <font color=""green"" size=""8vw""> + $0.08 </font> </p>","null","feedback","","","","","","","1.12"
"","","","","","html-keyboard-response","93","214210","0.0-7.19-0.19","6536863d842725446b9012ce","6573617f270241e5da3d355d","6576cf21c11e076e274f4154","759","
            
        <div style=""text-align: center; position: fixed; top: 5vh; left: 40vw;"">
            <div style=""margin:0 auto; width: 20vw; top: 8vh; font-size: 2vw""> 
            <font color=""green""> Bonus : $1.12 </font>
            </div>
        </div>
    
            <div> Please press any key to continue to the next movie.</div>
        ","arrowleft","ITI","","","","","","",""
"","","","","","html-keyboard-response","94","214717","0.0-7.19-1.19","6536863d842725446b9012ce","6573617f270241e5da3d355d","6576cf21c11e076e274f4154","505","./stimuli//pack_morph_shapes_1/cat_2/diff_4/ex_2_4_8.gif","arrowright","response","ArrowRight","8","2","4","test","true",""
"","","","","","html-keyboard-response","95","216221","0.0-7.19-2.19","6536863d842725446b9012ce","6573617f270241e5da3d355d","6576cf21c11e076e274f4154","null","<p> <font color=""green"" size=""5vw""> Correct category! </font> <br> <br> <font color=""green"" size=""8vw""> + $0.08 </font> </p>","null","feedback","","","","","","","1.2"
"","","","","","html-keyboard-response","96","217055","0.0-7.20-0.20","6536863d842725446b9012ce","6573617f270241e5da3d355d","6576cf21c11e076e274f4154","833","
            
        <div style=""text-align: center; position: fixed; top: 5vh; left: 40vw;"">
            <div style=""margin:0 auto; width: 20vw; top: 8vh; font-size: 2vw""> 
            <font color=""green""> Bonus : $1.2 </font>
            </div>
        </div>
    
            <div> Please press any key to continue to the next movie.</div>
        ","arrowright","ITI","","","","","","",""
"","","","","","html-keyboard-response","97","217592","0.0-7.20-1.20","6536863d842725446b9012ce","6573617f270241e5da3d355d","6576cf21c11e076e274f4154","537","./stimuli//pack_morph_shapes_1/cat_2/diff_5/ex_2_5_12.gif","arrowleft","response","ArrowRight","12","2","5","test","false",""
"","","","","","html-keyboard-response","98","219096","0.0-7.20-2.20","6536863d842725446b9012ce","6573617f270241e5da3d355d","6576cf21c11e076e274f4154","null","<p> <font color=""red"" size=""5vw""> Wrong category! </font> <br> <br> <font color=""red"" size=""8vw""> - $0.05 </font> </p>","null","feedback","","","","","","","1.15"
"","","","","","html-keyboard-response","99","221011","0.0-7.21-0.21","6536863d842725446b9012ce","6573617f270241e5da3d355d","6576cf21c11e076e274f4154","1915","
            
        <div style=""text-align: center; position: fixed; top: 5vh; left: 40vw;"">
            <div style=""margin:0 auto; width: 20vw; top: 8vh; font-size: 2vw""> 
            <font color=""green""> Bonus : $1.15 </font>
            </div>
        </div>
    
            <div> Please press any key to continue to the next movie.</div>
        ","arrowleft","ITI","","","","","","",""
"","","","","","html-keyboard-response","100","221671","0.0-7.21-1.21","6536863d842725446b9012ce","6573617f270241e5da3d355d","6576cf21c11e076e274f4154","660","./stimuli//pack_morph_shapes_1/cat_2/diff_5/ex_2_5_8.gif","arrowright","response","ArrowRight","8","2","5","test","true",""
"","","","","","html-keyboard-response","101","223183","0.0-7.21-2.21","6536863d842725446b9012ce","6573617f270241e5da3d355d","6576cf21c11e076e274f4154","null","<p> <font color=""green"" size=""5vw""> Correct category! </font> <br> <br> <font color=""green"" size=""8vw""> + $0.07 </font> </p>","null","feedback","","","","","","","1.22"
"","","","","","html-keyboard-response","102","223918","0.0-7.22-0.22","6536863d842725446b9012ce","6573617f270241e5da3d355d","6576cf21c11e076e274f4154","735","
            
        <div style=""text-align: center; position: fixed; top: 5vh; left: 40vw;"">
            <div style=""margin:0 auto; width: 20vw; top: 8vh; font-size: 2vw""> 
            <font color=""green""> Bonus : $1.22 </font>
            </div>
        </div>
    
            <div> Please press any key to continue to the next movie.</div>
        ","arrowleft","ITI","","","","","","",""
"","","","","","html-keyboard-response","103","224470","0.0-7.22-1.22","6536863d842725446b9012ce","6573617f270241e5da3d355d","6576cf21c11e076e274f4154","551","./stimuli//pack_morph_shapes_1/cat_2/diff_5/ex_2_5_14.gif","arrowleft","response","ArrowRight","14","2","5","test","false",""
"","","","","","html-keyboard-response","104","225982","0.0-7.22-2.22","6536863d842725446b9012ce","6573617f270241e5da3d355d","6576cf21c11e076e274f4154","null","<p> <font color=""red"" size=""5vw""> Wrong category! </font> <br> <br> <font color=""red"" size=""8vw""> - $0.05 </font> </p>","null","feedback","","","","","","","1.17"
"","","","","","html-keyboard-response","105","227573","0.0-7.23-0.23","6536863d842725446b9012ce","6573617f270241e5da3d355d","6576cf21c11e076e274f4154","1591","
            
        <div style=""text-align: center; position: fixed; top: 5vh; left: 40vw;"">
            <div style=""margin:0 auto; width: 20vw; top: 8vh; font-size: 2vw""> 
            <font color=""green""> Bonus : $1.17 </font>
            </div>
        </div>
    
            <div> Please press any key to continue to the next movie.</div>
        ","arrowright","ITI","","","","","","",""
"","","","","","html-keyboard-response","106","228178","0.0-7.23-1.23","6536863d842725446b9012ce","6573617f270241e5da3d355d","6576cf21c11e076e274f4154","605","./stimuli//pack_morph_shapes_1/cat_1/diff_5/ex_1_5_12.gif","arrowright","response","ArrowLeft","12","1","5","test","false",""
"","","","","","html-keyboard-response","107","229687","0.0-7.23-2.23","6536863d842725446b9012ce","6573617f270241e5da3d355d","6576cf21c11e076e274f4154","null","<p> <font color=""red"" size=""5vw""> Wrong category! </font> <br> <br> <font color=""red"" size=""8vw""> - $0.05 </font> </p>","null","feedback","","","","","","","1.12"
"","","","","","html-keyboard-response","108","230321","0.0-7.24-0.24","6536863d842725446b9012ce","6573617f270241e5da3d355d","6576cf21c11e076e274f4154","634","
            
        <div style=""text-align: center; position: fixed; top: 5vh; left: 40vw;"">
            <div style=""margin:0 auto; width: 20vw; top: 8vh; font-size: 2vw""> 
            <font color=""green""> Bonus : $1.12 </font>
            </div>
        </div>
    
            <div> Please press any key to continue to the next movie.</div>
        ","arrowright","ITI","","","","","","",""
"","","","","","html-keyboard-response","109","230897","0.0-7.24-1.24","6536863d842725446b9012ce","6573617f270241e5da3d355d","6576cf21c11e076e274f4154","576","./stimuli//pack_morph_shapes_1/cat_1/diff_5/ex_1_5_8.gif","arrowleft","response","ArrowLeft","8","1","5","test","true",""
"","","","","","html-keyboard-response","110","232412","0.0-7.24-2.24","6536863d842725446b9012ce","6573617f270241e5da3d355d","6576cf21c11e076e274f4154","null","<p> <font color=""green"" size=""5vw""> Correct category! </font> <br> <br> <font color=""green"" size=""8vw""> + $0.07 </font> </p>","null","feedback","","","","","","","1.19"
"","","","","","html-keyboard-response","111","232953","0.0-7.25-0.25","6536863d842725446b9012ce","6573617f270241e5da3d355d","6576cf21c11e076e274f4154","541","
            
        <div style=""text-align: center; position: fixed; top: 5vh; left: 40vw;"">
            <div style=""margin:0 auto; width: 20vw; top: 8vh; font-size: 2vw""> 
            <font color=""green""> Bonus : $1.19 </font>
            </div>
        </div>
    
            <div> Please press any key to continue to the next movie.</div>
        ","arrowleft","ITI","","","","","","",""
"","","","","","html-keyboard-response","112","233926","0.0-7.25-1.25","6536863d842725446b9012ce","6573617f270241e5da3d355d","6576cf21c11e076e274f4154","972","./stimuli//pack_morph_shapes_1/cat_1/diff_4/ex_1_4_8.gif","arrowleft","response","ArrowLeft","8","1","4","test","true",""
"","","","","","html-keyboard-response","113","235430","0.0-7.25-2.25","6536863d842725446b9012ce","6573617f270241e5da3d355d","6576cf21c11e076e274f4154","null","<p> <font color=""green"" size=""5vw""> Correct category! </font> <br> <br> <font color=""green"" size=""8vw""> + $0.06 </font> </p>","null","feedback","","","","","","","1.25"
"","","","","","html-keyboard-response","114","235942","0.0-7.26-0.26","6536863d842725446b9012ce","6573617f270241e5da3d355d","6576cf21c11e076e274f4154","511","
            
        <div style=""text-align: center; position: fixed; top: 5vh; left: 40vw;"">
            <div style=""margin:0 auto; width: 20vw; top: 8vh; font-size: 2vw""> 
            <font color=""green""> Bonus : $1.25 </font>
            </div>
        </div>
    
            <div> Please press any key to continue to the next movie.</div>
        ","arrowleft","ITI","","","","","","",""
"","","","","","html-keyboard-response","115","236504","0.0-7.26-1.26","6536863d842725446b9012ce","6573617f270241e5da3d355d","6576cf21c11e076e274f4154","562","./stimuli//pack_morph_shapes_1/cat_1/diff_4/ex_1_4_10.gif","arrowleft","response","ArrowLeft","10","1","4","test","true",""
"","","","","","html-keyboard-response","116","238015","0.0-7.26-2.26","6536863d842725446b9012ce","6573617f270241e5da3d355d","6576cf21c11e076e274f4154","null","<p> <font color=""green"" size=""5vw""> Correct category! </font> <br> <br> <font color=""green"" size=""8vw""> + $0.08 </font> </p>","null","feedback","","","","","","","1.33"
"","","","","","html-keyboard-response","117","238600","0.0-7.27-0.27","6536863d842725446b9012ce","6573617f270241e5da3d355d","6576cf21c11e076e274f4154","584","
            
        <div style=""text-align: center; position: fixed; top: 5vh; left: 40vw;"">
            <div style=""margin:0 auto; width: 20vw; top: 8vh; font-size: 2vw""> 
            <font color=""green""> Bonus : $1.33 </font>
            </div>
        </div>
    
            <div> Please press any key to continue to the next movie.</div>
        ","arrowleft","ITI","","","","","","",""
"","","","","","html-keyboard-response","118","239139","0.0-7.27-1.27","6536863d842725446b9012ce","6573617f270241e5da3d355d","6576cf21c11e076e274f4154","539","./stimuli//pack_morph_shapes_1/cat_2/diff_4/ex_2_4_5.gif","arrowright","response","ArrowRight","5","2","4","test","true",""
"","","","","","html-keyboard-response","119","240654","0.0-7.27-2.27","6536863d842725446b9012ce","6573617f270241e5da3d355d","6576cf21c11e076e274f4154","null","<p> <font color=""green"" size=""5vw""> Correct category! </font> <br> <br> <font color=""green"" size=""8vw""> + $0.08 </font> </p>","null","feedback","","","","","","","1.41"
"","","","","","html-keyboard-response","120","241211","0.0-7.28-0.28","6536863d842725446b9012ce","6573617f270241e5da3d355d","6576cf21c11e076e274f4154","557","
            
        <div style=""text-align: center; position: fixed; top: 5vh; left: 40vw;"">
            <div style=""margin:0 auto; width: 20vw; top: 8vh; font-size: 2vw""> 
            <font color=""green""> Bonus : $1.41 </font>
            </div>
        </div>
    
            <div> Please press any key to continue to the next movie.</div>
        ","arrowleft","ITI","","","","","","",""
"","","","","","html-keyboard-response","121","241742","0.0-7.28-1.28","6536863d842725446b9012ce","6573617f270241e5da3d355d","6576cf21c11e076e274f4154","531","./stimuli//pack_morph_shapes_1/cat_1/diff_4/ex_1_4_16.gif","arrowleft","response","ArrowLeft","16","1","4","test","true",""
"","","","","","html-keyboard-response","122","243255","0.0-7.28-2.28","6536863d842725446b9012ce","6573617f270241e5da3d355d","6576cf21c11e076e274f4154","null","<p> <font color=""green"" size=""5vw""> Correct category! </font> <br> <br> <font color=""green"" size=""8vw""> + $0.08 </font> </p>","null","feedback","","","","","","","1.49"
"","","","","","html-keyboard-response","123","243934","0.0-7.29-0.29","6536863d842725446b9012ce","6573617f270241e5da3d355d","6576cf21c11e076e274f4154","678","
            
        <div style=""text-align: center; position: fixed; top: 5vh; left: 40vw;"">
            <div style=""margin:0 auto; width: 20vw; top: 8vh; font-size: 2vw""> 
            <font color=""green""> Bonus : $1.49 </font>
            </div>
        </div>
    
            <div> Please press any key to continue to the next movie.</div>
        ","arrowleft","ITI","","","","","","",""
"","","","","","html-keyboard-response","124","244324","0.0-7.29-1.29","6536863d842725446b9012ce","6573617f270241e5da3d355d","6576cf21c11e076e274f4154","390","./stimuli//pack_morph_shapes_1/cat_2/diff_4/ex_2_4_14.gif","arrowright","response","ArrowRight","14","2","4","test","true",""
"","","","","","html-keyboard-response","125","245826","0.0-7.29-2.29","6536863d842725446b9012ce","6573617f270241e5da3d355d","6576cf21c11e076e274f4154","null","<p> <font color=""green"" size=""5vw""> Correct category! </font> <br> <br> <font color=""green"" size=""8vw""> + $0.08 </font> </p>","null","feedback","","","","","","","1.57"
"","","","","","html-keyboard-response","126","246595","0.0-7.30-0.30","6536863d842725446b9012ce","6573617f270241e5da3d355d","6576cf21c11e076e274f4154","769","
            
        <div style=""text-align: center; position: fixed; top: 5vh; left: 40vw;"">
            <div style=""margin:0 auto; width: 20vw; top: 8vh; font-size: 2vw""> 
            <font color=""green""> Bonus : $1.57 </font>
            </div>
        </div>
    
            <div> Please press any key to continue to the next movie.</div>
        ","arrowleft","ITI","","","","","","",""
"","","","","","html-keyboard-response","127","247074","0.0-7.30-1.30","6536863d842725446b9012ce","6573617f270241e5da3d355d","6576cf21c11e076e274f4154","478","./stimuli//pack_morph_shapes_1/cat_2/diff_5/ex_2_5_17.gif","arrowright","response","ArrowRight","17","2","5","test","true",""
"","","","","","html-keyboard-response","128","248581","0.0-7.30-2.30","6536863d842725446b9012ce","6573617f270241e5da3d355d","6576cf21c11e076e274f4154","null","<p> <font color=""green"" size=""5vw""> Correct category! </font> <br> <br> <font color=""green"" size=""8vw""> + $0.08 </font> </p>","null","feedback","","","","","","","1.65"
"","","","","","html-keyboard-response","129","250101","0.0-7.31-0.31","6536863d842725446b9012ce","6573617f270241e5da3d355d","6576cf21c11e076e274f4154","1520","
            
        <div style=""text-align: center; position: fixed; top: 5vh; left: 40vw;"">
            <div style=""margin:0 auto; width: 20vw; top: 8vh; font-size: 2vw""> 
            <font color=""green""> Bonus : $1.65 </font>
            </div>
        </div>
    
            <div> Please press any key to continue to the next movie.</div>
        ","arrowleft","ITI","","","","","","",""
"","","","","","html-keyboard-response","130","250627","0.0-7.31-1.31","6536863d842725446b9012ce","6573617f270241e5da3d355d","6576cf21c11e076e274f4154","525","./stimuli//pack_morph_shapes_1/cat_1/diff_5/ex_1_5_6.gif","arrowleft","response","ArrowLeft","6","1","5","test","true",""
"","","","","","html-keyboard-response","131","252141","0.0-7.31-2.31","6536863d842725446b9012ce","6573617f270241e5da3d355d","6576cf21c11e076e274f4154","null","<p> <font color=""green"" size=""5vw""> Correct category! </font> <br> <br> <font color=""green"" size=""8vw""> + $0.08 </font> </p>","null","feedback","","","","","","","1.73"
"","","","","","html-keyboard-response","132","252753","0.0-7.32-0.32","6536863d842725446b9012ce","6573617f270241e5da3d355d","6576cf21c11e076e274f4154","611","
            
        <div style=""text-align: center; position: fixed; top: 5vh; left: 40vw;"">
            <div style=""margin:0 auto; width: 20vw; top: 8vh; font-size: 2vw""> 
            <font color=""green""> Bonus : $1.73 </font>
            </div>
        </div>
    
            <div> Please press any key to continue to the next movie.</div>
        ","arrowleft","ITI","","","","","","",""
"","","","","","html-keyboard-response","133","253294","0.0-7.32-1.32","6536863d842725446b9012ce","6573617f270241e5da3d355d","6576cf21c11e076e274f4154","540","./stimuli//pack_morph_shapes_1/cat_2/diff_5/ex_2_5_6.gif","arrowright","response","ArrowRight","6","2","5","test","true",""
"","","","","","html-keyboard-response","134","254801","0.0-7.32-2.32","6536863d842725446b9012ce","6573617f270241e5da3d355d","6576cf21c11e076e274f4154","null","<p> <font color=""green"" size=""5vw""> Correct category! </font> <br> <br> <font color=""green"" size=""8vw""> + $0.08 </font> </p>","null","feedback","","","","","","","1.81"
"","","","","","html-keyboard-response","135","255956","0.0-7.33-0.33","6536863d842725446b9012ce","6573617f270241e5da3d355d","6576cf21c11e076e274f4154","1155","
            
        <div style=""text-align: center; position: fixed; top: 5vh; left: 40vw;"">
            <div style=""margin:0 auto; width: 20vw; top: 8vh; font-size: 2vw""> 
            <font color=""green""> Bonus : $1.81 </font>
            </div>
        </div>
    
            <div> Please press any key to continue to the next movie.</div>
        ","arrowright","ITI","","","","","","",""
"","","","","","html-keyboard-response","136","256436","0.0-7.33-1.33","6536863d842725446b9012ce","6573617f270241e5da3d355d","6576cf21c11e076e274f4154","480","./stimuli//pack_morph_shapes_1/cat_1/diff_5/ex_1_5_5.gif","arrowleft","response","ArrowLeft","5","1","5","test","true",""
"","","","","","html-keyboard-response","137","257938","0.0-7.33-2.33","6536863d842725446b9012ce","6573617f270241e5da3d355d","6576cf21c11e076e274f4154","null","<p> <font color=""green"" size=""5vw""> Correct category! </font> <br> <br> <font color=""green"" size=""8vw""> + $0.08 </font> </p>","null","feedback","","","","","","","1.89"
"","","","","","html-keyboard-response","138","259005","0.0-7.34-0.34","6536863d842725446b9012ce","6573617f270241e5da3d355d","6576cf21c11e076e274f4154","1066","
            
        <div style=""text-align: center; position: fixed; top: 5vh; left: 40vw;"">
            <div style=""margin:0 auto; width: 20vw; top: 8vh; font-size: 2vw""> 
            <font color=""green""> Bonus : $1.89 </font>
            </div>
        </div>
    
            <div> Please press any key to continue to the next movie.</div>
        ","arrowleft","ITI","","","","","","",""
"","","","","","html-keyboard-response","139","259627","0.0-7.34-1.34","6536863d842725446b9012ce","6573617f270241e5da3d355d","6576cf21c11e076e274f4154","622","./stimuli//pack_morph_shapes_1/cat_2/diff_5/ex_2_5_5.gif","arrowright","response","ArrowRight","5","2","5","test","true",""
"","","","","","html-keyboard-response","140","261138","0.0-7.34-2.34","6536863d842725446b9012ce","6573617f270241e5da3d355d","6576cf21c11e076e274f4154","null","<p> <font color=""green"" size=""5vw""> Correct category! </font> <br> <br> <font color=""green"" size=""8vw""> + $0.07 </font> </p>","null","feedback","","","","","","","1.96"
"","","","","","html-keyboard-response","141","261662","0.0-7.35-0.35","6536863d842725446b9012ce","6573617f270241e5da3d355d","6576cf21c11e076e274f4154","524","
            
        <div style=""text-align: center; position: fixed; top: 5vh; left: 40vw;"">
            <div style=""margin:0 auto; width: 20vw; top: 8vh; font-size: 2vw""> 
            <font color=""green""> Bonus : $1.96 </font>
            </div>
        </div>
    
            <div> Please press any key to continue to the next movie.</div>
        ","arrowright","ITI","","","","","","",""
"","","","","","html-keyboard-response","142","262129","0.0-7.35-1.35","6536863d842725446b9012ce","6573617f270241e5da3d355d","6576cf21c11e076e274f4154","466","./stimuli//pack_morph_shapes_1/cat_1/diff_5/ex_1_5_2.gif","arrowleft","response","ArrowLeft","2","1","5","test","true",""
"","","","","","html-keyboard-response","143","263637","0.0-7.35-2.35","6536863d842725446b9012ce","6573617f270241e5da3d355d","6576cf21c11e076e274f4154","null","<p> <font color=""green"" size=""5vw""> Correct category! </font> <br> <br> <font color=""green"" size=""8vw""> + $0.08 </font> </p>","null","feedback","","","","","","","2.04"
"","","","","","html-keyboard-response","144","264426","0.0-7.36-0.36","6536863d842725446b9012ce","6573617f270241e5da3d355d","6576cf21c11e076e274f4154","788","
            
        <div style=""text-align: center; position: fixed; top: 5vh; left: 40vw;"">
            <div style=""margin:0 auto; width: 20vw; top: 8vh; font-size: 2vw""> 
            <font color=""green""> Bonus : $2.04 </font>
            </div>
        </div>
    
            <div> Please press any key to continue to the next movie.</div>
        ","arrowleft","ITI","","","","","","",""
"","","","","","html-keyboard-response","145","264893","0.0-7.36-1.36","6536863d842725446b9012ce","6573617f270241e5da3d355d","6576cf21c11e076e274f4154","466","./stimuli//pack_morph_shapes_1/cat_1/diff_5/ex_1_5_16.gif","arrowright","response","ArrowLeft","16","1","5","test","false",""
"","","","","","html-keyboard-response","146","266403","0.0-7.36-2.36","6536863d842725446b9012ce","6573617f270241e5da3d355d","6576cf21c11e076e274f4154","null","<p> <font color=""red"" size=""5vw""> Wrong category! </font> <br> <br> <font color=""red"" size=""8vw""> - $0.05 </font> </p>","null","feedback","","","","","","","1.99"
"","","","","","html-keyboard-response","147","267193","0.0-7.37-0.37","6536863d842725446b9012ce","6573617f270241e5da3d355d","6576cf21c11e076e274f4154","790","
            
        <div style=""text-align: center; position: fixed; top: 5vh; left: 40vw;"">
            <div style=""margin:0 auto; width: 20vw; top: 8vh; font-size: 2vw""> 
            <font color=""green""> Bonus : $1.99 </font>
            </div>
        </div>
    
            <div> Please press any key to continue to the next movie.</div>
        ","arrowright","ITI","","","","","","",""
"","","","","","html-keyboard-response","148","267763","0.0-7.37-1.37","6536863d842725446b9012ce","6573617f270241e5da3d355d","6576cf21c11e076e274f4154","570","./stimuli//pack_morph_shapes_1/cat_1/diff_5/ex_1_5_17.gif","arrowleft","response","ArrowLeft","17","1","5","test","true",""
"","","","","","html-keyboard-response","149","269279","0.0-7.37-2.37","6536863d842725446b9012ce","6573617f270241e5da3d355d","6576cf21c11e076e274f4154","null","<p> <font color=""green"" size=""5vw""> Correct category! </font> <br> <br> <font color=""green"" size=""8vw""> + $0.08 </font> </p>","null","feedback","","","","","","","2.07"
"","","","","","html-keyboard-response","150","270043","0.0-7.38-0.38","6536863d842725446b9012ce","6573617f270241e5da3d355d","6576cf21c11e076e274f4154","763","
            
        <div style=""text-align: center; position: fixed; top: 5vh; left: 40vw;"">
            <div style=""margin:0 auto; width: 20vw; top: 8vh; font-size: 2vw""> 
            <font color=""green""> Bonus : $2.07 </font>
            </div>
        </div>
    
            <div> Please press any key to continue to the next movie.</div>
        ","arrowleft","ITI","","","","","","",""
"","","","","","html-keyboard-response","151","270760","0.0-7.38-1.38","6536863d842725446b9012ce","6573617f270241e5da3d355d","6576cf21c11e076e274f4154","717","./stimuli//pack_morph_shapes_1/cat_1/diff_5/ex_1_5_3.gif","arrowright","response","ArrowLeft","3","1","5","test","false",""
"","","","","","html-keyboard-response","152","272267","0.0-7.38-2.38","6536863d842725446b9012ce","6573617f270241e5da3d355d","6576cf21c11e076e274f4154","null","<p> <font color=""red"" size=""5vw""> Wrong category! </font> <br> <br> <font color=""red"" size=""8vw""> - $0.05 </font> </p>","null","feedback","","","","","","","2.02"
"","","","","","html-keyboard-response","153","273193","0.0-7.39-0.39","6536863d842725446b9012ce","6573617f270241e5da3d355d","6576cf21c11e076e274f4154","925","
            
        <div style=""text-align: center; position: fixed; top: 5vh; left: 40vw;"">
            <div style=""margin:0 auto; width: 20vw; top: 8vh; font-size: 2vw""> 
            <font color=""green""> Bonus : $2.02 </font>
            </div>
        </div>
    
            <div> Please press any key to continue to the next movie.</div>
        ","arrowright","ITI","","","","","","",""
"","","","","","html-keyboard-response","154","273750","0.0-7.39-1.39","6536863d842725446b9012ce","6573617f270241e5da3d355d","6576cf21c11e076e274f4154","557","./stimuli//pack_morph_shapes_1/cat_1/diff_4/ex_1_4_4.gif","arrowleft","response","ArrowLeft","4","1","4","test","true",""
"","","","","","html-keyboard-response","155","275255","0.0-7.39-2.39","6536863d842725446b9012ce","6573617f270241e5da3d355d","6576cf21c11e076e274f4154","null","<p> <font color=""green"" size=""5vw""> Correct category! </font> <br> <br> <font color=""green"" size=""8vw""> + $0.08 </font> </p>","null","feedback","","","","","","","2.1"
"","","","","","html-keyboard-response","156","276609","0.0-7.40-0.40","6536863d842725446b9012ce","6573617f270241e5da3d355d","6576cf21c11e076e274f4154","1354","
            
        <div style=""text-align: center; position: fixed; top: 5vh; left: 40vw;"">
            <div style=""margin:0 auto; width: 20vw; top: 8vh; font-size: 2vw""> 
            <font color=""green""> Bonus : $2.1 </font>
            </div>
        </div>
    
            <div> Please press any key to continue to the next movie.</div>
        ","arrowleft","ITI","","","","","","",""
"","","","","","html-keyboard-response","157","277263","0.0-7.40-1.40","6536863d842725446b9012ce","6573617f270241e5da3d355d","6576cf21c11e076e274f4154","654","./stimuli//pack_morph_shapes_1/cat_2/diff_4/ex_2_4_4.gif","arrowright","response","ArrowRight","4","2","4","test","true",""
"","","","","","html-keyboard-response","158","278773","0.0-7.40-2.40","6536863d842725446b9012ce","6573617f270241e5da3d355d","6576cf21c11e076e274f4154","null","<p> <font color=""green"" size=""5vw""> Correct category! </font> <br> <br> <font color=""green"" size=""8vw""> + $0.07 </font> </p>","null","feedback","","","","","","","2.17"
"","","","","","html-keyboard-response","159","279796","0.0-7.41-0.41","6536863d842725446b9012ce","6573617f270241e5da3d355d","6576cf21c11e076e274f4154","1023","
            
        <div style=""text-align: center; position: fixed; top: 5vh; left: 40vw;"">
            <div style=""margin:0 auto; width: 20vw; top: 8vh; font-size: 2vw""> 
            <font color=""green""> Bonus : $2.17 </font>
            </div>
        </div>
    
            <div> Please press any key to continue to the next movie.</div>
        ","arrowright","ITI","","","","","","",""
"","","","","","html-keyboard-response","160","280448","0.0-7.41-1.41","6536863d842725446b9012ce","6573617f270241e5da3d355d","6576cf21c11e076e274f4154","652","./stimuli//pack_morph_shapes_1/cat_2/diff_4/ex_2_4_3.gif","arrowright","response","ArrowRight","3","2","4","test","true",""
"","","","","","html-keyboard-response","161","281953","0.0-7.41-2.41","6536863d842725446b9012ce","6573617f270241e5da3d355d","6576cf21c11e076e274f4154","null","<p> <font color=""green"" size=""5vw""> Correct category! </font> <br> <br> <font color=""green"" size=""8vw""> + $0.07 </font> </p>","null","feedback","","","","","","","2.24"
"","","","","","html-keyboard-response","162","282369","0.0-7.42-0.42","6536863d842725446b9012ce","6573617f270241e5da3d355d","6576cf21c11e076e274f4154","415","
            
        <div style=""text-align: center; position: fixed; top: 5vh; left: 40vw;"">
            <div style=""margin:0 auto; width: 20vw; top: 8vh; font-size: 2vw""> 
            <font color=""green""> Bonus : $2.24 </font>
            </div>
        </div>
    
            <div> Please press any key to continue to the next movie.</div>
        ","arrowright","ITI","","","","","","",""
"","","","","","html-keyboard-response","163","282904","0.0-7.42-1.42","6536863d842725446b9012ce","6573617f270241e5da3d355d","6576cf21c11e076e274f4154","535","./stimuli//pack_morph_shapes_1/cat_2/diff_4/ex_2_4_11.gif","arrowleft","response","ArrowRight","11","2","4","test","false",""
"","","","","","html-keyboard-response","164","284414","0.0-7.42-2.42","6536863d842725446b9012ce","6573617f270241e5da3d355d","6576cf21c11e076e274f4154","null","<p> <font color=""red"" size=""5vw""> Wrong category! </font> <br> <br> <font color=""red"" size=""8vw""> - $0.05 </font> </p>","null","feedback","","","","","","","2.19"
"","","","","","html-keyboard-response","165","286285","0.0-7.43-0.43","6536863d842725446b9012ce","6573617f270241e5da3d355d","6576cf21c11e076e274f4154","1870","
            
        <div style=""text-align: center; position: fixed; top: 5vh; left: 40vw;"">
            <div style=""margin:0 auto; width: 20vw; top: 8vh; font-size: 2vw""> 
            <font color=""green""> Bonus : $2.19 </font>
            </div>
        </div>
    
            <div> Please press any key to continue to the next movie.</div>
        ","arrowleft","ITI","","","","","","",""
"","","","","","html-keyboard-response","166","286911","0.0-7.43-1.43","6536863d842725446b9012ce","6573617f270241e5da3d355d","6576cf21c11e076e274f4154","626","./stimuli//pack_morph_shapes_1/cat_1/diff_4/ex_1_4_5.gif","arrowleft","response","ArrowLeft","5","1","4","test","true",""
"","","","","","html-keyboard-response","167","288413","0.0-7.43-2.43","6536863d842725446b9012ce","6573617f270241e5da3d355d","6576cf21c11e076e274f4154","null","<p> <font color=""green"" size=""5vw""> Correct category! </font> <br> <br> <font color=""green"" size=""8vw""> + $0.07 </font> </p>","null","feedback","","","","","","","2.26"
"","","","","","html-keyboard-response","168","289349","0.0-7.44-0.44","6536863d842725446b9012ce","6573617f270241e5da3d355d","6576cf21c11e076e274f4154","935","
            
        <div style=""text-align: center; position: fixed; top: 5vh; left: 40vw;"">
            <div style=""margin:0 auto; width: 20vw; top: 8vh; font-size: 2vw""> 
            <font color=""green""> Bonus : $2.26 </font>
            </div>
        </div>
    
            <div> Please press any key to continue to the next movie.</div>
        ","arrowleft","ITI","","","","","","",""
"","","","","","html-keyboard-response","169","289927","0.0-7.44-1.44","6536863d842725446b9012ce","6573617f270241e5da3d355d","6576cf21c11e076e274f4154","577","./stimuli//pack_morph_shapes_1/cat_2/diff_5/ex_2_5_11.gif","arrowright","response","ArrowRight","11","2","5","test","true",""
"","","","","","html-keyboard-response","170","291435","0.0-7.44-2.44","6536863d842725446b9012ce","6573617f270241e5da3d355d","6576cf21c11e076e274f4154","null","<p> <font color=""green"" size=""5vw""> Correct category! </font> <br> <br> <font color=""green"" size=""8vw""> + $0.07 </font> </p>","null","feedback","","","","","","","2.33"
"","","","","","html-keyboard-response","171","292553","0.0-7.45-0.45","6536863d842725446b9012ce","6573617f270241e5da3d355d","6576cf21c11e076e274f4154","1117","
            
        <div style=""text-align: center; position: fixed; top: 5vh; left: 40vw;"">
            <div style=""margin:0 auto; width: 20vw; top: 8vh; font-size: 2vw""> 
            <font color=""green""> Bonus : $2.33 </font>
            </div>
        </div>
    
            <div> Please press any key to continue to the next movie.</div>
        ","arrowright","ITI","","","","","","",""
"","","","","","html-keyboard-response","172","293407","0.0-7.45-1.45","6536863d842725446b9012ce","6573617f270241e5da3d355d","6576cf21c11e076e274f4154","854","./stimuli//pack_morph_shapes_1/cat_1/diff_5/ex_1_5_15.gif","arrowleft","response","ArrowLeft","15","1","5","test","true",""
"","","","","","html-keyboard-response","173","294916","0.0-7.45-2.45","6536863d842725446b9012ce","6573617f270241e5da3d355d","6576cf21c11e076e274f4154","null","<p> <font color=""green"" size=""5vw""> Correct category! </font> <br> <br> <font color=""green"" size=""8vw""> + $0.07 </font> </p>","null","feedback","","","","","","","2.4"
"","","","","","html-keyboard-response","174","295585","0.0-7.46-0.46","6536863d842725446b9012ce","6573617f270241e5da3d355d","6576cf21c11e076e274f4154","669","
            
        <div style=""text-align: center; position: fixed; top: 5vh; left: 40vw;"">
            <div style=""margin:0 auto; width: 20vw; top: 8vh; font-size: 2vw""> 
            <font color=""green""> Bonus : $2.4 </font>
            </div>
        </div>
    
            <div> Please press any key to continue to the next movie.</div>
        ","arrowleft","ITI","","","","","","",""
"","","","","","html-keyboard-response","175","296158","0.0-7.46-1.46","6536863d842725446b9012ce","6573617f270241e5da3d355d","6576cf21c11e076e274f4154","572","./stimuli//pack_morph_shapes_1/cat_1/diff_5/ex_1_5_16.gif","arrowleft","response","ArrowLeft","16","1","5","test","true",""
"","","","","","html-keyboard-response","176","297661","0.0-7.46-2.46","6536863d842725446b9012ce","6573617f270241e5da3d355d","6576cf21c11e076e274f4154","null","<p> <font color=""green"" size=""5vw""> Correct category! </font> <br> <br> <font color=""green"" size=""8vw""> + $0.08 </font> </p>","null","feedback","","","","","","","2.48"
"","","","","","html-keyboard-response","177","298371","0.0-7.47-0.47","6536863d842725446b9012ce","6573617f270241e5da3d355d","6576cf21c11e076e274f4154","709","
            
        <div style=""text-align: center; position: fixed; top: 5vh; left: 40vw;"">
            <div style=""margin:0 auto; width: 20vw; top: 8vh; font-size: 2vw""> 
            <font color=""green""> Bonus : $2.48 </font>
            </div>
        </div>
    
            <div> Please press any key to continue to the next movie.</div>
        ","arrowleft","ITI","","","","","","",""
"","","","","","html-keyboard-response","178","298898","0.0-7.47-1.47","6536863d842725446b9012ce","6573617f270241e5da3d355d","6576cf21c11e076e274f4154","527","./stimuli//pack_morph_shapes_1/cat_2/diff_5/ex_2_5_7.gif","arrowright","response","ArrowRight","7","2","5","test","true",""
"","","","","","html-keyboard-response","179","300410","0.0-7.47-2.47","6536863d842725446b9012ce","6573617f270241e5da3d355d","6576cf21c11e076e274f4154","null","<p> <font color=""green"" size=""5vw""> Correct category! </font> <br> <br> <font color=""green"" size=""8vw""> + $0.08 </font> </p>","null","feedback","","","","","","","2.56"
"","","","","","html-keyboard-response","180","301575","0.0-7.48-0.48","6536863d842725446b9012ce","6573617f270241e5da3d355d","6576cf21c11e076e274f4154","1165","
            
        <div style=""text-align: center; position: fixed; top: 5vh; left: 40vw;"">
            <div style=""margin:0 auto; width: 20vw; top: 8vh; font-size: 2vw""> 
            <font color=""green""> Bonus : $2.56 </font>
            </div>
        </div>
    
            <div> Please press any key to continue to the next movie.</div>
        ","arrowright","ITI","","","","","","",""
"","","","","","html-keyboard-response","181","302112","0.0-7.48-1.48","6536863d842725446b9012ce","6573617f270241e5da3d355d","6576cf21c11e076e274f4154","536","./stimuli//pack_morph_shapes_1/cat_1/diff_5/ex_1_5_6.gif","arrowleft","response","ArrowLeft","6","1","5","test","true",""
"","","","","","html-keyboard-response","182","303627","0.0-7.48-2.48","6536863d842725446b9012ce","6573617f270241e5da3d355d","6576cf21c11e076e274f4154","null","<p> <font color=""green"" size=""5vw""> Correct category! </font> <br> <br> <font color=""green"" size=""8vw""> + $0.08 </font> </p>","null","feedback","","","","","","","2.64"
"","","","","","html-keyboard-response","183","304571","0.0-7.49-0.49","6536863d842725446b9012ce","6573617f270241e5da3d355d","6576cf21c11e076e274f4154","944","
            
        <div style=""text-align: center; position: fixed; top: 5vh; left: 40vw;"">
            <div style=""margin:0 auto; width: 20vw; top: 8vh; font-size: 2vw""> 
            <font color=""green""> Bonus : $2.64 </font>
            </div>
        </div>
    
            <div> Please press any key to continue to the next movie.</div>
        ","arrowleft","ITI","","","","","","",""
"","","","","","html-keyboard-response","184","305020","0.0-7.49-1.49","6536863d842725446b9012ce","6573617f270241e5da3d355d","6576cf21c11e076e274f4154","448","./stimuli//pack_morph_shapes_1/cat_2/diff_5/ex_2_5_11.gif","arrowright","response","ArrowRight","11","2","5","test","true",""
"","","","","","html-keyboard-response","185","306532","0.0-7.49-2.49","6536863d842725446b9012ce","6573617f270241e5da3d355d","6576cf21c11e076e274f4154","null","<p> <font color=""green"" size=""5vw""> Correct category! </font> <br> <br> <font color=""green"" size=""8vw""> + $0.08 </font> </p>","null","feedback","","","","","","","2.72"
"","","","","","html-keyboard-response","186","307378","0.0-7.50-0.50","6536863d842725446b9012ce","6573617f270241e5da3d355d","6576cf21c11e076e274f4154","846","
            
        <div style=""text-align: center; position: fixed; top: 5vh; left: 40vw;"">
            <div style=""margin:0 auto; width: 20vw; top: 8vh; font-size: 2vw""> 
            <font color=""green""> Bonus : $2.72 </font>
            </div>
        </div>
    
            <div> Please press any key to continue to the next movie.</div>
        ","arrowright","ITI","","","","","","",""
"","","","","","html-keyboard-response","187","307823","0.0-7.50-1.50","6536863d842725446b9012ce","6573617f270241e5da3d355d","6576cf21c11e076e274f4154","444","./stimuli//pack_morph_shapes_1/cat_1/diff_5/ex_1_5_2.gif","arrowleft","response","ArrowLeft","2","1","5","test","true",""
"","","","","","html-keyboard-response","188","309332","0.0-7.50-2.50","6536863d842725446b9012ce","6573617f270241e5da3d355d","6576cf21c11e076e274f4154","null","<p> <font color=""green"" size=""5vw""> Correct category! </font> <br> <br> <font color=""green"" size=""8vw""> + $0.08 </font> </p>","null","feedback","","","","","","","2.8"
"","","","","","html-keyboard-response","189","310607","0.0-7.51-0.51","6536863d842725446b9012ce","6573617f270241e5da3d355d","6576cf21c11e076e274f4154","1274","
            
        <div style=""text-align: center; position: fixed; top: 5vh; left: 40vw;"">
            <div style=""margin:0 auto; width: 20vw; top: 8vh; font-size: 2vw""> 
            <font color=""green""> Bonus : $2.8 </font>
            </div>
        </div>
    
            <div> Please press any key to continue to the next movie.</div>
        ","arrowleft","ITI","","","","","","",""
"","","","","","html-keyboard-response","190","311270","0.0-7.51-1.51","6536863d842725446b9012ce","6573617f270241e5da3d355d","6576cf21c11e076e274f4154","662","./stimuli//pack_morph_shapes_1/cat_1/diff_5/ex_1_5_17.gif","arrowleft","response","ArrowLeft","17","1","5","test","true",""
"","","","","","html-keyboard-response","191","312777","0.0-7.51-2.51","6536863d842725446b9012ce","6573617f270241e5da3d355d","6576cf21c11e076e274f4154","null","<p> <font color=""green"" size=""5vw""> Correct category! </font> <br> <br> <font color=""green"" size=""8vw""> + $0.07 </font> </p>","null","feedback","","","","","","","2.87"
"","","","","","html-keyboard-response","192","313567","0.0-7.52-0.52","6536863d842725446b9012ce","6573617f270241e5da3d355d","6576cf21c11e076e274f4154","789","
            
        <div style=""text-align: center; position: fixed; top: 5vh; left: 40vw;"">
            <div style=""margin:0 auto; width: 20vw; top: 8vh; font-size: 2vw""> 
            <font color=""green""> Bonus : $2.87 </font>
            </div>
        </div>
    
            <div> Please press any key to continue to the next movie.</div>
        ","arrowleft","ITI","","","","","","",""
"","","","","","html-keyboard-response","193","314056","0.0-7.52-1.52","6536863d842725446b9012ce","6573617f270241e5da3d355d","6576cf21c11e076e274f4154","488","./stimuli//pack_morph_shapes_1/cat_2/diff_5/ex_2_5_7.gif","arrowright","response","ArrowRight","7","2","5","test","true",""
"","","","","","html-keyboard-response","194","315566","0.0-7.52-2.52","6536863d842725446b9012ce","6573617f270241e5da3d355d","6576cf21c11e076e274f4154","null","<p> <font color=""green"" size=""5vw""> Correct category! </font> <br> <br> <font color=""green"" size=""8vw""> + $0.08 </font> </p>","null","feedback","","","","","","","2.95"
"","","","","","html-keyboard-response","195","317083","0.0-7.53-0.53","6536863d842725446b9012ce","6573617f270241e5da3d355d","6576cf21c11e076e274f4154","1516","
            
        <div style=""text-align: center; position: fixed; top: 5vh; left: 40vw;"">
            <div style=""margin:0 auto; width: 20vw; top: 8vh; font-size: 2vw""> 
            <font color=""green""> Bonus : $2.95 </font>
            </div>
        </div>
    
            <div> Please press any key to continue to the next movie.</div>
        ","arrowright","ITI","","","","","","",""
"","","","","","html-keyboard-response","196","317564","0.0-7.53-1.53","6536863d842725446b9012ce","6573617f270241e5da3d355d","6576cf21c11e076e274f4154","481","./stimuli//pack_morph_shapes_1/cat_1/diff_5/ex_1_5_8.gif","arrowleft","response","ArrowLeft","8","1","5","test","true",""
"","","","","","html-keyboard-response","197","319079","0.0-7.53-2.53","6536863d842725446b9012ce","6573617f270241e5da3d355d","6576cf21c11e076e274f4154","null","<p> <font color=""green"" size=""5vw""> Correct category! </font> <br> <br> <font color=""green"" size=""8vw""> + $0.08 </font> </p>","null","feedback","","","","","","","3.03"
"","","","","","html-keyboard-response","198","319682","0.0-7.54-0.54","6536863d842725446b9012ce","6573617f270241e5da3d355d","6576cf21c11e076e274f4154","601","
            
        <div style=""text-align: center; position: fixed; top: 5vh; left: 40vw;"">
            <div style=""margin:0 auto; width: 20vw; top: 8vh; font-size: 2vw""> 
            <font color=""green""> Bonus : $3.03 </font>
            </div>
        </div>
    
            <div> Please press any key to continue to the next movie.</div>
        ","arrowright","ITI","","","","","","",""
"","","","","","html-keyboard-response","199","320141","0.0-7.54-1.54","6536863d842725446b9012ce","6573617f270241e5da3d355d","6576cf21c11e076e274f4154","459","./stimuli//pack_morph_shapes_1/cat_1/diff_5/ex_1_5_17.gif","arrowleft","response","ArrowLeft","17","1","5","test","true",""
"","","","","","html-keyboard-response","200","321645","0.0-7.54-2.54","6536863d842725446b9012ce","6573617f270241e5da3d355d","6576cf21c11e076e274f4154","null","<p> <font color=""green"" size=""5vw""> Correct category! </font> <br> <br> <font color=""green"" size=""8vw""> + $0.08 </font> </p>","null","feedback","","","","","","","3.11"
"","","","","","html-keyboard-response","201","322279","0.0-7.55-0.55","6536863d842725446b9012ce","6573617f270241e5da3d355d","6576cf21c11e076e274f4154","634","
            
        <div style=""text-align: center; position: fixed; top: 5vh; left: 40vw;"">
            <div style=""margin:0 auto; width: 20vw; top: 8vh; font-size: 2vw""> 
            <font color=""green""> Bonus : $3.11 </font>
            </div>
        </div>
    
            <div> Please press any key to continue to the next movie.</div>
        ","arrowright","ITI","","","","","","",""
"","","","","","html-keyboard-response","202","322651","0.0-7.55-1.55","6536863d842725446b9012ce","6573617f270241e5da3d355d","6576cf21c11e076e274f4154","371","./stimuli//pack_morph_shapes_1/cat_2/diff_5/ex_2_5_6.gif","arrowleft","response","ArrowRight","6","2","5","test","false",""
"","","","","","html-keyboard-response","203","324157","0.0-7.55-2.55","6536863d842725446b9012ce","6573617f270241e5da3d355d","6576cf21c11e076e274f4154","null","<p> <font color=""red"" size=""5vw""> Wrong category! </font> <br> <br> <font color=""red"" size=""8vw""> - $0.05 </font> </p>","null","feedback","","","","","","","3.06"
"","","","","","html-keyboard-response","204","324964","0.0-7.56-0.56","6536863d842725446b9012ce","6573617f270241e5da3d355d","6576cf21c11e076e274f4154","806","
            
        <div style=""text-align: center; position: fixed; top: 5vh; left: 40vw;"">
            <div style=""margin:0 auto; width: 20vw; top: 8vh; font-size: 2vw""> 
            <font color=""green""> Bonus : $3.06 </font>
            </div>
        </div>
    
            <div> Please press any key to continue to the next movie.</div>
        ","arrowleft","ITI","","","","","","",""
"","","","","","html-keyboard-response","205","325505","0.0-7.56-1.56","6536863d842725446b9012ce","6573617f270241e5da3d355d","6576cf21c11e076e274f4154","541","./stimuli//pack_morph_shapes_1/cat_1/diff_5/ex_1_5_2.gif","arrowleft","response","ArrowLeft","2","1","5","test","true",""
"","","","","","html-keyboard-response","206","327009","0.0-7.56-2.56","6536863d842725446b9012ce","6573617f270241e5da3d355d","6576cf21c11e076e274f4154","null","<p> <font color=""green"" size=""5vw""> Correct category! </font> <br> <br> <font color=""green"" size=""8vw""> + $0.08 </font> </p>","null","feedback","","","","","","","3.14"
"","","","","","html-keyboard-response","207","327540","0.0-7.57-0.57","6536863d842725446b9012ce","6573617f270241e5da3d355d","6576cf21c11e076e274f4154","530","
            
        <div style=""text-align: center; position: fixed; top: 5vh; left: 40vw;"">
            <div style=""margin:0 auto; width: 20vw; top: 8vh; font-size: 2vw""> 
            <font color=""green""> Bonus : $3.14 </font>
            </div>
        </div>
    
            <div> Please press any key to continue to the next movie.</div>
        ","arrowleft","ITI","","","","","","",""
"","","","","","html-keyboard-response","208","328226","0.0-7.57-1.57","6536863d842725446b9012ce","6573617f270241e5da3d355d","6576cf21c11e076e274f4154","685","./stimuli//pack_morph_shapes_1/cat_1/diff_5/ex_1_5_5.gif","arrowleft","response","ArrowLeft","5","1","5","test","true",""
"","","","","","html-keyboard-response","209","329733","0.0-7.57-2.57","6536863d842725446b9012ce","6573617f270241e5da3d355d","6576cf21c11e076e274f4154","null","<p> <font color=""green"" size=""5vw""> Correct category! </font> <br> <br> <font color=""green"" size=""8vw""> + $0.07 </font> </p>","null","feedback","","","","","","","3.21"
"","","","","","html-keyboard-response","210","330257","0.0-7.58-0.58","6536863d842725446b9012ce","6573617f270241e5da3d355d","6576cf21c11e076e274f4154","523","
            
        <div style=""text-align: center; position: fixed; top: 5vh; left: 40vw;"">
            <div style=""margin:0 auto; width: 20vw; top: 8vh; font-size: 2vw""> 
            <font color=""green""> Bonus : $3.21 </font>
            </div>
        </div>
    
            <div> Please press any key to continue to the next movie.</div>
        ","arrowleft","ITI","","","","","","",""
"","","","","","html-keyboard-response","211","330829","0.0-7.58-1.58","6536863d842725446b9012ce","6573617f270241e5da3d355d","6576cf21c11e076e274f4154","571","./stimuli//pack_morph_shapes_1/cat_2/diff_5/ex_2_5_16.gif","arrowright","response","ArrowRight","16","2","5","test","true",""
"","","","","","html-keyboard-response","212","332331","0.0-7.58-2.58","6536863d842725446b9012ce","6573617f270241e5da3d355d","6576cf21c11e076e274f4154","null","<p> <font color=""green"" size=""5vw""> Correct category! </font> <br> <br> <font color=""green"" size=""8vw""> + $0.08 </font> </p>","null","feedback","","","","","","","3.29"
"","","","","","html-keyboard-response","213","333933","0.0-7.59-0.59","6536863d842725446b9012ce","6573617f270241e5da3d355d","6576cf21c11e076e274f4154","1602","
            
        <div style=""text-align: center; position: fixed; top: 5vh; left: 40vw;"">
            <div style=""margin:0 auto; width: 20vw; top: 8vh; font-size: 2vw""> 
            <font color=""green""> Bonus : $3.29 </font>
            </div>
        </div>
    
            <div> Please press any key to continue to the next movie.</div>
        ","arrowleft","ITI","","","","","","",""
"","","","","","html-keyboard-response","214","334447","0.0-7.59-1.59","6536863d842725446b9012ce","6573617f270241e5da3d355d","6576cf21c11e076e274f4154","513","./stimuli//pack_morph_shapes_1/cat_1/diff_5/ex_1_5_8.gif","arrowleft","response","ArrowLeft","8","1","5","test","true",""
"","","","","","html-keyboard-response","215","335958","0.0-7.59-2.59","6536863d842725446b9012ce","6573617f270241e5da3d355d","6576cf21c11e076e274f4154","null","<p> <font color=""green"" size=""5vw""> Correct category! </font> <br> <br> <font color=""green"" size=""8vw""> + $0.08 </font> </p>","null","feedback","","","","","","","3.37"
"","","","","","html-keyboard-response","216","336932","0.0-7.60-0.60","6536863d842725446b9012ce","6573617f270241e5da3d355d","6576cf21c11e076e274f4154","973","
            
        <div style=""text-align: center; position: fixed; top: 5vh; left: 40vw;"">
            <div style=""margin:0 auto; width: 20vw; top: 8vh; font-size: 2vw""> 
            <font color=""green""> Bonus : $3.37 </font>
            </div>
        </div>
    
            <div> Please press any key to continue to the next movie.</div>
        ","arrowleft","ITI","","","","","","",""
"","","","","","html-keyboard-response","217","337478","0.0-7.60-1.60","6536863d842725446b9012ce","6573617f270241e5da3d355d","6576cf21c11e076e274f4154","545","./stimuli//pack_morph_shapes_1/cat_1/diff_5/ex_1_5_6.gif","arrowleft","response","ArrowLeft","6","1","5","test","true",""
"","","","","","html-keyboard-response","218","338988","0.0-7.60-2.60","6536863d842725446b9012ce","6573617f270241e5da3d355d","6576cf21c11e076e274f4154","null","<p> <font color=""green"" size=""5vw""> Correct category! </font> <br> <br> <font color=""green"" size=""8vw""> + $0.08 </font> </p>","null","feedback","","","","","","","3.45"
"","","","","","html-keyboard-response","219","339950","0.0-7.61-0.61","6536863d842725446b9012ce","6573617f270241e5da3d355d","6576cf21c11e076e274f4154","961","
            
        <div style=""text-align: center; position: fixed; top: 5vh; left: 40vw;"">
            <div style=""margin:0 auto; width: 20vw; top: 8vh; font-size: 2vw""> 
            <font color=""green""> Bonus : $3.45 </font>
            </div>
        </div>
    
            <div> Please press any key to continue to the next movie.</div>
        ","arrowleft","ITI","","","","","","",""
"","","","","","html-keyboard-response","220","340383","0.0-7.61-1.61","6536863d842725446b9012ce","6573617f270241e5da3d355d","6576cf21c11e076e274f4154","432","./stimuli//pack_morph_shapes_1/cat_2/diff_5/ex_2_5_1.gif","arrowright","response","ArrowRight","1","2","5","test","true",""
"","","","","","html-keyboard-response","221","341895","0.0-7.61-2.61","6536863d842725446b9012ce","6573617f270241e5da3d355d","6576cf21c11e076e274f4154","null","<p> <font color=""green"" size=""5vw""> Correct category! </font> <br> <br> <font color=""green"" size=""8vw""> + $0.08 </font> </p>","null","feedback","","","","","","","3.53"
"","","","","","html-keyboard-response","222","342865","0.0-7.62-0.62","6536863d842725446b9012ce","6573617f270241e5da3d355d","6576cf21c11e076e274f4154","970","
            
        <div style=""text-align: center; position: fixed; top: 5vh; left: 40vw;"">
            <div style=""margin:0 auto; width: 20vw; top: 8vh; font-size: 2vw""> 
            <font color=""green""> Bonus : $3.53 </font>
            </div>
        </div>
    
            <div> Please press any key to continue to the next movie.</div>
        ","arrowleft","ITI","","","","","","",""
"","","","","","html-keyboard-response","223","343528","0.0-7.62-1.62","6536863d842725446b9012ce","6573617f270241e5da3d355d","6576cf21c11e076e274f4154","662","./stimuli//pack_morph_shapes_1/cat_2/diff_5/ex_2_5_9.gif","arrowleft","response","ArrowRight","9","2","5","test","false",""
"","","","","","html-keyboard-response","224","345030","0.0-7.62-2.62","6536863d842725446b9012ce","6573617f270241e5da3d355d","6576cf21c11e076e274f4154","null","<p> <font color=""red"" size=""5vw""> Wrong category! </font> <br> <br> <font color=""red"" size=""8vw""> - $0.05 </font> </p>","null","feedback","","","","","","","3.48"
"","","","","","html-keyboard-response","225","345564","0.0-7.63-0.63","6536863d842725446b9012ce","6573617f270241e5da3d355d","6576cf21c11e076e274f4154","534","
            
        <div style=""text-align: center; position: fixed; top: 5vh; left: 40vw;"">
            <div style=""margin:0 auto; width: 20vw; top: 8vh; font-size: 2vw""> 
            <font color=""green""> Bonus : $3.48 </font>
            </div>
        </div>
    
            <div> Please press any key to continue to the next movie.</div>
        ","arrowleft","ITI","","","","","","",""
"","","","","","html-keyboard-response","226","346097","0.0-7.63-1.63","6536863d842725446b9012ce","6573617f270241e5da3d355d","6576cf21c11e076e274f4154","532","./stimuli//pack_morph_shapes_1/cat_2/diff_5/ex_2_5_9.gif","arrowright","response","ArrowRight","9","2","5","test","true",""
"","","","","","html-keyboard-response","227","347599","0.0-7.63-2.63","6536863d842725446b9012ce","6573617f270241e5da3d355d","6576cf21c11e076e274f4154","null","<p> <font color=""green"" size=""5vw""> Correct category! </font> <br> <br> <font color=""green"" size=""8vw""> + $0.08 </font> </p>","null","feedback","","","","","","","3.56"
"","","","","","html-keyboard-response","228","349626","0.0-7.64-0.64","6536863d842725446b9012ce","6573617f270241e5da3d355d","6576cf21c11e076e274f4154","2027","
            
        <div style=""text-align: center; position: fixed; top: 5vh; left: 40vw;"">
            <div style=""margin:0 auto; width: 20vw; top: 8vh; font-size: 2vw""> 
            <font color=""green""> Bonus : $3.56 </font>
            </div>
        </div>
    
            <div> Please press any key to continue to the next movie.</div>
        ","arrowright","ITI","","","","","","",""
"","","","","","html-keyboard-response","229","350197","0.0-7.64-1.64","6536863d842725446b9012ce","6573617f270241e5da3d355d","6576cf21c11e076e274f4154","571","./stimuli//pack_morph_shapes_1/cat_2/diff_5/ex_2_5_9.gif","arrowright","response","ArrowRight","9","2","5","test","true",""
"","","","","","html-keyboard-response","230","351709","0.0-7.64-2.64","6536863d842725446b9012ce","6573617f270241e5da3d355d","6576cf21c11e076e274f4154","null","<p> <font color=""green"" size=""5vw""> Correct category! </font> <br> <br> <font color=""green"" size=""8vw""> + $0.08 </font> </p>","null","feedback","","","","","","","3.64"
"","","","","","html-keyboard-response","231","352421","0.0-7.65-0.65","6536863d842725446b9012ce","6573617f270241e5da3d355d","6576cf21c11e076e274f4154","712","
            
        <div style=""text-align: center; position: fixed; top: 5vh; left: 40vw;"">
            <div style=""margin:0 auto; width: 20vw; top: 8vh; font-size: 2vw""> 
            <font color=""green""> Bonus : $3.64 </font>
            </div>
        </div>
    
            <div> Please press any key to continue to the next movie.</div>
        ","arrowright","ITI","","","","","","",""
"","","","","","html-keyboard-response","232","353007","0.0-7.65-1.65","6536863d842725446b9012ce","6573617f270241e5da3d355d","6576cf21c11e076e274f4154","585","./stimuli//pack_morph_shapes_1/cat_1/diff_5/ex_1_5_7.gif","arrowleft","response","ArrowLeft","7","1","5","test","true",""
"","","","","","html-keyboard-response","233","354513","0.0-7.65-2.65","6536863d842725446b9012ce","6573617f270241e5da3d355d","6576cf21c11e076e274f4154","null","<p> <font color=""green"" size=""5vw""> Correct category! </font> <br> <br> <font color=""green"" size=""8vw""> + $0.07 </font> </p>","null","feedback","","","","","","","3.71"
"","","","","","html-keyboard-response","234","355609","0.0-7.66-0.66","6536863d842725446b9012ce","6573617f270241e5da3d355d","6576cf21c11e076e274f4154","1095","
            
        <div style=""text-align: center; position: fixed; top: 5vh; left: 40vw;"">
            <div style=""margin:0 auto; width: 20vw; top: 8vh; font-size: 2vw""> 
            <font color=""green""> Bonus : $3.71 </font>
            </div>
        </div>
    
            <div> Please press any key to continue to the next movie.</div>
        ","arrowleft","ITI","","","","","","",""
"","","","","","html-keyboard-response","235","356195","0.0-7.66-1.66","6536863d842725446b9012ce","6573617f270241e5da3d355d","6576cf21c11e076e274f4154","586","./stimuli//pack_morph_shapes_1/cat_2/diff_5/ex_2_5_11.gif","arrowright","response","ArrowRight","11","2","5","test","true",""
"","","","","","html-keyboard-response","236","357704","0.0-7.66-2.66","6536863d842725446b9012ce","6573617f270241e5da3d355d","6576cf21c11e076e274f4154","null","<p> <font color=""green"" size=""5vw""> Correct category! </font> <br> <br> <font color=""green"" size=""8vw""> + $0.07 </font> </p>","null","feedback","","","","","","","3.78"
"","","","","","html-keyboard-response","237","358711","0.0-7.67-0.67","6536863d842725446b9012ce","6573617f270241e5da3d355d","6576cf21c11e076e274f4154","1007","
            
        <div style=""text-align: center; position: fixed; top: 5vh; left: 40vw;"">
            <div style=""margin:0 auto; width: 20vw; top: 8vh; font-size: 2vw""> 
            <font color=""green""> Bonus : $3.78 </font>
            </div>
        </div>
    
            <div> Please press any key to continue to the next movie.</div>
        ","arrowright","ITI","","","","","","",""
"","","","","","html-keyboard-response","238","359277","0.0-7.67-1.67","6536863d842725446b9012ce","6573617f270241e5da3d355d","6576cf21c11e076e274f4154","565","./stimuli//pack_morph_shapes_1/cat_2/diff_5/ex_2_5_14.gif","arrowleft","response","ArrowRight","14","2","5","test","false",""
"","","","","","html-keyboard-response","239","360784","0.0-7.67-2.67","6536863d842725446b9012ce","6573617f270241e5da3d355d","6576cf21c11e076e274f4154","null","<p> <font color=""red"" size=""5vw""> Wrong category! </font> <br> <br> <font color=""red"" size=""8vw""> - $0.05 </font> </p>","null","feedback","","","","","","","3.73"
"","","","","","html-keyboard-response","240","361934","0.0-7.68-0.68","6536863d842725446b9012ce","6573617f270241e5da3d355d","6576cf21c11e076e274f4154","1150","
            
        <div style=""text-align: center; position: fixed; top: 5vh; left: 40vw;"">
            <div style=""margin:0 auto; width: 20vw; top: 8vh; font-size: 2vw""> 
            <font color=""green""> Bonus : $3.73 </font>
            </div>
        </div>
    
            <div> Please press any key to continue to the next movie.</div>
        ","arrowleft","ITI","","","","","","",""
"","","","","","html-keyboard-response","241","362450","0.0-7.68-1.68","6536863d842725446b9012ce","6573617f270241e5da3d355d","6576cf21c11e076e274f4154","516","./stimuli//pack_morph_shapes_1/cat_1/diff_5/ex_1_5_8.gif","arrowleft","response","ArrowLeft","8","1","5","test","true",""
"","","","","","html-keyboard-response","242","363953","0.0-7.68-2.68","6536863d842725446b9012ce","6573617f270241e5da3d355d","6576cf21c11e076e274f4154","null","<p> <font color=""green"" size=""5vw""> Correct category! </font> <br> <br> <font color=""green"" size=""8vw""> + $0.08 </font> </p>","null","feedback","","","","","","","3.81"
"","","","","","html-keyboard-response","243","364982","0.0-7.69-0.69","6536863d842725446b9012ce","6573617f270241e5da3d355d","6576cf21c11e076e274f4154","1029","
            
        <div style=""text-align: center; position: fixed; top: 5vh; left: 40vw;"">
            <div style=""margin:0 auto; width: 20vw; top: 8vh; font-size: 2vw""> 
            <font color=""green""> Bonus : $3.81 </font>
            </div>
        </div>
    
            <div> Please press any key to continue to the next movie.</div>
        ","arrowleft","ITI","","","","","","",""
"","","","","","html-keyboard-response","244","365709","0.0-7.69-1.69","6536863d842725446b9012ce","6573617f270241e5da3d355d","6576cf21c11e076e274f4154","726","./stimuli//pack_morph_shapes_1/cat_2/diff_5/ex_2_5_1.gif","arrowright","response","ArrowRight","1","2","5","test","true",""
"","","","","","html-keyboard-response","245","367224","0.0-7.69-2.69","6536863d842725446b9012ce","6573617f270241e5da3d355d","6576cf21c11e076e274f4154","null","<p> <font color=""green"" size=""5vw""> Correct category! </font> <br> <br> <font color=""green"" size=""8vw""> + $0.07 </font> </p>","null","feedback","","","","","","","3.88"
"","","","","","html-keyboard-response","246","367921","0.0-7.70-0.70","6536863d842725446b9012ce","6573617f270241e5da3d355d","6576cf21c11e076e274f4154","697","
            
        <div style=""text-align: center; position: fixed; top: 5vh; left: 40vw;"">
            <div style=""margin:0 auto; width: 20vw; top: 8vh; font-size: 2vw""> 
            <font color=""green""> Bonus : $3.88 </font>
            </div>
        </div>
    
            <div> Please press any key to continue to the next movie.</div>
        ","arrowleft","ITI","","","","","","",""
"","","","","","html-keyboard-response","247","368441","0.0-7.70-1.70","6536863d842725446b9012ce","6573617f270241e5da3d355d","6576cf21c11e076e274f4154","519","./stimuli//pack_morph_shapes_1/cat_2/diff_5/ex_2_5_2.gif","arrowleft","response","ArrowRight","2","2","5","test","false",""
"","","","","","html-keyboard-response","248","369947","0.0-7.70-2.70","6536863d842725446b9012ce","6573617f270241e5da3d355d","6576cf21c11e076e274f4154","null","<p> <font color=""red"" size=""5vw""> Wrong category! </font> <br> <br> <font color=""red"" size=""8vw""> - $0.05 </font> </p>","null","feedback","","","","","","","3.83"
"","","","","","html-keyboard-response","249","370702","0.0-7.71-0.71","6536863d842725446b9012ce","6573617f270241e5da3d355d","6576cf21c11e076e274f4154","754","
            
        <div style=""text-align: center; position: fixed; top: 5vh; left: 40vw;"">
            <div style=""margin:0 auto; width: 20vw; top: 8vh; font-size: 2vw""> 
            <font color=""green""> Bonus : $3.83 </font>
            </div>
        </div>
    
            <div> Please press any key to continue to the next movie.</div>
        ","arrowleft","ITI","","","","","","",""
"","","","","","html-keyboard-response","250","371208","0.0-7.71-1.71","6536863d842725446b9012ce","6573617f270241e5da3d355d","6576cf21c11e076e274f4154","506","./stimuli//pack_morph_shapes_1/cat_2/diff_4/ex_2_4_3.gif","arrowright","response","ArrowRight","3","2","4","test","true",""
"","","","","","html-keyboard-response","251","372711","0.0-7.71-2.71","6536863d842725446b9012ce","6573617f270241e5da3d355d","6576cf21c11e076e274f4154","null","<p> <font color=""green"" size=""5vw""> Correct category! </font> <br> <br> <font color=""green"" size=""8vw""> + $0.08 </font> </p>","null","feedback","","","","","","","3.91"
"","","","","","html-keyboard-response","252","374488","0.0-7.72-0.72","6536863d842725446b9012ce","6573617f270241e5da3d355d","6576cf21c11e076e274f4154","1777","
            
        <div style=""text-align: center; position: fixed; top: 5vh; left: 40vw;"">
            <div style=""margin:0 auto; width: 20vw; top: 8vh; font-size: 2vw""> 
            <font color=""green""> Bonus : $3.91 </font>
            </div>
        </div>
    
            <div> Please press any key to continue to the next movie.</div>
        ","arrowright","ITI","","","","","","",""
"","","","","","html-keyboard-response","253","375324","0.0-7.72-1.72","6536863d842725446b9012ce","6573617f270241e5da3d355d","6576cf21c11e076e274f4154","835","./stimuli//pack_morph_shapes_1/cat_1/diff_4/ex_1_4_10.gif","arrowleft","response","ArrowLeft","10","1","4","test","true",""
