"success","timeout","failed_images","failed_audio","failed_video","trial_type","trial_index","time_elapsed","internal_node_id","subject_id","study_id","session_id","rt","stimulus","response","task","correct_response","exemplar_ID","category","difficulty","phase","correct","bonus"
"true","false","[]","[]","[]","preload","0","4","0.0-0.0","611cbdc447871199a422d10f","6573617f270241e5da3d355d","6576c01d146b125e4f8d92cc","","","","","","","","","","",""
"","","","","","html-keyboard-response","1","7000","0.0-1.0","611cbdc447871199a422d10f","6573617f270241e5da3d355d","6576c01d146b125e4f8d92cc","6994","Welcome to the Category Learning experiment! Press any key to continue."," ","welcome","","","","","","",""
"","","","","","html-keyboard-response","2","39175","0.0-2.0","611cbdc447871199a422d10f","6573617f270241e5da3d355d","6576c01d146b125e4f8d92cc","32174","
            <p>You will be shown movies. Each movie contains a sequence of shapes changing form. 
            <br> Some shapes are category A, some are category B. <b> Within a single movie, all shapes belong to the same category. </b>
            <br> You will not know in advance which category the shapes of each movie belong to.</p>
            <p> While you watch a movie, you have to guess the category that its shapes belong to <b>(left arrow for category A, right arrow for category B)</b></p>
            <p> After you choose, the screen will show you whether you were correct or not.</p>
            <p>Press any key to continue.</p>
            "," ","introduction_1","","","","","","",""
"","","","","","html-keyboard-response","3","60414","0.0-3.0","611cbdc447871199a422d10f","6573617f270241e5da3d355d","6576c01d146b125e4f8d92cc","21238","
              <p><b>You will receive a bonus payment for each correct answer! The faster you answer the higher the bonus will be!</b></p>
              <p> So you can increase your bonus by guessing as quickly and accurately as possible.</p>
              <p><b>You will lose $0.05 from your bonus payment for each incorrect answer! The bonus can not become less that $0.</b> </p>
              <p>Press any key to continue.</p>
              "," ","introduction_2","","","","","","",""
"","","","","","html-keyboard-response","4","69734","0.0-4.0","611cbdc447871199a422d10f","6573617f270241e5da3d355d","6576c01d146b125e4f8d92cc","9319","
            <p> <b>The first 10 trials are a practice round that will not count towards your bonus payment.</b></p>
            <p> You will be notified when practice finishes and the test begins. </p>
            <p> Press any key to begin the practice round.</p>
            "," ","introduction_3","","","","","","",""
"","","","","","html-keyboard-response","5","73718","0.0-5.0-0.0","611cbdc447871199a422d10f","6573617f270241e5da3d355d","6576c01d146b125e4f8d92cc","3983","
            
        <div style=""text-align: center; position: fixed; top: 5vh; left: 40vw;"">
            <div style=""margin:0 auto; width: 20vw; top: 8vh; font-size: 2vw""> 
            <font color=""green""> Bonus : $0 </font>
            </div>
        </div>
    
            <div> Please press any key to continue to the next movie.</div>
        "," ","ITI","","","","","","",""
"","","","","","html-keyboard-response","6","75886","0.0-5.0-1.0","611cbdc447871199a422d10f","6573617f270241e5da3d355d","6576c01d146b125e4f8d92cc","2166","./stimuli//pack_morph_shapes_1/cat_2/diff_2/ex_2_2_5.gif","arrowleft","response","ArrowRight","5","2","2","train","false",""
"","","","","","html-keyboard-response","7","77400","0.0-5.0-2.0","611cbdc447871199a422d10f","6573617f270241e5da3d355d","6576c01d146b125e4f8d92cc","null","<p> <font color=""red"" size=""5vw""> Wrong category! </font> </p>","null","feedback","","","","","","","0"
"","","","","","html-keyboard-response","8","86470","0.0-5.0-0.1","611cbdc447871199a422d10f","6573617f270241e5da3d355d","6576c01d146b125e4f8d92cc","9069","
            
        <div style=""text-align: center; position: fixed; top: 5vh; left: 40vw;"">
            <div style=""margin:0 auto; width: 20vw; top: 8vh; font-size: 2vw""> 
            <font color=""green""> Bonus : $0 </font>
            </div>
        </div>
    
            <div> Please press any key to continue to the next movie.</div>
        "," ","ITI","","","","","","",""
"","","","","","html-keyboard-response","9","87749","0.0-5.0-1.1","611cbdc447871199a422d10f","6573617f270241e5da3d355d","6576c01d146b125e4f8d92cc","1279","./stimuli//pack_morph_shapes_1/cat_1/diff_1/ex_1_1_9.gif","arrowleft","response","ArrowLeft","9","1","1","train","true",""
"","","","","","html-keyboard-response","10","89257","0.0-5.0-2.1","611cbdc447871199a422d10f","6573617f270241e5da3d355d","6576c01d146b125e4f8d92cc","null","<p> <font color=""green"" size=""5vw""> Correct category! </font> </p>","null","feedback","","","","","","","0"
"","","","","","html-keyboard-response","11","92573","0.0-5.0-0.2","611cbdc447871199a422d10f","6573617f270241e5da3d355d","6576c01d146b125e4f8d92cc","3316","
            
        <div style=""text-align: center; position: fixed; top: 5vh; left: 40vw;"">
            <div style=""margin:0 auto; width: 20vw; top: 8vh; font-size: 2vw""> 
            <font color=""green""> Bonus : $0 </font>
            </div>
        </div>
    
            <div> Please press any key to continue to the next movie.</div>
        "," ","ITI","","","","","","",""
"","","","","","html-keyboard-response","12","93709","0.0-5.0-1.2","611cbdc447871199a422d10f","6573617f270241e5da3d355d","6576c01d146b125e4f8d92cc","1135","./stimuli//pack_morph_shapes_1/cat_1/diff_1/ex_1_1_14.gif","arrowleft","response","ArrowLeft","14","1","1","train","true",""
"","","","","","html-keyboard-response","13","95217","0.0-5.0-2.2","611cbdc447871199a422d10f","6573617f270241e5da3d355d","6576c01d146b125e4f8d92cc","null","<p> <font color=""green"" size=""5vw""> Correct category! </font> </p>","null","feedback","","","","","","","0"
"","","","","","html-keyboard-response","14","96093","0.0-5.0-0.3","611cbdc447871199a422d10f","6573617f270241e5da3d355d","6576c01d146b125e4f8d92cc","875","
            
        <div style=""text-align: center; position: fixed; top: 5vh; left: 40vw;"">
            <div style=""margin:0 auto; width: 20vw; top: 8vh; font-size: 2vw""> 
            <font color=""green""> Bonus : $0 </font>
            </div>
        </div>
    
            <div> Please press any key to continue to the next movie.</div>
        "," ","ITI","","","","","","",""
"","","","","","html-keyboard-response","15","96909","0.0-5.0-1.3","611cbdc447871199a422d10f","6573617f270241e5da3d355d","6576c01d146b125e4f8d92cc","815","./stimuli//pack_morph_shapes_1/cat_2/diff_1/ex_2_1_10.gif","arrowright","response","ArrowRight","10","2","1","train","true",""
"","","","","","html-keyboard-response","16","98410","0.0-5.0-2.3","611cbdc447871199a422d10f","6573617f270241e5da3d355d","6576c01d146b125e4f8d92cc","null","<p> <font color=""green"" size=""5vw""> Correct category! </font> </p>","null","feedback","","","","","","","0"
"","","","","","html-keyboard-response","17","99069","0.0-5.0-0.4","611cbdc447871199a422d10f","6573617f270241e5da3d355d","6576c01d146b125e4f8d92cc","658","
            
        <div style=""text-align: center; position: fixed; top: 5vh; left: 40vw;"">
            <div style=""margin:0 auto; width: 20vw; top: 8vh; font-size: 2vw""> 
            <font color=""green""> Bonus : $0 </font>
            </div>
        </div>
    
            <div> Please press any key to continue to the next movie.</div>
        "," ","ITI","","","","","","",""
"","","","","","html-keyboard-response","18","99949","0.0-5.0-1.4","611cbdc447871199a422d10f","6573617f270241e5da3d355d","6576c01d146b125e4f8d92cc","879","./stimuli//pack_morph_shapes_1/cat_1/diff_2/ex_1_2_14.gif","arrowleft","response","ArrowLeft","14","1","2","train","true",""
"","","","","","html-keyboard-response","19","101452","0.0-5.0-2.4","611cbdc447871199a422d10f","6573617f270241e5da3d355d","6576c01d146b125e4f8d92cc","null","<p> <font color=""green"" size=""5vw""> Correct category! </font> </p>","null","feedback","","","","","","","0"
"","","","","","html-keyboard-response","20","101901","0.0-5.0-0.5","611cbdc447871199a422d10f","6573617f270241e5da3d355d","6576c01d146b125e4f8d92cc","448","
            
        <div style=""text-align: center; position: fixed; top: 5vh; left: 40vw;"">
            <div style=""margin:0 auto; width: 20vw; top: 8vh; font-size: 2vw""> 
            <font color=""green""> Bonus : $0 </font>
            </div>
        </div>
    
            <div> Please press any key to continue to the next movie.</div>
        "," ","ITI","","","","","","",""
"","","","","","html-keyboard-response","21","103013","0.0-5.0-1.5","611cbdc447871199a422d10f","6573617f270241e5da3d355d","6576c01d146b125e4f8d92cc","1111","./stimuli//pack_morph_shapes_1/cat_2/diff_1/ex_2_1_9.gif","arrowright","response","ArrowRight","9","2","1","train","true",""
"","","","","","html-keyboard-response","22","104519","0.0-5.0-2.5","611cbdc447871199a422d10f","6573617f270241e5da3d355d","6576c01d146b125e4f8d92cc","null","<p> <font color=""green"" size=""5vw""> Correct category! </font> </p>","null","feedback","","","","","","","0"
"","","","","","html-keyboard-response","23","105069","0.0-5.0-0.6","611cbdc447871199a422d10f","6573617f270241e5da3d355d","6576c01d146b125e4f8d92cc","550","
            
        <div style=""text-align: center; position: fixed; top: 5vh; left: 40vw;"">
            <div style=""margin:0 auto; width: 20vw; top: 8vh; font-size: 2vw""> 
            <font color=""green""> Bonus : $0 </font>
            </div>
        </div>
    
            <div> Please press any key to continue to the next movie.</div>
        "," ","ITI","","","","","","",""
"","","","","","html-keyboard-response","24","105869","0.0-5.0-1.6","611cbdc447871199a422d10f","6573617f270241e5da3d355d","6576c01d146b125e4f8d92cc","800","./stimuli//pack_morph_shapes_1/cat_2/diff_1/ex_2_1_12.gif","arrowright","response","ArrowRight","12","2","1","train","true",""
"","","","","","html-keyboard-response","25","107375","0.0-5.0-2.6","611cbdc447871199a422d10f","6573617f270241e5da3d355d","6576c01d146b125e4f8d92cc","null","<p> <font color=""green"" size=""5vw""> Correct category! </font> </p>","null","feedback","","","","","","","0"
"","","","","","html-keyboard-response","26","107933","0.0-5.0-0.7","611cbdc447871199a422d10f","6573617f270241e5da3d355d","6576c01d146b125e4f8d92cc","557","
            
        <div style=""text-align: center; position: fixed; top: 5vh; left: 40vw;"">
            <div style=""margin:0 auto; width: 20vw; top: 8vh; font-size: 2vw""> 
            <font color=""green""> Bonus : $0 </font>
            </div>
        </div>
    
            <div> Please press any key to continue to the next movie.</div>
        "," ","ITI","","","","","","",""
"","","","","","html-keyboard-response","27","108893","0.0-5.0-1.7","611cbdc447871199a422d10f","6573617f270241e5da3d355d","6576c01d146b125e4f8d92cc","959","./stimuli//pack_morph_shapes_1/cat_1/diff_1/ex_1_1_3.gif","arrowleft","response","ArrowLeft","3","1","1","train","true",""
"","","","","","html-keyboard-response","28","110396","0.0-5.0-2.7","611cbdc447871199a422d10f","6573617f270241e5da3d355d","6576c01d146b125e4f8d92cc","null","<p> <font color=""green"" size=""5vw""> Correct category! </font> </p>","null","feedback","","","","","","","0"
"","","","","","html-keyboard-response","29","110964","0.0-5.0-0.8","611cbdc447871199a422d10f","6573617f270241e5da3d355d","6576c01d146b125e4f8d92cc","568","
            
        <div style=""text-align: center; position: fixed; top: 5vh; left: 40vw;"">
            <div style=""margin:0 auto; width: 20vw; top: 8vh; font-size: 2vw""> 
            <font color=""green""> Bonus : $0 </font>
            </div>
        </div>
    
            <div> Please press any key to continue to the next movie.</div>
        "," ","ITI","","","","","","",""
"","","","","","html-keyboard-response","30","112084","0.0-5.0-1.8","611cbdc447871199a422d10f","6573617f270241e5da3d355d","6576c01d146b125e4f8d92cc","1120","./stimuli//pack_morph_shapes_1/cat_1/diff_2/ex_1_2_3.gif","arrowleft","response","ArrowLeft","3","1","2","train","true",""
"","","","","","html-keyboard-response","31","113600","0.0-5.0-2.8","611cbdc447871199a422d10f","6573617f270241e5da3d355d","6576c01d146b125e4f8d92cc","null","<p> <font color=""green"" size=""5vw""> Correct category! </font> </p>","null","feedback","","","","","","","0"
"","","","","","html-keyboard-response","32","113949","0.0-5.0-0.9","611cbdc447871199a422d10f","6573617f270241e5da3d355d","6576c01d146b125e4f8d92cc","348","
            
        <div style=""text-align: center; position: fixed; top: 5vh; left: 40vw;"">
            <div style=""margin:0 auto; width: 20vw; top: 8vh; font-size: 2vw""> 
            <font color=""green""> Bonus : $0 </font>
            </div>
        </div>
    
            <div> Please press any key to continue to the next movie.</div>
        "," ","ITI","","","","","","",""
"","","","","","html-keyboard-response","33","114804","0.0-5.0-1.9","611cbdc447871199a422d10f","6573617f270241e5da3d355d","6576c01d146b125e4f8d92cc","855","./stimuli//pack_morph_shapes_1/cat_2/diff_2/ex_2_2_17.gif","arrowright","response","ArrowRight","17","2","2","train","true",""
"","","","","","html-keyboard-response","34","116309","0.0-5.0-2.9","611cbdc447871199a422d10f","6573617f270241e5da3d355d","6576c01d146b125e4f8d92cc","null","<p> <font color=""green"" size=""5vw""> Correct category! </font> </p>","null","feedback","","","","","","","0"
"","","","","","html-keyboard-response","35","116660","0.0-6.0","611cbdc447871199a422d10f","6573617f270241e5da3d355d","6576c01d146b125e4f8d92cc","351","
            <b> <p> The practice round has finished.</p>
            <b> <p> For the rest of the experiment you will receive a bonus payment for each correct answer, which will be higher the faster you answer!</b></p>
            <b> </p> Also you will lose $0.05 from your bonus payment for each incorrect answer!</p>
            <p> Press any key to begin the test. </p>
            "," ","intermission","","","","","","",""
"","","","","","html-keyboard-response","36","119957","0.0-7.0-0.0","611cbdc447871199a422d10f","6573617f270241e5da3d355d","6576c01d146b125e4f8d92cc","3296","
            
        <div style=""text-align: center; position: fixed; top: 5vh; left: 40vw;"">
            <div style=""margin:0 auto; width: 20vw; top: 8vh; font-size: 2vw""> 
            <font color=""green""> Bonus : $0 </font>
            </div>
        </div>
    
            <div> Please press any key to continue to the next movie.</div>
        "," ","ITI","","","","","","",""
"","","","","","html-keyboard-response","37","121804","0.0-7.0-1.0","611cbdc447871199a422d10f","6573617f270241e5da3d355d","6576c01d146b125e4f8d92cc","1846","./stimuli//pack_morph_shapes_1/cat_1/diff_1/ex_1_1_7.gif","arrowleft","response","ArrowLeft","7","1","1","test","true",""
"","","","","","html-keyboard-response","38","123320","0.0-7.0-2.0","611cbdc447871199a422d10f","6573617f270241e5da3d355d","6576c01d146b125e4f8d92cc","null","<p> <font color=""green"" size=""5vw""> Correct category! </font> <br> <br> <font color=""green"" size=""8vw""> + $0.04 </font> </p>","null","feedback","","","","","","","0.04"
"","","","","","html-keyboard-response","39","123732","0.0-7.1-0.1","611cbdc447871199a422d10f","6573617f270241e5da3d355d","6576c01d146b125e4f8d92cc","411","
            
        <div style=""text-align: center; position: fixed; top: 5vh; left: 40vw;"">
            <div style=""margin:0 auto; width: 20vw; top: 8vh; font-size: 2vw""> 
            <font color=""green""> Bonus : $0.04 </font>
            </div>
        </div>
    
            <div> Please press any key to continue to the next movie.</div>
        "," ","ITI","","","","","","",""
"","","","","","html-keyboard-response","40","124596","0.0-7.1-1.1","611cbdc447871199a422d10f","6573617f270241e5da3d355d","6576c01d146b125e4f8d92cc","863","./stimuli//pack_morph_shapes_1/cat_1/diff_1/ex_1_1_6.gif","arrowleft","response","ArrowLeft","6","1","1","test","true",""
"","","","","","html-keyboard-response","41","126102","0.0-7.1-2.1","611cbdc447871199a422d10f","6573617f270241e5da3d355d","6576c01d146b125e4f8d92cc","null","<p> <font color=""green"" size=""5vw""> Correct category! </font> <br> <br> <font color=""green"" size=""8vw""> + $0.06 </font> </p>","null","feedback","","","","","","","0.1"
"","","","","","html-keyboard-response","42","126732","0.0-7.2-0.2","611cbdc447871199a422d10f","6573617f270241e5da3d355d","6576c01d146b125e4f8d92cc","629","
            
        <div style=""text-align: center; position: fixed; top: 5vh; left: 40vw;"">
            <div style=""margin:0 auto; width: 20vw; top: 8vh; font-size: 2vw""> 
            <font color=""green""> Bonus : $0.1 </font>
            </div>
        </div>
    
            <div> Please press any key to continue to the next movie.</div>
        "," ","ITI","","","","","","",""
"","","","","","html-keyboard-response","43","127564","0.0-7.2-1.2","611cbdc447871199a422d10f","6573617f270241e5da3d355d","6576c01d146b125e4f8d92cc","831","./stimuli//pack_morph_shapes_1/cat_2/diff_1/ex_2_1_15.gif","arrowright","response","ArrowRight","15","2","1","test","true",""
"","","","","","html-keyboard-response","44","129067","0.0-7.2-2.2","611cbdc447871199a422d10f","6573617f270241e5da3d355d","6576c01d146b125e4f8d92cc","null","<p> <font color=""green"" size=""5vw""> Correct category! </font> <br> <br> <font color=""green"" size=""8vw""> + $0.07 </font> </p>","null","feedback","","","","","","","0.17"
"","","","","","html-keyboard-response","45","129660","0.0-7.3-0.3","611cbdc447871199a422d10f","6573617f270241e5da3d355d","6576c01d146b125e4f8d92cc","593","
            
        <div style=""text-align: center; position: fixed; top: 5vh; left: 40vw;"">
            <div style=""margin:0 auto; width: 20vw; top: 8vh; font-size: 2vw""> 
            <font color=""green""> Bonus : $0.17 </font>
            </div>
        </div>
    
            <div> Please press any key to continue to the next movie.</div>
        "," ","ITI","","","","","","",""
"","","","","","html-keyboard-response","46","131020","0.0-7.3-1.3","611cbdc447871199a422d10f","6573617f270241e5da3d355d","6576c01d146b125e4f8d92cc","1359","./stimuli//pack_morph_shapes_1/cat_1/diff_1/ex_1_1_15.gif","arrowleft","response","ArrowLeft","15","1","1","test","true",""
"","","","","","html-keyboard-response","47","132524","0.0-7.3-2.3","611cbdc447871199a422d10f","6573617f270241e5da3d355d","6576c01d146b125e4f8d92cc","null","<p> <font color=""green"" size=""5vw""> Correct category! </font> <br> <br> <font color=""green"" size=""8vw""> + $0.05 </font> </p>","null","feedback","","","","","","","0.22"
"","","","","","html-keyboard-response","48","133404","0.0-7.4-0.4","611cbdc447871199a422d10f","6573617f270241e5da3d355d","6576c01d146b125e4f8d92cc","879","
            
        <div style=""text-align: center; position: fixed; top: 5vh; left: 40vw;"">
            <div style=""margin:0 auto; width: 20vw; top: 8vh; font-size: 2vw""> 
            <font color=""green""> Bonus : $0.22 </font>
            </div>
        </div>
    
            <div> Please press any key to continue to the next movie.</div>
        "," ","ITI","","","","","","",""
"","","","","","html-keyboard-response","49","134260","0.0-7.4-1.4","611cbdc447871199a422d10f","6573617f270241e5da3d355d","6576c01d146b125e4f8d92cc","855","./stimuli//pack_morph_shapes_1/cat_1/diff_1/ex_1_1_11.gif","arrowleft","response","ArrowLeft","11","1","1","test","true",""
"","","","","","html-keyboard-response","50","135770","0.0-7.4-2.4","611cbdc447871199a422d10f","6573617f270241e5da3d355d","6576c01d146b125e4f8d92cc","null","<p> <font color=""green"" size=""5vw""> Correct category! </font> <br> <br> <font color=""green"" size=""8vw""> + $0.07 </font> </p>","null","feedback","","","","","","","0.29"
"","","","","","html-keyboard-response","51","136148","0.0-7.5-0.5","611cbdc447871199a422d10f","6573617f270241e5da3d355d","6576c01d146b125e4f8d92cc","378","
            
        <div style=""text-align: center; position: fixed; top: 5vh; left: 40vw;"">
            <div style=""margin:0 auto; width: 20vw; top: 8vh; font-size: 2vw""> 
            <font color=""green""> Bonus : $0.29 </font>
            </div>
        </div>
    
            <div> Please press any key to continue to the next movie.</div>
        "," ","ITI","","","","","","",""
"","","","","","html-keyboard-response","52","136844","0.0-7.5-1.5","611cbdc447871199a422d10f","6573617f270241e5da3d355d","6576c01d146b125e4f8d92cc","695","./stimuli//pack_morph_shapes_1/cat_1/diff_2/ex_1_2_11.gif","arrowleft","response","ArrowLeft","11","1","2","test","true",""
"","","","","","html-keyboard-response","53","138350","0.0-7.5-2.5","611cbdc447871199a422d10f","6573617f270241e5da3d355d","6576c01d146b125e4f8d92cc","null","<p> <font color=""green"" size=""5vw""> Correct category! </font> <br> <br> <font color=""green"" size=""8vw""> + $0.07 </font> </p>","null","feedback","","","","","","","0.36"
"","","","","","html-keyboard-response","54","140283","0.0-7.6-0.6","611cbdc447871199a422d10f","6573617f270241e5da3d355d","6576c01d146b125e4f8d92cc","1932","
            
        <div style=""text-align: center; position: fixed; top: 5vh; left: 40vw;"">
            <div style=""margin:0 auto; width: 20vw; top: 8vh; font-size: 2vw""> 
            <font color=""green""> Bonus : $0.36 </font>
            </div>
        </div>
    
            <div> Please press any key to continue to the next movie.</div>
        "," ","ITI","","","","","","",""
"","","","","","html-keyboard-response","55","141316","0.0-7.6-1.6","611cbdc447871199a422d10f","6573617f270241e5da3d355d","6576c01d146b125e4f8d92cc","1032","./stimuli//pack_morph_shapes_1/cat_2/diff_2/ex_2_2_4.gif","arrowright","response","ArrowRight","4","2","2","test","true",""
"","","","","","html-keyboard-response","56","142831","0.0-7.6-2.6","611cbdc447871199a422d10f","6573617f270241e5da3d355d","6576c01d146b125e4f8d92cc","null","<p> <font color=""green"" size=""5vw""> Correct category! </font> <br> <br> <font color=""green"" size=""8vw""> + $0.06 </font> </p>","null","feedback","","","","","","","0.42"
"","","","","","html-keyboard-response","57","143635","0.0-7.7-0.7","611cbdc447871199a422d10f","6573617f270241e5da3d355d","6576c01d146b125e4f8d92cc","804","
            
        <div style=""text-align: center; position: fixed; top: 5vh; left: 40vw;"">
            <div style=""margin:0 auto; width: 20vw; top: 8vh; font-size: 2vw""> 
            <font color=""green""> Bonus : $0.42 </font>
            </div>
        </div>
    
            <div> Please press any key to continue to the next movie.</div>
        "," ","ITI","","","","","","",""
"","","","","","html-keyboard-response","58","144676","0.0-7.7-1.7","611cbdc447871199a422d10f","6573617f270241e5da3d355d","6576c01d146b125e4f8d92cc","1039","./stimuli//pack_morph_shapes_1/cat_2/diff_2/ex_2_2_13.gif","arrowright","response","ArrowRight","13","2","2","test","true",""
"","","","","","html-keyboard-response","59","146190","0.0-7.7-2.7","611cbdc447871199a422d10f","6573617f270241e5da3d355d","6576c01d146b125e4f8d92cc","null","<p> <font color=""green"" size=""5vw""> Correct category! </font> <br> <br> <font color=""green"" size=""8vw""> + $0.06 </font> </p>","null","feedback","","","","","","","0.48"
"","","","","","html-keyboard-response","60","146947","0.0-7.8-0.8","611cbdc447871199a422d10f","6573617f270241e5da3d355d","6576c01d146b125e4f8d92cc","757","
            
        <div style=""text-align: center; position: fixed; top: 5vh; left: 40vw;"">
            <div style=""margin:0 auto; width: 20vw; top: 8vh; font-size: 2vw""> 
            <font color=""green""> Bonus : $0.48 </font>
            </div>
        </div>
    
            <div> Please press any key to continue to the next movie.</div>
        "," ","ITI","","","","","","",""
"","","","","","html-keyboard-response","61","147683","0.0-7.8-1.8","611cbdc447871199a422d10f","6573617f270241e5da3d355d","6576c01d146b125e4f8d92cc","735","./stimuli//pack_morph_shapes_1/cat_1/diff_2/ex_1_2_8.gif","arrowright","response","ArrowLeft","8","1","2","test","false",""
"","","","","","html-keyboard-response","62","149195","0.0-7.8-2.8","611cbdc447871199a422d10f","6573617f270241e5da3d355d","6576c01d146b125e4f8d92cc","null","<p> <font color=""red"" size=""5vw""> Wrong category! </font> <br> <br> <font color=""red"" size=""8vw""> - $0.05 </font> </p>","null","feedback","","","","","","","0.43"
"","","","","","html-keyboard-response","63","149748","0.0-7.9-0.9","611cbdc447871199a422d10f","6573617f270241e5da3d355d","6576c01d146b125e4f8d92cc","553","
            
        <div style=""text-align: center; position: fixed; top: 5vh; left: 40vw;"">
            <div style=""margin:0 auto; width: 20vw; top: 8vh; font-size: 2vw""> 
            <font color=""green""> Bonus : $0.43 </font>
            </div>
        </div>
    
            <div> Please press any key to continue to the next movie.</div>
        "," ","ITI","","","","","","",""
"","","","","","html-keyboard-response","64","150771","0.0-7.9-1.9","611cbdc447871199a422d10f","6573617f270241e5da3d355d","6576c01d146b125e4f8d92cc","1023","./stimuli//pack_morph_shapes_1/cat_2/diff_2/ex_2_2_6.gif","arrowright","response","ArrowRight","6","2","2","test","true",""
"","","","","","html-keyboard-response","65","152281","0.0-7.9-2.9","611cbdc447871199a422d10f","6573617f270241e5da3d355d","6576c01d146b125e4f8d92cc","null","<p> <font color=""green"" size=""5vw""> Correct category! </font> <br> <br> <font color=""green"" size=""8vw""> + $0.06 </font> </p>","null","feedback","","","","","","","0.49"
"","","","","","html-keyboard-response","66","152419","0.0-7.10-0.10","611cbdc447871199a422d10f","6573617f270241e5da3d355d","6576c01d146b125e4f8d92cc","138","
            
        <div style=""text-align: center; position: fixed; top: 5vh; left: 40vw;"">
            <div style=""margin:0 auto; width: 20vw; top: 8vh; font-size: 2vw""> 
            <font color=""green""> Bonus : $0.49 </font>
            </div>
        </div>
    
            <div> Please press any key to continue to the next movie.</div>
        "," ","ITI","","","","","","",""
"","","","","","html-keyboard-response","67","153579","0.0-7.10-1.10","611cbdc447871199a422d10f","6573617f270241e5da3d355d","6576c01d146b125e4f8d92cc","1159","./stimuli//pack_morph_shapes_1/cat_2/diff_3/ex_2_3_5.gif","arrowright","response","ArrowRight","5","2","3","test","true",""
"","","","","","html-keyboard-response","68","155086","0.0-7.10-2.10","611cbdc447871199a422d10f","6573617f270241e5da3d355d","6576c01d146b125e4f8d92cc","null","<p> <font color=""green"" size=""5vw""> Correct category! </font> <br> <br> <font color=""green"" size=""8vw""> + $0.06 </font> </p>","null","feedback","","","","","","","0.55"
"","","","","","html-keyboard-response","69","155683","0.0-7.11-0.11","611cbdc447871199a422d10f","6573617f270241e5da3d355d","6576c01d146b125e4f8d92cc","597","
            
        <div style=""text-align: center; position: fixed; top: 5vh; left: 40vw;"">
            <div style=""margin:0 auto; width: 20vw; top: 8vh; font-size: 2vw""> 
            <font color=""green""> Bonus : $0.55 </font>
            </div>
        </div>
    
            <div> Please press any key to continue to the next movie.</div>
        "," ","ITI","","","","","","",""
"","","","","","html-keyboard-response","70","156491","0.0-7.11-1.11","611cbdc447871199a422d10f","6573617f270241e5da3d355d","6576c01d146b125e4f8d92cc","807","./stimuli//pack_morph_shapes_1/cat_2/diff_3/ex_2_3_1.gif","arrowright","response","ArrowRight","1","2","3","test","true",""
"","","","","","html-keyboard-response","71","158006","0.0-7.11-2.11","611cbdc447871199a422d10f","6573617f270241e5da3d355d","6576c01d146b125e4f8d92cc","null","<p> <font color=""green"" size=""5vw""> Correct category! </font> <br> <br> <font color=""green"" size=""8vw""> + $0.07 </font> </p>","null","feedback","","","","","","","0.62"
"","","","","","html-keyboard-response","72","158683","0.0-7.12-0.12","611cbdc447871199a422d10f","6573617f270241e5da3d355d","6576c01d146b125e4f8d92cc","677","
            
        <div style=""text-align: center; position: fixed; top: 5vh; left: 40vw;"">
            <div style=""margin:0 auto; width: 20vw; top: 8vh; font-size: 2vw""> 
            <font color=""green""> Bonus : $0.62 </font>
            </div>
        </div>
    
            <div> Please press any key to continue to the next movie.</div>
        "," ","ITI","","","","","","",""
"","","","","","html-keyboard-response","73","159411","0.0-7.12-1.12","611cbdc447871199a422d10f","6573617f270241e5da3d355d","6576c01d146b125e4f8d92cc","727","./stimuli//pack_morph_shapes_1/cat_1/diff_3/ex_1_3_14.gif","arrowleft","response","ArrowLeft","14","1","3","test","true",""
"","","","","","html-keyboard-response","74","160933","0.0-7.12-2.12","611cbdc447871199a422d10f","6573617f270241e5da3d355d","6576c01d146b125e4f8d92cc","null","<p> <font color=""green"" size=""5vw""> Correct category! </font> <br> <br> <font color=""green"" size=""8vw""> + $0.07 </font> </p>","null","feedback","","","","","","","0.69"
"","","","","","html-keyboard-response","75","161283","0.0-7.13-0.13","611cbdc447871199a422d10f","6573617f270241e5da3d355d","6576c01d146b125e4f8d92cc","350","
            
        <div style=""text-align: center; position: fixed; top: 5vh; left: 40vw;"">
            <div style=""margin:0 auto; width: 20vw; top: 8vh; font-size: 2vw""> 
            <font color=""green""> Bonus : $0.69 </font>
            </div>
        </div>
    
            <div> Please press any key to continue to the next movie.</div>
        "," ","ITI","","","","","","",""
"","","","","","html-keyboard-response","76","162411","0.0-7.13-1.13","611cbdc447871199a422d10f","6573617f270241e5da3d355d","6576c01d146b125e4f8d92cc","1128","./stimuli//pack_morph_shapes_1/cat_2/diff_3/ex_2_3_13.gif","arrowright","response","ArrowRight","13","2","3","test","true",""
"","","","","","html-keyboard-response","77","163915","0.0-7.13-2.13","611cbdc447871199a422d10f","6573617f270241e5da3d355d","6576c01d146b125e4f8d92cc","null","<p> <font color=""green"" size=""5vw""> Correct category! </font> <br> <br> <font color=""green"" size=""8vw""> + $0.06 </font> </p>","null","feedback","","","","","","","0.75"
"","","","","","html-keyboard-response","78","164291","0.0-7.14-0.14","611cbdc447871199a422d10f","6573617f270241e5da3d355d","6576c01d146b125e4f8d92cc","375","
            
        <div style=""text-align: center; position: fixed; top: 5vh; left: 40vw;"">
            <div style=""margin:0 auto; width: 20vw; top: 8vh; font-size: 2vw""> 
            <font color=""green""> Bonus : $0.75 </font>
            </div>
        </div>
    
            <div> Please press any key to continue to the next movie.</div>
        "," ","ITI","","","","","","",""
"","","","","","html-keyboard-response","79","165187","0.0-7.14-1.14","611cbdc447871199a422d10f","6573617f270241e5da3d355d","6576c01d146b125e4f8d92cc","895","./stimuli//pack_morph_shapes_1/cat_1/diff_3/ex_1_3_4.gif","arrowleft","response","ArrowLeft","4","1","3","test","true",""
"","","","","","html-keyboard-response","80","166688","0.0-7.14-2.14","611cbdc447871199a422d10f","6573617f270241e5da3d355d","6576c01d146b125e4f8d92cc","null","<p> <font color=""green"" size=""5vw""> Correct category! </font> <br> <br> <font color=""green"" size=""8vw""> + $0.06 </font> </p>","null","feedback","","","","","","","0.81"
"","","","","","html-keyboard-response","81","167067","0.0-7.15-0.15","611cbdc447871199a422d10f","6573617f270241e5da3d355d","6576c01d146b125e4f8d92cc","379","
            
        <div style=""text-align: center; position: fixed; top: 5vh; left: 40vw;"">
            <div style=""margin:0 auto; width: 20vw; top: 8vh; font-size: 2vw""> 
            <font color=""green""> Bonus : $0.81 </font>
            </div>
        </div>
    
            <div> Please press any key to continue to the next movie.</div>
        "," ","ITI","","","","","","",""
"","","","","","html-keyboard-response","82","168227","0.0-7.15-1.15","611cbdc447871199a422d10f","6573617f270241e5da3d355d","6576c01d146b125e4f8d92cc","1159","./stimuli//pack_morph_shapes_1/cat_1/diff_4/ex_1_4_12.gif","arrowleft","response","ArrowLeft","12","1","4","test","true",""
"","","","","","html-keyboard-response","83","169745","0.0-7.15-2.15","611cbdc447871199a422d10f","6573617f270241e5da3d355d","6576c01d146b125e4f8d92cc","null","<p> <font color=""green"" size=""5vw""> Correct category! </font> <br> <br> <font color=""green"" size=""8vw""> + $0.06 </font> </p>","null","feedback","","","","","","","0.87"
"","","","","","html-keyboard-response","84","169787","0.0-7.16-0.16","611cbdc447871199a422d10f","6573617f270241e5da3d355d","6576c01d146b125e4f8d92cc","41","
            
        <div style=""text-align: center; position: fixed; top: 5vh; left: 40vw;"">
            <div style=""margin:0 auto; width: 20vw; top: 8vh; font-size: 2vw""> 
            <font color=""green""> Bonus : $0.87 </font>
            </div>
        </div>
    
            <div> Please press any key to continue to the next movie.</div>
        "," ","ITI","","","","","","",""
"","","","","","html-keyboard-response","85","170587","0.0-7.16-1.16","611cbdc447871199a422d10f","6573617f270241e5da3d355d","6576c01d146b125e4f8d92cc","799","./stimuli//pack_morph_shapes_1/cat_2/diff_4/ex_2_4_11.gif","arrowright","response","ArrowRight","11","2","4","test","true",""
"","","","","","html-keyboard-response","86","172096","0.0-7.16-2.16","611cbdc447871199a422d10f","6573617f270241e5da3d355d","6576c01d146b125e4f8d92cc","null","<p> <font color=""green"" size=""5vw""> Correct category! </font> <br> <br> <font color=""green"" size=""8vw""> + $0.07 </font> </p>","null","feedback","","","","","","","0.94"
"","","","","","html-keyboard-response","87","172475","0.0-7.17-0.17","611cbdc447871199a422d10f","6573617f270241e5da3d355d","6576c01d146b125e4f8d92cc","378","
            
        <div style=""text-align: center; position: fixed; top: 5vh; left: 40vw;"">
            <div style=""margin:0 auto; width: 20vw; top: 8vh; font-size: 2vw""> 
            <font color=""green""> Bonus : $0.94 </font>
            </div>
        </div>
    
            <div> Please press any key to continue to the next movie.</div>
        "," ","ITI","","","","","","",""
"","","","","","html-keyboard-response","88","173315","0.0-7.17-1.17","611cbdc447871199a422d10f","6573617f270241e5da3d355d","6576c01d146b125e4f8d92cc","839","./stimuli//pack_morph_shapes_1/cat_1/diff_4/ex_1_4_2.gif","arrowleft","response","ArrowLeft","2","1","4","test","true",""
"","","","","","html-keyboard-response","89","174831","0.0-7.17-2.17","611cbdc447871199a422d10f","6573617f270241e5da3d355d","6576c01d146b125e4f8d92cc","null","<p> <font color=""green"" size=""5vw""> Correct category! </font> <br> <br> <font color=""green"" size=""8vw""> + $0.07 </font> </p>","null","feedback","","","","","","","1.01"
"","","","","","html-keyboard-response","90","175203","0.0-7.18-0.18","611cbdc447871199a422d10f","6573617f270241e5da3d355d","6576c01d146b125e4f8d92cc","371","
            
        <div style=""text-align: center; position: fixed; top: 5vh; left: 40vw;"">
            <div style=""margin:0 auto; width: 20vw; top: 8vh; font-size: 2vw""> 
            <font color=""green""> Bonus : $1.01 </font>
            </div>
        </div>
    
            <div> Please press any key to continue to the next movie.</div>
        "," ","ITI","","","","","","",""
"","","","","","html-keyboard-response","91","176066","0.0-7.18-1.18","611cbdc447871199a422d10f","6573617f270241e5da3d355d","6576c01d146b125e4f8d92cc","863","./stimuli//pack_morph_shapes_1/cat_1/diff_4/ex_1_4_4.gif","arrowleft","response","ArrowLeft","4","1","4","test","true",""
"","","","","","html-keyboard-response","92","177573","0.0-7.18-2.18","611cbdc447871199a422d10f","6573617f270241e5da3d355d","6576c01d146b125e4f8d92cc","null","<p> <font color=""green"" size=""5vw""> Correct category! </font> <br> <br> <font color=""green"" size=""8vw""> + $0.06 </font> </p>","null","feedback","","","","","","","1.07"
"","","","","","html-keyboard-response","93","177586","0.0-7.19-0.19","611cbdc447871199a422d10f","6573617f270241e5da3d355d","6576c01d146b125e4f8d92cc","13","
            
        <div style=""text-align: center; position: fixed; top: 5vh; left: 40vw;"">
            <div style=""margin:0 auto; width: 20vw; top: 8vh; font-size: 2vw""> 
            <font color=""green""> Bonus : $1.07 </font>
            </div>
        </div>
    
            <div> Please press any key to continue to the next movie.</div>
        "," ","ITI","","","","","","",""
"","","","","","html-keyboard-response","94","178378","0.0-7.19-1.19","611cbdc447871199a422d10f","6573617f270241e5da3d355d","6576c01d146b125e4f8d92cc","791","./stimuli//pack_morph_shapes_1/cat_1/diff_4/ex_1_4_6.gif","arrowleft","response","ArrowLeft","6","1","4","test","true",""
"","","","","","html-keyboard-response","95","179894","0.0-7.19-2.19","611cbdc447871199a422d10f","6573617f270241e5da3d355d","6576c01d146b125e4f8d92cc","null","<p> <font color=""green"" size=""5vw""> Correct category! </font> <br> <br> <font color=""green"" size=""8vw""> + $0.07 </font> </p>","null","feedback","","","","","","","1.14"
"","","","","","html-keyboard-response","96","180339","0.0-7.20-0.20","611cbdc447871199a422d10f","6573617f270241e5da3d355d","6576c01d146b125e4f8d92cc","444","
            
        <div style=""text-align: center; position: fixed; top: 5vh; left: 40vw;"">
            <div style=""margin:0 auto; width: 20vw; top: 8vh; font-size: 2vw""> 
            <font color=""green""> Bonus : $1.14 </font>
            </div>
        </div>
    
            <div> Please press any key to continue to the next movie.</div>
        "," ","ITI","","","","","","",""
"","","","","","html-keyboard-response","97","180898","0.0-7.20-1.20","611cbdc447871199a422d10f","6573617f270241e5da3d355d","6576c01d146b125e4f8d92cc","558","./stimuli//pack_morph_shapes_1/cat_2/diff_5/ex_2_5_3.gif","arrowleft","response","ArrowRight","3","2","5","test","false",""
"","","","","","html-keyboard-response","98","182408","0.0-7.20-2.20","611cbdc447871199a422d10f","6573617f270241e5da3d355d","6576c01d146b125e4f8d92cc","null","<p> <font color=""red"" size=""5vw""> Wrong category! </font> <br> <br> <font color=""red"" size=""8vw""> - $0.05 </font> </p>","null","feedback","","","","","","","1.09"
"","","","","","html-keyboard-response","99","182619","0.0-7.21-0.21","611cbdc447871199a422d10f","6573617f270241e5da3d355d","6576c01d146b125e4f8d92cc","210","
            
        <div style=""text-align: center; position: fixed; top: 5vh; left: 40vw;"">
            <div style=""margin:0 auto; width: 20vw; top: 8vh; font-size: 2vw""> 
            <font color=""green""> Bonus : $1.09 </font>
            </div>
        </div>
    
            <div> Please press any key to continue to the next movie.</div>
        "," ","ITI","","","","","","",""
"","","","","","html-keyboard-response","100","183562","0.0-7.21-1.21","611cbdc447871199a422d10f","6573617f270241e5da3d355d","6576c01d146b125e4f8d92cc","943","./stimuli//pack_morph_shapes_1/cat_2/diff_5/ex_2_5_14.gif","arrowright","response","ArrowRight","14","2","5","test","true",""
"","","","","","html-keyboard-response","101","185080","0.0-7.21-2.21","611cbdc447871199a422d10f","6573617f270241e5da3d355d","6576c01d146b125e4f8d92cc","null","<p> <font color=""green"" size=""5vw""> Correct category! </font> <br> <br> <font color=""green"" size=""8vw""> + $0.06 </font> </p>","null","feedback","","","","","","","1.15"
"","","","","","html-keyboard-response","102","185523","0.0-7.22-0.22","611cbdc447871199a422d10f","6573617f270241e5da3d355d","6576c01d146b125e4f8d92cc","442","
            
        <div style=""text-align: center; position: fixed; top: 5vh; left: 40vw;"">
            <div style=""margin:0 auto; width: 20vw; top: 8vh; font-size: 2vw""> 
            <font color=""green""> Bonus : $1.15 </font>
            </div>
        </div>
    
            <div> Please press any key to continue to the next movie.</div>
        "," ","ITI","","","","","","",""
"","","","","","html-keyboard-response","103","186403","0.0-7.22-1.22","611cbdc447871199a422d10f","6573617f270241e5da3d355d","6576c01d146b125e4f8d92cc","880","./stimuli//pack_morph_shapes_1/cat_1/diff_5/ex_1_5_15.gif","arrowleft","response","ArrowLeft","15","1","5","test","true",""
"","","","","","html-keyboard-response","104","187916","0.0-7.22-2.22","611cbdc447871199a422d10f","6573617f270241e5da3d355d","6576c01d146b125e4f8d92cc","null","<p> <font color=""green"" size=""5vw""> Correct category! </font> <br> <br> <font color=""green"" size=""8vw""> + $0.06 </font> </p>","null","feedback","","","","","","","1.21"
"","","","","","html-keyboard-response","105","187986","0.0-7.23-0.23","611cbdc447871199a422d10f","6573617f270241e5da3d355d","6576c01d146b125e4f8d92cc","70","
            
        <div style=""text-align: center; position: fixed; top: 5vh; left: 40vw;"">
            <div style=""margin:0 auto; width: 20vw; top: 8vh; font-size: 2vw""> 
            <font color=""green""> Bonus : $1.21 </font>
            </div>
        </div>
    
            <div> Please press any key to continue to the next movie.</div>
        "," ","ITI","","","","","","",""
"","","","","","html-keyboard-response","106","189171","0.0-7.23-1.23","611cbdc447871199a422d10f","6573617f270241e5da3d355d","6576c01d146b125e4f8d92cc","1184","./stimuli//pack_morph_shapes_1/cat_1/diff_5/ex_1_5_1.gif","arrowleft","response","ArrowLeft","1","1","5","test","true",""
"","","","","","html-keyboard-response","107","190690","0.0-7.23-2.23","611cbdc447871199a422d10f","6573617f270241e5da3d355d","6576c01d146b125e4f8d92cc","null","<p> <font color=""green"" size=""5vw""> Correct category! </font> <br> <br> <font color=""green"" size=""8vw""> + $0.06 </font> </p>","null","feedback","","","","","","","1.27"
"","","","","","html-keyboard-response","108","190730","0.0-7.24-0.24","611cbdc447871199a422d10f","6573617f270241e5da3d355d","6576c01d146b125e4f8d92cc","40","
            
        <div style=""text-align: center; position: fixed; top: 5vh; left: 40vw;"">
            <div style=""margin:0 auto; width: 20vw; top: 8vh; font-size: 2vw""> 
            <font color=""green""> Bonus : $1.27 </font>
            </div>
        </div>
    
            <div> Please press any key to continue to the next movie.</div>
        "," ","ITI","","","","","","",""
"","","","","","html-keyboard-response","109","191846","0.0-7.24-1.24","611cbdc447871199a422d10f","6573617f270241e5da3d355d","6576c01d146b125e4f8d92cc","1115","./stimuli//pack_morph_shapes_1/cat_1/diff_5/ex_1_5_14.gif","arrowleft","response","ArrowLeft","14","1","5","test","true",""
"","","","","","html-keyboard-response","110","193355","0.0-7.24-2.24","611cbdc447871199a422d10f","6573617f270241e5da3d355d","6576c01d146b125e4f8d92cc","null","<p> <font color=""green"" size=""5vw""> Correct category! </font> <br> <br> <font color=""green"" size=""8vw""> + $0.06 </font> </p>","null","feedback","","","","","","","1.33"
"","","","","","html-keyboard-response","111","194114","0.0-7.25-0.25","611cbdc447871199a422d10f","6573617f270241e5da3d355d","6576c01d146b125e4f8d92cc","759","
            
        <div style=""text-align: center; position: fixed; top: 5vh; left: 40vw;"">
            <div style=""margin:0 auto; width: 20vw; top: 8vh; font-size: 2vw""> 
            <font color=""green""> Bonus : $1.33 </font>
            </div>
        </div>
    
            <div> Please press any key to continue to the next movie.</div>
        "," ","ITI","","","","","","",""
"","","","","","html-keyboard-response","112","195322","0.0-7.25-1.25","611cbdc447871199a422d10f","6573617f270241e5da3d355d","6576c01d146b125e4f8d92cc","1207","./stimuli//pack_morph_shapes_1/cat_1/diff_5/ex_1_5_5.gif","arrowleft","response","ArrowLeft","5","1","5","test","true",""
"","","","","","html-keyboard-response","113","196831","0.0-7.25-2.25","611cbdc447871199a422d10f","6573617f270241e5da3d355d","6576c01d146b125e4f8d92cc","null","<p> <font color=""green"" size=""5vw""> Correct category! </font> <br> <br> <font color=""green"" size=""8vw""> + $0.05 </font> </p>","null","feedback","","","","","","","1.38"
"","","","","","html-keyboard-response","114","196866","0.0-7.26-0.26","611cbdc447871199a422d10f","6573617f270241e5da3d355d","6576c01d146b125e4f8d92cc","34","
            
        <div style=""text-align: center; position: fixed; top: 5vh; left: 40vw;"">
            <div style=""margin:0 auto; width: 20vw; top: 8vh; font-size: 2vw""> 
            <font color=""green""> Bonus : $1.38 </font>
            </div>
        </div>
    
            <div> Please press any key to continue to the next movie.</div>
        "," ","ITI","","","","","","",""
"","","","","","html-keyboard-response","115","197954","0.0-7.26-1.26","611cbdc447871199a422d10f","6573617f270241e5da3d355d","6576c01d146b125e4f8d92cc","1087","./stimuli//pack_morph_shapes_1/cat_2/diff_5/ex_2_5_16.gif","arrowright","response","ArrowRight","16","2","5","test","true",""
"","","","","","html-keyboard-response","116","199467","0.0-7.26-2.26","611cbdc447871199a422d10f","6573617f270241e5da3d355d","6576c01d146b125e4f8d92cc","null","<p> <font color=""green"" size=""5vw""> Correct category! </font> <br> <br> <font color=""green"" size=""8vw""> + $0.06 </font> </p>","null","feedback","","","","","","","1.44"
"","","","","","html-keyboard-response","117","200306","0.0-7.27-0.27","611cbdc447871199a422d10f","6573617f270241e5da3d355d","6576c01d146b125e4f8d92cc","838","
            
        <div style=""text-align: center; position: fixed; top: 5vh; left: 40vw;"">
            <div style=""margin:0 auto; width: 20vw; top: 8vh; font-size: 2vw""> 
            <font color=""green""> Bonus : $1.44 </font>
            </div>
        </div>
    
            <div> Please press any key to continue to the next movie.</div>
        "," ","ITI","","","","","","",""
"","","","","","html-keyboard-response","118","201402","0.0-7.27-1.27","611cbdc447871199a422d10f","6573617f270241e5da3d355d","6576c01d146b125e4f8d92cc","1095","./stimuli//pack_morph_shapes_1/cat_1/diff_5/ex_1_5_13.gif","arrowleft","response","ArrowLeft","13","1","5","test","true",""
"","","","","","html-keyboard-response","119","202911","0.0-7.27-2.27","611cbdc447871199a422d10f","6573617f270241e5da3d355d","6576c01d146b125e4f8d92cc","null","<p> <font color=""green"" size=""5vw""> Correct category! </font> <br> <br> <font color=""green"" size=""8vw""> + $0.06 </font> </p>","null","feedback","","","","","","","1.5"
"","","","","","html-keyboard-response","120","203122","0.0-7.28-0.28","611cbdc447871199a422d10f","6573617f270241e5da3d355d","6576c01d146b125e4f8d92cc","211","
            
        <div style=""text-align: center; position: fixed; top: 5vh; left: 40vw;"">
            <div style=""margin:0 auto; width: 20vw; top: 8vh; font-size: 2vw""> 
            <font color=""green""> Bonus : $1.5 </font>
            </div>
        </div>
    
            <div> Please press any key to continue to the next movie.</div>
        "," ","ITI","","","","","","",""
"","","","","","html-keyboard-response","121","204074","0.0-7.28-1.28","611cbdc447871199a422d10f","6573617f270241e5da3d355d","6576c01d146b125e4f8d92cc","951","./stimuli//pack_morph_shapes_1/cat_2/diff_5/ex_2_5_10.gif","arrowright","response","ArrowRight","10","2","5","test","true",""
"","","","","","html-keyboard-response","122","205578","0.0-7.28-2.28","611cbdc447871199a422d10f","6573617f270241e5da3d355d","6576c01d146b125e4f8d92cc","null","<p> <font color=""green"" size=""5vw""> Correct category! </font> <br> <br> <font color=""green"" size=""8vw""> + $0.06 </font> </p>","null","feedback","","","","","","","1.56"
"","","","","","html-keyboard-response","123","205962","0.0-7.29-0.29","611cbdc447871199a422d10f","6573617f270241e5da3d355d","6576c01d146b125e4f8d92cc","384","
            
        <div style=""text-align: center; position: fixed; top: 5vh; left: 40vw;"">
            <div style=""margin:0 auto; width: 20vw; top: 8vh; font-size: 2vw""> 
            <font color=""green""> Bonus : $1.56 </font>
            </div>
        </div>
    
            <div> Please press any key to continue to the next movie.</div>
        "," ","ITI","","","","","","",""
"","","","","","html-keyboard-response","124","207034","0.0-7.29-1.29","611cbdc447871199a422d10f","6573617f270241e5da3d355d","6576c01d146b125e4f8d92cc","1072","./stimuli//pack_morph_shapes_1/cat_1/diff_5/ex_1_5_17.gif","arrowleft","response","ArrowLeft","17","1","5","test","true",""
"","","","","","html-keyboard-response","125","208540","0.0-7.29-2.29","611cbdc447871199a422d10f","6573617f270241e5da3d355d","6576c01d146b125e4f8d92cc","null","<p> <font color=""green"" size=""5vw""> Correct category! </font> <br> <br> <font color=""green"" size=""8vw""> + $0.06 </font> </p>","null","feedback","","","","","","","1.62"
"","","","","","html-keyboard-response","126","208802","0.0-7.30-0.30","611cbdc447871199a422d10f","6573617f270241e5da3d355d","6576c01d146b125e4f8d92cc","261","
            
        <div style=""text-align: center; position: fixed; top: 5vh; left: 40vw;"">
            <div style=""margin:0 auto; width: 20vw; top: 8vh; font-size: 2vw""> 
            <font color=""green""> Bonus : $1.62 </font>
            </div>
        </div>
    
            <div> Please press any key to continue to the next movie.</div>
        "," ","ITI","","","","","","",""
"","","","","","html-keyboard-response","127","210322","0.0-7.30-1.30","611cbdc447871199a422d10f","6573617f270241e5da3d355d","6576c01d146b125e4f8d92cc","1519","./stimuli//pack_morph_shapes_1/cat_1/diff_5/ex_1_5_14.gif","arrowright","response","ArrowLeft","14","1","5","test","false",""
"","","","","","html-keyboard-response","128","211834","0.0-7.30-2.30","611cbdc447871199a422d10f","6573617f270241e5da3d355d","6576c01d146b125e4f8d92cc","null","<p> <font color=""red"" size=""5vw""> Wrong category! </font> <br> <br> <font color=""red"" size=""8vw""> - $0.05 </font> </p>","null","feedback","","","","","","","1.57"
"","","","","","html-keyboard-response","129","211882","0.0-7.31-0.31","611cbdc447871199a422d10f","6573617f270241e5da3d355d","6576c01d146b125e4f8d92cc","47","
            
        <div style=""text-align: center; position: fixed; top: 5vh; left: 40vw;"">
            <div style=""margin:0 auto; width: 20vw; top: 8vh; font-size: 2vw""> 
            <font color=""green""> Bonus : $1.57 </font>
            </div>
        </div>
    
            <div> Please press any key to continue to the next movie.</div>
        "," ","ITI","","","","","","",""
"","","","","","html-keyboard-response","130","212866","0.0-7.31-1.31","611cbdc447871199a422d10f","6573617f270241e5da3d355d","6576c01d146b125e4f8d92cc","983","./stimuli//pack_morph_shapes_1/cat_2/diff_5/ex_2_5_17.gif","arrowright","response","ArrowRight","17","2","5","test","true",""
"","","","","","html-keyboard-response","131","214384","0.0-7.31-2.31","611cbdc447871199a422d10f","6573617f270241e5da3d355d","6576c01d146b125e4f8d92cc","null","<p> <font color=""green"" size=""5vw""> Correct category! </font> <br> <br> <font color=""green"" size=""8vw""> + $0.06 </font> </p>","null","feedback","","","","","","","1.63"
"","","","","","html-keyboard-response","132","214474","0.0-7.32-0.32","611cbdc447871199a422d10f","6573617f270241e5da3d355d","6576c01d146b125e4f8d92cc","89","
            
        <div style=""text-align: center; position: fixed; top: 5vh; left: 40vw;"">
            <div style=""margin:0 auto; width: 20vw; top: 8vh; font-size: 2vw""> 
            <font color=""green""> Bonus : $1.63 </font>
            </div>
        </div>
    
            <div> Please press any key to continue to the next movie.</div>
        "," ","ITI","","","","","","",""
"","","","","","html-keyboard-response","133","215737","0.0-7.32-1.32","611cbdc447871199a422d10f","6573617f270241e5da3d355d","6576c01d146b125e4f8d92cc","1263","./stimuli//pack_morph_shapes_1/cat_2/diff_5/ex_2_5_1.gif","arrowright","response","ArrowRight","1","2","5","test","true",""
"","","","","","html-keyboard-response","134","217253","0.0-7.32-2.32","611cbdc447871199a422d10f","6573617f270241e5da3d355d","6576c01d146b125e4f8d92cc","null","<p> <font color=""green"" size=""5vw""> Correct category! </font> <br> <br> <font color=""green"" size=""8vw""> + $0.05 </font> </p>","null","feedback","","","","","","","1.68"
"","","","","","html-keyboard-response","135","217530","0.0-7.33-0.33","611cbdc447871199a422d10f","6573617f270241e5da3d355d","6576c01d146b125e4f8d92cc","276","
            
        <div style=""text-align: center; position: fixed; top: 5vh; left: 40vw;"">
            <div style=""margin:0 auto; width: 20vw; top: 8vh; font-size: 2vw""> 
            <font color=""green""> Bonus : $1.68 </font>
            </div>
        </div>
    
            <div> Please press any key to continue to the next movie.</div>
        "," ","ITI","","","","","","",""
"","","","","","html-keyboard-response","136","218657","0.0-7.33-1.33","611cbdc447871199a422d10f","6573617f270241e5da3d355d","6576c01d146b125e4f8d92cc","1127","./stimuli//pack_morph_shapes_1/cat_1/diff_5/ex_1_5_10.gif","arrowleft","response","ArrowLeft","10","1","5","test","true",""
"","","","","","html-keyboard-response","137","220171","0.0-7.33-2.33","611cbdc447871199a422d10f","6573617f270241e5da3d355d","6576c01d146b125e4f8d92cc","null","<p> <font color=""green"" size=""5vw""> Correct category! </font> <br> <br> <font color=""green"" size=""8vw""> + $0.06 </font> </p>","null","feedback","","","","","","","1.74"
"","","","","","html-keyboard-response","138","220178","0.0-7.34-0.34","611cbdc447871199a422d10f","6573617f270241e5da3d355d","6576c01d146b125e4f8d92cc","6","
            
        <div style=""text-align: center; position: fixed; top: 5vh; left: 40vw;"">
            <div style=""margin:0 auto; width: 20vw; top: 8vh; font-size: 2vw""> 
            <font color=""green""> Bonus : $1.74 </font>
            </div>
        </div>
    
            <div> Please press any key to continue to the next movie.</div>
        "," ","ITI","","","","","","",""
"","","","","","html-keyboard-response","139","221033","0.0-7.34-1.34","611cbdc447871199a422d10f","6573617f270241e5da3d355d","6576c01d146b125e4f8d92cc","855","./stimuli//pack_morph_shapes_1/cat_1/diff_5/ex_1_5_6.gif","arrowleft","response","ArrowLeft","6","1","5","test","true",""
"","","","","","html-keyboard-response","140","222543","0.0-7.34-2.34","611cbdc447871199a422d10f","6573617f270241e5da3d355d","6576c01d146b125e4f8d92cc","null","<p> <font color=""green"" size=""5vw""> Correct category! </font> <br> <br> <font color=""green"" size=""8vw""> + $0.07 </font> </p>","null","feedback","","","","","","","1.81"
"","","","","","html-keyboard-response","141","222786","0.0-7.35-0.35","611cbdc447871199a422d10f","6573617f270241e5da3d355d","6576c01d146b125e4f8d92cc","242","
            
        <div style=""text-align: center; position: fixed; top: 5vh; left: 40vw;"">
            <div style=""margin:0 auto; width: 20vw; top: 8vh; font-size: 2vw""> 
            <font color=""green""> Bonus : $1.81 </font>
            </div>
        </div>
    
            <div> Please press any key to continue to the next movie.</div>
        "," ","ITI","","","","","","",""
"","","","","","html-keyboard-response","142","223482","0.0-7.35-1.35","611cbdc447871199a422d10f","6573617f270241e5da3d355d","6576c01d146b125e4f8d92cc","695","./stimuli//pack_morph_shapes_1/cat_2/diff_5/ex_2_5_3.gif","arrowright","response","ArrowRight","3","2","5","test","true",""
"","","","","","html-keyboard-response","143","224986","0.0-7.35-2.35","611cbdc447871199a422d10f","6573617f270241e5da3d355d","6576c01d146b125e4f8d92cc","null","<p> <font color=""green"" size=""5vw""> Correct category! </font> <br> <br> <font color=""green"" size=""8vw""> + $0.07 </font> </p>","null","feedback","","","","","","","1.88"
"","","","","","html-keyboard-response","144","225338","0.0-7.36-0.36","611cbdc447871199a422d10f","6573617f270241e5da3d355d","6576c01d146b125e4f8d92cc","350","
            
        <div style=""text-align: center; position: fixed; top: 5vh; left: 40vw;"">
            <div style=""margin:0 auto; width: 20vw; top: 8vh; font-size: 2vw""> 
            <font color=""green""> Bonus : $1.88 </font>
            </div>
        </div>
    
            <div> Please press any key to continue to the next movie.</div>
        "," ","ITI","","","","","","",""
"","","","","","html-keyboard-response","145","226041","0.0-7.36-1.36","611cbdc447871199a422d10f","6573617f270241e5da3d355d","6576c01d146b125e4f8d92cc","702","./stimuli//pack_morph_shapes_1/cat_2/diff_5/ex_2_5_14.gif","arrowright","response","ArrowRight","14","2","5","test","true",""
"","","","","","html-keyboard-response","146","227551","0.0-7.36-2.36","611cbdc447871199a422d10f","6573617f270241e5da3d355d","6576c01d146b125e4f8d92cc","null","<p> <font color=""green"" size=""5vw""> Correct category! </font> <br> <br> <font color=""green"" size=""8vw""> + $0.07 </font> </p>","null","feedback","","","","","","","1.95"
"","","","","","html-keyboard-response","147","227650","0.0-7.37-0.37","611cbdc447871199a422d10f","6573617f270241e5da3d355d","6576c01d146b125e4f8d92cc","98","
            
        <div style=""text-align: center; position: fixed; top: 5vh; left: 40vw;"">
            <div style=""margin:0 auto; width: 20vw; top: 8vh; font-size: 2vw""> 
            <font color=""green""> Bonus : $1.95 </font>
            </div>
        </div>
    
            <div> Please press any key to continue to the next movie.</div>
        "," ","ITI","","","","","","",""
"","","","","","html-keyboard-response","148","228353","0.0-7.37-1.37","611cbdc447871199a422d10f","6573617f270241e5da3d355d","6576c01d146b125e4f8d92cc","703","./stimuli//pack_morph_shapes_1/cat_1/diff_5/ex_1_5_5.gif","arrowleft","response","ArrowLeft","5","1","5","test","true",""
"","","","","","html-keyboard-response","149","229874","0.0-7.37-2.37","611cbdc447871199a422d10f","6573617f270241e5da3d355d","6576c01d146b125e4f8d92cc","null","<p> <font color=""green"" size=""5vw""> Correct category! </font> <br> <br> <font color=""green"" size=""8vw""> + $0.07 </font> </p>","null","feedback","","","","","","","2.02"
"","","","","","html-keyboard-response","150","230889","0.0-7.38-0.38","611cbdc447871199a422d10f","6573617f270241e5da3d355d","6576c01d146b125e4f8d92cc","1014","
            
        <div style=""text-align: center; position: fixed; top: 5vh; left: 40vw;"">
            <div style=""margin:0 auto; width: 20vw; top: 8vh; font-size: 2vw""> 
            <font color=""green""> Bonus : $2.02 </font>
            </div>
        </div>
    
            <div> Please press any key to continue to the next movie.</div>
        "," ","ITI","","","","","","",""
"","","","","","html-keyboard-response","151","232569","0.0-7.38-1.38","611cbdc447871199a422d10f","6573617f270241e5da3d355d","6576c01d146b125e4f8d92cc","1679","./stimuli//pack_morph_shapes_1/cat_2/diff_5/ex_2_5_11.gif","arrowright","response","ArrowRight","11","2","5","test","true",""
"","","","","","html-keyboard-response","152","234089","0.0-7.38-2.38","611cbdc447871199a422d10f","6573617f270241e5da3d355d","6576c01d146b125e4f8d92cc","null","<p> <font color=""green"" size=""5vw""> Correct category! </font> <br> <br> <font color=""green"" size=""8vw""> + $0.04 </font> </p>","null","feedback","","","","","","","2.06"
"","","","","","html-keyboard-response","153","235057","0.0-7.39-0.39","611cbdc447871199a422d10f","6573617f270241e5da3d355d","6576c01d146b125e4f8d92cc","968","
            
        <div style=""text-align: center; position: fixed; top: 5vh; left: 40vw;"">
            <div style=""margin:0 auto; width: 20vw; top: 8vh; font-size: 2vw""> 
            <font color=""green""> Bonus : $2.06 </font>
            </div>
        </div>
    
            <div> Please press any key to continue to the next movie.</div>
        "," ","ITI","","","","","","",""
"","","","","","html-keyboard-response","154","236001","0.0-7.39-1.39","611cbdc447871199a422d10f","6573617f270241e5da3d355d","6576c01d146b125e4f8d92cc","943","./stimuli//pack_morph_shapes_1/cat_2/diff_5/ex_2_5_17.gif","arrowright","response","ArrowRight","17","2","5","test","true",""
"","","","","","html-keyboard-response","155","237516","0.0-7.39-2.39","611cbdc447871199a422d10f","6573617f270241e5da3d355d","6576c01d146b125e4f8d92cc","null","<p> <font color=""green"" size=""5vw""> Correct category! </font> <br> <br> <font color=""green"" size=""8vw""> + $0.06 </font> </p>","null","feedback","","","","","","","2.12"
"","","","","","html-keyboard-response","156","238385","0.0-7.40-0.40","611cbdc447871199a422d10f","6573617f270241e5da3d355d","6576c01d146b125e4f8d92cc","869","
            
        <div style=""text-align: center; position: fixed; top: 5vh; left: 40vw;"">
            <div style=""margin:0 auto; width: 20vw; top: 8vh; font-size: 2vw""> 
            <font color=""green""> Bonus : $2.12 </font>
            </div>
        </div>
    
            <div> Please press any key to continue to the next movie.</div>
        "," ","ITI","","","","","","",""
"","","","","","html-keyboard-response","157","239401","0.0-7.40-1.40","611cbdc447871199a422d10f","6573617f270241e5da3d355d","6576c01d146b125e4f8d92cc","1014","./stimuli//pack_morph_shapes_1/cat_2/diff_5/ex_2_5_5.gif","arrowright","response","ArrowRight","5","2","5","test","true",""
"","","","","","html-keyboard-response","158","240914","0.0-7.40-2.40","611cbdc447871199a422d10f","6573617f270241e5da3d355d","6576c01d146b125e4f8d92cc","null","<p> <font color=""green"" size=""5vw""> Correct category! </font> <br> <br> <font color=""green"" size=""8vw""> + $0.06 </font> </p>","null","feedback","","","","","","","2.18"
"","","","","","html-keyboard-response","159","241545","0.0-7.41-0.41","611cbdc447871199a422d10f","6573617f270241e5da3d355d","6576c01d146b125e4f8d92cc","629","
            
        <div style=""text-align: center; position: fixed; top: 5vh; left: 40vw;"">
            <div style=""margin:0 auto; width: 20vw; top: 8vh; font-size: 2vw""> 
            <font color=""green""> Bonus : $2.18 </font>
            </div>
        </div>
    
            <div> Please press any key to continue to the next movie.</div>
        "," ","ITI","","","","","","",""
"","","","","","html-keyboard-response","160","242545","0.0-7.41-1.41","611cbdc447871199a422d10f","6573617f270241e5da3d355d","6576c01d146b125e4f8d92cc","999","./stimuli//pack_morph_shapes_1/cat_2/diff_5/ex_2_5_2.gif","arrowright","response","ArrowRight","2","2","5","test","true",""
"","","","","","html-keyboard-response","161","244046","0.0-7.41-2.41","611cbdc447871199a422d10f","6573617f270241e5da3d355d","6576c01d146b125e4f8d92cc","null","<p> <font color=""green"" size=""5vw""> Correct category! </font> <br> <br> <font color=""green"" size=""8vw""> + $0.06 </font> </p>","null","feedback","","","","","","","2.24"
"","","","","","html-keyboard-response","162","244529","0.0-7.42-0.42","611cbdc447871199a422d10f","6573617f270241e5da3d355d","6576c01d146b125e4f8d92cc","482","
            
        <div style=""text-align: center; position: fixed; top: 5vh; left: 40vw;"">
            <div style=""margin:0 auto; width: 20vw; top: 8vh; font-size: 2vw""> 
            <font color=""green""> Bonus : $2.24 </font>
            </div>
        </div>
    
            <div> Please press any key to continue to the next movie.</div>
        "," ","ITI","","","","","","",""
"","","","","","html-keyboard-response","163","245257","0.0-7.42-1.42","611cbdc447871199a422d10f","6573617f270241e5da3d355d","6576c01d146b125e4f8d92cc","727","./stimuli//pack_morph_shapes_1/cat_2/diff_5/ex_2_5_11.gif","arrowright","response","ArrowRight","11","2","5","test","true",""
"","","","","","html-keyboard-response","164","246772","0.0-7.42-2.42","611cbdc447871199a422d10f","6573617f270241e5da3d355d","6576c01d146b125e4f8d92cc","null","<p> <font color=""green"" size=""5vw""> Correct category! </font> <br> <br> <font color=""green"" size=""8vw""> + $0.07 </font> </p>","null","feedback","","","","","","","2.31"
"","","","","","html-keyboard-response","165","247369","0.0-7.43-0.43","611cbdc447871199a422d10f","6573617f270241e5da3d355d","6576c01d146b125e4f8d92cc","596","
            
        <div style=""text-align: center; position: fixed; top: 5vh; left: 40vw;"">
            <div style=""margin:0 auto; width: 20vw; top: 8vh; font-size: 2vw""> 
            <font color=""green""> Bonus : $2.31 </font>
            </div>
        </div>
    
            <div> Please press any key to continue to the next movie.</div>
        "," ","ITI","","","","","","",""
"","","","","","html-keyboard-response","166","248322","0.0-7.43-1.43","611cbdc447871199a422d10f","6573617f270241e5da3d355d","6576c01d146b125e4f8d92cc","953","./stimuli//pack_morph_shapes_1/cat_1/diff_5/ex_1_5_3.gif","arrowleft","response","ArrowLeft","3","1","5","test","true",""
"","","","","","html-keyboard-response","167","249836","0.0-7.43-2.43","611cbdc447871199a422d10f","6573617f270241e5da3d355d","6576c01d146b125e4f8d92cc","null","<p> <font color=""green"" size=""5vw""> Correct category! </font> <br> <br> <font color=""green"" size=""8vw""> + $0.06 </font> </p>","null","feedback","","","","","","","2.37"
"","","","","","html-keyboard-response","168","250842","0.0-7.44-0.44","611cbdc447871199a422d10f","6573617f270241e5da3d355d","6576c01d146b125e4f8d92cc","1005","
            
        <div style=""text-align: center; position: fixed; top: 5vh; left: 40vw;"">
            <div style=""margin:0 auto; width: 20vw; top: 8vh; font-size: 2vw""> 
            <font color=""green""> Bonus : $2.37 </font>
            </div>
        </div>
    
            <div> Please press any key to continue to the next movie.</div>
        "," ","ITI","","","","","","",""
"","","","","","html-keyboard-response","169","251752","0.0-7.44-1.44","611cbdc447871199a422d10f","6573617f270241e5da3d355d","6576c01d146b125e4f8d92cc","909","./stimuli//pack_morph_shapes_1/cat_1/diff_5/ex_1_5_3.gif","arrowleft","response","ArrowLeft","3","1","5","test","true",""
"","","","","","html-keyboard-response","170","253258","0.0-7.44-2.44","611cbdc447871199a422d10f","6573617f270241e5da3d355d","6576c01d146b125e4f8d92cc","null","<p> <font color=""green"" size=""5vw""> Correct category! </font> <br> <br> <font color=""green"" size=""8vw""> + $0.06 </font> </p>","null","feedback","","","","","","","2.43"
"","","","","","html-keyboard-response","171","253928","0.0-7.45-0.45","611cbdc447871199a422d10f","6573617f270241e5da3d355d","6576c01d146b125e4f8d92cc","670","
            
        <div style=""text-align: center; position: fixed; top: 5vh; left: 40vw;"">
            <div style=""margin:0 auto; width: 20vw; top: 8vh; font-size: 2vw""> 
            <font color=""green""> Bonus : $2.43 </font>
            </div>
        </div>
    
            <div> Please press any key to continue to the next movie.</div>
        "," ","ITI","","","","","","",""
"","","","","","html-keyboard-response","172","255369","0.0-7.45-1.45","611cbdc447871199a422d10f","6573617f270241e5da3d355d","6576c01d146b125e4f8d92cc","1440","./stimuli//pack_morph_shapes_1/cat_1/diff_5/ex_1_5_16.gif","arrowleft","response","ArrowLeft","16","1","5","test","true",""
"","","","","","html-keyboard-response","173","256886","0.0-7.45-2.45","611cbdc447871199a422d10f","6573617f270241e5da3d355d","6576c01d146b125e4f8d92cc","null","<p> <font color=""green"" size=""5vw""> Correct category! </font> <br> <br> <font color=""green"" size=""8vw""> + $0.05 </font> </p>","null","feedback","","","","","","","2.48"
"","","","","","html-keyboard-response","174","257216","0.0-7.46-0.46","611cbdc447871199a422d10f","6573617f270241e5da3d355d","6576c01d146b125e4f8d92cc","330","
            
        <div style=""text-align: center; position: fixed; top: 5vh; left: 40vw;"">
            <div style=""margin:0 auto; width: 20vw; top: 8vh; font-size: 2vw""> 
            <font color=""green""> Bonus : $2.48 </font>
            </div>
        </div>
    
            <div> Please press any key to continue to the next movie.</div>
        "," ","ITI","","","","","","",""
"","","","","","html-keyboard-response","175","257920","0.0-7.46-1.46","611cbdc447871199a422d10f","6573617f270241e5da3d355d","6576c01d146b125e4f8d92cc","703","./stimuli//pack_morph_shapes_1/cat_2/diff_5/ex_2_5_3.gif","arrowright","response","ArrowRight","3","2","5","test","true",""
"","","","","","html-keyboard-response","176","259430","0.0-7.46-2.46","611cbdc447871199a422d10f","6573617f270241e5da3d355d","6576c01d146b125e4f8d92cc","null","<p> <font color=""green"" size=""5vw""> Correct category! </font> <br> <br> <font color=""green"" size=""8vw""> + $0.07 </font> </p>","null","feedback","","","","","","","2.55"
"","","","","","html-keyboard-response","177","259856","0.0-7.47-0.47","611cbdc447871199a422d10f","6573617f270241e5da3d355d","6576c01d146b125e4f8d92cc","425","
            
        <div style=""text-align: center; position: fixed; top: 5vh; left: 40vw;"">
            <div style=""margin:0 auto; width: 20vw; top: 8vh; font-size: 2vw""> 
            <font color=""green""> Bonus : $2.55 </font>
            </div>
        </div>
    
            <div> Please press any key to continue to the next movie.</div>
        "," ","ITI","","","","","","",""
"","","","","","html-keyboard-response","178","260832","0.0-7.47-1.47","611cbdc447871199a422d10f","6573617f270241e5da3d355d","6576c01d146b125e4f8d92cc","975","./stimuli//pack_morph_shapes_1/cat_1/diff_5/ex_1_5_8.gif","arrowleft","response","ArrowLeft","8","1","5","test","true",""
"","","","","","html-keyboard-response","179","262334","0.0-7.47-2.47","611cbdc447871199a422d10f","6573617f270241e5da3d355d","6576c01d146b125e4f8d92cc","null","<p> <font color=""green"" size=""5vw""> Correct category! </font> <br> <br> <font color=""green"" size=""8vw""> + $0.06 </font> </p>","null","feedback","","","","","","","2.61"
"","","","","","html-keyboard-response","180","263896","0.0-7.48-0.48","611cbdc447871199a422d10f","6573617f270241e5da3d355d","6576c01d146b125e4f8d92cc","1561","
            
        <div style=""text-align: center; position: fixed; top: 5vh; left: 40vw;"">
            <div style=""margin:0 auto; width: 20vw; top: 8vh; font-size: 2vw""> 
            <font color=""green""> Bonus : $2.61 </font>
            </div>
        </div>
    
            <div> Please press any key to continue to the next movie.</div>
        ","arrowleft","ITI","","","","","","",""
"","","","","","html-keyboard-response","181","264968","0.0-7.48-1.48","611cbdc447871199a422d10f","6573617f270241e5da3d355d","6576c01d146b125e4f8d92cc","1071","./stimuli//pack_morph_shapes_1/cat_1/diff_5/ex_1_5_11.gif","arrowleft","response","ArrowLeft","11","1","5","test","true",""
"","","","","","html-keyboard-response","182","266479","0.0-7.48-2.48","611cbdc447871199a422d10f","6573617f270241e5da3d355d","6576c01d146b125e4f8d92cc","null","<p> <font color=""green"" size=""5vw""> Correct category! </font> <br> <br> <font color=""green"" size=""8vw""> + $0.06 </font> </p>","null","feedback","","","","","","","2.67"
"","","","","","html-keyboard-response","183","267104","0.0-7.49-0.49","611cbdc447871199a422d10f","6573617f270241e5da3d355d","6576c01d146b125e4f8d92cc","624","
            
        <div style=""text-align: center; position: fixed; top: 5vh; left: 40vw;"">
            <div style=""margin:0 auto; width: 20vw; top: 8vh; font-size: 2vw""> 
            <font color=""green""> Bonus : $2.67 </font>
            </div>
        </div>
    
            <div> Please press any key to continue to the next movie.</div>
        ","arrowleft","ITI","","","","","","",""
"","","","","","html-keyboard-response","184","267784","0.0-7.49-1.49","611cbdc447871199a422d10f","6573617f270241e5da3d355d","6576c01d146b125e4f8d92cc","679","./stimuli//pack_morph_shapes_1/cat_2/diff_5/ex_2_5_5.gif","arrowright","response","ArrowRight","5","2","5","test","true",""
"","","","","","html-keyboard-response","185","269296","0.0-7.49-2.49","611cbdc447871199a422d10f","6573617f270241e5da3d355d","6576c01d146b125e4f8d92cc","null","<p> <font color=""green"" size=""5vw""> Correct category! </font> <br> <br> <font color=""green"" size=""8vw""> + $0.07 </font> </p>","null","feedback","","","","","","","2.74"
"","","","","","html-keyboard-response","186","269943","0.0-7.50-0.50","611cbdc447871199a422d10f","6573617f270241e5da3d355d","6576c01d146b125e4f8d92cc","646","
            
        <div style=""text-align: center; position: fixed; top: 5vh; left: 40vw;"">
            <div style=""margin:0 auto; width: 20vw; top: 8vh; font-size: 2vw""> 
            <font color=""green""> Bonus : $2.74 </font>
            </div>
        </div>
    
            <div> Please press any key to continue to the next movie.</div>
        ","arrowleft","ITI","","","","","","",""
"","","","","","html-keyboard-response","187","270672","0.0-7.50-1.50","611cbdc447871199a422d10f","6573617f270241e5da3d355d","6576c01d146b125e4f8d92cc","728","./stimuli//pack_morph_shapes_1/cat_2/diff_5/ex_2_5_10.gif","arrowright","response","ArrowRight","10","2","5","test","true",""
"","","","","","html-keyboard-response","188","272175","0.0-7.50-2.50","611cbdc447871199a422d10f","6573617f270241e5da3d355d","6576c01d146b125e4f8d92cc","null","<p> <font color=""green"" size=""5vw""> Correct category! </font> <br> <br> <font color=""green"" size=""8vw""> + $0.07 </font> </p>","null","feedback","","","","","","","2.81"
"","","","","","html-keyboard-response","189","272712","0.0-7.51-0.51","611cbdc447871199a422d10f","6573617f270241e5da3d355d","6576c01d146b125e4f8d92cc","536","
            
        <div style=""text-align: center; position: fixed; top: 5vh; left: 40vw;"">
            <div style=""margin:0 auto; width: 20vw; top: 8vh; font-size: 2vw""> 
            <font color=""green""> Bonus : $2.81 </font>
            </div>
        </div>
    
            <div> Please press any key to continue to the next movie.</div>
        ","arrowleft","ITI","","","","","","",""
"","","","","","html-keyboard-response","190","273432","0.0-7.51-1.51","611cbdc447871199a422d10f","6573617f270241e5da3d355d","6576c01d146b125e4f8d92cc","719","./stimuli//pack_morph_shapes_1/cat_2/diff_5/ex_2_5_10.gif","arrowright","response","ArrowRight","10","2","5","test","true",""
"","","","","","html-keyboard-response","191","274934","0.0-7.51-2.51","611cbdc447871199a422d10f","6573617f270241e5da3d355d","6576c01d146b125e4f8d92cc","null","<p> <font color=""green"" size=""5vw""> Correct category! </font> <br> <br> <font color=""green"" size=""8vw""> + $0.07 </font> </p>","null","feedback","","","","","","","2.88"
"","","","","","html-keyboard-response","192","275448","0.0-7.52-0.52","611cbdc447871199a422d10f","6573617f270241e5da3d355d","6576c01d146b125e4f8d92cc","513","
            
        <div style=""text-align: center; position: fixed; top: 5vh; left: 40vw;"">
            <div style=""margin:0 auto; width: 20vw; top: 8vh; font-size: 2vw""> 
            <font color=""green""> Bonus : $2.88 </font>
            </div>
        </div>
    
            <div> Please press any key to continue to the next movie.</div>
        ","arrowleft","ITI","","","","","","",""
"","","","","","html-keyboard-response","193","276480","0.0-7.52-1.52","611cbdc447871199a422d10f","6573617f270241e5da3d355d","6576c01d146b125e4f8d92cc","1031","./stimuli//pack_morph_shapes_1/cat_2/diff_5/ex_2_5_12.gif","arrowleft","response","ArrowRight","12","2","5","test","false",""
"","","","","","html-keyboard-response","194","277986","0.0-7.52-2.52","611cbdc447871199a422d10f","6573617f270241e5da3d355d","6576c01d146b125e4f8d92cc","null","<p> <font color=""red"" size=""5vw""> Wrong category! </font> <br> <br> <font color=""red"" size=""8vw""> - $0.05 </font> </p>","null","feedback","","","","","","","2.83"
"","","","","","html-keyboard-response","195","278479","0.0-7.53-0.53","611cbdc447871199a422d10f","6573617f270241e5da3d355d","6576c01d146b125e4f8d92cc","493","
            
        <div style=""text-align: center; position: fixed; top: 5vh; left: 40vw;"">
            <div style=""margin:0 auto; width: 20vw; top: 8vh; font-size: 2vw""> 
            <font color=""green""> Bonus : $2.83 </font>
            </div>
        </div>
    
            <div> Please press any key to continue to the next movie.</div>
        ","arrowleft","ITI","","","","","","",""
"","","","","","html-keyboard-response","196","279432","0.0-7.53-1.53","611cbdc447871199a422d10f","6573617f270241e5da3d355d","6576c01d146b125e4f8d92cc","952","./stimuli//pack_morph_shapes_1/cat_1/diff_5/ex_1_5_9.gif","arrowleft","response","ArrowLeft","9","1","5","test","true",""
"","","","","","html-keyboard-response","197","280933","0.0-7.53-2.53","611cbdc447871199a422d10f","6573617f270241e5da3d355d","6576c01d146b125e4f8d92cc","null","<p> <font color=""green"" size=""5vw""> Correct category! </font> <br> <br> <font color=""green"" size=""8vw""> + $0.06 </font> </p>","null","feedback","","","","","","","2.89"
"","","","","","html-keyboard-response","198","281408","0.0-7.54-0.54","611cbdc447871199a422d10f","6573617f270241e5da3d355d","6576c01d146b125e4f8d92cc","475","
            
        <div style=""text-align: center; position: fixed; top: 5vh; left: 40vw;"">
            <div style=""margin:0 auto; width: 20vw; top: 8vh; font-size: 2vw""> 
            <font color=""green""> Bonus : $2.89 </font>
            </div>
        </div>
    
            <div> Please press any key to continue to the next movie.</div>
        ","arrowleft","ITI","","","","","","",""
"","","","","","html-keyboard-response","199","282360","0.0-7.54-1.54","611cbdc447871199a422d10f","6573617f270241e5da3d355d","6576c01d146b125e4f8d92cc","951","./stimuli//pack_morph_shapes_1/cat_1/diff_5/ex_1_5_11.gif","arrowright","response","ArrowLeft","11","1","5","test","false",""
"","","","","","html-keyboard-response","200","283870","0.0-7.54-2.54","611cbdc447871199a422d10f","6573617f270241e5da3d355d","6576c01d146b125e4f8d92cc","null","<p> <font color=""red"" size=""5vw""> Wrong category! </font> <br> <br> <font color=""red"" size=""8vw""> - $0.05 </font> </p>","null","feedback","","","","","","","2.84"
"","","","","","html-keyboard-response","201","284431","0.0-7.55-0.55","611cbdc447871199a422d10f","6573617f270241e5da3d355d","6576c01d146b125e4f8d92cc","560","
            
        <div style=""text-align: center; position: fixed; top: 5vh; left: 40vw;"">
            <div style=""margin:0 auto; width: 20vw; top: 8vh; font-size: 2vw""> 
            <font color=""green""> Bonus : $2.84 </font>
            </div>
        </div>
    
            <div> Please press any key to continue to the next movie.</div>
        ","arrowleft","ITI","","","","","","",""
"","","","","","html-keyboard-response","202","285727","0.0-7.55-1.55","611cbdc447871199a422d10f","6573617f270241e5da3d355d","6576c01d146b125e4f8d92cc","1295","./stimuli//pack_morph_shapes_1/cat_2/diff_4/ex_2_4_2.gif","arrowright","response","ArrowRight","2","2","4","test","true",""
"","","","","","html-keyboard-response","203","287241","0.0-7.55-2.55","611cbdc447871199a422d10f","6573617f270241e5da3d355d","6576c01d146b125e4f8d92cc","null","<p> <font color=""green"" size=""5vw""> Correct category! </font> <br> <br> <font color=""green"" size=""8vw""> + $0.05 </font> </p>","null","feedback","","","","","","","2.89"
"","","","","","html-keyboard-response","204","288287","0.0-7.56-0.56","611cbdc447871199a422d10f","6573617f270241e5da3d355d","6576c01d146b125e4f8d92cc","1046","
            
        <div style=""text-align: center; position: fixed; top: 5vh; left: 40vw;"">
            <div style=""margin:0 auto; width: 20vw; top: 8vh; font-size: 2vw""> 
            <font color=""green""> Bonus : $2.89 </font>
            </div>
        </div>
    
            <div> Please press any key to continue to the next movie.</div>
        ","arrowleft","ITI","","","","","","",""
"","","","","","html-keyboard-response","205","289743","0.0-7.56-1.56","611cbdc447871199a422d10f","6573617f270241e5da3d355d","6576c01d146b125e4f8d92cc","1455","./stimuli//pack_morph_shapes_1/cat_1/diff_4/ex_1_4_3.gif","arrowleft","response","ArrowLeft","3","1","4","test","true",""
"","","","","","html-keyboard-response","206","291253","0.0-7.56-2.56","611cbdc447871199a422d10f","6573617f270241e5da3d355d","6576c01d146b125e4f8d92cc","null","<p> <font color=""green"" size=""5vw""> Correct category! </font> <br> <br> <font color=""green"" size=""8vw""> + $0.05 </font> </p>","null","feedback","","","","","","","2.94"
"","","","","","html-keyboard-response","207","292256","0.0-7.57-0.57","611cbdc447871199a422d10f","6573617f270241e5da3d355d","6576c01d146b125e4f8d92cc","1002","
            
        <div style=""text-align: center; position: fixed; top: 5vh; left: 40vw;"">
            <div style=""margin:0 auto; width: 20vw; top: 8vh; font-size: 2vw""> 
            <font color=""green""> Bonus : $2.94 </font>
            </div>
        </div>
    
            <div> Please press any key to continue to the next movie.</div>
        ","arrowleft","ITI","","","","","","",""
"","","","","","html-keyboard-response","208","293375","0.0-7.57-1.57","611cbdc447871199a422d10f","6573617f270241e5da3d355d","6576c01d146b125e4f8d92cc","1119","./stimuli//pack_morph_shapes_1/cat_1/diff_4/ex_1_4_1.gif","arrowleft","response","ArrowLeft","1","1","4","test","true",""
"","","","","","html-keyboard-response","209","294885","0.0-7.57-2.57","611cbdc447871199a422d10f","6573617f270241e5da3d355d","6576c01d146b125e4f8d92cc","null","<p> <font color=""green"" size=""5vw""> Correct category! </font> <br> <br> <font color=""green"" size=""8vw""> + $0.06 </font> </p>","null","feedback","","","","","","","3"
"","","","","","html-keyboard-response","210","295551","0.0-7.58-0.58","611cbdc447871199a422d10f","6573617f270241e5da3d355d","6576c01d146b125e4f8d92cc","666","
            
        <div style=""text-align: center; position: fixed; top: 5vh; left: 40vw;"">
            <div style=""margin:0 auto; width: 20vw; top: 8vh; font-size: 2vw""> 
            <font color=""green""> Bonus : $3 </font>
            </div>
        </div>
    
            <div> Please press any key to continue to the next movie.</div>
        ","arrowleft","ITI","","","","","","",""
"","","","","","html-keyboard-response","211","297303","0.0-7.58-1.58","611cbdc447871199a422d10f","6573617f270241e5da3d355d","6576c01d146b125e4f8d92cc","1751","./stimuli//pack_morph_shapes_1/cat_1/diff_4/ex_1_4_11.gif","arrowleft","response","ArrowLeft","11","1","4","test","true",""
"","","","","","html-keyboard-response","212","298813","0.0-7.58-2.58","611cbdc447871199a422d10f","6573617f270241e5da3d355d","6576c01d146b125e4f8d92cc","null","<p> <font color=""green"" size=""5vw""> Correct category! </font> <br> <br> <font color=""green"" size=""8vw""> + $0.04 </font> </p>","null","feedback","","","","","","","3.04"
"","","","","","html-keyboard-response","213","299295","0.0-7.59-0.59","611cbdc447871199a422d10f","6573617f270241e5da3d355d","6576c01d146b125e4f8d92cc","482","
            
        <div style=""text-align: center; position: fixed; top: 5vh; left: 40vw;"">
            <div style=""margin:0 auto; width: 20vw; top: 8vh; font-size: 2vw""> 
            <font color=""green""> Bonus : $3.04 </font>
            </div>
        </div>
    
            <div> Please press any key to continue to the next movie.</div>
        ","arrowleft","ITI","","","","","","",""
"","","","","","html-keyboard-response","214","300135","0.0-7.59-1.59","611cbdc447871199a422d10f","6573617f270241e5da3d355d","6576c01d146b125e4f8d92cc","839","./stimuli//pack_morph_shapes_1/cat_2/diff_4/ex_2_4_4.gif","arrowright","response","ArrowRight","4","2","4","test","true",""
"","","","","","html-keyboard-response","215","301643","0.0-7.59-2.59","611cbdc447871199a422d10f","6573617f270241e5da3d355d","6576c01d146b125e4f8d92cc","null","<p> <font color=""green"" size=""5vw""> Correct category! </font> <br> <br> <font color=""green"" size=""8vw""> + $0.07 </font> </p>","null","feedback","","","","","","","3.11"
"","","","","","html-keyboard-response","216","303378","0.0-7.60-0.60","611cbdc447871199a422d10f","6573617f270241e5da3d355d","6576c01d146b125e4f8d92cc","1734","
            
        <div style=""text-align: center; position: fixed; top: 5vh; left: 40vw;"">
            <div style=""margin:0 auto; width: 20vw; top: 8vh; font-size: 2vw""> 
            <font color=""green""> Bonus : $3.11 </font>
            </div>
        </div>
    
            <div> Please press any key to continue to the next movie.</div>
        ","arrowleft","ITI","","","","","","",""
"","","","","","html-keyboard-response","217","304247","0.0-7.60-1.60","611cbdc447871199a422d10f","6573617f270241e5da3d355d","6576c01d146b125e4f8d92cc","868","./stimuli//pack_morph_shapes_1/cat_2/diff_5/ex_2_5_10.gif","arrowright","response","ArrowRight","10","2","5","test","true",""
"","","","","","html-keyboard-response","218","305753","0.0-7.60-2.60","611cbdc447871199a422d10f","6573617f270241e5da3d355d","6576c01d146b125e4f8d92cc","null","<p> <font color=""green"" size=""5vw""> Correct category! </font> <br> <br> <font color=""green"" size=""8vw""> + $0.06 </font> </p>","null","feedback","","","","","","","3.17"
"","","","","","html-keyboard-response","219","306183","0.0-7.61-0.61","611cbdc447871199a422d10f","6573617f270241e5da3d355d","6576c01d146b125e4f8d92cc","429","
            
        <div style=""text-align: center; position: fixed; top: 5vh; left: 40vw;"">
            <div style=""margin:0 auto; width: 20vw; top: 8vh; font-size: 2vw""> 
            <font color=""green""> Bonus : $3.17 </font>
            </div>
        </div>
    
            <div> Please press any key to continue to the next movie.</div>
        ","arrowleft","ITI","","","","","","",""
"","","","","","html-keyboard-response","220","306199","0.0-7.61-1.61","611cbdc447871199a422d10f","6573617f270241e5da3d355d","6576c01d146b125e4f8d92cc","15","./stimuli//pack_morph_shapes_1/cat_1/diff_5/ex_1_5_3.gif","arrowright","response","ArrowLeft","3","1","5","test","false",""
"","","","","","html-keyboard-response","221","307709","0.0-7.61-2.61","611cbdc447871199a422d10f","6573617f270241e5da3d355d","6576c01d146b125e4f8d92cc","null","<p> <font color=""red"" size=""5vw""> Wrong category! </font> <br> <br> <font color=""red"" size=""8vw""> - $0.05 </font> </p>","null","feedback","","","","","","","3.12"
"","","","","","html-keyboard-response","222","307990","0.0-7.62-0.62","611cbdc447871199a422d10f","6573617f270241e5da3d355d","6576c01d146b125e4f8d92cc","281","
            
        <div style=""text-align: center; position: fixed; top: 5vh; left: 40vw;"">
            <div style=""margin:0 auto; width: 20vw; top: 8vh; font-size: 2vw""> 
            <font color=""green""> Bonus : $3.12 </font>
            </div>
        </div>
    
            <div> Please press any key to continue to the next movie.</div>
        ","arrowleft","ITI","","","","","","",""
"","","","","","html-keyboard-response","223","308759","0.0-7.62-1.62","611cbdc447871199a422d10f","6573617f270241e5da3d355d","6576c01d146b125e4f8d92cc","767","./stimuli//pack_morph_shapes_1/cat_2/diff_5/ex_2_5_16.gif","arrowright","response","ArrowRight","16","2","5","test","true",""
"","","","","","html-keyboard-response","224","310269","0.0-7.62-2.62","611cbdc447871199a422d10f","6573617f270241e5da3d355d","6576c01d146b125e4f8d92cc","null","<p> <font color=""green"" size=""5vw""> Correct category! </font> <br> <br> <font color=""green"" size=""8vw""> + $0.07 </font> </p>","null","feedback","","","","","","","3.19"
"","","","","","html-keyboard-response","225","310966","0.0-7.63-0.63","611cbdc447871199a422d10f","6573617f270241e5da3d355d","6576c01d146b125e4f8d92cc","697","
            
        <div style=""text-align: center; position: fixed; top: 5vh; left: 40vw;"">
            <div style=""margin:0 auto; width: 20vw; top: 8vh; font-size: 2vw""> 
            <font color=""green""> Bonus : $3.19 </font>
            </div>
        </div>
    
            <div> Please press any key to continue to the next movie.</div>
        ","arrowleft","ITI","","","","","","",""
"","","","","","html-keyboard-response","226","312775","0.0-7.63-1.63","611cbdc447871199a422d10f","6573617f270241e5da3d355d","6576c01d146b125e4f8d92cc","1807","./stimuli//pack_morph_shapes_1/cat_1/diff_5/ex_1_5_1.gif","arrowleft","response","ArrowLeft","1","1","5","test","true",""
"","","","","","html-keyboard-response","227","314280","0.0-7.63-2.63","611cbdc447871199a422d10f","6573617f270241e5da3d355d","6576c01d146b125e4f8d92cc","null","<p> <font color=""green"" size=""5vw""> Correct category! </font> <br> <br> <font color=""green"" size=""8vw""> + $0.04 </font> </p>","null","feedback","","","","","","","3.23"
"","","","","","html-keyboard-response","228","314695","0.0-7.64-0.64","611cbdc447871199a422d10f","6573617f270241e5da3d355d","6576c01d146b125e4f8d92cc","415","
            
        <div style=""text-align: center; position: fixed; top: 5vh; left: 40vw;"">
            <div style=""margin:0 auto; width: 20vw; top: 8vh; font-size: 2vw""> 
            <font color=""green""> Bonus : $3.23 </font>
            </div>
        </div>
    
            <div> Please press any key to continue to the next movie.</div>
        ","arrowleft","ITI","","","","","","",""
"","","","","","html-keyboard-response","229","315630","0.0-7.64-1.64","611cbdc447871199a422d10f","6573617f270241e5da3d355d","6576c01d146b125e4f8d92cc","935","./stimuli//pack_morph_shapes_1/cat_1/diff_5/ex_1_5_10.gif","arrowleft","response","ArrowLeft","10","1","5","test","true",""
"","","","","","html-keyboard-response","230","317137","0.0-7.64-2.64","611cbdc447871199a422d10f","6573617f270241e5da3d355d","6576c01d146b125e4f8d92cc","null","<p> <font color=""green"" size=""5vw""> Correct category! </font> <br> <br> <font color=""green"" size=""8vw""> + $0.06 </font> </p>","null","feedback","","","","","","","3.29"
"","","","","","html-keyboard-response","231","317486","0.0-7.65-0.65","611cbdc447871199a422d10f","6573617f270241e5da3d355d","6576c01d146b125e4f8d92cc","348","
            
        <div style=""text-align: center; position: fixed; top: 5vh; left: 40vw;"">
            <div style=""margin:0 auto; width: 20vw; top: 8vh; font-size: 2vw""> 
            <font color=""green""> Bonus : $3.29 </font>
            </div>
        </div>
    
            <div> Please press any key to continue to the next movie.</div>
        ","arrowleft","ITI","","","","","","",""
"","","","","","html-keyboard-response","232","318150","0.0-7.65-1.65","611cbdc447871199a422d10f","6573617f270241e5da3d355d","6576c01d146b125e4f8d92cc","664","./stimuli//pack_morph_shapes_1/cat_2/diff_5/ex_2_5_3.gif","arrowright","response","ArrowRight","3","2","5","test","true",""
"","","","","","html-keyboard-response","233","319656","0.0-7.65-2.65","611cbdc447871199a422d10f","6573617f270241e5da3d355d","6576c01d146b125e4f8d92cc","null","<p> <font color=""green"" size=""5vw""> Correct category! </font> <br> <br> <font color=""green"" size=""8vw""> + $0.07 </font> </p>","null","feedback","","","","","","","3.36"
"","","","","","html-keyboard-response","234","320214","0.0-7.66-0.66","611cbdc447871199a422d10f","6573617f270241e5da3d355d","6576c01d146b125e4f8d92cc","558","
            
        <div style=""text-align: center; position: fixed; top: 5vh; left: 40vw;"">
            <div style=""margin:0 auto; width: 20vw; top: 8vh; font-size: 2vw""> 
            <font color=""green""> Bonus : $3.36 </font>
            </div>
        </div>
    
            <div> Please press any key to continue to the next movie.</div>
        ","arrowleft","ITI","","","","","","",""
"","","","","","html-keyboard-response","235","321182","0.0-7.66-1.66","611cbdc447871199a422d10f","6573617f270241e5da3d355d","6576c01d146b125e4f8d92cc","967","./stimuli//pack_morph_shapes_1/cat_2/diff_5/ex_2_5_14.gif","arrowright","response","ArrowRight","14","2","5","test","true",""
"","","","","","html-keyboard-response","236","322693","0.0-7.66-2.66","611cbdc447871199a422d10f","6573617f270241e5da3d355d","6576c01d146b125e4f8d92cc","null","<p> <font color=""green"" size=""5vw""> Correct category! </font> <br> <br> <font color=""green"" size=""8vw""> + $0.06 </font> </p>","null","feedback","","","","","","","3.42"
"","","","","","html-keyboard-response","237","323262","0.0-7.67-0.67","611cbdc447871199a422d10f","6573617f270241e5da3d355d","6576c01d146b125e4f8d92cc","568","
            
        <div style=""text-align: center; position: fixed; top: 5vh; left: 40vw;"">
            <div style=""margin:0 auto; width: 20vw; top: 8vh; font-size: 2vw""> 
            <font color=""green""> Bonus : $3.42 </font>
            </div>
        </div>
    
            <div> Please press any key to continue to the next movie.</div>
        ","arrowleft","ITI","","","","","","",""
"","","","","","html-keyboard-response","238","324038","0.0-7.67-1.67","611cbdc447871199a422d10f","6573617f270241e5da3d355d","6576c01d146b125e4f8d92cc","775","./stimuli//pack_morph_shapes_1/cat_2/diff_5/ex_2_5_3.gif","arrowright","response","ArrowRight","3","2","5","test","true",""
"","","","","","html-keyboard-response","239","325552","0.0-7.67-2.67","611cbdc447871199a422d10f","6573617f270241e5da3d355d","6576c01d146b125e4f8d92cc","null","<p> <font color=""green"" size=""5vw""> Correct category! </font> <br> <br> <font color=""green"" size=""8vw""> + $0.07 </font> </p>","null","feedback","","","","","","","3.49"
"","","","","","html-keyboard-response","240","326494","0.0-7.68-0.68","611cbdc447871199a422d10f","6573617f270241e5da3d355d","6576c01d146b125e4f8d92cc","942","
            
        <div style=""text-align: center; position: fixed; top: 5vh; left: 40vw;"">
            <div style=""margin:0 auto; width: 20vw; top: 8vh; font-size: 2vw""> 
            <font color=""green""> Bonus : $3.49 </font>
            </div>
        </div>
    
            <div> Please press any key to continue to the next movie.</div>
        ","arrowleft","ITI","","","","","","",""
"","","","","","html-keyboard-response","241","327854","0.0-7.68-1.68","611cbdc447871199a422d10f","6573617f270241e5da3d355d","6576c01d146b125e4f8d92cc","1359","./stimuli//pack_morph_shapes_1/cat_1/diff_5/ex_1_5_1.gif","arrowleft","response","ArrowLeft","1","1","5","test","true",""
"","","","","","html-keyboard-response","242","329368","0.0-7.68-2.68","611cbdc447871199a422d10f","6573617f270241e5da3d355d","6576c01d146b125e4f8d92cc","null","<p> <font color=""green"" size=""5vw""> Correct category! </font> <br> <br> <font color=""green"" size=""8vw""> + $0.05 </font> </p>","null","feedback","","","","","","","3.54"
"","","","","","html-keyboard-response","243","337870","0.0-7.69-0.69","611cbdc447871199a422d10f","6573617f270241e5da3d355d","6576c01d146b125e4f8d92cc","8501","
            
        <div style=""text-align: center; position: fixed; top: 5vh; left: 40vw;"">
            <div style=""margin:0 auto; width: 20vw; top: 8vh; font-size: 2vw""> 
            <font color=""green""> Bonus : $3.54 </font>
            </div>
        </div>
    
            <div> Please press any key to continue to the next movie.</div>
        ","arrowleft","ITI","","","","","","",""
"","","","","","html-keyboard-response","244","339294","0.0-7.69-1.69","611cbdc447871199a422d10f","6573617f270241e5da3d355d","6576c01d146b125e4f8d92cc","1423","./stimuli//pack_morph_shapes_1/cat_1/diff_5/ex_1_5_6.gif","arrowleft","response","ArrowLeft","6","1","5","test","true",""
"","","","","","html-keyboard-response","245","340799","0.0-7.69-2.69","611cbdc447871199a422d10f","6573617f270241e5da3d355d","6576c01d146b125e4f8d92cc","null","<p> <font color=""green"" size=""5vw""> Correct category! </font> <br> <br> <font color=""green"" size=""8vw""> + $0.05 </font> </p>","null","feedback","","","","","","","3.59"
"","","","","","html-keyboard-response","246","393269","0.0-7.70-0.70","611cbdc447871199a422d10f","6573617f270241e5da3d355d","6576c01d146b125e4f8d92cc","52469","
            
        <div style=""text-align: center; position: fixed; top: 5vh; left: 40vw;"">
            <div style=""margin:0 auto; width: 20vw; top: 8vh; font-size: 2vw""> 
            <font color=""green""> Bonus : $3.59 </font>
            </div>
        </div>
    
            <div> Please press any key to continue to the next movie.</div>
        ","arrowleft","ITI","","","","","","",""
"","","","","","html-keyboard-response","247","394332","0.0-7.70-1.70","611cbdc447871199a422d10f","6573617f270241e5da3d355d","6576c01d146b125e4f8d92cc","1063","./stimuli//pack_morph_shapes_1/cat_1/diff_5/ex_1_5_2.gif","arrowleft","response","ArrowLeft","2","1","5","test","true",""
"","","","","","html-keyboard-response","248","395842","0.0-7.70-2.70","611cbdc447871199a422d10f","6573617f270241e5da3d355d","6576c01d146b125e4f8d92cc","null","<p> <font color=""green"" size=""5vw""> Correct category! </font> <br> <br> <font color=""green"" size=""8vw""> + $0.06 </font> </p>","null","feedback","","","","","","","3.65"
"","","","","","html-keyboard-response","249","396380","0.0-7.71-0.71","611cbdc447871199a422d10f","6573617f270241e5da3d355d","6576c01d146b125e4f8d92cc","538","
            
        <div style=""text-align: center; position: fixed; top: 5vh; left: 40vw;"">
            <div style=""margin:0 auto; width: 20vw; top: 8vh; font-size: 2vw""> 
            <font color=""green""> Bonus : $3.65 </font>
            </div>
        </div>
    
            <div> Please press any key to continue to the next movie.</div>
        ","arrowleft","ITI","","","","","","",""
"","","","","","html-keyboard-response","250","397140","0.0-7.71-1.71","611cbdc447871199a422d10f","6573617f270241e5da3d355d","6576c01d146b125e4f8d92cc","759","./stimuli//pack_morph_shapes_1/cat_1/diff_5/ex_1_5_12.gif","arrowright","response","ArrowLeft","12","1","5","test","false",""
"","","","","","html-keyboard-response","251","398654","0.0-7.71-2.71","611cbdc447871199a422d10f","6573617f270241e5da3d355d","6576c01d146b125e4f8d92cc","null","<p> <font color=""red"" size=""5vw""> Wrong category! </font> <br> <br> <font color=""red"" size=""8vw""> - $0.05 </font> </p>","null","feedback","","","","","","","3.6"
"","","","","","html-keyboard-response","252","398973","0.0-7.72-0.72","611cbdc447871199a422d10f","6573617f270241e5da3d355d","6576c01d146b125e4f8d92cc","318","
            
        <div style=""text-align: center; position: fixed; top: 5vh; left: 40vw;"">
            <div style=""margin:0 auto; width: 20vw; top: 8vh; font-size: 2vw""> 
            <font color=""green""> Bonus : $3.6 </font>
            </div>
        </div>
    
            <div> Please press any key to continue to the next movie.</div>
        ","arrowleft","ITI","","","","","","",""
"","","","","","html-keyboard-response","253","399613","0.0-7.72-1.72","611cbdc447871199a422d10f","6573617f270241e5da3d355d","6576c01d146b125e4f8d92cc","639","./stimuli//pack_morph_shapes_1/cat_1/diff_5/ex_1_5_12.gif","arrowleft","response","ArrowLeft","12","1","5","test","true",""
"","","","","","html-keyboard-response","254","401118","0.0-7.72-2.72","611cbdc447871199a422d10f","6573617f270241e5da3d355d","6576c01d146b125e4f8d92cc","null","<p> <font color=""green"" size=""5vw""> Correct category! </font> <br> <br> <font color=""green"" size=""8vw""> + $0.07 </font> </p>","null","feedback","","","","","","","3.67"
"","","","","","html-keyboard-response","255","401724","0.0-7.73-0.73","611cbdc447871199a422d10f","6573617f270241e5da3d355d","6576c01d146b125e4f8d92cc","606","
            
        <div style=""text-align: center; position: fixed; top: 5vh; left: 40vw;"">
