"success","timeout","failed_images","failed_audio","failed_video","trial_type","trial_index","time_elapsed","internal_node_id","subject_id","study_id","session_id","rt","stimulus","response","task","correct_response","exemplar_ID","category","difficulty","phase","correct","bonus"
"true","false","[]","[]","[]","preload","0","1","0.0-0.0","611b5e9de677ddee915269ac","6573617f270241e5da3d355d","6576bfd919a70e539046f674","","","","","","","","","","",""
"","","","","","html-keyboard-response","1","14206","0.0-1.0","611b5e9de677ddee915269ac","6573617f270241e5da3d355d","6576bfd919a70e539046f674","14204","Welcome to the Category Learning experiment! Press any key to continue.","j","welcome","","","","","","",""
"","","","","","html-keyboard-response","2","62876","0.0-2.0","611b5e9de677ddee915269ac","6573617f270241e5da3d355d","6576bfd919a70e539046f674","48667","
            <p>You will be shown movies. Each movie contains a sequence of shapes changing form. 
            <br> Some shapes are category A, some are category B. <b> Within a single movie, all shapes belong to the same category. </b>
            <br> You will not know in advance which category the shapes of each movie belong to.</p>
            <p> While you watch a movie, you have to guess the category that its shapes belong to <b>(left arrow for category A, right arrow for category B)</b></p>
            <p> After you choose, the screen will show you whether you were correct or not.</p>
            <p>Press any key to continue.</p>
            ","j","introduction_1","","","","","","",""
"","","","","","html-keyboard-response","3","79884","0.0-3.0","611b5e9de677ddee915269ac","6573617f270241e5da3d355d","6576bfd919a70e539046f674","17008","
              <p><b>You will receive a bonus payment for each correct answer! The faster you answer the higher the bonus will be!</b></p>
              <p> So you can increase your bonus by guessing as quickly and accurately as possible.</p>
              <p><b>You will lose $0.05 from your bonus payment for each incorrect answer! The bonus can not become less that $0.</b> </p>
              <p>Press any key to continue.</p>
              ","j","introduction_2","","","","","","",""
"","","","","","html-keyboard-response","4","89452","0.0-4.0","611b5e9de677ddee915269ac","6573617f270241e5da3d355d","6576bfd919a70e539046f674","9567","
            <p> <b>The first 10 trials are a practice round that will not count towards your bonus payment.</b></p>
            <p> You will be notified when practice finishes and the test begins. </p>
            <p> Press any key to begin the practice round.</p>
            ","k","introduction_3","","","","","","",""
"","","","","","html-keyboard-response","5","92146","0.0-5.0-0.0","611b5e9de677ddee915269ac","6573617f270241e5da3d355d","6576bfd919a70e539046f674","2680","
            
        <div style=""text-align: center; position: fixed; top: 5vh; left: 40vw;"">
            <div style=""margin:0 auto; width: 20vw; top: 8vh; font-size: 2vw""> 
            <font color=""green""> Bonus : $0 </font>
            </div>
        </div>
    
            <div> Please press any key to continue to the next movie.</div>
        ","h","ITI","","","","","","",""
"","","","","","html-keyboard-response","6","96148","0.0-5.0-1.0","611b5e9de677ddee915269ac","6573617f270241e5da3d355d","6576bfd919a70e539046f674","null","./stimuli//pack_morph_shapes_1/cat_2/diff_2/ex_2_2_6.gif","null","response","ArrowRight","6","2","2","train","false",""
"","","","","","html-keyboard-response","7","97660","0.0-5.0-2.0","611b5e9de677ddee915269ac","6573617f270241e5da3d355d","6576bfd919a70e539046f674","null","<p> <font color=""red"" size=""5vw""> Time out! </font> <br> Please try to respond as quickly as possible. </p>","null","feedback","","","","","","","0"
"","","","","","html-keyboard-response","8","99706","0.0-5.0-0.1","611b5e9de677ddee915269ac","6573617f270241e5da3d355d","6576bfd919a70e539046f674","2045","
            
        <div style=""text-align: center; position: fixed; top: 5vh; left: 40vw;"">
            <div style=""margin:0 auto; width: 20vw; top: 8vh; font-size: 2vw""> 
            <font color=""green""> Bonus : $0 </font>
            </div>
        </div>
    
            <div> Please press any key to continue to the next movie.</div>
        ","a","ITI","","","","","","",""
"","","","","","html-keyboard-response","9","103345","0.0-5.0-1.1","611b5e9de677ddee915269ac","6573617f270241e5da3d355d","6576bfd919a70e539046f674","3639","./stimuli//pack_morph_shapes_1/cat_1/diff_2/ex_1_2_2.gif","arrowright","response","ArrowLeft","2","1","2","train","false",""
"","","","","","html-keyboard-response","10","104847","0.0-5.0-2.1","611b5e9de677ddee915269ac","6573617f270241e5da3d355d","6576bfd919a70e539046f674","null","<p> <font color=""red"" size=""5vw""> Wrong category! </font> </p>","null","feedback","","","","","","","0"
"","","","","","html-keyboard-response","11","107365","0.0-5.0-0.2","611b5e9de677ddee915269ac","6573617f270241e5da3d355d","6576bfd919a70e539046f674","2517","
            
        <div style=""text-align: center; position: fixed; top: 5vh; left: 40vw;"">
            <div style=""margin:0 auto; width: 20vw; top: 8vh; font-size: 2vw""> 
            <font color=""green""> Bonus : $0 </font>
            </div>
        </div>
    
            <div> Please press any key to continue to the next movie.</div>
        ","l","ITI","","","","","","",""
"","","","","","html-keyboard-response","12","108298","0.0-5.0-1.2","611b5e9de677ddee915269ac","6573617f270241e5da3d355d","6576bfd919a70e539046f674","933","./stimuli//pack_morph_shapes_1/cat_2/diff_2/ex_2_2_14.gif","arrowleft","response","ArrowRight","14","2","2","train","false",""
"","","","","","html-keyboard-response","13","109814","0.0-5.0-2.2","611b5e9de677ddee915269ac","6573617f270241e5da3d355d","6576bfd919a70e539046f674","null","<p> <font color=""red"" size=""5vw""> Wrong category! </font> </p>","null","feedback","","","","","","","0"
"","","","","","html-keyboard-response","14","110691","0.0-5.0-0.3","611b5e9de677ddee915269ac","6573617f270241e5da3d355d","6576bfd919a70e539046f674","876","
            
        <div style=""text-align: center; position: fixed; top: 5vh; left: 40vw;"">
            <div style=""margin:0 auto; width: 20vw; top: 8vh; font-size: 2vw""> 
            <font color=""green""> Bonus : $0 </font>
            </div>
        </div>
    
            <div> Please press any key to continue to the next movie.</div>
        ","arrowright","ITI","","","","","","",""
"","","","","","html-keyboard-response","15","111881","0.0-5.0-1.3","611b5e9de677ddee915269ac","6573617f270241e5da3d355d","6576bfd919a70e539046f674","1189","./stimuli//pack_morph_shapes_1/cat_1/diff_1/ex_1_1_8.gif","arrowleft","response","ArrowLeft","8","1","1","train","true",""
"","","","","","html-keyboard-response","16","113385","0.0-5.0-2.3","611b5e9de677ddee915269ac","6573617f270241e5da3d355d","6576bfd919a70e539046f674","null","<p> <font color=""green"" size=""5vw""> Correct category! </font> </p>","null","feedback","","","","","","","0"
"","","","","","html-keyboard-response","17","115257","0.0-5.0-0.4","611b5e9de677ddee915269ac","6573617f270241e5da3d355d","6576bfd919a70e539046f674","1871","
            
        <div style=""text-align: center; position: fixed; top: 5vh; left: 40vw;"">
            <div style=""margin:0 auto; width: 20vw; top: 8vh; font-size: 2vw""> 
            <font color=""green""> Bonus : $0 </font>
            </div>
        </div>
    
            <div> Please press any key to continue to the next movie.</div>
        ",".","ITI","","","","","","",""
"","","","","","html-keyboard-response","18","117307","0.0-5.0-1.4","611b5e9de677ddee915269ac","6573617f270241e5da3d355d","6576bfd919a70e539046f674","2049","./stimuli//pack_morph_shapes_1/cat_2/diff_1/ex_2_1_1.gif","arrowleft","response","ArrowRight","1","2","1","train","false",""
"","","","","","html-keyboard-response","19","118810","0.0-5.0-2.4","611b5e9de677ddee915269ac","6573617f270241e5da3d355d","6576bfd919a70e539046f674","null","<p> <font color=""red"" size=""5vw""> Wrong category! </font> </p>","null","feedback","","","","","","","0"
"","","","","","html-keyboard-response","20","119774","0.0-5.0-0.5","611b5e9de677ddee915269ac","6573617f270241e5da3d355d","6576bfd919a70e539046f674","963","
            
        <div style=""text-align: center; position: fixed; top: 5vh; left: 40vw;"">
            <div style=""margin:0 auto; width: 20vw; top: 8vh; font-size: 2vw""> 
            <font color=""green""> Bonus : $0 </font>
            </div>
        </div>
    
            <div> Please press any key to continue to the next movie.</div>
        ","arrowright","ITI","","","","","","",""
"","","","","","html-keyboard-response","21","120757","0.0-5.0-1.5","611b5e9de677ddee915269ac","6573617f270241e5da3d355d","6576bfd919a70e539046f674","982","./stimuli//pack_morph_shapes_1/cat_2/diff_1/ex_2_1_13.gif","arrowright","response","ArrowRight","13","2","1","train","true",""
"","","","","","html-keyboard-response","22","122271","0.0-5.0-2.5","611b5e9de677ddee915269ac","6573617f270241e5da3d355d","6576bfd919a70e539046f674","null","<p> <font color=""green"" size=""5vw""> Correct category! </font> </p>","null","feedback","","","","","","","0"
"","","","","","html-keyboard-response","23","122915","0.0-5.0-0.6","611b5e9de677ddee915269ac","6573617f270241e5da3d355d","6576bfd919a70e539046f674","644","
            
        <div style=""text-align: center; position: fixed; top: 5vh; left: 40vw;"">
            <div style=""margin:0 auto; width: 20vw; top: 8vh; font-size: 2vw""> 
            <font color=""green""> Bonus : $0 </font>
            </div>
        </div>
    
            <div> Please press any key to continue to the next movie.</div>
        ","arrowleft","ITI","","","","","","",""
"","","","","","html-keyboard-response","24","123616","0.0-5.0-1.6","611b5e9de677ddee915269ac","6573617f270241e5da3d355d","6576bfd919a70e539046f674","700","./stimuli//pack_morph_shapes_1/cat_2/diff_1/ex_2_1_16.gif","arrowright","response","ArrowRight","16","2","1","train","true",""
"","","","","","html-keyboard-response","25","125126","0.0-5.0-2.6","611b5e9de677ddee915269ac","6573617f270241e5da3d355d","6576bfd919a70e539046f674","null","<p> <font color=""green"" size=""5vw""> Correct category! </font> </p>","null","feedback","","","","","","","0"
"","","","","","html-keyboard-response","26","125731","0.0-5.0-0.7","611b5e9de677ddee915269ac","6573617f270241e5da3d355d","6576bfd919a70e539046f674","604","
            
        <div style=""text-align: center; position: fixed; top: 5vh; left: 40vw;"">
            <div style=""margin:0 auto; width: 20vw; top: 8vh; font-size: 2vw""> 
            <font color=""green""> Bonus : $0 </font>
            </div>
        </div>
    
            <div> Please press any key to continue to the next movie.</div>
        ","arrowleft","ITI","","","","","","",""
"","","","","","html-keyboard-response","27","126564","0.0-5.0-1.7","611b5e9de677ddee915269ac","6573617f270241e5da3d355d","6576bfd919a70e539046f674","832","./stimuli//pack_morph_shapes_1/cat_1/diff_1/ex_1_1_3.gif","arrowleft","response","ArrowLeft","3","1","1","train","true",""
"","","","","","html-keyboard-response","28","128070","0.0-5.0-2.7","611b5e9de677ddee915269ac","6573617f270241e5da3d355d","6576bfd919a70e539046f674","null","<p> <font color=""green"" size=""5vw""> Correct category! </font> </p>","null","feedback","","","","","","","0"
"","","","","","html-keyboard-response","29","128661","0.0-5.0-0.8","611b5e9de677ddee915269ac","6573617f270241e5da3d355d","6576bfd919a70e539046f674","591","
            
        <div style=""text-align: center; position: fixed; top: 5vh; left: 40vw;"">
            <div style=""margin:0 auto; width: 20vw; top: 8vh; font-size: 2vw""> 
            <font color=""green""> Bonus : $0 </font>
            </div>
        </div>
    
            <div> Please press any key to continue to the next movie.</div>
        ","arrowleft","ITI","","","","","","",""
"","","","","","html-keyboard-response","30","130062","0.0-5.0-1.8","611b5e9de677ddee915269ac","6573617f270241e5da3d355d","6576bfd919a70e539046f674","1401","./stimuli//pack_morph_shapes_1/cat_1/diff_2/ex_1_2_17.gif","arrowright","response","ArrowLeft","17","1","2","train","false",""
"","","","","","html-keyboard-response","31","131569","0.0-5.0-2.8","611b5e9de677ddee915269ac","6573617f270241e5da3d355d","6576bfd919a70e539046f674","null","<p> <font color=""red"" size=""5vw""> Wrong category! </font> </p>","null","feedback","","","","","","","0"
"","","","","","html-keyboard-response","32","131917","0.0-5.0-0.9","611b5e9de677ddee915269ac","6573617f270241e5da3d355d","6576bfd919a70e539046f674","347","
            
        <div style=""text-align: center; position: fixed; top: 5vh; left: 40vw;"">
            <div style=""margin:0 auto; width: 20vw; top: 8vh; font-size: 2vw""> 
            <font color=""green""> Bonus : $0 </font>
            </div>
        </div>
    
            <div> Please press any key to continue to the next movie.</div>
        ","arrowleft","ITI","","","","","","",""
"","","","","","html-keyboard-response","33","133910","0.0-5.0-1.9","611b5e9de677ddee915269ac","6573617f270241e5da3d355d","6576bfd919a70e539046f674","1993","./stimuli//pack_morph_shapes_1/cat_1/diff_1/ex_1_1_14.gif","arrowright","response","ArrowLeft","14","1","1","train","false",""
"","","","","","html-keyboard-response","34","135418","0.0-5.0-2.9","611b5e9de677ddee915269ac","6573617f270241e5da3d355d","6576bfd919a70e539046f674","null","<p> <font color=""red"" size=""5vw""> Wrong category! </font> </p>","null","feedback","","","","","","","0"
"","","","","","html-keyboard-response","35","139743","0.0-6.0","611b5e9de677ddee915269ac","6573617f270241e5da3d355d","6576bfd919a70e539046f674","4325","
            <b> <p> The practice round has finished.</p>
            <b> <p> For the rest of the experiment you will receive a bonus payment for each correct answer, which will be higher the faster you answer!</b></p>
            <b> </p> Also you will lose $0.05 from your bonus payment for each incorrect answer!</p>
            <p> Press any key to begin the test. </p>
            ",";","intermission","","","","","","",""
"","","","","","html-keyboard-response","36","140965","0.0-7.0-0.0","611b5e9de677ddee915269ac","6573617f270241e5da3d355d","6576bfd919a70e539046f674","1221","
            
        <div style=""text-align: center; position: fixed; top: 5vh; left: 40vw;"">
            <div style=""margin:0 auto; width: 20vw; top: 8vh; font-size: 2vw""> 
            <font color=""green""> Bonus : $0 </font>
            </div>
        </div>
    
            <div> Please press any key to continue to the next movie.</div>
        ",".","ITI","","","","","","",""
"","","","","","html-keyboard-response","37","142718","0.0-7.0-1.0","611b5e9de677ddee915269ac","6573617f270241e5da3d355d","6576bfd919a70e539046f674","1751","./stimuli//pack_morph_shapes_1/cat_1/diff_1/ex_1_1_7.gif","arrowleft","response","ArrowLeft","7","1","1","test","true",""
"","","","","","html-keyboard-response","38","144231","0.0-7.0-2.0","611b5e9de677ddee915269ac","6573617f270241e5da3d355d","6576bfd919a70e539046f674","null","<p> <font color=""green"" size=""5vw""> Correct category! </font> <br> <br> <font color=""green"" size=""8vw""> + $0.04 </font> </p>","null","feedback","","","","","","","0.04"
"","","","","","html-keyboard-response","39","145193","0.0-7.1-0.1","611b5e9de677ddee915269ac","6573617f270241e5da3d355d","6576bfd919a70e539046f674","962","
            
        <div style=""text-align: center; position: fixed; top: 5vh; left: 40vw;"">
            <div style=""margin:0 auto; width: 20vw; top: 8vh; font-size: 2vw""> 
            <font color=""green""> Bonus : $0.04 </font>
            </div>
        </div>
    
            <div> Please press any key to continue to the next movie.</div>
        ","arrowleft","ITI","","","","","","",""
"","","","","","html-keyboard-response","40","146097","0.0-7.1-1.1","611b5e9de677ddee915269ac","6573617f270241e5da3d355d","6576bfd919a70e539046f674","903","./stimuli//pack_morph_shapes_1/cat_2/diff_1/ex_2_1_2.gif","arrowright","response","ArrowRight","2","2","1","test","true",""
"","","","","","html-keyboard-response","41","147607","0.0-7.1-2.1","611b5e9de677ddee915269ac","6573617f270241e5da3d355d","6576bfd919a70e539046f674","null","<p> <font color=""green"" size=""5vw""> Correct category! </font> <br> <br> <font color=""green"" size=""8vw""> + $0.06 </font> </p>","null","feedback","","","","","","","0.1"
"","","","","","html-keyboard-response","42","148487","0.0-7.2-0.2","611b5e9de677ddee915269ac","6573617f270241e5da3d355d","6576bfd919a70e539046f674","880","
            
        <div style=""text-align: center; position: fixed; top: 5vh; left: 40vw;"">
            <div style=""margin:0 auto; width: 20vw; top: 8vh; font-size: 2vw""> 
            <font color=""green""> Bonus : $0.1 </font>
            </div>
        </div>
    
            <div> Please press any key to continue to the next movie.</div>
        ","arrowleft","ITI","","","","","","",""
"","","","","","html-keyboard-response","43","149893","0.0-7.2-1.2","611b5e9de677ddee915269ac","6573617f270241e5da3d355d","6576bfd919a70e539046f674","1406","./stimuli//pack_morph_shapes_1/cat_2/diff_1/ex_2_1_9.gif","arrowright","response","ArrowRight","9","2","1","test","true",""
"","","","","","html-keyboard-response","44","151400","0.0-7.2-2.2","611b5e9de677ddee915269ac","6573617f270241e5da3d355d","6576bfd919a70e539046f674","null","<p> <font color=""green"" size=""5vw""> Correct category! </font> <br> <br> <font color=""green"" size=""8vw""> + $0.05 </font> </p>","null","feedback","","","","","","","0.15"
"","","","","","html-keyboard-response","45","152339","0.0-7.3-0.3","611b5e9de677ddee915269ac","6573617f270241e5da3d355d","6576bfd919a70e539046f674","938","
            
        <div style=""text-align: center; position: fixed; top: 5vh; left: 40vw;"">
            <div style=""margin:0 auto; width: 20vw; top: 8vh; font-size: 2vw""> 
            <font color=""green""> Bonus : $0.15 </font>
            </div>
        </div>
    
            <div> Please press any key to continue to the next movie.</div>
        ","arrowleft","ITI","","","","","","",""
"","","","","","html-keyboard-response","46","154852","0.0-7.3-1.3","611b5e9de677ddee915269ac","6573617f270241e5da3d355d","6576bfd919a70e539046f674","2512","./stimuli//pack_morph_shapes_1/cat_1/diff_1/ex_1_1_12.gif","arrowleft","response","ArrowLeft","12","1","1","test","true",""
"","","","","","html-keyboard-response","47","156362","0.0-7.3-2.3","611b5e9de677ddee915269ac","6573617f270241e5da3d355d","6576bfd919a70e539046f674","null","<p> <font color=""green"" size=""5vw""> Correct category! </font> <br> <br> <font color=""green"" size=""8vw""> + $0.03 </font> </p>","null","feedback","","","","","","","0.18"
"","","","","","html-keyboard-response","48","157512","0.0-7.4-0.4","611b5e9de677ddee915269ac","6573617f270241e5da3d355d","6576bfd919a70e539046f674","1150","
            
        <div style=""text-align: center; position: fixed; top: 5vh; left: 40vw;"">
            <div style=""margin:0 auto; width: 20vw; top: 8vh; font-size: 2vw""> 
            <font color=""green""> Bonus : $0.18 </font>
            </div>
        </div>
    
            <div> Please press any key to continue to the next movie.</div>
        ","arrowleft","ITI","","","","","","",""
"","","","","","html-keyboard-response","49","158306","0.0-7.4-1.4","611b5e9de677ddee915269ac","6573617f270241e5da3d355d","6576bfd919a70e539046f674","793","./stimuli//pack_morph_shapes_1/cat_2/diff_1/ex_2_1_2.gif","arrowright","response","ArrowRight","2","2","1","test","true",""
"","","","","","html-keyboard-response","50","159822","0.0-7.4-2.4","611b5e9de677ddee915269ac","6573617f270241e5da3d355d","6576bfd919a70e539046f674","null","<p> <font color=""green"" size=""5vw""> Correct category! </font> <br> <br> <font color=""green"" size=""8vw""> + $0.07 </font> </p>","null","feedback","","","","","","","0.25"
"","","","","","html-keyboard-response","51","160485","0.0-7.5-0.5","611b5e9de677ddee915269ac","6573617f270241e5da3d355d","6576bfd919a70e539046f674","663","
            
        <div style=""text-align: center; position: fixed; top: 5vh; left: 40vw;"">
            <div style=""margin:0 auto; width: 20vw; top: 8vh; font-size: 2vw""> 
            <font color=""green""> Bonus : $0.25 </font>
            </div>
        </div>
    
            <div> Please press any key to continue to the next movie.</div>
        ","arrowleft","ITI","","","","","","",""
"","","","","","html-keyboard-response","52","162058","0.0-7.5-1.5","611b5e9de677ddee915269ac","6573617f270241e5da3d355d","6576bfd919a70e539046f674","1572","./stimuli//pack_morph_shapes_1/cat_1/diff_2/ex_1_2_4.gif","arrowleft","response","ArrowLeft","4","1","2","test","true",""
"","","","","","html-keyboard-response","53","163570","0.0-7.5-2.5","611b5e9de677ddee915269ac","6573617f270241e5da3d355d","6576bfd919a70e539046f674","null","<p> <font color=""green"" size=""5vw""> Correct category! </font> <br> <br> <font color=""green"" size=""8vw""> + $0.05 </font> </p>","null","feedback","","","","","","","0.3"
"","","","","","html-keyboard-response","54","164205","0.0-7.6-0.6","611b5e9de677ddee915269ac","6573617f270241e5da3d355d","6576bfd919a70e539046f674","634","
            
        <div style=""text-align: center; position: fixed; top: 5vh; left: 40vw;"">
            <div style=""margin:0 auto; width: 20vw; top: 8vh; font-size: 2vw""> 
            <font color=""green""> Bonus : $0.3 </font>
            </div>
        </div>
    
            <div> Please press any key to continue to the next movie.</div>
        ","arrowleft","ITI","","","","","","",""
"","","","","","html-keyboard-response","55","165441","0.0-7.6-1.6","611b5e9de677ddee915269ac","6573617f270241e5da3d355d","6576bfd919a70e539046f674","1235","./stimuli//pack_morph_shapes_1/cat_2/diff_2/ex_2_2_3.gif","arrowleft","response","ArrowRight","3","2","2","test","false",""
"","","","","","html-keyboard-response","56","166946","0.0-7.6-2.6","611b5e9de677ddee915269ac","6573617f270241e5da3d355d","6576bfd919a70e539046f674","null","<p> <font color=""red"" size=""5vw""> Wrong category! </font> <br> <br> <font color=""red"" size=""8vw""> - $0.05 </font> </p>","null","feedback","","","","","","","0.25"
"","","","","","html-keyboard-response","57","167515","0.0-7.7-0.7","611b5e9de677ddee915269ac","6573617f270241e5da3d355d","6576bfd919a70e539046f674","569","
            
        <div style=""text-align: center; position: fixed; top: 5vh; left: 40vw;"">
            <div style=""margin:0 auto; width: 20vw; top: 8vh; font-size: 2vw""> 
            <font color=""green""> Bonus : $0.25 </font>
            </div>
        </div>
    
            <div> Please press any key to continue to the next movie.</div>
        ","arrowleft","ITI","","","","","","",""
"","","","","","html-keyboard-response","58","168320","0.0-7.7-1.7","611b5e9de677ddee915269ac","6573617f270241e5da3d355d","6576bfd919a70e539046f674","804","./stimuli//pack_morph_shapes_1/cat_2/diff_2/ex_2_2_2.gif","arrowright","response","ArrowRight","2","2","2","test","true",""
"","","","","","html-keyboard-response","59","169835","0.0-7.7-2.7","611b5e9de677ddee915269ac","6573617f270241e5da3d355d","6576bfd919a70e539046f674","null","<p> <font color=""green"" size=""5vw""> Correct category! </font> <br> <br> <font color=""green"" size=""8vw""> + $0.07 </font> </p>","null","feedback","","","","","","","0.32"
"","","","","","html-keyboard-response","60","170138","0.0-7.8-0.8","611b5e9de677ddee915269ac","6573617f270241e5da3d355d","6576bfd919a70e539046f674","303","
            
        <div style=""text-align: center; position: fixed; top: 5vh; left: 40vw;"">
            <div style=""margin:0 auto; width: 20vw; top: 8vh; font-size: 2vw""> 
            <font color=""green""> Bonus : $0.32 </font>
            </div>
        </div>
    
            <div> Please press any key to continue to the next movie.</div>
        ","arrowleft","ITI","","","","","","",""
"","","","","","html-keyboard-response","61","170974","0.0-7.8-1.8","611b5e9de677ddee915269ac","6573617f270241e5da3d355d","6576bfd919a70e539046f674","835","./stimuli//pack_morph_shapes_1/cat_1/diff_2/ex_1_2_10.gif","arrowleft","response","ArrowLeft","10","1","2","test","true",""
"","","","","","html-keyboard-response","62","172484","0.0-7.8-2.8","611b5e9de677ddee915269ac","6573617f270241e5da3d355d","6576bfd919a70e539046f674","null","<p> <font color=""green"" size=""5vw""> Correct category! </font> <br> <br> <font color=""green"" size=""8vw""> + $0.07 </font> </p>","null","feedback","","","","","","","0.39"
"","","","","","html-keyboard-response","63","172789","0.0-7.9-0.9","611b5e9de677ddee915269ac","6573617f270241e5da3d355d","6576bfd919a70e539046f674","305","
            
        <div style=""text-align: center; position: fixed; top: 5vh; left: 40vw;"">
            <div style=""margin:0 auto; width: 20vw; top: 8vh; font-size: 2vw""> 
            <font color=""green""> Bonus : $0.39 </font>
            </div>
        </div>
    
            <div> Please press any key to continue to the next movie.</div>
        ","arrowleft","ITI","","","","","","",""
"","","","","","html-keyboard-response","64","173401","0.0-7.9-1.9","611b5e9de677ddee915269ac","6573617f270241e5da3d355d","6576bfd919a70e539046f674","611","./stimuli//pack_morph_shapes_1/cat_2/diff_2/ex_2_2_5.gif","arrowright","response","ArrowRight","5","2","2","test","true",""
"","","","","","html-keyboard-response","65","174902","0.0-7.9-2.9","611b5e9de677ddee915269ac","6573617f270241e5da3d355d","6576bfd919a70e539046f674","null","<p> <font color=""green"" size=""5vw""> Correct category! </font> <br> <br> <font color=""green"" size=""8vw""> + $0.07 </font> </p>","null","feedback","","","","","","","0.46"
"","","","","","html-keyboard-response","66","175199","0.0-7.10-0.10","611b5e9de677ddee915269ac","6573617f270241e5da3d355d","6576bfd919a70e539046f674","297","
            
        <div style=""text-align: center; position: fixed; top: 5vh; left: 40vw;"">
            <div style=""margin:0 auto; width: 20vw; top: 8vh; font-size: 2vw""> 
            <font color=""green""> Bonus : $0.46 </font>
            </div>
        </div>
    
            <div> Please press any key to continue to the next movie.</div>
        ","arrowleft","ITI","","","","","","",""
"","","","","","html-keyboard-response","67","176841","0.0-7.10-1.10","611b5e9de677ddee915269ac","6573617f270241e5da3d355d","6576bfd919a70e539046f674","1640","./stimuli//pack_morph_shapes_1/cat_2/diff_3/ex_2_3_10.gif","arrowright","response","ArrowRight","10","2","3","test","true",""
"","","","","","html-keyboard-response","68","178355","0.0-7.10-2.10","611b5e9de677ddee915269ac","6573617f270241e5da3d355d","6576bfd919a70e539046f674","null","<p> <font color=""green"" size=""5vw""> Correct category! </font> <br> <br> <font color=""green"" size=""8vw""> + $0.04 </font> </p>","null","feedback","","","","","","","0.5"
"","","","","","html-keyboard-response","69","178915","0.0-7.11-0.11","611b5e9de677ddee915269ac","6573617f270241e5da3d355d","6576bfd919a70e539046f674","559","
            
        <div style=""text-align: center; position: fixed; top: 5vh; left: 40vw;"">
            <div style=""margin:0 auto; width: 20vw; top: 8vh; font-size: 2vw""> 
            <font color=""green""> Bonus : $0.5 </font>
            </div>
        </div>
    
            <div> Please press any key to continue to the next movie.</div>
        ","arrowleft","ITI","","","","","","",""
"","","","","","html-keyboard-response","70","180173","0.0-7.11-1.11","611b5e9de677ddee915269ac","6573617f270241e5da3d355d","6576bfd919a70e539046f674","1257","./stimuli//pack_morph_shapes_1/cat_2/diff_3/ex_2_3_7.gif","arrowright","response","ArrowRight","7","2","3","test","true",""
"","","","","","html-keyboard-response","71","181680","0.0-7.11-2.11","611b5e9de677ddee915269ac","6573617f270241e5da3d355d","6576bfd919a70e539046f674","null","<p> <font color=""green"" size=""5vw""> Correct category! </font> <br> <br> <font color=""green"" size=""8vw""> + $0.05 </font> </p>","null","feedback","","","","","","","0.55"
"","","","","","html-keyboard-response","72","182216","0.0-7.12-0.12","611b5e9de677ddee915269ac","6573617f270241e5da3d355d","6576bfd919a70e539046f674","535","
            
        <div style=""text-align: center; position: fixed; top: 5vh; left: 40vw;"">
            <div style=""margin:0 auto; width: 20vw; top: 8vh; font-size: 2vw""> 
            <font color=""green""> Bonus : $0.55 </font>
            </div>
        </div>
    
            <div> Please press any key to continue to the next movie.</div>
        ","arrowleft","ITI","","","","","","",""
"","","","","","html-keyboard-response","73","183330","0.0-7.12-1.12","611b5e9de677ddee915269ac","6573617f270241e5da3d355d","6576bfd919a70e539046f674","1114","./stimuli//pack_morph_shapes_1/cat_2/diff_3/ex_2_3_16.gif","arrowright","response","ArrowRight","16","2","3","test","true",""
"","","","","","html-keyboard-response","74","184839","0.0-7.12-2.12","611b5e9de677ddee915269ac","6573617f270241e5da3d355d","6576bfd919a70e539046f674","null","<p> <font color=""green"" size=""5vw""> Correct category! </font> <br> <br> <font color=""green"" size=""8vw""> + $0.06 </font> </p>","null","feedback","","","","","","","0.61"
"","","","","","html-keyboard-response","75","184943","0.0-7.13-0.13","611b5e9de677ddee915269ac","6573617f270241e5da3d355d","6576bfd919a70e539046f674","104","
            
        <div style=""text-align: center; position: fixed; top: 5vh; left: 40vw;"">
            <div style=""margin:0 auto; width: 20vw; top: 8vh; font-size: 2vw""> 
            <font color=""green""> Bonus : $0.61 </font>
            </div>
        </div>
    
            <div> Please press any key to continue to the next movie.</div>
        ","arrowleft","ITI","","","","","","",""
"","","","","","html-keyboard-response","76","185779","0.0-7.13-1.13","611b5e9de677ddee915269ac","6573617f270241e5da3d355d","6576bfd919a70e539046f674","835","./stimuli//pack_morph_shapes_1/cat_2/diff_3/ex_2_3_3.gif","arrowright","response","ArrowRight","3","2","3","test","true",""
"","","","","","html-keyboard-response","77","187284","0.0-7.13-2.13","611b5e9de677ddee915269ac","6573617f270241e5da3d355d","6576bfd919a70e539046f674","null","<p> <font color=""green"" size=""5vw""> Correct category! </font> <br> <br> <font color=""green"" size=""8vw""> + $0.07 </font> </p>","null","feedback","","","","","","","0.68"
"","","","","","html-keyboard-response","78","187545","0.0-7.14-0.14","611b5e9de677ddee915269ac","6573617f270241e5da3d355d","6576bfd919a70e539046f674","261","
            
        <div style=""text-align: center; position: fixed; top: 5vh; left: 40vw;"">
            <div style=""margin:0 auto; width: 20vw; top: 8vh; font-size: 2vw""> 
            <font color=""green""> Bonus : $0.68 </font>
            </div>
        </div>
    
            <div> Please press any key to continue to the next movie.</div>
        ","arrowleft","ITI","","","","","","",""
"","","","","","html-keyboard-response","79","188119","0.0-7.14-1.14","611b5e9de677ddee915269ac","6573617f270241e5da3d355d","6576bfd919a70e539046f674","573","./stimuli//pack_morph_shapes_1/cat_1/diff_3/ex_1_3_12.gif","arrowright","response","ArrowLeft","12","1","3","test","false",""
"","","","","","html-keyboard-response","80","189635","0.0-7.14-2.14","611b5e9de677ddee915269ac","6573617f270241e5da3d355d","6576bfd919a70e539046f674","null","<p> <font color=""red"" size=""5vw""> Wrong category! </font> <br> <br> <font color=""red"" size=""8vw""> - $0.05 </font> </p>","null","feedback","","","","","","","0.63"
"","","","","","html-keyboard-response","81","189790","0.0-7.15-0.15","611b5e9de677ddee915269ac","6573617f270241e5da3d355d","6576bfd919a70e539046f674","155","
            
        <div style=""text-align: center; position: fixed; top: 5vh; left: 40vw;"">
            <div style=""margin:0 auto; width: 20vw; top: 8vh; font-size: 2vw""> 
            <font color=""green""> Bonus : $0.63 </font>
            </div>
        </div>
    
            <div> Please press any key to continue to the next movie.</div>
        ","arrowright","ITI","","","","","","",""
"","","","","","html-keyboard-response","82","191095","0.0-7.15-1.15","611b5e9de677ddee915269ac","6573617f270241e5da3d355d","6576bfd919a70e539046f674","1304","./stimuli//pack_morph_shapes_1/cat_2/diff_4/ex_2_4_6.gif","arrowright","response","ArrowRight","6","2","4","test","true",""
"","","","","","html-keyboard-response","83","192610","0.0-7.15-2.15","611b5e9de677ddee915269ac","6573617f270241e5da3d355d","6576bfd919a70e539046f674","null","<p> <font color=""green"" size=""5vw""> Correct category! </font> <br> <br> <font color=""green"" size=""8vw""> + $0.05 </font> </p>","null","feedback","","","","","","","0.68"
"","","","","","html-keyboard-response","84","192797","0.0-7.16-0.16","611b5e9de677ddee915269ac","6573617f270241e5da3d355d","6576bfd919a70e539046f674","186","
            
        <div style=""text-align: center; position: fixed; top: 5vh; left: 40vw;"">
            <div style=""margin:0 auto; width: 20vw; top: 8vh; font-size: 2vw""> 
            <font color=""green""> Bonus : $0.68 </font>
            </div>
        </div>
    
            <div> Please press any key to continue to the next movie.</div>
        ","arrowright","ITI","","","","","","",""
"","","","","","html-keyboard-response","85","193820","0.0-7.16-1.16","611b5e9de677ddee915269ac","6573617f270241e5da3d355d","6576bfd919a70e539046f674","1023","./stimuli//pack_morph_shapes_1/cat_1/diff_4/ex_1_4_9.gif","arrowright","response","ArrowLeft","9","1","4","test","false",""
"","","","","","html-keyboard-response","86","195332","0.0-7.16-2.16","611b5e9de677ddee915269ac","6573617f270241e5da3d355d","6576bfd919a70e539046f674","null","<p> <font color=""red"" size=""5vw""> Wrong category! </font> <br> <br> <font color=""red"" size=""8vw""> - $0.05 </font> </p>","null","feedback","","","","","","","0.63"
"","","","","","html-keyboard-response","87","195443","0.0-7.17-0.17","611b5e9de677ddee915269ac","6573617f270241e5da3d355d","6576bfd919a70e539046f674","110","
            
        <div style=""text-align: center; position: fixed; top: 5vh; left: 40vw;"">
            <div style=""margin:0 auto; width: 20vw; top: 8vh; font-size: 2vw""> 
            <font color=""green""> Bonus : $0.63 </font>
            </div>
        </div>
    
            <div> Please press any key to continue to the next movie.</div>
        ","arrowright","ITI","","","","","","",""
"","","","","","html-keyboard-response","88","196394","0.0-7.17-1.17","611b5e9de677ddee915269ac","6573617f270241e5da3d355d","6576bfd919a70e539046f674","951","./stimuli//pack_morph_shapes_1/cat_1/diff_4/ex_1_4_2.gif","arrowleft","response","ArrowLeft","2","1","4","test","true",""
"","","","","","html-keyboard-response","89","197896","0.0-7.17-2.17","611b5e9de677ddee915269ac","6573617f270241e5da3d355d","6576bfd919a70e539046f674","null","<p> <font color=""green"" size=""5vw""> Correct category! </font> <br> <br> <font color=""green"" size=""8vw""> + $0.06 </font> </p>","null","feedback","","","","","","","0.69"
"","","","","","html-keyboard-response","90","198242","0.0-7.18-0.18","611b5e9de677ddee915269ac","6573617f270241e5da3d355d","6576bfd919a70e539046f674","345","
            
        <div style=""text-align: center; position: fixed; top: 5vh; left: 40vw;"">
            <div style=""margin:0 auto; width: 20vw; top: 8vh; font-size: 2vw""> 
            <font color=""green""> Bonus : $0.69 </font>
            </div>
        </div>
    
            <div> Please press any key to continue to the next movie.</div>
        ","arrowleft","ITI","","","","","","",""
"","","","","","html-keyboard-response","91","199506","0.0-7.18-1.18","611b5e9de677ddee915269ac","6573617f270241e5da3d355d","6576bfd919a70e539046f674","1263","./stimuli//pack_morph_shapes_1/cat_1/diff_4/ex_1_4_8.gif","arrowright","response","ArrowLeft","8","1","4","test","false",""
"","","","","","html-keyboard-response","92","201017","0.0-7.18-2.18","611b5e9de677ddee915269ac","6573617f270241e5da3d355d","6576bfd919a70e539046f674","null","<p> <font color=""red"" size=""5vw""> Wrong category! </font> <br> <br> <font color=""red"" size=""8vw""> - $0.05 </font> </p>","null","feedback","","","","","","","0.64"
"","","","","","html-keyboard-response","93","201227","0.0-7.19-0.19","611b5e9de677ddee915269ac","6573617f270241e5da3d355d","6576bfd919a70e539046f674","209","
            
        <div style=""text-align: center; position: fixed; top: 5vh; left: 40vw;"">
            <div style=""margin:0 auto; width: 20vw; top: 8vh; font-size: 2vw""> 
            <font color=""green""> Bonus : $0.64 </font>
            </div>
        </div>
    
            <div> Please press any key to continue to the next movie.</div>
        ","arrowleft","ITI","","","","","","",""
"","","","","","html-keyboard-response","94","202036","0.0-7.19-1.19","611b5e9de677ddee915269ac","6573617f270241e5da3d355d","6576bfd919a70e539046f674","807","./stimuli//pack_morph_shapes_1/cat_1/diff_4/ex_1_4_6.gif","arrowright","response","ArrowLeft","6","1","4","test","false",""
"","","","","","html-keyboard-response","95","203547","0.0-7.19-2.19","611b5e9de677ddee915269ac","6573617f270241e5da3d355d","6576bfd919a70e539046f674","null","<p> <font color=""red"" size=""5vw""> Wrong category! </font> <br> <br> <font color=""red"" size=""8vw""> - $0.05 </font> </p>","null","feedback","","","","","","","0.59"
"","","","","","html-keyboard-response","96","203879","0.0-7.20-0.20","611b5e9de677ddee915269ac","6573617f270241e5da3d355d","6576bfd919a70e539046f674","331","
            
        <div style=""text-align: center; position: fixed; top: 5vh; left: 40vw;"">
            <div style=""margin:0 auto; width: 20vw; top: 8vh; font-size: 2vw""> 
            <font color=""green""> Bonus : $0.59 </font>
            </div>
        </div>
    
            <div> Please press any key to continue to the next movie.</div>
        ","arrowright","ITI","","","","","","",""
"","","","","","html-keyboard-response","97","204653","0.0-7.20-1.20","611b5e9de677ddee915269ac","6573617f270241e5da3d355d","6576bfd919a70e539046f674","774","./stimuli//pack_morph_shapes_1/cat_1/diff_3/ex_1_3_2.gif","arrowleft","response","ArrowLeft","2","1","3","test","true",""
"","","","","","html-keyboard-response","98","206165","0.0-7.20-2.20","611b5e9de677ddee915269ac","6573617f270241e5da3d355d","6576bfd919a70e539046f674","null","<p> <font color=""green"" size=""5vw""> Correct category! </font> <br> <br> <font color=""green"" size=""8vw""> + $0.07 </font> </p>","null","feedback","","","","","","","0.66"
"","","","","","html-keyboard-response","99","206488","0.0-7.21-0.21","611b5e9de677ddee915269ac","6573617f270241e5da3d355d","6576bfd919a70e539046f674","322","
            
        <div style=""text-align: center; position: fixed; top: 5vh; left: 40vw;"">
            <div style=""margin:0 auto; width: 20vw; top: 8vh; font-size: 2vw""> 
            <font color=""green""> Bonus : $0.66 </font>
            </div>
        </div>
    
            <div> Please press any key to continue to the next movie.</div>
        ","arrowright","ITI","","","","","","",""
"","","","","","html-keyboard-response","100","207369","0.0-7.21-1.21","611b5e9de677ddee915269ac","6573617f270241e5da3d355d","6576bfd919a70e539046f674","879","./stimuli//pack_morph_shapes_1/cat_1/diff_3/ex_1_3_2.gif","arrowleft","response","ArrowLeft","2","1","3","test","true",""
"","","","","","html-keyboard-response","101","208876","0.0-7.21-2.21","611b5e9de677ddee915269ac","6573617f270241e5da3d355d","6576bfd919a70e539046f674","null","<p> <font color=""green"" size=""5vw""> Correct category! </font> <br> <br> <font color=""green"" size=""8vw""> + $0.06 </font> </p>","null","feedback","","","","","","","0.72"
"","","","","","html-keyboard-response","102","209189","0.0-7.22-0.22","611b5e9de677ddee915269ac","6573617f270241e5da3d355d","6576bfd919a70e539046f674","312","
            
        <div style=""text-align: center; position: fixed; top: 5vh; left: 40vw;"">
            <div style=""margin:0 auto; width: 20vw; top: 8vh; font-size: 2vw""> 
            <font color=""green""> Bonus : $0.72 </font>
            </div>
        </div>
    
            <div> Please press any key to continue to the next movie.</div>
        ","arrowright","ITI","","","","","","",""
"","","","","","html-keyboard-response","103","209980","0.0-7.22-1.22","611b5e9de677ddee915269ac","6573617f270241e5da3d355d","6576bfd919a70e539046f674","790","./stimuli//pack_morph_shapes_1/cat_2/diff_3/ex_2_3_5.gif","arrowright","response","ArrowRight","5","2","3","test","true",""
"","","","","","html-keyboard-response","104","211493","0.0-7.22-2.22","611b5e9de677ddee915269ac","6573617f270241e5da3d355d","6576bfd919a70e539046f674","null","<p> <font color=""green"" size=""5vw""> Correct category! </font> <br> <br> <font color=""green"" size=""8vw""> + $0.07 </font> </p>","null","feedback","","","","","","","0.79"
"","","","","","html-keyboard-response","105","211782","0.0-7.23-0.23","611b5e9de677ddee915269ac","6573617f270241e5da3d355d","6576bfd919a70e539046f674","288","
            
        <div style=""text-align: center; position: fixed; top: 5vh; left: 40vw;"">
            <div style=""margin:0 auto; width: 20vw; top: 8vh; font-size: 2vw""> 
            <font color=""green""> Bonus : $0.79 </font>
            </div>
        </div>
    
            <div> Please press any key to continue to the next movie.</div>
        ","arrowright","ITI","","","","","","",""
"","","","","","html-keyboard-response","106","212741","0.0-7.23-1.23","611b5e9de677ddee915269ac","6573617f270241e5da3d355d","6576bfd919a70e539046f674","959","./stimuli//pack_morph_shapes_1/cat_1/diff_3/ex_1_3_5.gif","arrowleft","response","ArrowLeft","5","1","3","test","true",""
"","","","","","html-keyboard-response","107","214255","0.0-7.23-2.23","611b5e9de677ddee915269ac","6573617f270241e5da3d355d","6576bfd919a70e539046f674","null","<p> <font color=""green"" size=""5vw""> Correct category! </font> <br> <br> <font color=""green"" size=""8vw""> + $0.06 </font> </p>","null","feedback","","","","","","","0.85"
"","","","","","html-keyboard-response","108","214530","0.0-7.24-0.24","611b5e9de677ddee915269ac","6573617f270241e5da3d355d","6576bfd919a70e539046f674","275","
            
        <div style=""text-align: center; position: fixed; top: 5vh; left: 40vw;"">
            <div style=""margin:0 auto; width: 20vw; top: 8vh; font-size: 2vw""> 
            <font color=""green""> Bonus : $0.85 </font>
            </div>
        </div>
    
            <div> Please press any key to continue to the next movie.</div>
        ","arrowright","ITI","","","","","","",""
"","","","","","html-keyboard-response","109","215418","0.0-7.24-1.24","611b5e9de677ddee915269ac","6573617f270241e5da3d355d","6576bfd919a70e539046f674","888","./stimuli//pack_morph_shapes_1/cat_1/diff_3/ex_1_3_17.gif","arrowright","response","ArrowLeft","17","1","3","test","false",""
"","","","","","html-keyboard-response","110","216920","0.0-7.24-2.24","611b5e9de677ddee915269ac","6573617f270241e5da3d355d","6576bfd919a70e539046f674","null","<p> <font color=""red"" size=""5vw""> Wrong category! </font> <br> <br> <font color=""red"" size=""8vw""> - $0.05 </font> </p>","null","feedback","","","","","","","0.8"
"","","","","","html-keyboard-response","111","217340","0.0-7.25-0.25","611b5e9de677ddee915269ac","6573617f270241e5da3d355d","6576bfd919a70e539046f674","419","
            
        <div style=""text-align: center; position: fixed; top: 5vh; left: 40vw;"">
            <div style=""margin:0 auto; width: 20vw; top: 8vh; font-size: 2vw""> 
            <font color=""green""> Bonus : $0.8 </font>
            </div>
        </div>
    
            <div> Please press any key to continue to the next movie.</div>
        ","arrowleft","ITI","","","","","","",""
"","","","","","html-keyboard-response","112","218467","0.0-7.25-1.25","611b5e9de677ddee915269ac","6573617f270241e5da3d355d","6576bfd919a70e539046f674","1127","./stimuli//pack_morph_shapes_1/cat_1/diff_4/ex_1_4_2.gif","arrowleft","response","ArrowLeft","2","1","4","test","true",""
"","","","","","html-keyboard-response","113","219977","0.0-7.25-2.25","611b5e9de677ddee915269ac","6573617f270241e5da3d355d","6576bfd919a70e539046f674","null","<p> <font color=""green"" size=""5vw""> Correct category! </font> <br> <br> <font color=""green"" size=""8vw""> + $0.06 </font> </p>","null","feedback","","","","","","","0.86"
"","","","","","html-keyboard-response","114","220282","0.0-7.26-0.26","611b5e9de677ddee915269ac","6573617f270241e5da3d355d","6576bfd919a70e539046f674","303","
            
        <div style=""text-align: center; position: fixed; top: 5vh; left: 40vw;"">
            <div style=""margin:0 auto; width: 20vw; top: 8vh; font-size: 2vw""> 
            <font color=""green""> Bonus : $0.86 </font>
            </div>
        </div>
    
            <div> Please press any key to continue to the next movie.</div>
        ","arrowleft","ITI","","","","","","",""
"","","","","","html-keyboard-response","115","221087","0.0-7.26-1.26","611b5e9de677ddee915269ac","6573617f270241e5da3d355d","6576bfd919a70e539046f674","805","./stimuli//pack_morph_shapes_1/cat_1/diff_4/ex_1_4_8.gif","arrowleft","response","ArrowLeft","8","1","4","test","true",""
"","","","","","html-keyboard-response","116","222593","0.0-7.26-2.26","611b5e9de677ddee915269ac","6573617f270241e5da3d355d","6576bfd919a70e539046f674","null","<p> <font color=""green"" size=""5vw""> Correct category! </font> <br> <br> <font color=""green"" size=""8vw""> + $0.07 </font> </p>","null","feedback","","","","","","","0.93"
"","","","","","html-keyboard-response","117","222904","0.0-7.27-0.27","611b5e9de677ddee915269ac","6573617f270241e5da3d355d","6576bfd919a70e539046f674","310","
            
        <div style=""text-align: center; position: fixed; top: 5vh; left: 40vw;"">
            <div style=""margin:0 auto; width: 20vw; top: 8vh; font-size: 2vw""> 
            <font color=""green""> Bonus : $0.93 </font>
            </div>
        </div>
    
            <div> Please press any key to continue to the next movie.</div>
        ","arrowleft","ITI","","","","","","",""
"","","","","","html-keyboard-response","118","224280","0.0-7.27-1.27","611b5e9de677ddee915269ac","6573617f270241e5da3d355d","6576bfd919a70e539046f674","1376","./stimuli//pack_morph_shapes_1/cat_2/diff_4/ex_2_4_11.gif","arrowright","response","ArrowRight","11","2","4","test","true",""
"","","","","","html-keyboard-response","119","225785","0.0-7.27-2.27","611b5e9de677ddee915269ac","6573617f270241e5da3d355d","6576bfd919a70e539046f674","null","<p> <font color=""green"" size=""5vw""> Correct category! </font> <br> <br> <font color=""green"" size=""8vw""> + $0.05 </font> </p>","null","feedback","","","","","","","0.98"
"","","","","","html-keyboard-response","120","226180","0.0-7.28-0.28","611b5e9de677ddee915269ac","6573617f270241e5da3d355d","6576bfd919a70e539046f674","395","
            
        <div style=""text-align: center; position: fixed; top: 5vh; left: 40vw;"">
            <div style=""margin:0 auto; width: 20vw; top: 8vh; font-size: 2vw""> 
            <font color=""green""> Bonus : $0.98 </font>
            </div>
        </div>
    
            <div> Please press any key to continue to the next movie.</div>
        ","arrowleft","ITI","","","","","","",""
"","","","","","html-keyboard-response","121","227070","0.0-7.28-1.28","611b5e9de677ddee915269ac","6573617f270241e5da3d355d","6576bfd919a70e539046f674","889","./stimuli//pack_morph_shapes_1/cat_2/diff_4/ex_2_4_14.gif","arrowright","response","ArrowRight","14","2","4","test","true",""
"","","","","","html-keyboard-response","122","228575","0.0-7.28-2.28","611b5e9de677ddee915269ac","6573617f270241e5da3d355d","6576bfd919a70e539046f674","null","<p> <font color=""green"" size=""5vw""> Correct category! </font> <br> <br> <font color=""green"" size=""8vw""> + $0.06 </font> </p>","null","feedback","","","","","","","1.04"
"","","","","","html-keyboard-response","123","229152","0.0-7.29-0.29","611b5e9de677ddee915269ac","6573617f270241e5da3d355d","6576bfd919a70e539046f674","576","
            
        <div style=""text-align: center; position: fixed; top: 5vh; left: 40vw;"">
            <div style=""margin:0 auto; width: 20vw; top: 8vh; font-size: 2vw""> 
            <font color=""green""> Bonus : $1.04 </font>
            </div>
        </div>
    
            <div> Please press any key to continue to the next movie.</div>
        ","arrowleft","ITI","","","","","","",""
"","","","","","html-keyboard-response","124","229873","0.0-7.29-1.29","611b5e9de677ddee915269ac","6573617f270241e5da3d355d","6576bfd919a70e539046f674","721","./stimuli//pack_morph_shapes_1/cat_2/diff_4/ex_2_4_8.gif","arrowright","response","ArrowRight","8","2","4","test","true",""
"","","","","","html-keyboard-response","125","231382","0.0-7.29-2.29","611b5e9de677ddee915269ac","6573617f270241e5da3d355d","6576bfd919a70e539046f674","null","<p> <font color=""green"" size=""5vw""> Correct category! </font> <br> <br> <font color=""green"" size=""8vw""> + $0.07 </font> </p>","null","feedback","","","","","","","1.11"
"","","","","","html-keyboard-response","126","231929","0.0-7.30-0.30","611b5e9de677ddee915269ac","6573617f270241e5da3d355d","6576bfd919a70e539046f674","546","
            
        <div style=""text-align: center; position: fixed; top: 5vh; left: 40vw;"">
            <div style=""margin:0 auto; width: 20vw; top: 8vh; font-size: 2vw""> 
            <font color=""green""> Bonus : $1.11 </font>
            </div>
        </div>
    
            <div> Please press any key to continue to the next movie.</div>
        ","arrowleft","ITI","","","","","","",""
"","","","","","html-keyboard-response","127","232592","0.0-7.30-1.30","611b5e9de677ddee915269ac","6573617f270241e5da3d355d","6576bfd919a70e539046f674","663","./stimuli//pack_morph_shapes_1/cat_2/diff_5/ex_2_5_8.gif","arrowright","response","ArrowRight","8","2","5","test","true",""
"","","","","","html-keyboard-response","128","234096","0.0-7.30-2.30","611b5e9de677ddee915269ac","6573617f270241e5da3d355d","6576bfd919a70e539046f674","null","<p> <font color=""green"" size=""5vw""> Correct category! </font> <br> <br> <font color=""green"" size=""8vw""> + $0.07 </font> </p>","null","feedback","","","","","","","1.18"
"","","","","","html-keyboard-response","129","234397","0.0-7.31-0.31","611b5e9de677ddee915269ac","6573617f270241e5da3d355d","6576bfd919a70e539046f674","299","
            
        <div style=""text-align: center; position: fixed; top: 5vh; left: 40vw;"">
            <div style=""margin:0 auto; width: 20vw; top: 8vh; font-size: 2vw""> 
            <font color=""green""> Bonus : $1.18 </font>
            </div>
        </div>
    
            <div> Please press any key to continue to the next movie.</div>
        ","arrowleft","ITI","","","","","","",""
"","","","","","html-keyboard-response","130","235121","0.0-7.31-1.31","611b5e9de677ddee915269ac","6573617f270241e5da3d355d","6576bfd919a70e539046f674","723","./stimuli//pack_morph_shapes_1/cat_1/diff_5/ex_1_5_3.gif","arrowleft","response","ArrowLeft","3","1","5","test","true",""
"","","","","","html-keyboard-response","131","236623","0.0-7.31-2.31","611b5e9de677ddee915269ac","6573617f270241e5da3d355d","6576bfd919a70e539046f674","null","<p> <font color=""green"" size=""5vw""> Correct category! </font> <br> <br> <font color=""green"" size=""8vw""> + $0.07 </font> </p>","null","feedback","","","","","","","1.25"
"","","","","","html-keyboard-response","132","236894","0.0-7.32-0.32","611b5e9de677ddee915269ac","6573617f270241e5da3d355d","6576bfd919a70e539046f674","270","
            
        <div style=""text-align: center; position: fixed; top: 5vh; left: 40vw;"">
            <div style=""margin:0 auto; width: 20vw; top: 8vh; font-size: 2vw""> 
            <font color=""green""> Bonus : $1.25 </font>
            </div>
        </div>
    
            <div> Please press any key to continue to the next movie.</div>
        ","arrowleft","ITI","","","","","","",""
"","","","","","html-keyboard-response","133","237929","0.0-7.32-1.32","611b5e9de677ddee915269ac","6573617f270241e5da3d355d","6576bfd919a70e539046f674","1035","./stimuli//pack_morph_shapes_1/cat_1/diff_5/ex_1_5_11.gif","arrowright","response","ArrowLeft","11","1","5","test","false",""
"","","","","","html-keyboard-response","134","239431","0.0-7.32-2.32","611b5e9de677ddee915269ac","6573617f270241e5da3d355d","6576bfd919a70e539046f674","null","<p> <font color=""red"" size=""5vw""> Wrong category! </font> <br> <br> <font color=""red"" size=""8vw""> - $0.05 </font> </p>","null","feedback","","","","","","","1.2"
"","","","","","html-keyboard-response","135","239722","0.0-7.33-0.33","611b5e9de677ddee915269ac","6573617f270241e5da3d355d","6576bfd919a70e539046f674","290","
            
        <div style=""text-align: center; position: fixed; top: 5vh; left: 40vw;"">
            <div style=""margin:0 auto; width: 20vw; top: 8vh; font-size: 2vw""> 
            <font color=""green""> Bonus : $1.2 </font>
            </div>
        </div>
    
            <div> Please press any key to continue to the next movie.</div>
        ","arrowleft","ITI","","","","","","",""
"","","","","","html-keyboard-response","136","240686","0.0-7.33-1.33","611b5e9de677ddee915269ac","6573617f270241e5da3d355d","6576bfd919a70e539046f674","963","./stimuli//pack_morph_shapes_1/cat_1/diff_5/ex_1_5_13.gif","arrowright","response","ArrowLeft","13","1","5","test","false",""
"","","","","","html-keyboard-response","137","242194","0.0-7.33-2.33","611b5e9de677ddee915269ac","6573617f270241e5da3d355d","6576bfd919a70e539046f674","null","<p> <font color=""red"" size=""5vw""> Wrong category! </font> <br> <br> <font color=""red"" size=""8vw""> - $0.05 </font> </p>","null","feedback","","","","","","","1.15"
"","","","","","html-keyboard-response","138","242477","0.0-7.34-0.34","611b5e9de677ddee915269ac","6573617f270241e5da3d355d","6576bfd919a70e539046f674","283","
            
        <div style=""text-align: center; position: fixed; top: 5vh; left: 40vw;"">
            <div style=""margin:0 auto; width: 20vw; top: 8vh; font-size: 2vw""> 
            <font color=""green""> Bonus : $1.15 </font>
            </div>
        </div>
    
            <div> Please press any key to continue to the next movie.</div>
        ","arrowright","ITI","","","","","","",""
"","","","","","html-keyboard-response","139","243372","0.0-7.34-1.34","611b5e9de677ddee915269ac","6573617f270241e5da3d355d","6576bfd919a70e539046f674","894","./stimuli//pack_morph_shapes_1/cat_2/diff_5/ex_2_5_8.gif","arrowright","response","ArrowRight","8","2","5","test","true",""
"","","","","","html-keyboard-response","140","244886","0.0-7.34-2.34","611b5e9de677ddee915269ac","6573617f270241e5da3d355d","6576bfd919a70e539046f674","null","<p> <font color=""green"" size=""5vw""> Correct category! </font> <br> <br> <font color=""green"" size=""8vw""> + $0.06 </font> </p>","null","feedback","","","","","","","1.21"
"","","","","","html-keyboard-response","141","245591","0.0-7.35-0.35","611b5e9de677ddee915269ac","6573617f270241e5da3d355d","6576bfd919a70e539046f674","704","
            
        <div style=""text-align: center; position: fixed; top: 5vh; left: 40vw;"">
            <div style=""margin:0 auto; width: 20vw; top: 8vh; font-size: 2vw""> 
            <font color=""green""> Bonus : $1.21 </font>
            </div>
        </div>
    
            <div> Please press any key to continue to the next movie.</div>
        ","arrowleft","ITI","","","","","","",""
"","","","","","html-keyboard-response","142","247053","0.0-7.35-1.35","611b5e9de677ddee915269ac","6573617f270241e5da3d355d","6576bfd919a70e539046f674","1461","./stimuli//pack_morph_shapes_1/cat_1/diff_4/ex_1_4_11.gif","arrowright","response","ArrowLeft","11","1","4","test","false",""
"","","","","","html-keyboard-response","143","248563","0.0-7.35-2.35","611b5e9de677ddee915269ac","6573617f270241e5da3d355d","6576bfd919a70e539046f674","null","<p> <font color=""red"" size=""5vw""> Wrong category! </font> <br> <br> <font color=""red"" size=""8vw""> - $0.05 </font> </p>","null","feedback","","","","","","","1.16"
"","","","","","html-keyboard-response","144","249414","0.0-7.36-0.36","611b5e9de677ddee915269ac","6573617f270241e5da3d355d","6576bfd919a70e539046f674","851","
            
        <div style=""text-align: center; position: fixed; top: 5vh; left: 40vw;"">
            <div style=""margin:0 auto; width: 20vw; top: 8vh; font-size: 2vw""> 
            <font color=""green""> Bonus : $1.16 </font>
            </div>
        </div>
    
            <div> Please press any key to continue to the next movie.</div>
        ","arrowleft","ITI","","","","","","",""
"","","","","","html-keyboard-response","145","250478","0.0-7.36-1.36","611b5e9de677ddee915269ac","6573617f270241e5da3d355d","6576bfd919a70e539046f674","1064","./stimuli//pack_morph_shapes_1/cat_2/diff_4/ex_2_4_13.gif","arrowright","response","ArrowRight","13","2","4","test","true",""
"","","","","","html-keyboard-response","146","251982","0.0-7.36-2.36","611b5e9de677ddee915269ac","6573617f270241e5da3d355d","6576bfd919a70e539046f674","null","<p> <font color=""green"" size=""5vw""> Correct category! </font> <br> <br> <font color=""green"" size=""8vw""> + $0.06 </font> </p>","null","feedback","","","","","","","1.22"
"","","","","","html-keyboard-response","147","252883","0.0-7.37-0.37","611b5e9de677ddee915269ac","6573617f270241e5da3d355d","6576bfd919a70e539046f674","901","
            
        <div style=""text-align: center; position: fixed; top: 5vh; left: 40vw;"">
            <div style=""margin:0 auto; width: 20vw; top: 8vh; font-size: 2vw""> 
            <font color=""green""> Bonus : $1.22 </font>
            </div>
        </div>
    
            <div> Please press any key to continue to the next movie.</div>
        ","arrowleft","ITI","","","","","","",""
"","","","","","html-keyboard-response","148","253692","0.0-7.37-1.37","611b5e9de677ddee915269ac","6573617f270241e5da3d355d","6576bfd919a70e539046f674","808","./stimuli//pack_morph_shapes_1/cat_1/diff_4/ex_1_4_5.gif","arrowleft","response","ArrowLeft","5","1","4","test","true",""
"","","","","","html-keyboard-response","149","255208","0.0-7.37-2.37","611b5e9de677ddee915269ac","6573617f270241e5da3d355d","6576bfd919a70e539046f674","null","<p> <font color=""green"" size=""5vw""> Correct category! </font> <br> <br> <font color=""green"" size=""8vw""> + $0.07 </font> </p>","null","feedback","","","","","","","1.29"
"","","","","","html-keyboard-response","150","255552","0.0-7.38-0.38","611b5e9de677ddee915269ac","6573617f270241e5da3d355d","6576bfd919a70e539046f674","344","
            
        <div style=""text-align: center; position: fixed; top: 5vh; left: 40vw;"">
            <div style=""margin:0 auto; width: 20vw; top: 8vh; font-size: 2vw""> 
            <font color=""green""> Bonus : $1.29 </font>
            </div>
        </div>
    
            <div> Please press any key to continue to the next movie.</div>
        ","arrowright","ITI","","","","","","",""
"","","","","","html-keyboard-response","151","256645","0.0-7.38-1.38","611b5e9de677ddee915269ac","6573617f270241e5da3d355d","6576bfd919a70e539046f674","1092","./stimuli//pack_morph_shapes_1/cat_1/diff_4/ex_1_4_13.gif","arrowleft","response","ArrowLeft","13","1","4","test","true",""
"","","","","","html-keyboard-response","152","258150","0.0-7.38-2.38","611b5e9de677ddee915269ac","6573617f270241e5da3d355d","6576bfd919a70e539046f674","null","<p> <font color=""green"" size=""5vw""> Correct category! </font> <br> <br> <font color=""green"" size=""8vw""> + $0.06 </font> </p>","null","feedback","","","","","","","1.35"
"","","","","","html-keyboard-response","153","258488","0.0-7.39-0.39","611b5e9de677ddee915269ac","6573617f270241e5da3d355d","6576bfd919a70e539046f674","338","
            
        <div style=""text-align: center; position: fixed; top: 5vh; left: 40vw;"">
            <div style=""margin:0 auto; width: 20vw; top: 8vh; font-size: 2vw""> 
            <font color=""green""> Bonus : $1.35 </font>
            </div>
        </div>
    
            <div> Please press any key to continue to the next movie.</div>
        ","arrowleft","ITI","","","","","","",""
"","","","","","html-keyboard-response","154","259316","0.0-7.39-1.39","611b5e9de677ddee915269ac","6573617f270241e5da3d355d","6576bfd919a70e539046f674","828","./stimuli//pack_morph_shapes_1/cat_2/diff_4/ex_2_4_8.gif","arrowright","response","ArrowRight","8","2","4","test","true",""
"","","","","","html-keyboard-response","155","260827","0.0-7.39-2.39","611b5e9de677ddee915269ac","6573617f270241e5da3d355d","6576bfd919a70e539046f674","null","<p> <font color=""green"" size=""5vw""> Correct category! </font> <br> <br> <font color=""green"" size=""8vw""> + $0.07 </font> </p>","null","feedback","","","","","","","1.42"
"","","","","","html-keyboard-response","156","261144","0.0-7.40-0.40","611b5e9de677ddee915269ac","6573617f270241e5da3d355d","6576bfd919a70e539046f674","317","
            
        <div style=""text-align: center; position: fixed; top: 5vh; left: 40vw;"">
            <div style=""margin:0 auto; width: 20vw; top: 8vh; font-size: 2vw""> 
            <font color=""green""> Bonus : $1.42 </font>
            </div>
        </div>
    
            <div> Please press any key to continue to the next movie.</div>
        ","arrowleft","ITI","","","","","","",""
"","","","","","html-keyboard-response","157","261879","0.0-7.40-1.40","611b5e9de677ddee915269ac","6573617f270241e5da3d355d","6576bfd919a70e539046f674","735","./stimuli//pack_morph_shapes_1/cat_2/diff_5/ex_2_5_12.gif","arrowright","response","ArrowRight","12","2","5","test","true",""
"","","","","","html-keyboard-response","158","263391","0.0-7.40-2.40","611b5e9de677ddee915269ac","6573617f270241e5da3d355d","6576bfd919a70e539046f674","null","<p> <font color=""green"" size=""5vw""> Correct category! </font> <br> <br> <font color=""green"" size=""8vw""> + $0.07 </font> </p>","null","feedback","","","","","","","1.49"
"","","","","","html-keyboard-response","159","263720","0.0-7.41-0.41","611b5e9de677ddee915269ac","6573617f270241e5da3d355d","6576bfd919a70e539046f674","328","
            
        <div style=""text-align: center; position: fixed; top: 5vh; left: 40vw;"">
            <div style=""margin:0 auto; width: 20vw; top: 8vh; font-size: 2vw""> 
            <font color=""green""> Bonus : $1.49 </font>
            </div>
        </div>
    
            <div> Please press any key to continue to the next movie.</div>
        ","arrowleft","ITI","","","","","","",""
"","","","","","html-keyboard-response","160","264497","0.0-7.41-1.41","611b5e9de677ddee915269ac","6573617f270241e5da3d355d","6576bfd919a70e539046f674","777","./stimuli//pack_morph_shapes_1/cat_2/diff_5/ex_2_5_17.gif","arrowright","response","ArrowRight","17","2","5","test","true",""
"","","","","","html-keyboard-response","161","266010","0.0-7.41-2.41","611b5e9de677ddee915269ac","6573617f270241e5da3d355d","6576bfd919a70e539046f674","null","<p> <font color=""green"" size=""5vw""> Correct category! </font> <br> <br> <font color=""green"" size=""8vw""> + $0.07 </font> </p>","null","feedback","","","","","","","1.56"
"","","","","","html-keyboard-response","162","266293","0.0-7.42-0.42","611b5e9de677ddee915269ac","6573617f270241e5da3d355d","6576bfd919a70e539046f674","283","
            
        <div style=""text-align: center; position: fixed; top: 5vh; left: 40vw;"">
            <div style=""margin:0 auto; width: 20vw; top: 8vh; font-size: 2vw""> 
            <font color=""green""> Bonus : $1.56 </font>
            </div>
        </div>
    
            <div> Please press any key to continue to the next movie.</div>
        ","arrowleft","ITI","","","","","","",""
"","","","","","html-keyboard-response","163","267055","0.0-7.42-1.42","611b5e9de677ddee915269ac","6573617f270241e5da3d355d","6576bfd919a70e539046f674","761","./stimuli//pack_morph_shapes_1/cat_1/diff_5/ex_1_5_6.gif","arrowleft","response","ArrowLeft","6","1","5","test","true",""
"","","","","","html-keyboard-response","164","268563","0.0-7.42-2.42","611b5e9de677ddee915269ac","6573617f270241e5da3d355d","6576bfd919a70e539046f674","null","<p> <font color=""green"" size=""5vw""> Correct category! </font> <br> <br> <font color=""green"" size=""8vw""> + $0.07 </font> </p>","null","feedback","","","","","","","1.63"
"","","","","","html-keyboard-response","165","268886","0.0-7.43-0.43","611b5e9de677ddee915269ac","6573617f270241e5da3d355d","6576bfd919a70e539046f674","322","
            
        <div style=""text-align: center; position: fixed; top: 5vh; left: 40vw;"">
            <div style=""margin:0 auto; width: 20vw; top: 8vh; font-size: 2vw""> 
            <font color=""green""> Bonus : $1.63 </font>
            </div>
        </div>
    
            <div> Please press any key to continue to the next movie.</div>
        ","arrowleft","ITI","","","","","","",""
"","","","","","html-keyboard-response","166","269765","0.0-7.43-1.43","611b5e9de677ddee915269ac","6573617f270241e5da3d355d","6576bfd919a70e539046f674","878","./stimuli//pack_morph_shapes_1/cat_1/diff_5/ex_1_5_8.gif","arrowleft","response","ArrowLeft","8","1","5","test","true",""
"","","","","","html-keyboard-response","167","271278","0.0-7.43-2.43","611b5e9de677ddee915269ac","6573617f270241e5da3d355d","6576bfd919a70e539046f674","null","<p> <font color=""green"" size=""5vw""> Correct category! </font> <br> <br> <font color=""green"" size=""8vw""> + $0.06 </font> </p>","null","feedback","","","","","","","1.69"
"","","","","","html-keyboard-response","168","271578","0.0-7.44-0.44","611b5e9de677ddee915269ac","6573617f270241e5da3d355d","6576bfd919a70e539046f674","300","
            
        <div style=""text-align: center; position: fixed; top: 5vh; left: 40vw;"">
            <div style=""margin:0 auto; width: 20vw; top: 8vh; font-size: 2vw""> 
            <font color=""green""> Bonus : $1.69 </font>
            </div>
        </div>
    
            <div> Please press any key to continue to the next movie.</div>
        ","arrowleft","ITI","","","","","","",""
"","","","","","html-keyboard-response","169","272260","0.0-7.44-1.44","611b5e9de677ddee915269ac","6573617f270241e5da3d355d","6576bfd919a70e539046f674","682","./stimuli//pack_morph_shapes_1/cat_2/diff_5/ex_2_5_11.gif","arrowright","response","ArrowRight","11","2","5","test","true",""
"","","","","","html-keyboard-response","170","273764","0.0-7.44-2.44","611b5e9de677ddee915269ac","6573617f270241e5da3d355d","6576bfd919a70e539046f674","null","<p> <font color=""green"" size=""5vw""> Correct category! </font> <br> <br> <font color=""green"" size=""8vw""> + $0.07 </font> </p>","null","feedback","","","","","","","1.76"
"","","","","","html-keyboard-response","171","274565","0.0-7.45-0.45","611b5e9de677ddee915269ac","6573617f270241e5da3d355d","6576bfd919a70e539046f674","801","
            
        <div style=""text-align: center; position: fixed; top: 5vh; left: 40vw;"">
            <div style=""margin:0 auto; width: 20vw; top: 8vh; font-size: 2vw""> 
            <font color=""green""> Bonus : $1.76 </font>
            </div>
        </div>
    
            <div> Please press any key to continue to the next movie.</div>
        ","arrowleft","ITI","","","","","","",""
"","","","","","html-keyboard-response","172","275248","0.0-7.45-1.45","611b5e9de677ddee915269ac","6573617f270241e5da3d355d","6576bfd919a70e539046f674","682","./stimuli//pack_morph_shapes_1/cat_2/diff_5/ex_2_5_3.gif","arrowright","response","ArrowRight","3","2","5","test","true",""
"","","","","","html-keyboard-response","173","276754","0.0-7.45-2.45","611b5e9de677ddee915269ac","6573617f270241e5da3d355d","6576bfd919a70e539046f674","null","<p> <font color=""green"" size=""5vw""> Correct category! </font> <br> <br> <font color=""green"" size=""8vw""> + $0.07 </font> </p>","null","feedback","","","","","","","1.83"
"","","","","","html-keyboard-response","174","277322","0.0-7.46-0.46","611b5e9de677ddee915269ac","6573617f270241e5da3d355d","6576bfd919a70e539046f674","567","
            
        <div style=""text-align: center; position: fixed; top: 5vh; left: 40vw;"">
            <div style=""margin:0 auto; width: 20vw; top: 8vh; font-size: 2vw""> 
            <font color=""green""> Bonus : $1.83 </font>
            </div>
        </div>
    
            <div> Please press any key to continue to the next movie.</div>
        ","arrowleft","ITI","","","","","","",""
"","","","","","html-keyboard-response","175","278238","0.0-7.46-1.46","611b5e9de677ddee915269ac","6573617f270241e5da3d355d","6576bfd919a70e539046f674","916","./stimuli//pack_morph_shapes_1/cat_1/diff_5/ex_1_5_4.gif","arrowleft","response","ArrowLeft","4","1","5","test","true",""
"","","","","","html-keyboard-response","176","279742","0.0-7.46-2.46","611b5e9de677ddee915269ac","6573617f270241e5da3d355d","6576bfd919a70e539046f674","null","<p> <font color=""green"" size=""5vw""> Correct category! </font> <br> <br> <font color=""green"" size=""8vw""> + $0.06 </font> </p>","null","feedback","","","","","","","1.89"
"","","","","","html-keyboard-response","177","280153","0.0-7.47-0.47","611b5e9de677ddee915269ac","6573617f270241e5da3d355d","6576bfd919a70e539046f674","410","
            
        <div style=""text-align: center; position: fixed; top: 5vh; left: 40vw;"">
            <div style=""margin:0 auto; width: 20vw; top: 8vh; font-size: 2vw""> 
            <font color=""green""> Bonus : $1.89 </font>
            </div>
        </div>
    
            <div> Please press any key to continue to the next movie.</div>
        ","arrowleft","ITI","","","","","","",""
"","","","","","html-keyboard-response","178","281113","0.0-7.47-1.47","611b5e9de677ddee915269ac","6573617f270241e5da3d355d","6576bfd919a70e539046f674","960","./stimuli//pack_morph_shapes_1/cat_1/diff_5/ex_1_5_9.gif","arrowleft","response","ArrowLeft","9","1","5","test","true",""
"","","","","","html-keyboard-response","179","282626","0.0-7.47-2.47","611b5e9de677ddee915269ac","6573617f270241e5da3d355d","6576bfd919a70e539046f674","null","<p> <font color=""green"" size=""5vw""> Correct category! </font> <br> <br> <font color=""green"" size=""8vw""> + $0.06 </font> </p>","null","feedback","","","","","","","1.95"
"","","","","","html-keyboard-response","180","282983","0.0-7.48-0.48","611b5e9de677ddee915269ac","6573617f270241e5da3d355d","6576bfd919a70e539046f674","356","
            
        <div style=""text-align: center; position: fixed; top: 5vh; left: 40vw;"">
            <div style=""margin:0 auto; width: 20vw; top: 8vh; font-size: 2vw""> 
            <font color=""green""> Bonus : $1.95 </font>
            </div>
        </div>
    
            <div> Please press any key to continue to the next movie.</div>
        ","arrowleft","ITI","","","","","","",""
"","","","","","html-keyboard-response","181","283790","0.0-7.48-1.48","611b5e9de677ddee915269ac","6573617f270241e5da3d355d","6576bfd919a70e539046f674","807","./stimuli//pack_morph_shapes_1/cat_1/diff_5/ex_1_5_17.gif","arrowright","response","ArrowLeft","17","1","5","test","false",""
"","","","","","html-keyboard-response","182","285301","0.0-7.48-2.48","611b5e9de677ddee915269ac","6573617f270241e5da3d355d","6576bfd919a70e539046f674","null","<p> <font color=""red"" size=""5vw""> Wrong category! </font> <br> <br> <font color=""red"" size=""8vw""> - $0.05 </font> </p>","null","feedback","","","","","","","1.9"
"","","","","","html-keyboard-response","183","285695","0.0-7.49-0.49","611b5e9de677ddee915269ac","6573617f270241e5da3d355d","6576bfd919a70e539046f674","393","
            
        <div style=""text-align: center; position: fixed; top: 5vh; left: 40vw;"">
            <div style=""margin:0 auto; width: 20vw; top: 8vh; font-size: 2vw""> 
            <font color=""green""> Bonus : $1.9 </font>
            </div>
        </div>
    
            <div> Please press any key to continue to the next movie.</div>
        ","arrowleft","ITI","","","","","","",""
"","","","","","html-keyboard-response","184","286280","0.0-7.49-1.49","611b5e9de677ddee915269ac","6573617f270241e5da3d355d","6576bfd919a70e539046f674","585","./stimuli//pack_morph_shapes_1/cat_1/diff_5/ex_1_5_9.gif","arrowleft","response","ArrowLeft","9","1","5","test","true",""
"","","","","","html-keyboard-response","185","287790","0.0-7.49-2.49","611b5e9de677ddee915269ac","6573617f270241e5da3d355d","6576bfd919a70e539046f674","null","<p> <font color=""green"" size=""5vw""> Correct category! </font> <br> <br> <font color=""green"" size=""8vw""> + $0.07 </font> </p>","null","feedback","","","","","","","1.97"
"","","","","","html-keyboard-response","186","288131","0.0-7.50-0.50","611b5e9de677ddee915269ac","6573617f270241e5da3d355d","6576bfd919a70e539046f674","341","
            
        <div style=""text-align: center; position: fixed; top: 5vh; left: 40vw;"">
            <div style=""margin:0 auto; width: 20vw; top: 8vh; font-size: 2vw""> 
            <font color=""green""> Bonus : $1.97 </font>
            </div>
        </div>
    
            <div> Please press any key to continue to the next movie.</div>
        ","arrowleft","ITI","","","","","","",""
"","","","","","html-keyboard-response","187","288943","0.0-7.50-1.50","611b5e9de677ddee915269ac","6573617f270241e5da3d355d","6576bfd919a70e539046f674","811","./stimuli//pack_morph_shapes_1/cat_2/diff_5/ex_2_5_7.gif","arrowright","response","ArrowRight","7","2","5","test","true",""
"","","","","","html-keyboard-response","188","290457","0.0-7.50-2.50","611b5e9de677ddee915269ac","6573617f270241e5da3d355d","6576bfd919a70e539046f674","null","<p> <font color=""green"" size=""5vw""> Correct category! </font> <br> <br> <font color=""green"" size=""8vw""> + $0.07 </font> </p>","null","feedback","","","","","","","2.04"
"","","","","","html-keyboard-response","189","291208","0.0-7.51-0.51","611b5e9de677ddee915269ac","6573617f270241e5da3d355d","6576bfd919a70e539046f674","751","
            
        <div style=""text-align: center; position: fixed; top: 5vh; left: 40vw;"">
            <div style=""margin:0 auto; width: 20vw; top: 8vh; font-size: 2vw""> 
            <font color=""green""> Bonus : $2.04 </font>
            </div>
        </div>
    
            <div> Please press any key to continue to the next movie.</div>
        ","arrowleft","ITI","","","","","","",""
"","","","","","html-keyboard-response","190","291876","0.0-7.51-1.51","611b5e9de677ddee915269ac","6573617f270241e5da3d355d","6576bfd919a70e539046f674","667","./stimuli//pack_morph_shapes_1/cat_1/diff_5/ex_1_5_12.gif","arrowright","response","ArrowLeft","12","1","5","test","false",""
"","","","","","html-keyboard-response","191","293378","0.0-7.51-2.51","611b5e9de677ddee915269ac","6573617f270241e5da3d355d","6576bfd919a70e539046f674","null","<p> <font color=""red"" size=""5vw""> Wrong category! </font> <br> <br> <font color=""red"" size=""8vw""> - $0.05 </font> </p>","null","feedback","","","","","","","1.99"
"","","","","","html-keyboard-response","192","294037","0.0-7.52-0.52","611b5e9de677ddee915269ac","6573617f270241e5da3d355d","6576bfd919a70e539046f674","658","
            
        <div style=""text-align: center; position: fixed; top: 5vh; left: 40vw;"">
            <div style=""margin:0 auto; width: 20vw; top: 8vh; font-size: 2vw""> 
            <font color=""green""> Bonus : $1.99 </font>
            </div>
        </div>
    
            <div> Please press any key to continue to the next movie.</div>
        ","arrowleft","ITI","","","","","","",""
"","","","","","html-keyboard-response","193","295364","0.0-7.52-1.52","611b5e9de677ddee915269ac","6573617f270241e5da3d355d","6576bfd919a70e539046f674","1326","./stimuli//pack_morph_shapes_1/cat_2/diff_4/ex_2_4_15.gif","arrowright","response","ArrowRight","15","2","4","test","true",""
"","","","","","html-keyboard-response","194","296870","0.0-7.52-2.52","611b5e9de677ddee915269ac","6573617f270241e5da3d355d","6576bfd919a70e539046f674","null","<p> <font color=""green"" size=""5vw""> Correct category! </font> <br> <br> <font color=""green"" size=""8vw""> + $0.05 </font> </p>","null","feedback","","","","","","","2.04"
"","","","","","html-keyboard-response","195","297480","0.0-7.53-0.53","611b5e9de677ddee915269ac","6573617f270241e5da3d355d","6576bfd919a70e539046f674","609","
            
        <div style=""text-align: center; position: fixed; top: 5vh; left: 40vw;"">
            <div style=""margin:0 auto; width: 20vw; top: 8vh; font-size: 2vw""> 
            <font color=""green""> Bonus : $2.04 </font>
            </div>
        </div>
    
            <div> Please press any key to continue to the next movie.</div>
        ","arrowleft","ITI","","","","","","",""
"","","","","","html-keyboard-response","196","298021","0.0-7.53-1.53","611b5e9de677ddee915269ac","6573617f270241e5da3d355d","6576bfd919a70e539046f674","539","./stimuli//pack_morph_shapes_1/cat_2/diff_4/ex_2_4_15.gif","arrowright","response","ArrowRight","15","2","4","test","true",""
"","","","","","html-keyboard-response","197","299536","0.0-7.53-2.53","611b5e9de677ddee915269ac","6573617f270241e5da3d355d","6576bfd919a70e539046f674","null","<p> <font color=""green"" size=""5vw""> Correct category! </font> <br> <br> <font color=""green"" size=""8vw""> + $0.08 </font> </p>","null","feedback","","","","","","","2.12"
"","","","","","html-keyboard-response","198","299875","0.0-7.54-0.54","611b5e9de677ddee915269ac","6573617f270241e5da3d355d","6576bfd919a70e539046f674","338","
            
        <div style=""text-align: center; position: fixed; top: 5vh; left: 40vw;"">
            <div style=""margin:0 auto; width: 20vw; top: 8vh; font-size: 2vw""> 
            <font color=""green""> Bonus : $2.12 </font>
            </div>
        </div>
    
            <div> Please press any key to continue to the next movie.</div>
        ","arrowleft","ITI","","","","","","",""
"","","","","","html-keyboard-response","199","300798","0.0-7.54-1.54","611b5e9de677ddee915269ac","6573617f270241e5da3d355d","6576bfd919a70e539046f674","923","./stimuli//pack_morph_shapes_1/cat_2/diff_4/ex_2_4_17.gif","arrowleft","response","ArrowRight","17","2","4","test","false",""
"","","","","","html-keyboard-response","200","302306","0.0-7.54-2.54","611b5e9de677ddee915269ac","6573617f270241e5da3d355d","6576bfd919a70e539046f674","null","<p> <font color=""red"" size=""5vw""> Wrong category! </font> <br> <br> <font color=""red"" size=""8vw""> - $0.05 </font> </p>","null","feedback","","","","","","","2.07"
"","","","","","html-keyboard-response","201","302989","0.0-7.55-0.55","611b5e9de677ddee915269ac","6573617f270241e5da3d355d","6576bfd919a70e539046f674","683","
            
        <div style=""text-align: center; position: fixed; top: 5vh; left: 40vw;"">
            <div style=""margin:0 auto; width: 20vw; top: 8vh; font-size: 2vw""> 
            <font color=""green""> Bonus : $2.07 </font>
            </div>
        </div>
    
            <div> Please press any key to continue to the next movie.</div>
        ","arrowleft","ITI","","","","","","",""
"","","","","","html-keyboard-response","202","303700","0.0-7.55-1.55","611b5e9de677ddee915269ac","6573617f270241e5da3d355d","6576bfd919a70e539046f674","710","./stimuli//pack_morph_shapes_1/cat_2/diff_4/ex_2_4_14.gif","arrowright","response","ArrowRight","14","2","4","test","true",""
"","","","","","html-keyboard-response","203","305208","0.0-7.55-2.55","611b5e9de677ddee915269ac","6573617f270241e5da3d355d","6576bfd919a70e539046f674","null","<p> <font color=""green"" size=""5vw""> Correct category! </font> <br> <br> <font color=""green"" size=""8vw""> + $0.07 </font> </p>","null","feedback","","","","","","","2.14"
"","","","","","html-keyboard-response","204","305881","0.0-7.56-0.56","611b5e9de677ddee915269ac","6573617f270241e5da3d355d","6576bfd919a70e539046f674","672","
            
        <div style=""text-align: center; position: fixed; top: 5vh; left: 40vw;"">
            <div style=""margin:0 auto; width: 20vw; top: 8vh; font-size: 2vw""> 
            <font color=""green""> Bonus : $2.14 </font>
            </div>
        </div>
    
            <div> Please press any key to continue to the next movie.</div>
        ","arrowleft","ITI","","","","","","",""
"","","","","","html-keyboard-response","205","306879","0.0-7.56-1.56","611b5e9de677ddee915269ac","6573617f270241e5da3d355d","6576bfd919a70e539046f674","997","./stimuli//pack_morph_shapes_1/cat_2/diff_4/ex_2_4_12.gif","arrowright","response","ArrowRight","12","2","4","test","true",""
"","","","","","html-keyboard-response","206","308382","0.0-7.56-2.56","611b5e9de677ddee915269ac","6573617f270241e5da3d355d","6576bfd919a70e539046f674","null","<p> <font color=""green"" size=""5vw""> Correct category! </font> <br> <br> <font color=""green"" size=""8vw""> + $0.06 </font> </p>","null","feedback","","","","","","","2.2"
"","","","","","html-keyboard-response","207","308834","0.0-7.57-0.57","611b5e9de677ddee915269ac","6573617f270241e5da3d355d","6576bfd919a70e539046f674","452","
            
        <div style=""text-align: center; position: fixed; top: 5vh; left: 40vw;"">
            <div style=""margin:0 auto; width: 20vw; top: 8vh; font-size: 2vw""> 
            <font color=""green""> Bonus : $2.2 </font>
            </div>
        </div>
    
            <div> Please press any key to continue to the next movie.</div>
        ","arrowleft","ITI","","","","","","",""
"","","","","","html-keyboard-response","208","309410","0.0-7.57-1.57","611b5e9de677ddee915269ac","6573617f270241e5da3d355d","6576bfd919a70e539046f674","575","./stimuli//pack_morph_shapes_1/cat_2/diff_5/ex_2_5_14.gif","arrowright","response","ArrowRight","14","2","5","test","true",""
"","","","","","html-keyboard-response","209","310911","0.0-7.57-2.57","611b5e9de677ddee915269ac","6573617f270241e5da3d355d","6576bfd919a70e539046f674","null","<p> <font color=""green"" size=""5vw""> Correct category! </font> <br> <br> <font color=""green"" size=""8vw""> + $0.08 </font> </p>","null","feedback","","","","","","","2.28"
"","","","","","html-keyboard-response","210","311242","0.0-7.58-0.58","611b5e9de677ddee915269ac","6573617f270241e5da3d355d","6576bfd919a70e539046f674","330","
            
        <div style=""text-align: center; position: fixed; top: 5vh; left: 40vw;"">
            <div style=""margin:0 auto; width: 20vw; top: 8vh; font-size: 2vw""> 
            <font color=""green""> Bonus : $2.28 </font>
            </div>
        </div>
    
            <div> Please press any key to continue to the next movie.</div>
        ","arrowleft","ITI","","","","","","",""
"","","","","","html-keyboard-response","211","311896","0.0-7.58-1.58","611b5e9de677ddee915269ac","6573617f270241e5da3d355d","6576bfd919a70e539046f674","653","./stimuli//pack_morph_shapes_1/cat_1/diff_5/ex_1_5_7.gif","arrowleft","response","ArrowLeft","7","1","5","test","true",""
"","","","","","html-keyboard-response","212","313398","0.0-7.58-2.58","611b5e9de677ddee915269ac","6573617f270241e5da3d355d","6576bfd919a70e539046f674","null","<p> <font color=""green"" size=""5vw""> Correct category! </font> <br> <br> <font color=""green"" size=""8vw""> + $0.07 </font> </p>","null","feedback","","","","","","","2.35"
"","","","","","html-keyboard-response","213","314044","0.0-7.59-0.59","611b5e9de677ddee915269ac","6573617f270241e5da3d355d","6576bfd919a70e539046f674","645","
            
        <div style=""text-align: center; position: fixed; top: 5vh; left: 40vw;"">
            <div style=""margin:0 auto; width: 20vw; top: 8vh; font-size: 2vw""> 
            <font color=""green""> Bonus : $2.35 </font>
            </div>
        </div>
    
            <div> Please press any key to continue to the next movie.</div>
        ","arrowleft","ITI","","","","","","",""
"","","","","","html-keyboard-response","214","314962","0.0-7.59-1.59","611b5e9de677ddee915269ac","6573617f270241e5da3d355d","6576bfd919a70e539046f674","918","./stimuli//pack_morph_shapes_1/cat_2/diff_5/ex_2_5_12.gif","arrowright","response","ArrowRight","12","2","5","test","true",""
"","","","","","html-keyboard-response","215","316472","0.0-7.59-2.59","611b5e9de677ddee915269ac","6573617f270241e5da3d355d","6576bfd919a70e539046f674","null","<p> <font color=""green"" size=""5vw""> Correct category! </font> <br> <br> <font color=""green"" size=""8vw""> + $0.06 </font> </p>","null","feedback","","","","","","","2.41"
"","","","","","html-keyboard-response","216","316763","0.0-7.60-0.60","611b5e9de677ddee915269ac","6573617f270241e5da3d355d","6576bfd919a70e539046f674","290","
            
        <div style=""text-align: center; position: fixed; top: 5vh; left: 40vw;"">
            <div style=""margin:0 auto; width: 20vw; top: 8vh; font-size: 2vw""> 
            <font color=""green""> Bonus : $2.41 </font>
            </div>
        </div>
    
            <div> Please press any key to continue to the next movie.</div>
        ","arrowleft","ITI","","","","","","",""
"","","","","","html-keyboard-response","217","317457","0.0-7.60-1.60","611b5e9de677ddee915269ac","6573617f270241e5da3d355d","6576bfd919a70e539046f674","693","./stimuli//pack_morph_shapes_1/cat_1/diff_5/ex_1_5_3.gif","arrowleft","response","ArrowLeft","3","1","5","test","true",""
"","","","","","html-keyboard-response","218","318972","0.0-7.60-2.60","611b5e9de677ddee915269ac","6573617f270241e5da3d355d","6576bfd919a70e539046f674","null","<p> <font color=""green"" size=""5vw""> Correct category! </font> <br> <br> <font color=""green"" size=""8vw""> + $0.07 </font> </p>","null","feedback","","","","","","","2.48"
"","","","","","html-keyboard-response","219","319303","0.0-7.61-0.61","611b5e9de677ddee915269ac","6573617f270241e5da3d355d","6576bfd919a70e539046f674","331","
            
        <div style=""text-align: center; position: fixed; top: 5vh; left: 40vw;"">
            <div style=""margin:0 auto; width: 20vw; top: 8vh; font-size: 2vw""> 
            <font color=""green""> Bonus : $2.48 </font>
            </div>
        </div>
    
            <div> Please press any key to continue to the next movie.</div>
        ","arrowleft","ITI","","","","","","",""
"","","","","","html-keyboard-response","220","319989","0.0-7.61-1.61","611b5e9de677ddee915269ac","6573617f270241e5da3d355d","6576bfd919a70e539046f674","685","./stimuli//pack_morph_shapes_1/cat_2/diff_5/ex_2_5_10.gif","arrowright","response","ArrowRight","10","2","5","test","true",""
"","","","","","html-keyboard-response","221","321499","0.0-7.61-2.61","611b5e9de677ddee915269ac","6573617f270241e5da3d355d","6576bfd919a70e539046f674","null","<p> <font color=""green"" size=""5vw""> Correct category! </font> <br> <br> <font color=""green"" size=""8vw""> + $0.07 </font> </p>","null","feedback","","","","","","","2.55"
"","","","","","html-keyboard-response","222","321870","0.0-7.62-0.62","611b5e9de677ddee915269ac","6573617f270241e5da3d355d","6576bfd919a70e539046f674","371","
            
        <div style=""text-align: center; position: fixed; top: 5vh; left: 40vw;"">
            <div style=""margin:0 auto; width: 20vw; top: 8vh; font-size: 2vw""> 
            <font color=""green""> Bonus : $2.55 </font>
            </div>
        </div>
    
            <div> Please press any key to continue to the next movie.</div>
        ","arrowleft","ITI","","","","","","",""
"","","","","","html-keyboard-response","223","322611","0.0-7.62-1.62","611b5e9de677ddee915269ac","6573617f270241e5da3d355d","6576bfd919a70e539046f674","740","./stimuli//pack_morph_shapes_1/cat_1/diff_5/ex_1_5_15.gif","arrowright","response","ArrowLeft","15","1","5","test","false",""
"","","","","","html-keyboard-response","224","324114","0.0-7.62-2.62","611b5e9de677ddee915269ac","6573617f270241e5da3d355d","6576bfd919a70e539046f674","null","<p> <font color=""red"" size=""5vw""> Wrong category! </font> <br> <br> <font color=""red"" size=""8vw""> - $0.05 </font> </p>","null","feedback","","","","","","","2.5"
"","","","","","html-keyboard-response","225","324405","0.0-7.63-0.63","611b5e9de677ddee915269ac","6573617f270241e5da3d355d","6576bfd919a70e539046f674","291","
            
        <div style=""text-align: center; position: fixed; top: 5vh; left: 40vw;"">
            <div style=""margin:0 auto; width: 20vw; top: 8vh; font-size: 2vw""> 
            <font color=""green""> Bonus : $2.5 </font>
            </div>
        </div>
    
            <div> Please press any key to continue to the next movie.</div>
        ","arrowleft","ITI","","","","","","",""
"","","","","","html-keyboard-response","226","324957","0.0-7.63-1.63","611b5e9de677ddee915269ac","6573617f270241e5da3d355d","6576bfd919a70e539046f674","551","./stimuli//pack_morph_shapes_1/cat_2/diff_5/ex_2_5_12.gif","arrowright","response","ArrowRight","12","2","5","test","true",""
"","","","","","html-keyboard-response","227","326472","0.0-7.63-2.63","611b5e9de677ddee915269ac","6573617f270241e5da3d355d","6576bfd919a70e539046f674","null","<p> <font color=""green"" size=""5vw""> Correct category! </font> <br> <br> <font color=""green"" size=""8vw""> + $0.08 </font> </p>","null","feedback","","","","","","","2.58"
"","","","","","html-keyboard-response","228","327215","0.0-7.64-0.64","611b5e9de677ddee915269ac","6573617f270241e5da3d355d","6576bfd919a70e539046f674","742","
            
        <div style=""text-align: center; position: fixed; top: 5vh; left: 40vw;"">
            <div style=""margin:0 auto; width: 20vw; top: 8vh; font-size: 2vw""> 
            <font color=""green""> Bonus : $2.58 </font>
            </div>
        </div>
    
            <div> Please press any key to continue to the next movie.</div>
        ","arrowleft","ITI","","","","","","",""
"","","","","","html-keyboard-response","229","327896","0.0-7.64-1.64","611b5e9de677ddee915269ac","6573617f270241e5da3d355d","6576bfd919a70e539046f674","681","./stimuli//pack_morph_shapes_1/cat_2/diff_5/ex_2_5_6.gif","arrowright","response","ArrowRight","6","2","5","test","true",""
"","","","","","html-keyboard-response","230","329402","0.0-7.64-2.64","611b5e9de677ddee915269ac","6573617f270241e5da3d355d","6576bfd919a70e539046f674","null","<p> <font color=""green"" size=""5vw""> Correct category! </font> <br> <br> <font color=""green"" size=""8vw""> + $0.07 </font> </p>","null","feedback","","","","","","","2.65"
"","","","","","html-keyboard-response","231","329723","0.0-7.65-0.65","611b5e9de677ddee915269ac","6573617f270241e5da3d355d","6576bfd919a70e539046f674","320","
            
        <div style=""text-align: center; position: fixed; top: 5vh; left: 40vw;"">
            <div style=""margin:0 auto; width: 20vw; top: 8vh; font-size: 2vw""> 
            <font color=""green""> Bonus : $2.65 </font>
            </div>
        </div>
    
            <div> Please press any key to continue to the next movie.</div>
        ","arrowleft","ITI","","","","","","",""
"","","","","","html-keyboard-response","232","330199","0.0-7.65-1.65","611b5e9de677ddee915269ac","6573617f270241e5da3d355d","6576bfd919a70e539046f674","475","./stimuli//pack_morph_shapes_1/cat_2/diff_5/ex_2_5_7.gif","arrowright","response","ArrowRight","7","2","5","test","true",""
"","","","","","html-keyboard-response","233","331713","0.0-7.65-2.65","611b5e9de677ddee915269ac","6573617f270241e5da3d355d","6576bfd919a70e539046f674","null","<p> <font color=""green"" size=""5vw""> Correct category! </font> <br> <br> <font color=""green"" size=""8vw""> + $0.08 </font> </p>","null","feedback","","","","","","","2.73"
"","","","","","html-keyboard-response","234","332094","0.0-7.66-0.66","611b5e9de677ddee915269ac","6573617f270241e5da3d355d","6576bfd919a70e539046f674","380","
            
        <div style=""text-align: center; position: fixed; top: 5vh; left: 40vw;"">
            <div style=""margin:0 auto; width: 20vw; top: 8vh; font-size: 2vw""> 
            <font color=""green""> Bonus : $2.73 </font>
            </div>
        </div>
    
            <div> Please press any key to continue to the next movie.</div>
        ","arrowleft","ITI","","","","","","",""
"","","","","","html-keyboard-response","235","332687","0.0-7.66-1.66","611b5e9de677ddee915269ac","6573617f270241e5da3d355d","6576bfd919a70e539046f674","592","./stimuli//pack_morph_shapes_1/cat_1/diff_5/ex_1_5_9.gif","arrowleft","response","ArrowLeft","9","1","5","test","true",""
"","","","","","html-keyboard-response","236","334200","0.0-7.66-2.66","611b5e9de677ddee915269ac","6573617f270241e5da3d355d","6576bfd919a70e539046f674","null","<p> <font color=""green"" size=""5vw""> Correct category! </font> <br> <br> <font color=""green"" size=""8vw""> + $0.07 </font> </p>","null","feedback","","","","","","","2.8"
"","","","","","html-keyboard-response","237","334500","0.0-7.67-0.67","611b5e9de677ddee915269ac","6573617f270241e5da3d355d","6576bfd919a70e539046f674","300","
            
        <div style=""text-align: center; position: fixed; top: 5vh; left: 40vw;"">
            <div style=""margin:0 auto; width: 20vw; top: 8vh; font-size: 2vw""> 
            <font color=""green""> Bonus : $2.8 </font>
            </div>
        </div>
    
            <div> Please press any key to continue to the next movie.</div>
        ","arrowright","ITI","","","","","","",""
"","","","","","html-keyboard-response","238","335196","0.0-7.67-1.67","611b5e9de677ddee915269ac","6573617f270241e5da3d355d","6576bfd919a70e539046f674","695","./stimuli//pack_morph_shapes_1/cat_1/diff_5/ex_1_5_1.gif","arrowleft","response","ArrowLeft","1","1","5","test","true",""
"","","","","","html-keyboard-response","239","336709","0.0-7.67-2.67","611b5e9de677ddee915269ac","6573617f270241e5da3d355d","6576bfd919a70e539046f674","null","<p> <font color=""green"" size=""5vw""> Correct category! </font> <br> <br> <font color=""green"" size=""8vw""> + $0.07 </font> </p>","null","feedback","","","","","","","2.87"
"","","","","","html-keyboard-response","240","337054","0.0-7.68-0.68","611b5e9de677ddee915269ac","6573617f270241e5da3d355d","6576bfd919a70e539046f674","344","
            
        <div style=""text-align: center; position: fixed; top: 5vh; left: 40vw;"">
            <div style=""margin:0 auto; width: 20vw; top: 8vh; font-size: 2vw""> 
            <font color=""green""> Bonus : $2.87 </font>
            </div>
        </div>
    
            <div> Please press any key to continue to the next movie.</div>
        ","arrowleft","ITI","","","","","","",""
"","","","","","html-keyboard-response","241","337832","0.0-7.68-1.68","611b5e9de677ddee915269ac","6573617f270241e5da3d355d","6576bfd919a70e539046f674","778","./stimuli//pack_morph_shapes_1/cat_2/diff_5/ex_2_5_16.gif","arrowright","response","ArrowRight","16","2","5","test","true",""
"","","","","","html-keyboard-response","242","339345","0.0-7.68-2.68","611b5e9de677ddee915269ac","6573617f270241e5da3d355d","6576bfd919a70e539046f674","null","<p> <font color=""green"" size=""5vw""> Correct category! </font> <br> <br> <font color=""green"" size=""8vw""> + $0.07 </font> </p>","null","feedback","","","","","","","2.94"
"","","","","","html-keyboard-response","243","339693","0.0-7.69-0.69","611b5e9de677ddee915269ac","6573617f270241e5da3d355d","6576bfd919a70e539046f674","347","
            
        <div style=""text-align: center; position: fixed; top: 5vh; left: 40vw;"">
            <div style=""margin:0 auto; width: 20vw; top: 8vh; font-size: 2vw""> 
            <font color=""green""> Bonus : $2.94 </font>
            </div>
        </div>
    
            <div> Please press any key to continue to the next movie.</div>
        ","arrowleft","ITI","","","","","","",""
"","","","","","html-keyboard-response","244","340703","0.0-7.69-1.69","611b5e9de677ddee915269ac","6573617f270241e5da3d355d","6576bfd919a70e539046f674","1010","./stimuli//pack_morph_shapes_1/cat_2/diff_5/ex_2_5_5.gif","arrowright","response","ArrowRight","5","2","5","test","true",""
"","","","","","html-keyboard-response","245","342208","0.0-7.69-2.69","611b5e9de677ddee915269ac","6573617f270241e5da3d355d","6576bfd919a70e539046f674","null","<p> <font color=""green"" size=""5vw""> Correct category! </font> <br> <br> <font color=""green"" size=""8vw""> + $0.06 </font> </p>","null","feedback","","","","","","","3"
"","","","","","html-keyboard-response","246","342649","0.0-7.70-0.70","611b5e9de677ddee915269ac","6573617f270241e5da3d355d","6576bfd919a70e539046f674","440","
            
        <div style=""text-align: center; position: fixed; top: 5vh; left: 40vw;"">
            <div style=""margin:0 auto; width: 20vw; top: 8vh; font-size: 2vw""> 
            <font color=""green""> Bonus : $3 </font>
            </div>
        </div>
    
            <div> Please press any key to continue to the next movie.</div>
        ","arrowleft","ITI","","","","","","",""
"","","","","","html-keyboard-response","247","343339","0.0-7.70-1.70","611b5e9de677ddee915269ac","6573617f270241e5da3d355d","6576bfd919a70e539046f674","690","./stimuli//pack_morph_shapes_1/cat_1/diff_5/ex_1_5_5.gif","arrowleft","response","ArrowLeft","5","1","5","test","true",""
"","","","","","html-keyboard-response","248","344851","0.0-7.70-2.70","611b5e9de677ddee915269ac","6573617f270241e5da3d355d","6576bfd919a70e539046f674","null","<p> <font color=""green"" size=""5vw""> Correct category! </font> <br> <br> <font color=""green"" size=""8vw""> + $0.07 </font> </p>","null","feedback","","","","","","","3.07"
"","","","","","html-keyboard-response","249","345616","0.0-7.71-0.71","611b5e9de677ddee915269ac","6573617f270241e5da3d355d","6576bfd919a70e539046f674","765","
            
        <div style=""text-align: center; position: fixed; top: 5vh; left: 40vw;"">
            <div style=""margin:0 auto; width: 20vw; top: 8vh; font-size: 2vw""> 
            <font color=""green""> Bonus : $3.07 </font>
            </div>
        </div>
    
            <div> Please press any key to continue to the next movie.</div>
        ","arrowleft","ITI","","","","","","",""
"","","","","","html-keyboard-response","250","346352","0.0-7.71-1.71","611b5e9de677ddee915269ac","6573617f270241e5da3d355d","6576bfd919a70e539046f674","735","./stimuli//pack_morph_shapes_1/cat_2/diff_5/ex_2_5_6.gif","arrowright","response","ArrowRight","6","2","5","test","true",""
"","","","","","html-keyboard-response","251","347860","0.0-7.71-2.71","611b5e9de677ddee915269ac","6573617f270241e5da3d355d","6576bfd919a70e539046f674","null","<p> <font color=""green"" size=""5vw""> Correct category! </font> <br> <br> <font color=""green"" size=""8vw""> + $0.07 </font> </p>","null","feedback","","","","","","","3.14"
"","","","","","html-keyboard-response","252","348495","0.0-7.72-0.72","611b5e9de677ddee915269ac","6573617f270241e5da3d355d","6576bfd919a70e539046f674","634","
            
        <div style=""text-align: center; position: fixed; top: 5vh; left: 40vw;"">
            <div style=""margin:0 auto; width: 20vw; top: 8vh; font-size: 2vw""> 
            <font color=""green""> Bonus : $3.14 </font>
            </div>
        </div>
    
            <div> Please press any key to continue to the next movie.</div>
        ","arrowleft","ITI","","","","","","",""
"","","","","","html-keyboard-response","253","349043","0.0-7.72-1.72","611b5e9de677ddee915269ac","6573617f270241e5da3d355d","6576bfd919a70e539046f674","547","./stimuli//pack_morph_shapes_1/cat_2/diff_5/ex_2_5_6.gif","arrowright","response","ArrowRight","6","2","5","test","true",""
