"success","timeout","failed_images","failed_audio","failed_video","trial_type","trial_index","time_elapsed","internal_node_id","subject_id","study_id","session_id","rt","stimulus","response","task","correct_response","exemplar_ID","category","difficulty","phase","correct","bonus"
"true","false","[]","[]","[]","preload","0","0","0.0-0.0","5b5b02c14e945800017d5da1","6573617f270241e5da3d355d","6576bff81728a9b6e3f015b6","","","","","","","","","","",""
"","","","","","html-keyboard-response","1","3818","0.0-1.0","5b5b02c14e945800017d5da1","6573617f270241e5da3d355d","6576bff81728a9b6e3f015b6","3816","Welcome to the Category Learning experiment! Press any key to continue."," ","welcome","","","","","","",""
"","","","","","html-keyboard-response","2","28963","0.0-2.0","5b5b02c14e945800017d5da1","6573617f270241e5da3d355d","6576bff81728a9b6e3f015b6","25142","
            <p>You will be shown movies. Each movie contains a sequence of shapes changing form. 
            <br> Some shapes are category A, some are category B. <b> Within a single movie, all shapes belong to the same category. </b>
            <br> You will not know in advance which category the shapes of each movie belong to.</p>
            <p> While you watch a movie, you have to guess the category that its shapes belong to <b>(left arrow for category A, right arrow for category B)</b></p>
            <p> After you choose, the screen will show you whether you were correct or not.</p>
            <p>Press any key to continue.</p>
            "," ","introduction_1","","","","","","",""
"","","","","","html-keyboard-response","3","35867","0.0-3.0","5b5b02c14e945800017d5da1","6573617f270241e5da3d355d","6576bff81728a9b6e3f015b6","6901","
              <p><b>You will receive a bonus payment for each correct answer! The faster you answer the higher the bonus will be!</b></p>
              <p> So you can increase your bonus by guessing as quickly and accurately as possible.</p>
              <p><b>You will lose $0.05 from your bonus payment for each incorrect answer! The bonus can not become less that $0.</b> </p>
              <p>Press any key to continue.</p>
              "," ","introduction_2","","","","","","",""
"","","","","","html-keyboard-response","4","40921","0.0-4.0","5b5b02c14e945800017d5da1","6573617f270241e5da3d355d","6576bff81728a9b6e3f015b6","5052","
            <p> <b>The first 10 trials are a practice round that will not count towards your bonus payment.</b></p>
            <p> You will be notified when practice finishes and the test begins. </p>
            <p> Press any key to begin the practice round.</p>
            "," ","introduction_3","","","","","","",""
"","","","","","html-keyboard-response","5","59245","0.0-5.0-0.0","5b5b02c14e945800017d5da1","6573617f270241e5da3d355d","6576bff81728a9b6e3f015b6","18323","
            
        <div style=""text-align: center; position: fixed; top: 5vh; left: 40vw;"">
            <div style=""margin:0 auto; width: 20vw; top: 8vh; font-size: 2vw""> 
            <font color=""green""> Bonus : $0 </font>
            </div>
        </div>
    
            <div> Please press any key to continue to the next movie.</div>
        "," ","ITI","","","","","","",""
"","","","","","html-keyboard-response","6","63275","0.0-5.0-1.0","5b5b02c14e945800017d5da1","6573617f270241e5da3d355d","6576bff81728a9b6e3f015b6","null","./stimuli//pack_morph_shapes_1/cat_1/diff_2/ex_1_2_16.gif","null","response","ArrowLeft","16","1","2","train","false",""
"","","","","","html-keyboard-response","7","64775","0.0-5.0-2.0","5b5b02c14e945800017d5da1","6573617f270241e5da3d355d","6576bff81728a9b6e3f015b6","null","<p> <font color=""red"" size=""5vw""> Time out! </font> <br> Please try to respond as quickly as possible. </p>","null","feedback","","","","","","","0"
"","","","","","html-keyboard-response","8","67315","0.0-5.0-0.1","5b5b02c14e945800017d5da1","6573617f270241e5da3d355d","6576bff81728a9b6e3f015b6","2540","
            
        <div style=""text-align: center; position: fixed; top: 5vh; left: 40vw;"">
            <div style=""margin:0 auto; width: 20vw; top: 8vh; font-size: 2vw""> 
            <font color=""green""> Bonus : $0 </font>
            </div>
        </div>
    
            <div> Please press any key to continue to the next movie.</div>
        "," ","ITI","","","","","","",""
"","","","","","html-keyboard-response","9","68681","0.0-5.0-1.1","5b5b02c14e945800017d5da1","6573617f270241e5da3d355d","6576bff81728a9b6e3f015b6","1365","./stimuli//pack_morph_shapes_1/cat_2/diff_2/ex_2_2_2.gif","arrowleft","response","ArrowRight","2","2","2","train","false",""
"","","","","","html-keyboard-response","10","70190","0.0-5.0-2.1","5b5b02c14e945800017d5da1","6573617f270241e5da3d355d","6576bff81728a9b6e3f015b6","null","<p> <font color=""red"" size=""5vw""> Wrong category! </font> </p>","null","feedback","","","","","","","0"
"","","","","","html-keyboard-response","11","71270","0.0-5.0-0.2","5b5b02c14e945800017d5da1","6573617f270241e5da3d355d","6576bff81728a9b6e3f015b6","1079","
            
        <div style=""text-align: center; position: fixed; top: 5vh; left: 40vw;"">
            <div style=""margin:0 auto; width: 20vw; top: 8vh; font-size: 2vw""> 
            <font color=""green""> Bonus : $0 </font>
            </div>
        </div>
    
            <div> Please press any key to continue to the next movie.</div>
        "," ","ITI","","","","","","",""
"","","","","","html-keyboard-response","12","72788","0.0-5.0-1.2","5b5b02c14e945800017d5da1","6573617f270241e5da3d355d","6576bff81728a9b6e3f015b6","1515","./stimuli//pack_morph_shapes_1/cat_2/diff_1/ex_2_1_11.gif","arrowright","response","ArrowRight","11","2","1","train","true",""
"","","","","","html-keyboard-response","13","74299","0.0-5.0-2.2","5b5b02c14e945800017d5da1","6573617f270241e5da3d355d","6576bff81728a9b6e3f015b6","null","<p> <font color=""green"" size=""5vw""> Correct category! </font> </p>","null","feedback","","","","","","","0"
"","","","","","html-keyboard-response","14","75636","0.0-5.0-0.3","5b5b02c14e945800017d5da1","6573617f270241e5da3d355d","6576bff81728a9b6e3f015b6","1336","
            
        <div style=""text-align: center; position: fixed; top: 5vh; left: 40vw;"">
            <div style=""margin:0 auto; width: 20vw; top: 8vh; font-size: 2vw""> 
            <font color=""green""> Bonus : $0 </font>
            </div>
        </div>
    
            <div> Please press any key to continue to the next movie.</div>
        "," ","ITI","","","","","","",""
"","","","","","html-keyboard-response","15","76662","0.0-5.0-1.3","5b5b02c14e945800017d5da1","6573617f270241e5da3d355d","6576bff81728a9b6e3f015b6","1026","./stimuli//pack_morph_shapes_1/cat_1/diff_1/ex_1_1_6.gif","arrowleft","response","ArrowLeft","6","1","1","train","true",""
"","","","","","html-keyboard-response","16","78165","0.0-5.0-2.3","5b5b02c14e945800017d5da1","6573617f270241e5da3d355d","6576bff81728a9b6e3f015b6","null","<p> <font color=""green"" size=""5vw""> Correct category! </font> </p>","null","feedback","","","","","","","0"
"","","","","","html-keyboard-response","17","78801","0.0-5.0-0.4","5b5b02c14e945800017d5da1","6573617f270241e5da3d355d","6576bff81728a9b6e3f015b6","636","
            
        <div style=""text-align: center; position: fixed; top: 5vh; left: 40vw;"">
            <div style=""margin:0 auto; width: 20vw; top: 8vh; font-size: 2vw""> 
            <font color=""green""> Bonus : $0 </font>
            </div>
        </div>
    
            <div> Please press any key to continue to the next movie.</div>
        "," ","ITI","","","","","","",""
"","","","","","html-keyboard-response","18","79502","0.0-5.0-1.4","5b5b02c14e945800017d5da1","6573617f270241e5da3d355d","6576bff81728a9b6e3f015b6","700","./stimuli//pack_morph_shapes_1/cat_2/diff_1/ex_2_1_15.gif","arrowright","response","ArrowRight","15","2","1","train","true",""
"","","","","","html-keyboard-response","19","81014","0.0-5.0-2.4","5b5b02c14e945800017d5da1","6573617f270241e5da3d355d","6576bff81728a9b6e3f015b6","null","<p> <font color=""green"" size=""5vw""> Correct category! </font> </p>","null","feedback","","","","","","","0"
"","","","","","html-keyboard-response","20","81636","0.0-5.0-0.5","5b5b02c14e945800017d5da1","6573617f270241e5da3d355d","6576bff81728a9b6e3f015b6","620","
            
        <div style=""text-align: center; position: fixed; top: 5vh; left: 40vw;"">
            <div style=""margin:0 auto; width: 20vw; top: 8vh; font-size: 2vw""> 
            <font color=""green""> Bonus : $0 </font>
            </div>
        </div>
    
            <div> Please press any key to continue to the next movie.</div>
        "," ","ITI","","","","","","",""
"","","","","","html-keyboard-response","21","82647","0.0-5.0-1.5","5b5b02c14e945800017d5da1","6573617f270241e5da3d355d","6576bff81728a9b6e3f015b6","1011","./stimuli//pack_morph_shapes_1/cat_2/diff_2/ex_2_2_17.gif","arrowright","response","ArrowRight","17","2","2","train","true",""
"","","","","","html-keyboard-response","22","84153","0.0-5.0-2.5","5b5b02c14e945800017d5da1","6573617f270241e5da3d355d","6576bff81728a9b6e3f015b6","null","<p> <font color=""green"" size=""5vw""> Correct category! </font> </p>","null","feedback","","","","","","","0"
"","","","","","html-keyboard-response","23","84764","0.0-5.0-0.6","5b5b02c14e945800017d5da1","6573617f270241e5da3d355d","6576bff81728a9b6e3f015b6","610","
            
        <div style=""text-align: center; position: fixed; top: 5vh; left: 40vw;"">
            <div style=""margin:0 auto; width: 20vw; top: 8vh; font-size: 2vw""> 
            <font color=""green""> Bonus : $0 </font>
            </div>
        </div>
    
            <div> Please press any key to continue to the next movie.</div>
        "," ","ITI","","","","","","",""
"","","","","","html-keyboard-response","24","85414","0.0-5.0-1.6","5b5b02c14e945800017d5da1","6573617f270241e5da3d355d","6576bff81728a9b6e3f015b6","648","./stimuli//pack_morph_shapes_1/cat_1/diff_1/ex_1_1_3.gif","arrowleft","response","ArrowLeft","3","1","1","train","true",""
"","","","","","html-keyboard-response","25","86928","0.0-5.0-2.6","5b5b02c14e945800017d5da1","6573617f270241e5da3d355d","6576bff81728a9b6e3f015b6","null","<p> <font color=""green"" size=""5vw""> Correct category! </font> </p>","null","feedback","","","","","","","0"
"","","","","","html-keyboard-response","26","87486","0.0-5.0-0.7","5b5b02c14e945800017d5da1","6573617f270241e5da3d355d","6576bff81728a9b6e3f015b6","557","
            
        <div style=""text-align: center; position: fixed; top: 5vh; left: 40vw;"">
            <div style=""margin:0 auto; width: 20vw; top: 8vh; font-size: 2vw""> 
            <font color=""green""> Bonus : $0 </font>
            </div>
        </div>
    
            <div> Please press any key to continue to the next movie.</div>
        "," ","ITI","","","","","","",""
"","","","","","html-keyboard-response","27","88186","0.0-5.0-1.7","5b5b02c14e945800017d5da1","6573617f270241e5da3d355d","6576bff81728a9b6e3f015b6","699","./stimuli//pack_morph_shapes_1/cat_1/diff_1/ex_1_1_4.gif","arrowleft","response","ArrowLeft","4","1","1","train","true",""
"","","","","","html-keyboard-response","28","89695","0.0-5.0-2.7","5b5b02c14e945800017d5da1","6573617f270241e5da3d355d","6576bff81728a9b6e3f015b6","null","<p> <font color=""green"" size=""5vw""> Correct category! </font> </p>","null","feedback","","","","","","","0"
"","","","","","html-keyboard-response","29","90178","0.0-5.0-0.8","5b5b02c14e945800017d5da1","6573617f270241e5da3d355d","6576bff81728a9b6e3f015b6","483","
            
        <div style=""text-align: center; position: fixed; top: 5vh; left: 40vw;"">
            <div style=""margin:0 auto; width: 20vw; top: 8vh; font-size: 2vw""> 
            <font color=""green""> Bonus : $0 </font>
            </div>
        </div>
    
            <div> Please press any key to continue to the next movie.</div>
        "," ","ITI","","","","","","",""
"","","","","","html-keyboard-response","30","91707","0.0-5.0-1.8","5b5b02c14e945800017d5da1","6573617f270241e5da3d355d","6576bff81728a9b6e3f015b6","1527","./stimuli//pack_morph_shapes_1/cat_2/diff_1/ex_2_1_9.gif","arrowright","response","ArrowRight","9","2","1","train","true",""
"","","","","","html-keyboard-response","31","93210","0.0-5.0-2.8","5b5b02c14e945800017d5da1","6573617f270241e5da3d355d","6576bff81728a9b6e3f015b6","null","<p> <font color=""green"" size=""5vw""> Correct category! </font> </p>","null","feedback","","","","","","","0"
"","","","","","html-keyboard-response","32","94071","0.0-5.0-0.9","5b5b02c14e945800017d5da1","6573617f270241e5da3d355d","6576bff81728a9b6e3f015b6","861","
            
        <div style=""text-align: center; position: fixed; top: 5vh; left: 40vw;"">
            <div style=""margin:0 auto; width: 20vw; top: 8vh; font-size: 2vw""> 
            <font color=""green""> Bonus : $0 </font>
            </div>
        </div>
    
            <div> Please press any key to continue to the next movie.</div>
        "," ","ITI","","","","","","",""
"","","","","","html-keyboard-response","33","95088","0.0-5.0-1.9","5b5b02c14e945800017d5da1","6573617f270241e5da3d355d","6576bff81728a9b6e3f015b6","1016","./stimuli//pack_morph_shapes_1/cat_1/diff_2/ex_1_2_2.gif","arrowleft","response","ArrowLeft","2","1","2","train","true",""
"","","","","","html-keyboard-response","34","96591","0.0-5.0-2.9","5b5b02c14e945800017d5da1","6573617f270241e5da3d355d","6576bff81728a9b6e3f015b6","null","<p> <font color=""green"" size=""5vw""> Correct category! </font> </p>","null","feedback","","","","","","","0"
"","","","","","html-keyboard-response","35","100093","0.0-6.0","5b5b02c14e945800017d5da1","6573617f270241e5da3d355d","6576bff81728a9b6e3f015b6","3501","
            <b> <p> The practice round has finished.</p>
            <b> <p> For the rest of the experiment you will receive a bonus payment for each correct answer, which will be higher the faster you answer!</b></p>
            <b> </p> Also you will lose $0.05 from your bonus payment for each incorrect answer!</p>
            <p> Press any key to begin the test. </p>
            "," ","intermission","","","","","","",""
"","","","","","html-keyboard-response","36","101203","0.0-7.0-0.0","5b5b02c14e945800017d5da1","6573617f270241e5da3d355d","6576bff81728a9b6e3f015b6","1109","
            
        <div style=""text-align: center; position: fixed; top: 5vh; left: 40vw;"">
            <div style=""margin:0 auto; width: 20vw; top: 8vh; font-size: 2vw""> 
            <font color=""green""> Bonus : $0 </font>
            </div>
        </div>
    
            <div> Please press any key to continue to the next movie.</div>
        "," ","ITI","","","","","","",""
"","","","","","html-keyboard-response","37","102094","0.0-7.0-1.0","5b5b02c14e945800017d5da1","6573617f270241e5da3d355d","6576bff81728a9b6e3f015b6","889","./stimuli//pack_morph_shapes_1/cat_1/diff_1/ex_1_1_8.gif","arrowleft","response","ArrowLeft","8","1","1","test","true",""
"","","","","","html-keyboard-response","38","103598","0.0-7.0-2.0","5b5b02c14e945800017d5da1","6573617f270241e5da3d355d","6576bff81728a9b6e3f015b6","null","<p> <font color=""green"" size=""5vw""> Correct category! </font> <br> <br> <font color=""green"" size=""8vw""> + $0.06 </font> </p>","null","feedback","","","","","","","0.06"
"","","","","","html-keyboard-response","39","104524","0.0-7.1-0.1","5b5b02c14e945800017d5da1","6573617f270241e5da3d355d","6576bff81728a9b6e3f015b6","926","
            
        <div style=""text-align: center; position: fixed; top: 5vh; left: 40vw;"">
            <div style=""margin:0 auto; width: 20vw; top: 8vh; font-size: 2vw""> 
            <font color=""green""> Bonus : $0.06 </font>
            </div>
        </div>
    
            <div> Please press any key to continue to the next movie.</div>
        "," ","ITI","","","","","","",""
"","","","","","html-keyboard-response","40","105216","0.0-7.1-1.1","5b5b02c14e945800017d5da1","6573617f270241e5da3d355d","6576bff81728a9b6e3f015b6","690","./stimuli//pack_morph_shapes_1/cat_2/diff_1/ex_2_1_16.gif","arrowright","response","ArrowRight","16","2","1","test","true",""
"","","","","","html-keyboard-response","41","106723","0.0-7.1-2.1","5b5b02c14e945800017d5da1","6573617f270241e5da3d355d","6576bff81728a9b6e3f015b6","null","<p> <font color=""green"" size=""5vw""> Correct category! </font> <br> <br> <font color=""green"" size=""8vw""> + $0.07 </font> </p>","null","feedback","","","","","","","0.13"
"","","","","","html-keyboard-response","42","107242","0.0-7.2-0.2","5b5b02c14e945800017d5da1","6573617f270241e5da3d355d","6576bff81728a9b6e3f015b6","517","
            
        <div style=""text-align: center; position: fixed; top: 5vh; left: 40vw;"">
            <div style=""margin:0 auto; width: 20vw; top: 8vh; font-size: 2vw""> 
            <font color=""green""> Bonus : $0.13 </font>
            </div>
        </div>
    
            <div> Please press any key to continue to the next movie.</div>
        "," ","ITI","","","","","","",""
"","","","","","html-keyboard-response","43","107942","0.0-7.2-1.2","5b5b02c14e945800017d5da1","6573617f270241e5da3d355d","6576bff81728a9b6e3f015b6","699","./stimuli//pack_morph_shapes_1/cat_1/diff_1/ex_1_1_15.gif","arrowleft","response","ArrowLeft","15","1","1","test","true",""
"","","","","","html-keyboard-response","44","109455","0.0-7.2-2.2","5b5b02c14e945800017d5da1","6573617f270241e5da3d355d","6576bff81728a9b6e3f015b6","null","<p> <font color=""green"" size=""5vw""> Correct category! </font> <br> <br> <font color=""green"" size=""8vw""> + $0.07 </font> </p>","null","feedback","","","","","","","0.2"
"","","","","","html-keyboard-response","45","109971","0.0-7.3-0.3","5b5b02c14e945800017d5da1","6573617f270241e5da3d355d","6576bff81728a9b6e3f015b6","516","
            
        <div style=""text-align: center; position: fixed; top: 5vh; left: 40vw;"">
            <div style=""margin:0 auto; width: 20vw; top: 8vh; font-size: 2vw""> 
            <font color=""green""> Bonus : $0.2 </font>
            </div>
        </div>
    
            <div> Please press any key to continue to the next movie.</div>
        "," ","ITI","","","","","","",""
"","","","","","html-keyboard-response","46","110668","0.0-7.3-1.3","5b5b02c14e945800017d5da1","6573617f270241e5da3d355d","6576bff81728a9b6e3f015b6","696","./stimuli//pack_morph_shapes_1/cat_1/diff_1/ex_1_1_11.gif","arrowleft","response","ArrowLeft","11","1","1","test","true",""
"","","","","","html-keyboard-response","47","112174","0.0-7.3-2.3","5b5b02c14e945800017d5da1","6573617f270241e5da3d355d","6576bff81728a9b6e3f015b6","null","<p> <font color=""green"" size=""5vw""> Correct category! </font> <br> <br> <font color=""green"" size=""8vw""> + $0.07 </font> </p>","null","feedback","","","","","","","0.27"
"","","","","","html-keyboard-response","48","112492","0.0-7.4-0.4","5b5b02c14e945800017d5da1","6573617f270241e5da3d355d","6576bff81728a9b6e3f015b6","319","
            
        <div style=""text-align: center; position: fixed; top: 5vh; left: 40vw;"">
            <div style=""margin:0 auto; width: 20vw; top: 8vh; font-size: 2vw""> 
            <font color=""green""> Bonus : $0.27 </font>
            </div>
        </div>
    
            <div> Please press any key to continue to the next movie.</div>
        "," ","ITI","","","","","","",""
"","","","","","html-keyboard-response","49","113095","0.0-7.4-1.4","5b5b02c14e945800017d5da1","6573617f270241e5da3d355d","6576bff81728a9b6e3f015b6","601","./stimuli//pack_morph_shapes_1/cat_1/diff_1/ex_1_1_12.gif","arrowleft","response","ArrowLeft","12","1","1","test","true",""
"","","","","","html-keyboard-response","50","114599","0.0-7.4-2.4","5b5b02c14e945800017d5da1","6573617f270241e5da3d355d","6576bff81728a9b6e3f015b6","null","<p> <font color=""green"" size=""5vw""> Correct category! </font> <br> <br> <font color=""green"" size=""8vw""> + $0.07 </font> </p>","null","feedback","","","","","","","0.34"
"","","","","","html-keyboard-response","51","115045","0.0-7.5-0.5","5b5b02c14e945800017d5da1","6573617f270241e5da3d355d","6576bff81728a9b6e3f015b6","444","
            
        <div style=""text-align: center; position: fixed; top: 5vh; left: 40vw;"">
            <div style=""margin:0 auto; width: 20vw; top: 8vh; font-size: 2vw""> 
            <font color=""green""> Bonus : $0.34 </font>
            </div>
        </div>
    
            <div> Please press any key to continue to the next movie.</div>
        "," ","ITI","","","","","","",""
"","","","","","html-keyboard-response","52","115619","0.0-7.5-1.5","5b5b02c14e945800017d5da1","6573617f270241e5da3d355d","6576bff81728a9b6e3f015b6","574","./stimuli//pack_morph_shapes_1/cat_2/diff_2/ex_2_2_11.gif","arrowright","response","ArrowRight","11","2","2","test","true",""
"","","","","","html-keyboard-response","53","117132","0.0-7.5-2.5","5b5b02c14e945800017d5da1","6573617f270241e5da3d355d","6576bff81728a9b6e3f015b6","null","<p> <font color=""green"" size=""5vw""> Correct category! </font> <br> <br> <font color=""green"" size=""8vw""> + $0.08 </font> </p>","null","feedback","","","","","","","0.42"
"","","","","","html-keyboard-response","54","117721","0.0-7.6-0.6","5b5b02c14e945800017d5da1","6573617f270241e5da3d355d","6576bff81728a9b6e3f015b6","588","
            
        <div style=""text-align: center; position: fixed; top: 5vh; left: 40vw;"">
            <div style=""margin:0 auto; width: 20vw; top: 8vh; font-size: 2vw""> 
            <font color=""green""> Bonus : $0.42 </font>
            </div>
        </div>
    
            <div> Please press any key to continue to the next movie.</div>
        "," ","ITI","","","","","","",""
"","","","","","html-keyboard-response","55","118592","0.0-7.6-1.6","5b5b02c14e945800017d5da1","6573617f270241e5da3d355d","6576bff81728a9b6e3f015b6","868","./stimuli//pack_morph_shapes_1/cat_2/diff_2/ex_2_2_1.gif","arrowright","response","ArrowRight","1","2","2","test","true",""
"","","","","","html-keyboard-response","56","120097","0.0-7.6-2.6","5b5b02c14e945800017d5da1","6573617f270241e5da3d355d","6576bff81728a9b6e3f015b6","null","<p> <font color=""green"" size=""5vw""> Correct category! </font> <br> <br> <font color=""green"" size=""8vw""> + $0.06 </font> </p>","null","feedback","","","","","","","0.48"
"","","","","","html-keyboard-response","57","120607","0.0-7.7-0.7","5b5b02c14e945800017d5da1","6573617f270241e5da3d355d","6576bff81728a9b6e3f015b6","509","
            
        <div style=""text-align: center; position: fixed; top: 5vh; left: 40vw;"">
            <div style=""margin:0 auto; width: 20vw; top: 8vh; font-size: 2vw""> 
            <font color=""green""> Bonus : $0.48 </font>
            </div>
        </div>
    
            <div> Please press any key to continue to the next movie.</div>
        "," ","ITI","","","","","","",""
"","","","","","html-keyboard-response","58","121505","0.0-7.7-1.7","5b5b02c14e945800017d5da1","6573617f270241e5da3d355d","6576bff81728a9b6e3f015b6","896","./stimuli//pack_morph_shapes_1/cat_2/diff_2/ex_2_2_3.gif","arrowright","response","ArrowRight","3","2","2","test","true",""
"","","","","","html-keyboard-response","59","123018","0.0-7.7-2.7","5b5b02c14e945800017d5da1","6573617f270241e5da3d355d","6576bff81728a9b6e3f015b6","null","<p> <font color=""green"" size=""5vw""> Correct category! </font> <br> <br> <font color=""green"" size=""8vw""> + $0.06 </font> </p>","null","feedback","","","","","","","0.54"
"","","","","","html-keyboard-response","60","123445","0.0-7.8-0.8","5b5b02c14e945800017d5da1","6573617f270241e5da3d355d","6576bff81728a9b6e3f015b6","427","
            
        <div style=""text-align: center; position: fixed; top: 5vh; left: 40vw;"">
            <div style=""margin:0 auto; width: 20vw; top: 8vh; font-size: 2vw""> 
            <font color=""green""> Bonus : $0.54 </font>
            </div>
        </div>
    
            <div> Please press any key to continue to the next movie.</div>
        "," ","ITI","","","","","","",""
"","","","","","html-keyboard-response","61","124187","0.0-7.8-1.8","5b5b02c14e945800017d5da1","6573617f270241e5da3d355d","6576bff81728a9b6e3f015b6","740","./stimuli//pack_morph_shapes_1/cat_1/diff_2/ex_1_2_1.gif","arrowleft","response","ArrowLeft","1","1","2","test","true",""
"","","","","","html-keyboard-response","62","125689","0.0-7.8-2.8","5b5b02c14e945800017d5da1","6573617f270241e5da3d355d","6576bff81728a9b6e3f015b6","null","<p> <font color=""green"" size=""5vw""> Correct category! </font> <br> <br> <font color=""green"" size=""8vw""> + $0.07 </font> </p>","null","feedback","","","","","","","0.61"
"","","","","","html-keyboard-response","63","126179","0.0-7.9-0.9","5b5b02c14e945800017d5da1","6573617f270241e5da3d355d","6576bff81728a9b6e3f015b6","490","
            
        <div style=""text-align: center; position: fixed; top: 5vh; left: 40vw;"">
            <div style=""margin:0 auto; width: 20vw; top: 8vh; font-size: 2vw""> 
            <font color=""green""> Bonus : $0.61 </font>
            </div>
        </div>
    
            <div> Please press any key to continue to the next movie.</div>
        "," ","ITI","","","","","","",""
"","","","","","html-keyboard-response","64","126850","0.0-7.9-1.9","5b5b02c14e945800017d5da1","6573617f270241e5da3d355d","6576bff81728a9b6e3f015b6","670","./stimuli//pack_morph_shapes_1/cat_1/diff_2/ex_1_2_8.gif","arrowleft","response","ArrowLeft","8","1","2","test","true",""
"","","","","","html-keyboard-response","65","128366","0.0-7.9-2.9","5b5b02c14e945800017d5da1","6573617f270241e5da3d355d","6576bff81728a9b6e3f015b6","null","<p> <font color=""green"" size=""5vw""> Correct category! </font> <br> <br> <font color=""green"" size=""8vw""> + $0.07 </font> </p>","null","feedback","","","","","","","0.68"
"","","","","","html-keyboard-response","66","128752","0.0-7.10-0.10","5b5b02c14e945800017d5da1","6573617f270241e5da3d355d","6576bff81728a9b6e3f015b6","385","
            
        <div style=""text-align: center; position: fixed; top: 5vh; left: 40vw;"">
            <div style=""margin:0 auto; width: 20vw; top: 8vh; font-size: 2vw""> 
            <font color=""green""> Bonus : $0.68 </font>
            </div>
        </div>
    
            <div> Please press any key to continue to the next movie.</div>
        "," ","ITI","","","","","","",""
"","","","","","html-keyboard-response","67","129352","0.0-7.10-1.10","5b5b02c14e945800017d5da1","6573617f270241e5da3d355d","6576bff81728a9b6e3f015b6","598","./stimuli//pack_morph_shapes_1/cat_1/diff_3/ex_1_3_3.gif","arrowleft","response","ArrowLeft","3","1","3","test","true",""
"","","","","","html-keyboard-response","68","130857","0.0-7.10-2.10","5b5b02c14e945800017d5da1","6573617f270241e5da3d355d","6576bff81728a9b6e3f015b6","null","<p> <font color=""green"" size=""5vw""> Correct category! </font> <br> <br> <font color=""green"" size=""8vw""> + $0.07 </font> </p>","null","feedback","","","","","","","0.75"
"","","","","","html-keyboard-response","69","131308","0.0-7.11-0.11","5b5b02c14e945800017d5da1","6573617f270241e5da3d355d","6576bff81728a9b6e3f015b6","450","
            
        <div style=""text-align: center; position: fixed; top: 5vh; left: 40vw;"">
            <div style=""margin:0 auto; width: 20vw; top: 8vh; font-size: 2vw""> 
            <font color=""green""> Bonus : $0.75 </font>
            </div>
        </div>
    
            <div> Please press any key to continue to the next movie.</div>
        "," ","ITI","","","","","","",""
"","","","","","html-keyboard-response","70","131869","0.0-7.11-1.11","5b5b02c14e945800017d5da1","6573617f270241e5da3d355d","6576bff81728a9b6e3f015b6","559","./stimuli//pack_morph_shapes_1/cat_2/diff_3/ex_2_3_3.gif","arrowright","response","ArrowRight","3","2","3","test","true",""
"","","","","","html-keyboard-response","71","133447","0.0-7.11-2.11","5b5b02c14e945800017d5da1","6573617f270241e5da3d355d","6576bff81728a9b6e3f015b6","null","<p> <font color=""green"" size=""5vw""> Correct category! </font> <br> <br> <font color=""green"" size=""8vw""> + $0.08 </font> </p>","null","feedback","","","","","","","0.83"
"","","","","","html-keyboard-response","72","133820","0.0-7.12-0.12","5b5b02c14e945800017d5da1","6573617f270241e5da3d355d","6576bff81728a9b6e3f015b6","372","
            
        <div style=""text-align: center; position: fixed; top: 5vh; left: 40vw;"">
            <div style=""margin:0 auto; width: 20vw; top: 8vh; font-size: 2vw""> 
            <font color=""green""> Bonus : $0.83 </font>
            </div>
        </div>
    
            <div> Please press any key to continue to the next movie.</div>
        "," ","ITI","","","","","","",""
"","","","","","html-keyboard-response","73","134706","0.0-7.12-1.12","5b5b02c14e945800017d5da1","6573617f270241e5da3d355d","6576bff81728a9b6e3f015b6","885","./stimuli//pack_morph_shapes_1/cat_2/diff_3/ex_2_3_17.gif","arrowright","response","ArrowRight","17","2","3","test","true",""
"","","","","","html-keyboard-response","74","136206","0.0-7.12-2.12","5b5b02c14e945800017d5da1","6573617f270241e5da3d355d","6576bff81728a9b6e3f015b6","null","<p> <font color=""green"" size=""5vw""> Correct category! </font> <br> <br> <font color=""green"" size=""8vw""> + $0.06 </font> </p>","null","feedback","","","","","","","0.89"
"","","","","","html-keyboard-response","75","136548","0.0-7.13-0.13","5b5b02c14e945800017d5da1","6573617f270241e5da3d355d","6576bff81728a9b6e3f015b6","342","
            
        <div style=""text-align: center; position: fixed; top: 5vh; left: 40vw;"">
            <div style=""margin:0 auto; width: 20vw; top: 8vh; font-size: 2vw""> 
            <font color=""green""> Bonus : $0.89 </font>
            </div>
        </div>
    
            <div> Please press any key to continue to the next movie.</div>
        "," ","ITI","","","","","","",""
"","","","","","html-keyboard-response","76","137167","0.0-7.13-1.13","5b5b02c14e945800017d5da1","6573617f270241e5da3d355d","6576bff81728a9b6e3f015b6","618","./stimuli//pack_morph_shapes_1/cat_2/diff_3/ex_2_3_13.gif","arrowright","response","ArrowRight","13","2","3","test","true",""
"","","","","","html-keyboard-response","77","138679","0.0-7.13-2.13","5b5b02c14e945800017d5da1","6573617f270241e5da3d355d","6576bff81728a9b6e3f015b6","null","<p> <font color=""green"" size=""5vw""> Correct category! </font> <br> <br> <font color=""green"" size=""8vw""> + $0.07 </font> </p>","null","feedback","","","","","","","0.96"
"","","","","","html-keyboard-response","78","139142","0.0-7.14-0.14","5b5b02c14e945800017d5da1","6573617f270241e5da3d355d","6576bff81728a9b6e3f015b6","461","
            
        <div style=""text-align: center; position: fixed; top: 5vh; left: 40vw;"">
            <div style=""margin:0 auto; width: 20vw; top: 8vh; font-size: 2vw""> 
            <font color=""green""> Bonus : $0.96 </font>
            </div>
        </div>
    
            <div> Please press any key to continue to the next movie.</div>
        "," ","ITI","","","","","","",""
"","","","","","html-keyboard-response","79","139825","0.0-7.14-1.14","5b5b02c14e945800017d5da1","6573617f270241e5da3d355d","6576bff81728a9b6e3f015b6","683","./stimuli//pack_morph_shapes_1/cat_1/diff_3/ex_1_3_8.gif","arrowleft","response","ArrowLeft","8","1","3","test","true",""
"","","","","","html-keyboard-response","80","141341","0.0-7.14-2.14","5b5b02c14e945800017d5da1","6573617f270241e5da3d355d","6576bff81728a9b6e3f015b6","null","<p> <font color=""green"" size=""5vw""> Correct category! </font> <br> <br> <font color=""green"" size=""8vw""> + $0.07 </font> </p>","null","feedback","","","","","","","1.03"
"","","","","","html-keyboard-response","81","141768","0.0-7.15-0.15","5b5b02c14e945800017d5da1","6573617f270241e5da3d355d","6576bff81728a9b6e3f015b6","426","
            
        <div style=""text-align: center; position: fixed; top: 5vh; left: 40vw;"">
            <div style=""margin:0 auto; width: 20vw; top: 8vh; font-size: 2vw""> 
            <font color=""green""> Bonus : $1.03 </font>
            </div>
        </div>
    
            <div> Please press any key to continue to the next movie.</div>
        "," ","ITI","","","","","","",""
"","","","","","html-keyboard-response","82","142773","0.0-7.15-1.15","5b5b02c14e945800017d5da1","6573617f270241e5da3d355d","6576bff81728a9b6e3f015b6","1004","./stimuli//pack_morph_shapes_1/cat_1/diff_4/ex_1_4_15.gif","arrowleft","response","ArrowLeft","15","1","4","test","true",""
"","","","","","html-keyboard-response","83","144275","0.0-7.15-2.15","5b5b02c14e945800017d5da1","6573617f270241e5da3d355d","6576bff81728a9b6e3f015b6","null","<p> <font color=""green"" size=""5vw""> Correct category! </font> <br> <br> <font color=""green"" size=""8vw""> + $0.06 </font> </p>","null","feedback","","","","","","","1.09"
"","","","","","html-keyboard-response","84","144742","0.0-7.16-0.16","5b5b02c14e945800017d5da1","6573617f270241e5da3d355d","6576bff81728a9b6e3f015b6","467","
            
        <div style=""text-align: center; position: fixed; top: 5vh; left: 40vw;"">
            <div style=""margin:0 auto; width: 20vw; top: 8vh; font-size: 2vw""> 
            <font color=""green""> Bonus : $1.09 </font>
            </div>
        </div>
    
            <div> Please press any key to continue to the next movie.</div>
        "," ","ITI","","","","","","",""
"","","","","","html-keyboard-response","85","145646","0.0-7.16-1.16","5b5b02c14e945800017d5da1","6573617f270241e5da3d355d","6576bff81728a9b6e3f015b6","902","./stimuli//pack_morph_shapes_1/cat_2/diff_4/ex_2_4_1.gif","arrowright","response","ArrowRight","1","2","4","test","true",""
"","","","","","html-keyboard-response","86","147151","0.0-7.16-2.16","5b5b02c14e945800017d5da1","6573617f270241e5da3d355d","6576bff81728a9b6e3f015b6","null","<p> <font color=""green"" size=""5vw""> Correct category! </font> <br> <br> <font color=""green"" size=""8vw""> + $0.06 </font> </p>","null","feedback","","","","","","","1.15"
"","","","","","html-keyboard-response","87","147513","0.0-7.17-0.17","5b5b02c14e945800017d5da1","6573617f270241e5da3d355d","6576bff81728a9b6e3f015b6","360","
            
        <div style=""text-align: center; position: fixed; top: 5vh; left: 40vw;"">
            <div style=""margin:0 auto; width: 20vw; top: 8vh; font-size: 2vw""> 
            <font color=""green""> Bonus : $1.15 </font>
            </div>
        </div>
    
            <div> Please press any key to continue to the next movie.</div>
        "," ","ITI","","","","","","",""
"","","","","","html-keyboard-response","88","148183","0.0-7.17-1.17","5b5b02c14e945800017d5da1","6573617f270241e5da3d355d","6576bff81728a9b6e3f015b6","669","./stimuli//pack_morph_shapes_1/cat_1/diff_4/ex_1_4_8.gif","arrowleft","response","ArrowLeft","8","1","4","test","true",""
"","","","","","html-keyboard-response","89","149686","0.0-7.17-2.17","5b5b02c14e945800017d5da1","6573617f270241e5da3d355d","6576bff81728a9b6e3f015b6","null","<p> <font color=""green"" size=""5vw""> Correct category! </font> <br> <br> <font color=""green"" size=""8vw""> + $0.07 </font> </p>","null","feedback","","","","","","","1.22"
"","","","","","html-keyboard-response","90","150169","0.0-7.18-0.18","5b5b02c14e945800017d5da1","6573617f270241e5da3d355d","6576bff81728a9b6e3f015b6","483","
            
        <div style=""text-align: center; position: fixed; top: 5vh; left: 40vw;"">
            <div style=""margin:0 auto; width: 20vw; top: 8vh; font-size: 2vw""> 
            <font color=""green""> Bonus : $1.22 </font>
            </div>
        </div>
    
            <div> Please press any key to continue to the next movie.</div>
        "," ","ITI","","","","","","",""
"","","","","","html-keyboard-response","91","150948","0.0-7.18-1.18","5b5b02c14e945800017d5da1","6573617f270241e5da3d355d","6576bff81728a9b6e3f015b6","777","./stimuli//pack_morph_shapes_1/cat_1/diff_4/ex_1_4_12.gif","arrowleft","response","ArrowLeft","12","1","4","test","true",""
"","","","","","html-keyboard-response","92","152461","0.0-7.18-2.18","5b5b02c14e945800017d5da1","6573617f270241e5da3d355d","6576bff81728a9b6e3f015b6","null","<p> <font color=""green"" size=""5vw""> Correct category! </font> <br> <br> <font color=""green"" size=""8vw""> + $0.07 </font> </p>","null","feedback","","","","","","","1.29"
"","","","","","html-keyboard-response","93","152853","0.0-7.19-0.19","5b5b02c14e945800017d5da1","6573617f270241e5da3d355d","6576bff81728a9b6e3f015b6","391","
            
        <div style=""text-align: center; position: fixed; top: 5vh; left: 40vw;"">
            <div style=""margin:0 auto; width: 20vw; top: 8vh; font-size: 2vw""> 
            <font color=""green""> Bonus : $1.29 </font>
            </div>
        </div>
    
            <div> Please press any key to continue to the next movie.</div>
        "," ","ITI","","","","","","",""
"","","","","","html-keyboard-response","94","153536","0.0-7.19-1.19","5b5b02c14e945800017d5da1","6573617f270241e5da3d355d","6576bff81728a9b6e3f015b6","682","./stimuli//pack_morph_shapes_1/cat_1/diff_4/ex_1_4_6.gif","arrowleft","response","ArrowLeft","6","1","4","test","true",""
"","","","","","html-keyboard-response","95","155044","0.0-7.19-2.19","5b5b02c14e945800017d5da1","6573617f270241e5da3d355d","6576bff81728a9b6e3f015b6","null","<p> <font color=""green"" size=""5vw""> Correct category! </font> <br> <br> <font color=""green"" size=""8vw""> + $0.07 </font> </p>","null","feedback","","","","","","","1.36"
"","","","","","html-keyboard-response","96","155268","0.0-7.20-0.20","5b5b02c14e945800017d5da1","6573617f270241e5da3d355d","6576bff81728a9b6e3f015b6","224","
            
        <div style=""text-align: center; position: fixed; top: 5vh; left: 40vw;"">
            <div style=""margin:0 auto; width: 20vw; top: 8vh; font-size: 2vw""> 
            <font color=""green""> Bonus : $1.36 </font>
            </div>
        </div>
    
            <div> Please press any key to continue to the next movie.</div>
        "," ","ITI","","","","","","",""
"","","","","","html-keyboard-response","97","155906","0.0-7.20-1.20","5b5b02c14e945800017d5da1","6573617f270241e5da3d355d","6576bff81728a9b6e3f015b6","636","./stimuli//pack_morph_shapes_1/cat_2/diff_5/ex_2_5_17.gif","arrowleft","response","ArrowRight","17","2","5","test","false",""
"","","","","","html-keyboard-response","98","157419","0.0-7.20-2.20","5b5b02c14e945800017d5da1","6573617f270241e5da3d355d","6576bff81728a9b6e3f015b6","null","<p> <font color=""red"" size=""5vw""> Wrong category! </font> <br> <br> <font color=""red"" size=""8vw""> - $0.05 </font> </p>","null","feedback","","","","","","","1.31"
"","","","","","html-keyboard-response","99","157977","0.0-7.21-0.21","5b5b02c14e945800017d5da1","6573617f270241e5da3d355d","6576bff81728a9b6e3f015b6","556","
            
        <div style=""text-align: center; position: fixed; top: 5vh; left: 40vw;"">
            <div style=""margin:0 auto; width: 20vw; top: 8vh; font-size: 2vw""> 
            <font color=""green""> Bonus : $1.31 </font>
            </div>
        </div>
    
            <div> Please press any key to continue to the next movie.</div>
        "," ","ITI","","","","","","",""
"","","","","","html-keyboard-response","100","158635","0.0-7.21-1.21","5b5b02c14e945800017d5da1","6573617f270241e5da3d355d","6576bff81728a9b6e3f015b6","657","./stimuli//pack_morph_shapes_1/cat_1/diff_5/ex_1_5_16.gif","arrowleft","response","ArrowLeft","16","1","5","test","true",""
"","","","","","html-keyboard-response","101","160146","0.0-7.21-2.21","5b5b02c14e945800017d5da1","6573617f270241e5da3d355d","6576bff81728a9b6e3f015b6","null","<p> <font color=""green"" size=""5vw""> Correct category! </font> <br> <br> <font color=""green"" size=""8vw""> + $0.07 </font> </p>","null","feedback","","","","","","","1.38"
"","","","","","html-keyboard-response","102","160552","0.0-7.22-0.22","5b5b02c14e945800017d5da1","6573617f270241e5da3d355d","6576bff81728a9b6e3f015b6","405","
            
        <div style=""text-align: center; position: fixed; top: 5vh; left: 40vw;"">
            <div style=""margin:0 auto; width: 20vw; top: 8vh; font-size: 2vw""> 
            <font color=""green""> Bonus : $1.38 </font>
            </div>
        </div>
    
            <div> Please press any key to continue to the next movie.</div>
        "," ","ITI","","","","","","",""
"","","","","","html-keyboard-response","103","161134","0.0-7.22-1.22","5b5b02c14e945800017d5da1","6573617f270241e5da3d355d","6576bff81728a9b6e3f015b6","581","./stimuli//pack_morph_shapes_1/cat_2/diff_5/ex_2_5_2.gif","arrowright","response","ArrowRight","2","2","5","test","true",""
"","","","","","html-keyboard-response","104","162643","0.0-7.22-2.22","5b5b02c14e945800017d5da1","6573617f270241e5da3d355d","6576bff81728a9b6e3f015b6","null","<p> <font color=""green"" size=""5vw""> Correct category! </font> <br> <br> <font color=""green"" size=""8vw""> + $0.07 </font> </p>","null","feedback","","","","","","","1.45"
"","","","","","html-keyboard-response","105","162993","0.0-7.23-0.23","5b5b02c14e945800017d5da1","6573617f270241e5da3d355d","6576bff81728a9b6e3f015b6","349","
            
        <div style=""text-align: center; position: fixed; top: 5vh; left: 40vw;"">
            <div style=""margin:0 auto; width: 20vw; top: 8vh; font-size: 2vw""> 
            <font color=""green""> Bonus : $1.45 </font>
            </div>
        </div>
    
            <div> Please press any key to continue to the next movie.</div>
        "," ","ITI","","","","","","",""
"","","","","","html-keyboard-response","106","163699","0.0-7.23-1.23","5b5b02c14e945800017d5da1","6573617f270241e5da3d355d","6576bff81728a9b6e3f015b6","704","./stimuli//pack_morph_shapes_1/cat_1/diff_5/ex_1_5_16.gif","arrowleft","response","ArrowLeft","16","1","5","test","true",""
"","","","","","html-keyboard-response","107","165215","0.0-7.23-2.23","5b5b02c14e945800017d5da1","6573617f270241e5da3d355d","6576bff81728a9b6e3f015b6","null","<p> <font color=""green"" size=""5vw""> Correct category! </font> <br> <br> <font color=""green"" size=""8vw""> + $0.07 </font> </p>","null","feedback","","","","","","","1.52"
"","","","","","html-keyboard-response","108","166945","0.0-7.24-0.24","5b5b02c14e945800017d5da1","6573617f270241e5da3d355d","6576bff81728a9b6e3f015b6","1730","
            
        <div style=""text-align: center; position: fixed; top: 5vh; left: 40vw;"">
            <div style=""margin:0 auto; width: 20vw; top: 8vh; font-size: 2vw""> 
            <font color=""green""> Bonus : $1.52 </font>
            </div>
        </div>
    
            <div> Please press any key to continue to the next movie.</div>
        "," ","ITI","","","","","","",""
"","","","","","html-keyboard-response","109","167884","0.0-7.24-1.24","5b5b02c14e945800017d5da1","6573617f270241e5da3d355d","6576bff81728a9b6e3f015b6","936","./stimuli//pack_morph_shapes_1/cat_1/diff_5/ex_1_5_2.gif","arrowleft","response","ArrowLeft","2","1","5","test","true",""
"","","","","","html-keyboard-response","110","169395","0.0-7.24-2.24","5b5b02c14e945800017d5da1","6573617f270241e5da3d355d","6576bff81728a9b6e3f015b6","null","<p> <font color=""green"" size=""5vw""> Correct category! </font> <br> <br> <font color=""green"" size=""8vw""> + $0.06 </font> </p>","null","feedback","","","","","","","1.58"
"","","","","","html-keyboard-response","111","169893","0.0-7.25-0.25","5b5b02c14e945800017d5da1","6573617f270241e5da3d355d","6576bff81728a9b6e3f015b6","498","
            
        <div style=""text-align: center; position: fixed; top: 5vh; left: 40vw;"">
            <div style=""margin:0 auto; width: 20vw; top: 8vh; font-size: 2vw""> 
            <font color=""green""> Bonus : $1.58 </font>
            </div>
        </div>
    
            <div> Please press any key to continue to the next movie.</div>
        "," ","ITI","","","","","","",""
"","","","","","html-keyboard-response","112","171160","0.0-7.25-1.25","5b5b02c14e945800017d5da1","6573617f270241e5da3d355d","6576bff81728a9b6e3f015b6","1266","./stimuli//pack_morph_shapes_1/cat_1/diff_5/ex_1_5_17.gif","arrowright","response","ArrowLeft","17","1","5","test","false",""
"","","","","","html-keyboard-response","113","172662","0.0-7.25-2.25","5b5b02c14e945800017d5da1","6573617f270241e5da3d355d","6576bff81728a9b6e3f015b6","null","<p> <font color=""red"" size=""5vw""> Wrong category! </font> <br> <br> <font color=""red"" size=""8vw""> - $0.05 </font> </p>","null","feedback","","","","","","","1.53"
"","","","","","html-keyboard-response","114","173151","0.0-7.26-0.26","5b5b02c14e945800017d5da1","6573617f270241e5da3d355d","6576bff81728a9b6e3f015b6","488","
            
        <div style=""text-align: center; position: fixed; top: 5vh; left: 40vw;"">
            <div style=""margin:0 auto; width: 20vw; top: 8vh; font-size: 2vw""> 
            <font color=""green""> Bonus : $1.53 </font>
            </div>
        </div>
    
            <div> Please press any key to continue to the next movie.</div>
        "," ","ITI","","","","","","",""
"","","","","","html-keyboard-response","115","174014","0.0-7.26-1.26","5b5b02c14e945800017d5da1","6573617f270241e5da3d355d","6576bff81728a9b6e3f015b6","860","./stimuli//pack_morph_shapes_1/cat_1/diff_5/ex_1_5_1.gif","arrowleft","response","ArrowLeft","1","1","5","test","true",""
"","","","","","html-keyboard-response","116","175523","0.0-7.26-2.26","5b5b02c14e945800017d5da1","6573617f270241e5da3d355d","6576bff81728a9b6e3f015b6","null","<p> <font color=""green"" size=""5vw""> Correct category! </font> <br> <br> <font color=""green"" size=""8vw""> + $0.07 </font> </p>","null","feedback","","","","","","","1.6"
"","","","","","html-keyboard-response","117","176024","0.0-7.27-0.27","5b5b02c14e945800017d5da1","6573617f270241e5da3d355d","6576bff81728a9b6e3f015b6","499","
            
        <div style=""text-align: center; position: fixed; top: 5vh; left: 40vw;"">
            <div style=""margin:0 auto; width: 20vw; top: 8vh; font-size: 2vw""> 
            <font color=""green""> Bonus : $1.6 </font>
            </div>
        </div>
    
            <div> Please press any key to continue to the next movie.</div>
        "," ","ITI","","","","","","",""
"","","","","","html-keyboard-response","118","176610","0.0-7.27-1.27","5b5b02c14e945800017d5da1","6573617f270241e5da3d355d","6576bff81728a9b6e3f015b6","586","./stimuli//pack_morph_shapes_1/cat_1/diff_5/ex_1_5_1.gif","arrowleft","response","ArrowLeft","1","1","5","test","true",""
"","","","","","html-keyboard-response","119","178124","0.0-7.27-2.27","5b5b02c14e945800017d5da1","6573617f270241e5da3d355d","6576bff81728a9b6e3f015b6","null","<p> <font color=""green"" size=""5vw""> Correct category! </font> <br> <br> <font color=""green"" size=""8vw""> + $0.07 </font> </p>","null","feedback","","","","","","","1.67"
"","","","","","html-keyboard-response","120","178689","0.0-7.28-0.28","5b5b02c14e945800017d5da1","6573617f270241e5da3d355d","6576bff81728a9b6e3f015b6","564","
            
        <div style=""text-align: center; position: fixed; top: 5vh; left: 40vw;"">
            <div style=""margin:0 auto; width: 20vw; top: 8vh; font-size: 2vw""> 
            <font color=""green""> Bonus : $1.67 </font>
            </div>
        </div>
    
            <div> Please press any key to continue to the next movie.</div>
        "," ","ITI","","","","","","",""
"","","","","","html-keyboard-response","121","179195","0.0-7.28-1.28","5b5b02c14e945800017d5da1","6573617f270241e5da3d355d","6576bff81728a9b6e3f015b6","504","./stimuli//pack_morph_shapes_1/cat_1/diff_5/ex_1_5_2.gif","arrowleft","response","ArrowLeft","2","1","5","test","true",""
"","","","","","html-keyboard-response","122","180696","0.0-7.28-2.28","5b5b02c14e945800017d5da1","6573617f270241e5da3d355d","6576bff81728a9b6e3f015b6","null","<p> <font color=""green"" size=""5vw""> Correct category! </font> <br> <br> <font color=""green"" size=""8vw""> + $0.08 </font> </p>","null","feedback","","","","","","","1.75"
"","","","","","html-keyboard-response","123","181041","0.0-7.29-0.29","5b5b02c14e945800017d5da1","6573617f270241e5da3d355d","6576bff81728a9b6e3f015b6","343","
            
        <div style=""text-align: center; position: fixed; top: 5vh; left: 40vw;"">
            <div style=""margin:0 auto; width: 20vw; top: 8vh; font-size: 2vw""> 
            <font color=""green""> Bonus : $1.75 </font>
            </div>
        </div>
    
            <div> Please press any key to continue to the next movie.</div>
        "," ","ITI","","","","","","",""
"","","","","","html-keyboard-response","124","182247","0.0-7.29-1.29","5b5b02c14e945800017d5da1","6573617f270241e5da3d355d","6576bff81728a9b6e3f015b6","1206","./stimuli//pack_morph_shapes_1/cat_2/diff_5/ex_2_5_3.gif","arrowright","response","ArrowRight","3","2","5","test","true",""
"","","","","","html-keyboard-response","125","183755","0.0-7.29-2.29","5b5b02c14e945800017d5da1","6573617f270241e5da3d355d","6576bff81728a9b6e3f015b6","null","<p> <font color=""green"" size=""5vw""> Correct category! </font> <br> <br> <font color=""green"" size=""8vw""> + $0.05 </font> </p>","null","feedback","","","","","","","1.8"
"","","","","","html-keyboard-response","126","184266","0.0-7.30-0.30","5b5b02c14e945800017d5da1","6573617f270241e5da3d355d","6576bff81728a9b6e3f015b6","511","
            
        <div style=""text-align: center; position: fixed; top: 5vh; left: 40vw;"">
            <div style=""margin:0 auto; width: 20vw; top: 8vh; font-size: 2vw""> 
            <font color=""green""> Bonus : $1.8 </font>
            </div>
        </div>
    
            <div> Please press any key to continue to the next movie.</div>
        "," ","ITI","","","","","","",""
"","","","","","html-keyboard-response","127","184868","0.0-7.30-1.30","5b5b02c14e945800017d5da1","6573617f270241e5da3d355d","6576bff81728a9b6e3f015b6","600","./stimuli//pack_morph_shapes_1/cat_2/diff_5/ex_2_5_16.gif","arrowleft","response","ArrowRight","16","2","5","test","false",""
"","","","","","html-keyboard-response","128","186367","0.0-7.30-2.30","5b5b02c14e945800017d5da1","6573617f270241e5da3d355d","6576bff81728a9b6e3f015b6","null","<p> <font color=""red"" size=""5vw""> Wrong category! </font> <br> <br> <font color=""red"" size=""8vw""> - $0.05 </font> </p>","null","feedback","","","","","","","1.75"
"","","","","","html-keyboard-response","129","186783","0.0-7.31-0.31","5b5b02c14e945800017d5da1","6573617f270241e5da3d355d","6576bff81728a9b6e3f015b6","415","
            
        <div style=""text-align: center; position: fixed; top: 5vh; left: 40vw;"">
            <div style=""margin:0 auto; width: 20vw; top: 8vh; font-size: 2vw""> 
            <font color=""green""> Bonus : $1.75 </font>
            </div>
        </div>
    
            <div> Please press any key to continue to the next movie.</div>
        "," ","ITI","","","","","","",""
"","","","","","html-keyboard-response","130","187770","0.0-7.31-1.31","5b5b02c14e945800017d5da1","6573617f270241e5da3d355d","6576bff81728a9b6e3f015b6","986","./stimuli//pack_morph_shapes_1/cat_1/diff_5/ex_1_5_11.gif","arrowleft","response","ArrowLeft","11","1","5","test","true",""
"","","","","","html-keyboard-response","131","189286","0.0-7.31-2.31","5b5b02c14e945800017d5da1","6573617f270241e5da3d355d","6576bff81728a9b6e3f015b6","null","<p> <font color=""green"" size=""5vw""> Correct category! </font> <br> <br> <font color=""green"" size=""8vw""> + $0.06 </font> </p>","null","feedback","","","","","","","1.81"
"","","","","","html-keyboard-response","132","189611","0.0-7.32-0.32","5b5b02c14e945800017d5da1","6573617f270241e5da3d355d","6576bff81728a9b6e3f015b6","325","
            
        <div style=""text-align: center; position: fixed; top: 5vh; left: 40vw;"">
            <div style=""margin:0 auto; width: 20vw; top: 8vh; font-size: 2vw""> 
            <font color=""green""> Bonus : $1.81 </font>
            </div>
        </div>
    
            <div> Please press any key to continue to the next movie.</div>
        "," ","ITI","","","","","","",""
"","","","","","html-keyboard-response","133","190262","0.0-7.32-1.32","5b5b02c14e945800017d5da1","6573617f270241e5da3d355d","6576bff81728a9b6e3f015b6","650","./stimuli//pack_morph_shapes_1/cat_1/diff_5/ex_1_5_10.gif","arrowleft","response","ArrowLeft","10","1","5","test","true",""
"","","","","","html-keyboard-response","134","191763","0.0-7.32-2.32","5b5b02c14e945800017d5da1","6573617f270241e5da3d355d","6576bff81728a9b6e3f015b6","null","<p> <font color=""green"" size=""5vw""> Correct category! </font> <br> <br> <font color=""green"" size=""8vw""> + $0.07 </font> </p>","null","feedback","","","","","","","1.88"
"","","","","","html-keyboard-response","135","192606","0.0-7.33-0.33","5b5b02c14e945800017d5da1","6573617f270241e5da3d355d","6576bff81728a9b6e3f015b6","841","
            
        <div style=""text-align: center; position: fixed; top: 5vh; left: 40vw;"">
            <div style=""margin:0 auto; width: 20vw; top: 8vh; font-size: 2vw""> 
            <font color=""green""> Bonus : $1.88 </font>
            </div>
        </div>
    
            <div> Please press any key to continue to the next movie.</div>
        "," ","ITI","","","","","","",""
"","","","","","html-keyboard-response","136","193301","0.0-7.33-1.33","5b5b02c14e945800017d5da1","6573617f270241e5da3d355d","6576bff81728a9b6e3f015b6","694","./stimuli//pack_morph_shapes_1/cat_1/diff_5/ex_1_5_4.gif","arrowleft","response","ArrowLeft","4","1","5","test","true",""
"","","","","","html-keyboard-response","137","194812","0.0-7.33-2.33","5b5b02c14e945800017d5da1","6573617f270241e5da3d355d","6576bff81728a9b6e3f015b6","null","<p> <font color=""green"" size=""5vw""> Correct category! </font> <br> <br> <font color=""green"" size=""8vw""> + $0.07 </font> </p>","null","feedback","","","","","","","1.95"
"","","","","","html-keyboard-response","138","195197","0.0-7.34-0.34","5b5b02c14e945800017d5da1","6573617f270241e5da3d355d","6576bff81728a9b6e3f015b6","387","
            
        <div style=""text-align: center; position: fixed; top: 5vh; left: 40vw;"">
            <div style=""margin:0 auto; width: 20vw; top: 8vh; font-size: 2vw""> 
            <font color=""green""> Bonus : $1.95 </font>
            </div>
        </div>
    
            <div> Please press any key to continue to the next movie.</div>
        "," ","ITI","","","","","","",""
"","","","","","html-keyboard-response","139","195813","0.0-7.34-1.34","5b5b02c14e945800017d5da1","6573617f270241e5da3d355d","6576bff81728a9b6e3f015b6","615","./stimuli//pack_morph_shapes_1/cat_2/diff_5/ex_2_5_1.gif","arrowright","response","ArrowRight","1","2","5","test","true",""
"","","","","","html-keyboard-response","140","197316","0.0-7.34-2.34","5b5b02c14e945800017d5da1","6573617f270241e5da3d355d","6576bff81728a9b6e3f015b6","null","<p> <font color=""green"" size=""5vw""> Correct category! </font> <br> <br> <font color=""green"" size=""8vw""> + $0.07 </font> </p>","null","feedback","","","","","","","2.02"
"","","","","","html-keyboard-response","141","198325","0.0-7.35-0.35","5b5b02c14e945800017d5da1","6573617f270241e5da3d355d","6576bff81728a9b6e3f015b6","1007","
            
        <div style=""text-align: center; position: fixed; top: 5vh; left: 40vw;"">
            <div style=""margin:0 auto; width: 20vw; top: 8vh; font-size: 2vw""> 
            <font color=""green""> Bonus : $2.02 </font>
            </div>
        </div>
    
            <div> Please press any key to continue to the next movie.</div>
        "," ","ITI","","","","","","",""
"","","","","","html-keyboard-response","142","198934","0.0-7.35-1.35","5b5b02c14e945800017d5da1","6573617f270241e5da3d355d","6576bff81728a9b6e3f015b6","609","./stimuli//pack_morph_shapes_1/cat_1/diff_5/ex_1_5_11.gif","arrowleft","response","ArrowLeft","11","1","5","test","true",""
"","","","","","html-keyboard-response","143","200450","0.0-7.35-2.35","5b5b02c14e945800017d5da1","6573617f270241e5da3d355d","6576bff81728a9b6e3f015b6","null","<p> <font color=""green"" size=""5vw""> Correct category! </font> <br> <br> <font color=""green"" size=""8vw""> + $0.07 </font> </p>","null","feedback","","","","","","","2.09"
"","","","","","html-keyboard-response","144","200849","0.0-7.36-0.36","5b5b02c14e945800017d5da1","6573617f270241e5da3d355d","6576bff81728a9b6e3f015b6","397","
            
        <div style=""text-align: center; position: fixed; top: 5vh; left: 40vw;"">
            <div style=""margin:0 auto; width: 20vw; top: 8vh; font-size: 2vw""> 
            <font color=""green""> Bonus : $2.09 </font>
            </div>
        </div>
    
            <div> Please press any key to continue to the next movie.</div>
        "," ","ITI","","","","","","",""
"","","","","","html-keyboard-response","145","201381","0.0-7.36-1.36","5b5b02c14e945800017d5da1","6573617f270241e5da3d355d","6576bff81728a9b6e3f015b6","533","./stimuli//pack_morph_shapes_1/cat_1/diff_5/ex_1_5_4.gif","arrowleft","response","ArrowLeft","4","1","5","test","true",""
"","","","","","html-keyboard-response","146","202978","0.0-7.36-2.36","5b5b02c14e945800017d5da1","6573617f270241e5da3d355d","6576bff81728a9b6e3f015b6","null","<p> <font color=""green"" size=""5vw""> Correct category! </font> <br> <br> <font color=""green"" size=""8vw""> + $0.08 </font> </p>","null","feedback","","","","","","","2.17"
"","","","","","html-keyboard-response","147","203520","0.0-7.37-0.37","5b5b02c14e945800017d5da1","6573617f270241e5da3d355d","6576bff81728a9b6e3f015b6","542","
            
        <div style=""text-align: center; position: fixed; top: 5vh; left: 40vw;"">
            <div style=""margin:0 auto; width: 20vw; top: 8vh; font-size: 2vw""> 
            <font color=""green""> Bonus : $2.17 </font>
            </div>
        </div>
    
            <div> Please press any key to continue to the next movie.</div>
        "," ","ITI","","","","","","",""
"","","","","","html-keyboard-response","148","204142","0.0-7.37-1.37","5b5b02c14e945800017d5da1","6573617f270241e5da3d355d","6576bff81728a9b6e3f015b6","622","./stimuli//pack_morph_shapes_1/cat_1/diff_5/ex_1_5_3.gif","arrowleft","response","ArrowLeft","3","1","5","test","true",""
"","","","","","html-keyboard-response","149","205649","0.0-7.37-2.37","5b5b02c14e945800017d5da1","6573617f270241e5da3d355d","6576bff81728a9b6e3f015b6","null","<p> <font color=""green"" size=""5vw""> Correct category! </font> <br> <br> <font color=""green"" size=""8vw""> + $0.07 </font> </p>","null","feedback","","","","","","","2.24"
"","","","","","html-keyboard-response","150","206090","0.0-7.38-0.38","5b5b02c14e945800017d5da1","6573617f270241e5da3d355d","6576bff81728a9b6e3f015b6","440","
            
        <div style=""text-align: center; position: fixed; top: 5vh; left: 40vw;"">
            <div style=""margin:0 auto; width: 20vw; top: 8vh; font-size: 2vw""> 
            <font color=""green""> Bonus : $2.24 </font>
            </div>
        </div>
    
            <div> Please press any key to continue to the next movie.</div>
        "," ","ITI","","","","","","",""
"","","","","","html-keyboard-response","151","206717","0.0-7.38-1.38","5b5b02c14e945800017d5da1","6573617f270241e5da3d355d","6576bff81728a9b6e3f015b6","626","./stimuli//pack_morph_shapes_1/cat_2/diff_5/ex_2_5_13.gif","arrowleft","response","ArrowRight","13","2","5","test","false",""
"","","","","","html-keyboard-response","152","208228","0.0-7.38-2.38","5b5b02c14e945800017d5da1","6573617f270241e5da3d355d","6576bff81728a9b6e3f015b6","null","<p> <font color=""red"" size=""5vw""> Wrong category! </font> <br> <br> <font color=""red"" size=""8vw""> - $0.05 </font> </p>","null","feedback","","","","","","","2.19"
"","","","","","html-keyboard-response","153","208692","0.0-7.39-0.39","5b5b02c14e945800017d5da1","6573617f270241e5da3d355d","6576bff81728a9b6e3f015b6","463","
            
        <div style=""text-align: center; position: fixed; top: 5vh; left: 40vw;"">
            <div style=""margin:0 auto; width: 20vw; top: 8vh; font-size: 2vw""> 
            <font color=""green""> Bonus : $2.19 </font>
            </div>
        </div>
    
            <div> Please press any key to continue to the next movie.</div>
        "," ","ITI","","","","","","",""
"","","","","","html-keyboard-response","154","209658","0.0-7.39-1.39","5b5b02c14e945800017d5da1","6573617f270241e5da3d355d","6576bff81728a9b6e3f015b6","964","./stimuli//pack_morph_shapes_1/cat_2/diff_5/ex_2_5_10.gif","arrowright","response","ArrowRight","10","2","5","test","true",""
"","","","","","html-keyboard-response","155","211159","0.0-7.39-2.39","5b5b02c14e945800017d5da1","6573617f270241e5da3d355d","6576bff81728a9b6e3f015b6","null","<p> <font color=""green"" size=""5vw""> Correct category! </font> <br> <br> <font color=""green"" size=""8vw""> + $0.06 </font> </p>","null","feedback","","","","","","","2.25"
"","","","","","html-keyboard-response","156","211549","0.0-7.40-0.40","5b5b02c14e945800017d5da1","6573617f270241e5da3d355d","6576bff81728a9b6e3f015b6","388","
            
        <div style=""text-align: center; position: fixed; top: 5vh; left: 40vw;"">
            <div style=""margin:0 auto; width: 20vw; top: 8vh; font-size: 2vw""> 
            <font color=""green""> Bonus : $2.25 </font>
            </div>
        </div>
    
            <div> Please press any key to continue to the next movie.</div>
        "," ","ITI","","","","","","",""
"","","","","","html-keyboard-response","157","212040","0.0-7.40-1.40","5b5b02c14e945800017d5da1","6573617f270241e5da3d355d","6576bff81728a9b6e3f015b6","490","./stimuli//pack_morph_shapes_1/cat_2/diff_5/ex_2_5_10.gif","arrowright","response","ArrowRight","10","2","5","test","true",""
"","","","","","html-keyboard-response","158","213550","0.0-7.40-2.40","5b5b02c14e945800017d5da1","6573617f270241e5da3d355d","6576bff81728a9b6e3f015b6","null","<p> <font color=""green"" size=""5vw""> Correct category! </font> <br> <br> <font color=""green"" size=""8vw""> + $0.08 </font> </p>","null","feedback","","","","","","","2.33"
"","","","","","html-keyboard-response","159","213971","0.0-7.41-0.41","5b5b02c14e945800017d5da1","6573617f270241e5da3d355d","6576bff81728a9b6e3f015b6","421","
            
        <div style=""text-align: center; position: fixed; top: 5vh; left: 40vw;"">
            <div style=""margin:0 auto; width: 20vw; top: 8vh; font-size: 2vw""> 
            <font color=""green""> Bonus : $2.33 </font>
            </div>
        </div>
    
            <div> Please press any key to continue to the next movie.</div>
        "," ","ITI","","","","","","",""
"","","","","","html-keyboard-response","160","214829","0.0-7.41-1.41","5b5b02c14e945800017d5da1","6573617f270241e5da3d355d","6576bff81728a9b6e3f015b6","857","./stimuli//pack_morph_shapes_1/cat_1/diff_5/ex_1_5_6.gif","arrowleft","response","ArrowLeft","6","1","5","test","true",""
"","","","","","html-keyboard-response","161","216332","0.0-7.41-2.41","5b5b02c14e945800017d5da1","6573617f270241e5da3d355d","6576bff81728a9b6e3f015b6","null","<p> <font color=""green"" size=""5vw""> Correct category! </font> <br> <br> <font color=""green"" size=""8vw""> + $0.07 </font> </p>","null","feedback","","","","","","","2.4"
"","","","","","html-keyboard-response","162","216808","0.0-7.42-0.42","5b5b02c14e945800017d5da1","6573617f270241e5da3d355d","6576bff81728a9b6e3f015b6","474","
            
        <div style=""text-align: center; position: fixed; top: 5vh; left: 40vw;"">
            <div style=""margin:0 auto; width: 20vw; top: 8vh; font-size: 2vw""> 
            <font color=""green""> Bonus : $2.4 </font>
            </div>
        </div>
    
            <div> Please press any key to continue to the next movie.</div>
        "," ","ITI","","","","","","",""
"","","","","","html-keyboard-response","163","217462","0.0-7.42-1.42","5b5b02c14e945800017d5da1","6573617f270241e5da3d355d","6576bff81728a9b6e3f015b6","654","./stimuli//pack_morph_shapes_1/cat_1/diff_5/ex_1_5_8.gif","arrowleft","response","ArrowLeft","8","1","5","test","true",""
"","","","","","html-keyboard-response","164","218972","0.0-7.42-2.42","5b5b02c14e945800017d5da1","6573617f270241e5da3d355d","6576bff81728a9b6e3f015b6","null","<p> <font color=""green"" size=""5vw""> Correct category! </font> <br> <br> <font color=""green"" size=""8vw""> + $0.07 </font> </p>","null","feedback","","","","","","","2.47"
"","","","","","html-keyboard-response","165","219423","0.0-7.43-0.43","5b5b02c14e945800017d5da1","6573617f270241e5da3d355d","6576bff81728a9b6e3f015b6","452","
            
        <div style=""text-align: center; position: fixed; top: 5vh; left: 40vw;"">
            <div style=""margin:0 auto; width: 20vw; top: 8vh; font-size: 2vw""> 
            <font color=""green""> Bonus : $2.47 </font>
            </div>
        </div>
    
            <div> Please press any key to continue to the next movie.</div>
        "," ","ITI","","","","","","",""
"","","","","","html-keyboard-response","166","220750","0.0-7.43-1.43","5b5b02c14e945800017d5da1","6573617f270241e5da3d355d","6576bff81728a9b6e3f015b6","1324","./stimuli//pack_morph_shapes_1/cat_1/diff_5/ex_1_5_12.gif","arrowright","response","ArrowLeft","12","1","5","test","false",""
"","","","","","html-keyboard-response","167","222264","0.0-7.43-2.43","5b5b02c14e945800017d5da1","6573617f270241e5da3d355d","6576bff81728a9b6e3f015b6","null","<p> <font color=""red"" size=""5vw""> Wrong category! </font> <br> <br> <font color=""red"" size=""8vw""> - $0.05 </font> </p>","null","feedback","","","","","","","2.42"
"","","","","","html-keyboard-response","168","222729","0.0-7.44-0.44","5b5b02c14e945800017d5da1","6573617f270241e5da3d355d","6576bff81728a9b6e3f015b6","464","
            
        <div style=""text-align: center; position: fixed; top: 5vh; left: 40vw;"">
            <div style=""margin:0 auto; width: 20vw; top: 8vh; font-size: 2vw""> 
            <font color=""green""> Bonus : $2.42 </font>
            </div>
        </div>
    
            <div> Please press any key to continue to the next movie.</div>
        "," ","ITI","","","","","","",""
"","","","","","html-keyboard-response","169","223595","0.0-7.44-1.44","5b5b02c14e945800017d5da1","6573617f270241e5da3d355d","6576bff81728a9b6e3f015b6","865","./stimuli//pack_morph_shapes_1/cat_2/diff_5/ex_2_5_5.gif","arrowleft","response","ArrowRight","5","2","5","test","false",""
"","","","","","html-keyboard-response","170","225109","0.0-7.44-2.44","5b5b02c14e945800017d5da1","6573617f270241e5da3d355d","6576bff81728a9b6e3f015b6","null","<p> <font color=""red"" size=""5vw""> Wrong category! </font> <br> <br> <font color=""red"" size=""8vw""> - $0.05 </font> </p>","null","feedback","","","","","","","2.37"
"","","","","","html-keyboard-response","171","225440","0.0-7.45-0.45","5b5b02c14e945800017d5da1","6573617f270241e5da3d355d","6576bff81728a9b6e3f015b6","330","
            
        <div style=""text-align: center; position: fixed; top: 5vh; left: 40vw;"">
            <div style=""margin:0 auto; width: 20vw; top: 8vh; font-size: 2vw""> 
            <font color=""green""> Bonus : $2.37 </font>
            </div>
        </div>
    
            <div> Please press any key to continue to the next movie.</div>
        "," ","ITI","","","","","","",""
"","","","","","html-keyboard-response","172","226086","0.0-7.45-1.45","5b5b02c14e945800017d5da1","6573617f270241e5da3d355d","6576bff81728a9b6e3f015b6","644","./stimuli//pack_morph_shapes_1/cat_2/diff_4/ex_2_4_3.gif","arrowright","response","ArrowRight","3","2","4","test","true",""
"","","","","","html-keyboard-response","173","227599","0.0-7.45-2.45","5b5b02c14e945800017d5da1","6573617f270241e5da3d355d","6576bff81728a9b6e3f015b6","null","<p> <font color=""green"" size=""5vw""> Correct category! </font> <br> <br> <font color=""green"" size=""8vw""> + $0.07 </font> </p>","null","feedback","","","","","","","2.44"
"","","","","","html-keyboard-response","174","227969","0.0-7.46-0.46","5b5b02c14e945800017d5da1","6573617f270241e5da3d355d","6576bff81728a9b6e3f015b6","370","
            
        <div style=""text-align: center; position: fixed; top: 5vh; left: 40vw;"">
            <div style=""margin:0 auto; width: 20vw; top: 8vh; font-size: 2vw""> 
            <font color=""green""> Bonus : $2.44 </font>
            </div>
        </div>
    
            <div> Please press any key to continue to the next movie.</div>
        "," ","ITI","","","","","","",""
"","","","","","html-keyboard-response","175","228641","0.0-7.46-1.46","5b5b02c14e945800017d5da1","6573617f270241e5da3d355d","6576bff81728a9b6e3f015b6","671","./stimuli//pack_morph_shapes_1/cat_1/diff_4/ex_1_4_15.gif","arrowright","response","ArrowLeft","15","1","4","test","false",""
"","","","","","html-keyboard-response","176","230145","0.0-7.46-2.46","5b5b02c14e945800017d5da1","6573617f270241e5da3d355d","6576bff81728a9b6e3f015b6","null","<p> <font color=""red"" size=""5vw""> Wrong category! </font> <br> <br> <font color=""red"" size=""8vw""> - $0.05 </font> </p>","null","feedback","","","","","","","2.39"
"","","","","","html-keyboard-response","177","230460","0.0-7.47-0.47","5b5b02c14e945800017d5da1","6573617f270241e5da3d355d","6576bff81728a9b6e3f015b6","314","
            
        <div style=""text-align: center; position: fixed; top: 5vh; left: 40vw;"">
            <div style=""margin:0 auto; width: 20vw; top: 8vh; font-size: 2vw""> 
            <font color=""green""> Bonus : $2.39 </font>
            </div>
        </div>
    
            <div> Please press any key to continue to the next movie.</div>
        "," ","ITI","","","","","","",""
"","","","","","html-keyboard-response","178","231668","0.0-7.47-1.47","5b5b02c14e945800017d5da1","6573617f270241e5da3d355d","6576bff81728a9b6e3f015b6","1206","./stimuli//pack_morph_shapes_1/cat_2/diff_4/ex_2_4_15.gif","arrowright","response","ArrowRight","15","2","4","test","true",""
"","","","","","html-keyboard-response","179","233172","0.0-7.47-2.47","5b5b02c14e945800017d5da1","6573617f270241e5da3d355d","6576bff81728a9b6e3f015b6","null","<p> <font color=""green"" size=""5vw""> Correct category! </font> <br> <br> <font color=""green"" size=""8vw""> + $0.05 </font> </p>","null","feedback","","","","","","","2.44"
"","","","","","html-keyboard-response","180","233665","0.0-7.48-0.48","5b5b02c14e945800017d5da1","6573617f270241e5da3d355d","6576bff81728a9b6e3f015b6","492","
            
        <div style=""text-align: center; position: fixed; top: 5vh; left: 40vw;"">
            <div style=""margin:0 auto; width: 20vw; top: 8vh; font-size: 2vw""> 
            <font color=""green""> Bonus : $2.44 </font>
            </div>
        </div>
    
            <div> Please press any key to continue to the next movie.</div>
        "," ","ITI","","","","","","",""
"","","","","","html-keyboard-response","181","234940","0.0-7.48-1.48","5b5b02c14e945800017d5da1","6573617f270241e5da3d355d","6576bff81728a9b6e3f015b6","1274","./stimuli//pack_morph_shapes_1/cat_2/diff_4/ex_2_4_4.gif","arrowright","response","ArrowRight","4","2","4","test","true",""
"","","","","","html-keyboard-response","182","236449","0.0-7.48-2.48","5b5b02c14e945800017d5da1","6573617f270241e5da3d355d","6576bff81728a9b6e3f015b6","null","<p> <font color=""green"" size=""5vw""> Correct category! </font> <br> <br> <font color=""green"" size=""8vw""> + $0.05 </font> </p>","null","feedback","","","","","","","2.49"
"","","","","","html-keyboard-response","183","237013","0.0-7.49-0.49","5b5b02c14e945800017d5da1","6573617f270241e5da3d355d","6576bff81728a9b6e3f015b6","563","
            
        <div style=""text-align: center; position: fixed; top: 5vh; left: 40vw;"">
            <div style=""margin:0 auto; width: 20vw; top: 8vh; font-size: 2vw""> 
            <font color=""green""> Bonus : $2.49 </font>
            </div>
        </div>
    
            <div> Please press any key to continue to the next movie.</div>
        "," ","ITI","","","","","","",""
"","","","","","html-keyboard-response","184","238304","0.0-7.49-1.49","5b5b02c14e945800017d5da1","6573617f270241e5da3d355d","6576bff81728a9b6e3f015b6","1290","./stimuli//pack_morph_shapes_1/cat_2/diff_4/ex_2_4_11.gif","arrowleft","response","ArrowRight","11","2","4","test","false",""
"","","","","","html-keyboard-response","185","239963","0.0-7.49-2.49","5b5b02c14e945800017d5da1","6573617f270241e5da3d355d","6576bff81728a9b6e3f015b6","null","<p> <font color=""red"" size=""5vw""> Wrong category! </font> <br> <br> <font color=""red"" size=""8vw""> - $0.05 </font> </p>","null","feedback","","","","","","","2.44"
"","","","","","html-keyboard-response","186","240261","0.0-7.50-0.50","5b5b02c14e945800017d5da1","6573617f270241e5da3d355d","6576bff81728a9b6e3f015b6","297","
            
        <div style=""text-align: center; position: fixed; top: 5vh; left: 40vw;"">
            <div style=""margin:0 auto; width: 20vw; top: 8vh; font-size: 2vw""> 
            <font color=""green""> Bonus : $2.44 </font>
            </div>
        </div>
    
            <div> Please press any key to continue to the next movie.</div>
        "," ","ITI","","","","","","",""
"","","","","","html-keyboard-response","187","241142","0.0-7.50-1.50","5b5b02c14e945800017d5da1","6573617f270241e5da3d355d","6576bff81728a9b6e3f015b6","879","./stimuli//pack_morph_shapes_1/cat_2/diff_3/ex_2_3_1.gif","arrowright","response","ArrowRight","1","2","3","test","true",""
"","","","","","html-keyboard-response","188","242646","0.0-7.50-2.50","5b5b02c14e945800017d5da1","6573617f270241e5da3d355d","6576bff81728a9b6e3f015b6","null","<p> <font color=""green"" size=""5vw""> Correct category! </font> <br> <br> <font color=""green"" size=""8vw""> + $0.06 </font> </p>","null","feedback","","","","","","","2.5"
"","","","","","html-keyboard-response","189","243011","0.0-7.51-0.51","5b5b02c14e945800017d5da1","6573617f270241e5da3d355d","6576bff81728a9b6e3f015b6","363","
            
        <div style=""text-align: center; position: fixed; top: 5vh; left: 40vw;"">
            <div style=""margin:0 auto; width: 20vw; top: 8vh; font-size: 2vw""> 
            <font color=""green""> Bonus : $2.5 </font>
            </div>
        </div>
    
            <div> Please press any key to continue to the next movie.</div>
        "," ","ITI","","","","","","",""
"","","","","","html-keyboard-response","190","243836","0.0-7.51-1.51","5b5b02c14e945800017d5da1","6573617f270241e5da3d355d","6576bff81728a9b6e3f015b6","823","./stimuli//pack_morph_shapes_1/cat_1/diff_3/ex_1_3_11.gif","arrowleft","response","ArrowLeft","11","1","3","test","true",""
"","","","","","html-keyboard-response","191","245343","0.0-7.51-2.51","5b5b02c14e945800017d5da1","6573617f270241e5da3d355d","6576bff81728a9b6e3f015b6","null","<p> <font color=""green"" size=""5vw""> Correct category! </font> <br> <br> <font color=""green"" size=""8vw""> + $0.07 </font> </p>","null","feedback","","","","","","","2.57"
"","","","","","html-keyboard-response","192","245808","0.0-7.52-0.52","5b5b02c14e945800017d5da1","6573617f270241e5da3d355d","6576bff81728a9b6e3f015b6","464","
            
        <div style=""text-align: center; position: fixed; top: 5vh; left: 40vw;"">
            <div style=""margin:0 auto; width: 20vw; top: 8vh; font-size: 2vw""> 
            <font color=""green""> Bonus : $2.57 </font>
            </div>
        </div>
    
            <div> Please press any key to continue to the next movie.</div>
        "," ","ITI","","","","","","",""
"","","","","","html-keyboard-response","193","246956","0.0-7.52-1.52","5b5b02c14e945800017d5da1","6573617f270241e5da3d355d","6576bff81728a9b6e3f015b6","1145","./stimuli//pack_morph_shapes_1/cat_2/diff_3/ex_2_3_8.gif","arrowleft","response","ArrowRight","8","2","3","test","false",""
"","","","","","html-keyboard-response","194","248456","0.0-7.52-2.52","5b5b02c14e945800017d5da1","6573617f270241e5da3d355d","6576bff81728a9b6e3f015b6","null","<p> <font color=""red"" size=""5vw""> Wrong category! </font> <br> <br> <font color=""red"" size=""8vw""> - $0.05 </font> </p>","null","feedback","","","","","","","2.52"
"","","","","","html-keyboard-response","195","248806","0.0-7.53-0.53","5b5b02c14e945800017d5da1","6573617f270241e5da3d355d","6576bff81728a9b6e3f015b6","350","
            
        <div style=""text-align: center; position: fixed; top: 5vh; left: 40vw;"">
            <div style=""margin:0 auto; width: 20vw; top: 8vh; font-size: 2vw""> 
            <font color=""green""> Bonus : $2.52 </font>
            </div>
        </div>
    
            <div> Please press any key to continue to the next movie.</div>
        "," ","ITI","","","","","","",""
"","","","","","html-keyboard-response","196","250246","0.0-7.53-1.53","5b5b02c14e945800017d5da1","6573617f270241e5da3d355d","6576bff81728a9b6e3f015b6","1438","./stimuli//pack_morph_shapes_1/cat_2/diff_3/ex_2_3_15.gif","arrowright","response","ArrowRight","15","2","3","test","true",""
"","","","","","html-keyboard-response","197","251749","0.0-7.53-2.53","5b5b02c14e945800017d5da1","6573617f270241e5da3d355d","6576bff81728a9b6e3f015b6","null","<p> <font color=""green"" size=""5vw""> Correct category! </font> <br> <br> <font color=""green"" size=""8vw""> + $0.05 </font> </p>","null","feedback","","","","","","","2.57"
"","","","","","html-keyboard-response","198","252155","0.0-7.54-0.54","5b5b02c14e945800017d5da1","6573617f270241e5da3d355d","6576bff81728a9b6e3f015b6","407","
            
        <div style=""text-align: center; position: fixed; top: 5vh; left: 40vw;"">
            <div style=""margin:0 auto; width: 20vw; top: 8vh; font-size: 2vw""> 
            <font color=""green""> Bonus : $2.57 </font>
            </div>
        </div>
    
            <div> Please press any key to continue to the next movie.</div>
        "," ","ITI","","","","","","",""
"","","","","","html-keyboard-response","199","253797","0.0-7.54-1.54","5b5b02c14e945800017d5da1","6573617f270241e5da3d355d","6576bff81728a9b6e3f015b6","1641","./stimuli//pack_morph_shapes_1/cat_2/diff_3/ex_2_3_15.gif","arrowright","response","ArrowRight","15","2","3","test","true",""
"","","","","","html-keyboard-response","200","255367","0.0-7.54-2.54","5b5b02c14e945800017d5da1","6573617f270241e5da3d355d","6576bff81728a9b6e3f015b6","null","<p> <font color=""green"" size=""5vw""> Correct category! </font> <br> <br> <font color=""green"" size=""8vw""> + $0.04 </font> </p>","null","feedback","","","","","","","2.61"
"","","","","","html-keyboard-response","201","255561","0.0-7.55-0.55","5b5b02c14e945800017d5da1","6573617f270241e5da3d355d","6576bff81728a9b6e3f015b6","193","
            
        <div style=""text-align: center; position: fixed; top: 5vh; left: 40vw;"">
            <div style=""margin:0 auto; width: 20vw; top: 8vh; font-size: 2vw""> 
            <font color=""green""> Bonus : $2.61 </font>
            </div>
        </div>
    
            <div> Please press any key to continue to the next movie.</div>
        "," ","ITI","","","","","","",""
"","","","","","html-keyboard-response","202","256715","0.0-7.55-1.55","5b5b02c14e945800017d5da1","6573617f270241e5da3d355d","6576bff81728a9b6e3f015b6","1153","./stimuli//pack_morph_shapes_1/cat_2/diff_4/ex_2_4_17.gif","arrowright","response","ArrowRight","17","2","4","test","true",""
"","","","","","html-keyboard-response","203","258228","0.0-7.55-2.55","5b5b02c14e945800017d5da1","6573617f270241e5da3d355d","6576bff81728a9b6e3f015b6","null","<p> <font color=""green"" size=""5vw""> Correct category! </font> <br> <br> <font color=""green"" size=""8vw""> + $0.06 </font> </p>","null","feedback","","","","","","","2.67"
"","","","","","html-keyboard-response","204","259079","0.0-7.56-0.56","5b5b02c14e945800017d5da1","6573617f270241e5da3d355d","6576bff81728a9b6e3f015b6","851","
            
        <div style=""text-align: center; position: fixed; top: 5vh; left: 40vw;"">
            <div style=""margin:0 auto; width: 20vw; top: 8vh; font-size: 2vw""> 
            <font color=""green""> Bonus : $2.67 </font>
            </div>
        </div>
    
            <div> Please press any key to continue to the next movie.</div>
        "," ","ITI","","","","","","",""
"","","","","","html-keyboard-response","205","260108","0.0-7.56-1.56","5b5b02c14e945800017d5da1","6573617f270241e5da3d355d","6576bff81728a9b6e3f015b6","1027","./stimuli//pack_morph_shapes_1/cat_2/diff_4/ex_2_4_7.gif","arrowright","response","ArrowRight","7","2","4","test","true",""
"","","","","","html-keyboard-response","206","261618","0.0-7.56-2.56","5b5b02c14e945800017d5da1","6573617f270241e5da3d355d","6576bff81728a9b6e3f015b6","null","<p> <font color=""green"" size=""5vw""> Correct category! </font> <br> <br> <font color=""green"" size=""8vw""> + $0.06 </font> </p>","null","feedback","","","","","","","2.73"
"","","","","","html-keyboard-response","207","262018","0.0-7.57-0.57","5b5b02c14e945800017d5da1","6573617f270241e5da3d355d","6576bff81728a9b6e3f015b6","399","
            
        <div style=""text-align: center; position: fixed; top: 5vh; left: 40vw;"">
            <div style=""margin:0 auto; width: 20vw; top: 8vh; font-size: 2vw""> 
            <font color=""green""> Bonus : $2.73 </font>
            </div>
        </div>
    
            <div> Please press any key to continue to the next movie.</div>
        "," ","ITI","","","","","","",""
"","","","","","html-keyboard-response","208","262847","0.0-7.57-1.57","5b5b02c14e945800017d5da1","6573617f270241e5da3d355d","6576bff81728a9b6e3f015b6","826","./stimuli//pack_morph_shapes_1/cat_1/diff_4/ex_1_4_5.gif","arrowleft","response","ArrowLeft","5","1","4","test","true",""
"","","","","","html-keyboard-response","209","264357","0.0-7.57-2.57","5b5b02c14e945800017d5da1","6573617f270241e5da3d355d","6576bff81728a9b6e3f015b6","null","<p> <font color=""green"" size=""5vw""> Correct category! </font> <br> <br> <font color=""green"" size=""8vw""> + $0.07 </font> </p>","null","feedback","","","","","","","2.8"
"","","","","","html-keyboard-response","210","264916","0.0-7.58-0.58","5b5b02c14e945800017d5da1","6573617f270241e5da3d355d","6576bff81728a9b6e3f015b6","557","
            
        <div style=""text-align: center; position: fixed; top: 5vh; left: 40vw;"">
            <div style=""margin:0 auto; width: 20vw; top: 8vh; font-size: 2vw""> 
            <font color=""green""> Bonus : $2.8 </font>
            </div>
        </div>
    
            <div> Please press any key to continue to the next movie.</div>
        "," ","ITI","","","","","","",""
"","","","","","html-keyboard-response","211","265681","0.0-7.58-1.58","5b5b02c14e945800017d5da1","6573617f270241e5da3d355d","6576bff81728a9b6e3f015b6","764","./stimuli//pack_morph_shapes_1/cat_1/diff_4/ex_1_4_6.gif","arrowleft","response","ArrowLeft","6","1","4","test","true",""
"","","","","","html-keyboard-response","212","267190","0.0-7.58-2.58","5b5b02c14e945800017d5da1","6573617f270241e5da3d355d","6576bff81728a9b6e3f015b6","null","<p> <font color=""green"" size=""5vw""> Correct category! </font> <br> <br> <font color=""green"" size=""8vw""> + $0.07 </font> </p>","null","feedback","","","","","","","2.87"
"","","","","","html-keyboard-response","213","267772","0.0-7.59-0.59","5b5b02c14e945800017d5da1","6573617f270241e5da3d355d","6576bff81728a9b6e3f015b6","581","
            
        <div style=""text-align: center; position: fixed; top: 5vh; left: 40vw;"">
            <div style=""margin:0 auto; width: 20vw; top: 8vh; font-size: 2vw""> 
            <font color=""green""> Bonus : $2.87 </font>
            </div>
        </div>
    
            <div> Please press any key to continue to the next movie.</div>
        "," ","ITI","","","","","","",""
"","","","","","html-keyboard-response","214","269323","0.0-7.59-1.59","5b5b02c14e945800017d5da1","6573617f270241e5da3d355d","6576bff81728a9b6e3f015b6","1550","./stimuli//pack_morph_shapes_1/cat_2/diff_4/ex_2_4_10.gif","arrowright","response","ArrowRight","10","2","4","test","true",""
"","","","","","html-keyboard-response","215","270831","0.0-7.59-2.59","5b5b02c14e945800017d5da1","6573617f270241e5da3d355d","6576bff81728a9b6e3f015b6","null","<p> <font color=""green"" size=""5vw""> Correct category! </font> <br> <br> <font color=""green"" size=""8vw""> + $0.05 </font> </p>","null","feedback","","","","","","","2.92"
"","","","","","html-keyboard-response","216","271258","0.0-7.60-0.60","5b5b02c14e945800017d5da1","6573617f270241e5da3d355d","6576bff81728a9b6e3f015b6","426","
            
        <div style=""text-align: center; position: fixed; top: 5vh; left: 40vw;"">
            <div style=""margin:0 auto; width: 20vw; top: 8vh; font-size: 2vw""> 
            <font color=""green""> Bonus : $2.92 </font>
            </div>
        </div>
    
            <div> Please press any key to continue to the next movie.</div>
        "," ","ITI","","","","","","",""
"","","","","","html-keyboard-response","217","272120","0.0-7.60-1.60","5b5b02c14e945800017d5da1","6573617f270241e5da3d355d","6576bff81728a9b6e3f015b6","862","./stimuli//pack_morph_shapes_1/cat_1/diff_5/ex_1_5_2.gif","arrowleft","response","ArrowLeft","2","1","5","test","true",""
"","","","","","html-keyboard-response","218","273633","0.0-7.60-2.60","5b5b02c14e945800017d5da1","6573617f270241e5da3d355d","6576bff81728a9b6e3f015b6","null","<p> <font color=""green"" size=""5vw""> Correct category! </font> <br> <br> <font color=""green"" size=""8vw""> + $0.06 </font> </p>","null","feedback","","","","","","","2.98"
"","","","","","html-keyboard-response","219","274005","0.0-7.61-0.61","5b5b02c14e945800017d5da1","6573617f270241e5da3d355d","6576bff81728a9b6e3f015b6","372","
            
        <div style=""text-align: center; position: fixed; top: 5vh; left: 40vw;"">
            <div style=""margin:0 auto; width: 20vw; top: 8vh; font-size: 2vw""> 
            <font color=""green""> Bonus : $2.98 </font>
            </div>
        </div>
    
            <div> Please press any key to continue to the next movie.</div>
        "," ","ITI","","","","","","",""
"","","","","","html-keyboard-response","220","274693","0.0-7.61-1.61","5b5b02c14e945800017d5da1","6573617f270241e5da3d355d","6576bff81728a9b6e3f015b6","688","./stimuli//pack_morph_shapes_1/cat_1/diff_5/ex_1_5_1.gif","arrowleft","response","ArrowLeft","1","1","5","test","true",""
"","","","","","html-keyboard-response","221","276201","0.0-7.61-2.61","5b5b02c14e945800017d5da1","6573617f270241e5da3d355d","6576bff81728a9b6e3f015b6","null","<p> <font color=""green"" size=""5vw""> Correct category! </font> <br> <br> <font color=""green"" size=""8vw""> + $0.07 </font> </p>","null","feedback","","","","","","","3.05"
"","","","","","html-keyboard-response","222","276880","0.0-7.62-0.62","5b5b02c14e945800017d5da1","6573617f270241e5da3d355d","6576bff81728a9b6e3f015b6","680","
            
        <div style=""text-align: center; position: fixed; top: 5vh; left: 40vw;"">
            <div style=""margin:0 auto; width: 20vw; top: 8vh; font-size: 2vw""> 
            <font color=""green""> Bonus : $3.05 </font>
            </div>
        </div>
    
            <div> Please press any key to continue to the next movie.</div>
        "," ","ITI","","","","","","",""
"","","","","","html-keyboard-response","223","278381","0.0-7.62-1.62","5b5b02c14e945800017d5da1","6573617f270241e5da3d355d","6576bff81728a9b6e3f015b6","1499","./stimuli//pack_morph_shapes_1/cat_1/diff_5/ex_1_5_14.gif","arrowleft","response","ArrowLeft","14","1","5","test","true",""
"","","","","","html-keyboard-response","224","279883","0.0-7.62-2.62","5b5b02c14e945800017d5da1","6573617f270241e5da3d355d","6576bff81728a9b6e3f015b6","null","<p> <font color=""green"" size=""5vw""> Correct category! </font> <br> <br> <font color=""green"" size=""8vw""> + $0.05 </font> </p>","null","feedback","","","","","","","3.1"
"","","","","","html-keyboard-response","225","280121","0.0-7.63-0.63","5b5b02c14e945800017d5da1","6573617f270241e5da3d355d","6576bff81728a9b6e3f015b6","237","
            
        <div style=""text-align: center; position: fixed; top: 5vh; left: 40vw;"">
            <div style=""margin:0 auto; width: 20vw; top: 8vh; font-size: 2vw""> 
            <font color=""green""> Bonus : $3.1 </font>
            </div>
        </div>
    
            <div> Please press any key to continue to the next movie.</div>
        "," ","ITI","","","","","","",""
"","","","","","html-keyboard-response","226","280877","0.0-7.63-1.63","5b5b02c14e945800017d5da1","6573617f270241e5da3d355d","6576bff81728a9b6e3f015b6","757","./stimuli//pack_morph_shapes_1/cat_2/diff_5/ex_2_5_7.gif","arrowleft","response","ArrowRight","7","2","5","test","false",""
"","","","","","html-keyboard-response","227","282389","0.0-7.63-2.63","5b5b02c14e945800017d5da1","6573617f270241e5da3d355d","6576bff81728a9b6e3f015b6","null","<p> <font color=""red"" size=""5vw""> Wrong category! </font> <br> <br> <font color=""red"" size=""8vw""> - $0.05 </font> </p>","null","feedback","","","","","","","3.05"
"","","","","","html-keyboard-response","228","282736","0.0-7.64-0.64","5b5b02c14e945800017d5da1","6573617f270241e5da3d355d","6576bff81728a9b6e3f015b6","346","
            
        <div style=""text-align: center; position: fixed; top: 5vh; left: 40vw;"">
            <div style=""margin:0 auto; width: 20vw; top: 8vh; font-size: 2vw""> 
            <font color=""green""> Bonus : $3.05 </font>
            </div>
        </div>
    
            <div> Please press any key to continue to the next movie.</div>
        "," ","ITI","","","","","","",""
"","","","","","html-keyboard-response","229","283756","0.0-7.64-1.64","5b5b02c14e945800017d5da1","6573617f270241e5da3d355d","6576bff81728a9b6e3f015b6","1019","./stimuli//pack_morph_shapes_1/cat_2/diff_5/ex_2_5_15.gif","arrowright","response","ArrowRight","15","2","5","test","true",""
"","","","","","html-keyboard-response","230","285270","0.0-7.64-2.64","5b5b02c14e945800017d5da1","6573617f270241e5da3d355d","6576bff81728a9b6e3f015b6","null","<p> <font color=""green"" size=""5vw""> Correct category! </font> <br> <br> <font color=""green"" size=""8vw""> + $0.06 </font> </p>","null","feedback","","","","","","","3.11"
"","","","","","html-keyboard-response","231","285642","0.0-7.65-0.65","5b5b02c14e945800017d5da1","6573617f270241e5da3d355d","6576bff81728a9b6e3f015b6","370","
            
        <div style=""text-align: center; position: fixed; top: 5vh; left: 40vw;"">
            <div style=""margin:0 auto; width: 20vw; top: 8vh; font-size: 2vw""> 
            <font color=""green""> Bonus : $3.11 </font>
            </div>
        </div>
    
            <div> Please press any key to continue to the next movie.</div>
        "," ","ITI","","","","","","",""
"","","","","","html-keyboard-response","232","286405","0.0-7.65-1.65","5b5b02c14e945800017d5da1","6573617f270241e5da3d355d","6576bff81728a9b6e3f015b6","763","./stimuli//pack_morph_shapes_1/cat_1/diff_5/ex_1_5_4.gif","arrowleft","response","ArrowLeft","4","1","5","test","true",""
"","","","","","html-keyboard-response","233","287920","0.0-7.65-2.65","5b5b02c14e945800017d5da1","6573617f270241e5da3d355d","6576bff81728a9b6e3f015b6","null","<p> <font color=""green"" size=""5vw""> Correct category! </font> <br> <br> <font color=""green"" size=""8vw""> + $0.07 </font> </p>","null","feedback","","","","","","","3.18"
"","","","","","html-keyboard-response","234","288471","0.0-7.66-0.66","5b5b02c14e945800017d5da1","6573617f270241e5da3d355d","6576bff81728a9b6e3f015b6","551","
            
        <div style=""text-align: center; position: fixed; top: 5vh; left: 40vw;"">
            <div style=""margin:0 auto; width: 20vw; top: 8vh; font-size: 2vw""> 
            <font color=""green""> Bonus : $3.18 </font>
            </div>
        </div>
    
            <div> Please press any key to continue to the next movie.</div>
        "," ","ITI","","","","","","",""
"","","","","","html-keyboard-response","235","289072","0.0-7.66-1.66","5b5b02c14e945800017d5da1","6573617f270241e5da3d355d","6576bff81728a9b6e3f015b6","601","./stimuli//pack_morph_shapes_1/cat_2/diff_5/ex_2_5_7.gif","arrowright","response","ArrowRight","7","2","5","test","true",""
"","","","","","html-keyboard-response","236","290584","0.0-7.66-2.66","5b5b02c14e945800017d5da1","6573617f270241e5da3d355d","6576bff81728a9b6e3f015b6","null","<p> <font color=""green"" size=""5vw""> Correct category! </font> <br> <br> <font color=""green"" size=""8vw""> + $0.07 </font> </p>","null","feedback","","","","","","","3.25"
"","","","","","html-keyboard-response","237","291172","0.0-7.67-0.67","5b5b02c14e945800017d5da1","6573617f270241e5da3d355d","6576bff81728a9b6e3f015b6","587","
            
        <div style=""text-align: center; position: fixed; top: 5vh; left: 40vw;"">
            <div style=""margin:0 auto; width: 20vw; top: 8vh; font-size: 2vw""> 
            <font color=""green""> Bonus : $3.25 </font>
            </div>
        </div>
    
            <div> Please press any key to continue to the next movie.</div>
        "," ","ITI","","","","","","",""
"","","","","","html-keyboard-response","238","293756","0.0-7.67-1.67","5b5b02c14e945800017d5da1","6573617f270241e5da3d355d","6576bff81728a9b6e3f015b6","2582","./stimuli//pack_morph_shapes_1/cat_2/diff_5/ex_2_5_16.gif","arrowright","response","ArrowRight","16","2","5","test","true",""
"","","","","","html-keyboard-response","239","295324","0.0-7.67-2.67","5b5b02c14e945800017d5da1","6573617f270241e5da3d355d","6576bff81728a9b6e3f015b6","null","<p> <font color=""green"" size=""5vw""> Correct category! </font> <br> <br> <font color=""green"" size=""8vw""> + $0.03 </font> </p>","null","feedback","","","","","","","3.28"
"","","","","","html-keyboard-response","240","296576","0.0-7.68-0.68","5b5b02c14e945800017d5da1","6573617f270241e5da3d355d","6576bff81728a9b6e3f015b6","1250","
            
        <div style=""text-align: center; position: fixed; top: 5vh; left: 40vw;"">
            <div style=""margin:0 auto; width: 20vw; top: 8vh; font-size: 2vw""> 
            <font color=""green""> Bonus : $3.28 </font>
            </div>
        </div>
    
            <div> Please press any key to continue to the next movie.</div>
        "," ","ITI","","","","","","",""
"","","","","","html-keyboard-response","241","297536","0.0-7.68-1.68","5b5b02c14e945800017d5da1","6573617f270241e5da3d355d","6576bff81728a9b6e3f015b6","960","./stimuli//pack_morph_shapes_1/cat_2/diff_5/ex_2_5_5.gif","arrowleft","response","ArrowRight","5","2","5","test","false",""
"","","","","","html-keyboard-response","242","299071","0.0-7.68-2.68","5b5b02c14e945800017d5da1","6573617f270241e5da3d355d","6576bff81728a9b6e3f015b6","null","<p> <font color=""red"" size=""5vw""> Wrong category! </font> <br> <br> <font color=""red"" size=""8vw""> - $0.05 </font> </p>","null","feedback","","","","","","","3.23"
"","","","","","html-keyboard-response","243","299496","0.0-7.69-0.69","5b5b02c14e945800017d5da1","6573617f270241e5da3d355d","6576bff81728a9b6e3f015b6","424","
            
        <div style=""text-align: center; position: fixed; top: 5vh; left: 40vw;"">
            <div style=""margin:0 auto; width: 20vw; top: 8vh; font-size: 2vw""> 
            <font color=""green""> Bonus : $3.23 </font>
            </div>
        </div>
    
            <div> Please press any key to continue to the next movie.</div>
        "," ","ITI","","","","","","",""
"","","","","","html-keyboard-response","244","300375","0.0-7.69-1.69","5b5b02c14e945800017d5da1","6573617f270241e5da3d355d","6576bff81728a9b6e3f015b6","879","./stimuli//pack_morph_shapes_1/cat_2/diff_5/ex_2_5_8.gif","arrowright","response","ArrowRight","8","2","5","test","true",""
"","","","","","html-keyboard-response","245","301980","0.0-7.69-2.69","5b5b02c14e945800017d5da1","6573617f270241e5da3d355d","6576bff81728a9b6e3f015b6","null","<p> <font color=""green"" size=""5vw""> Correct category! </font> <br> <br> <font color=""green"" size=""8vw""> + $0.06 </font> </p>","null","feedback","","","","","","","3.29"
"","","","","","html-keyboard-response","246","302361","0.0-7.70-0.70","5b5b02c14e945800017d5da1","6573617f270241e5da3d355d","6576bff81728a9b6e3f015b6","380","
            
        <div style=""text-align: center; position: fixed; top: 5vh; left: 40vw;"">
            <div style=""margin:0 auto; width: 20vw; top: 8vh; font-size: 2vw""> 
            <font color=""green""> Bonus : $3.29 </font>
            </div>
        </div>
    
            <div> Please press any key to continue to the next movie.</div>
        "," ","ITI","","","","","","",""
"","","","","","html-keyboard-response","247","303476","0.0-7.70-1.70","5b5b02c14e945800017d5da1","6573617f270241e5da3d355d","6576bff81728a9b6e3f015b6","1113","./stimuli//pack_morph_shapes_1/cat_2/diff_5/ex_2_5_3.gif","arrowleft","response","ArrowRight","3","2","5","test","false",""
"","","","","","html-keyboard-response","248","304984","0.0-7.70-2.70","5b5b02c14e945800017d5da1","6573617f270241e5da3d355d","6576bff81728a9b6e3f015b6","null","<p> <font color=""red"" size=""5vw""> Wrong category! </font> <br> <br> <font color=""red"" size=""8vw""> - $0.05 </font> </p>","null","feedback","","","","","","","3.24"
"","","","","","html-keyboard-response","249","305404","0.0-7.71-0.71","5b5b02c14e945800017d5da1","6573617f270241e5da3d355d","6576bff81728a9b6e3f015b6","420","
            
        <div style=""text-align: center; position: fixed; top: 5vh; left: 40vw;"">
            <div style=""margin:0 auto; width: 20vw; top: 8vh; font-size: 2vw""> 
            <font color=""green""> Bonus : $3.24 </font>
            </div>
        </div>
    
            <div> Please press any key to continue to the next movie.</div>
        "," ","ITI","","","","","","",""
"","","","","","html-keyboard-response","250","306329","0.0-7.71-1.71","5b5b02c14e945800017d5da1","6573617f270241e5da3d355d","6576bff81728a9b6e3f015b6","923","./stimuli//pack_morph_shapes_1/cat_2/diff_4/ex_2_4_12.gif","arrowright","response","ArrowRight","12","2","4","test","true",""
"","","","","","html-keyboard-response","251","307831","0.0-7.71-2.71","5b5b02c14e945800017d5da1","6573617f270241e5da3d355d","6576bff81728a9b6e3f015b6","null","<p> <font color=""green"" size=""5vw""> Correct category! </font> <br> <br> <font color=""green"" size=""8vw""> + $0.06 </font> </p>","null","feedback","","","","","","","3.3"
"","","","","","html-keyboard-response","252","308275","0.0-7.72-0.72","5b5b02c14e945800017d5da1","6573617f270241e5da3d355d","6576bff81728a9b6e3f015b6","443","
            
        <div style=""text-align: center; position: fixed; top: 5vh; left: 40vw;"">
            <div style=""margin:0 auto; width: 20vw; top: 8vh; font-size: 2vw""> 
            <font color=""green""> Bonus : $3.3 </font>
            </div>
        </div>
    
            <div> Please press any key to continue to the next movie.</div>
        "," ","ITI","","","","","","",""
"","","","","","html-keyboard-response","253","309517","0.0-7.72-1.72","5b5b02c14e945800017d5da1","6573617f270241e5da3d355d","6576bff81728a9b6e3f015b6","1241","./stimuli//pack_morph_shapes_1/cat_2/diff_4/ex_2_4_7.gif","arrowright","response","ArrowRight","7","2","4","test","true",""
"","","","","","html-keyboard-response","254","311024","0.0-7.72-2.72","5b5b02c14e945800017d5da1","6573617f270241e5da3d355d","6576bff81728a9b6e3f015b6","null","<p> <font color=""green"" size=""5vw""> Correct category! </font> <br> <br> <font color=""green"" size=""8vw""> + $0.05 </font> </p>","null","feedback","","","","","","","3.35"
"","","","","","html-keyboard-response","255","311345","0.0-7.73-0.73","5b5b02c14e945800017d5da1","6573617f270241e5da3d355d","6576bff81728a9b6e3f015b6","319","
            
        <div style=""text-align: center; position: fixed; top: 5vh; left: 40vw;"">
            <div style=""margin:0 auto; width: 20vw; top: 8vh; font-size: 2vw""> 
            <font color=""green""> Bonus : $3.35 </font>
            </div>
        </div>
    
