"success","timeout","failed_images","failed_audio","failed_video","trial_type","trial_index","time_elapsed","internal_node_id","subject_id","study_id","session_id","rt","stimulus","response","task","correct_response","exemplar_ID","category","difficulty","phase","correct","bonus"
"true","false","[]","[]","[]","preload","0","2","0.0-0.0","5f6c828345ca23025dcefa6f","6573617f270241e5da3d355d","6576bffba60d8dd3ea0d1158","","","","","","","","","","",""
"","","","","","html-keyboard-response","1","36630","0.0-1.0","5f6c828345ca23025dcefa6f","6573617f270241e5da3d355d","6576bffba60d8dd3ea0d1158","36628","Welcome to the Category Learning experiment! Press any key to continue."," ","welcome","","","","","","",""
"","","","","","html-keyboard-response","2","38602","0.0-2.0","5f6c828345ca23025dcefa6f","6573617f270241e5da3d355d","6576bffba60d8dd3ea0d1158","1970","
            <p>You will be shown movies. Each movie contains a sequence of shapes changing form. 
            <br> Some shapes are category A, some are category B. <b> Within a single movie, all shapes belong to the same category. </b>
            <br> You will not know in advance which category the shapes of each movie belong to.</p>
            <p> While you watch a movie, you have to guess the category that its shapes belong to <b>(left arrow for category A, right arrow for category B)</b></p>
            <p> After you choose, the screen will show you whether you were correct or not.</p>
            <p>Press any key to continue.</p>
            "," ","introduction_1","","","","","","",""
"","","","","","html-keyboard-response","3","40586","0.0-3.0","5f6c828345ca23025dcefa6f","6573617f270241e5da3d355d","6576bffba60d8dd3ea0d1158","1983","
              <p><b>You will receive a bonus payment for each correct answer! The faster you answer the higher the bonus will be!</b></p>
              <p> So you can increase your bonus by guessing as quickly and accurately as possible.</p>
              <p><b>You will lose $0.05 from your bonus payment for each incorrect answer! The bonus can not become less that $0.</b> </p>
              <p>Press any key to continue.</p>
              "," ","introduction_2","","","","","","",""
"","","","","","html-keyboard-response","4","41553","0.0-4.0","5f6c828345ca23025dcefa6f","6573617f270241e5da3d355d","6576bffba60d8dd3ea0d1158","965","
            <p> <b>The first 10 trials are a practice round that will not count towards your bonus payment.</b></p>
            <p> You will be notified when practice finishes and the test begins. </p>
            <p> Press any key to begin the practice round.</p>
            "," ","introduction_3","","","","","","",""
"","","","","","html-keyboard-response","5","43134","0.0-5.0-0.0","5f6c828345ca23025dcefa6f","6573617f270241e5da3d355d","6576bffba60d8dd3ea0d1158","1580","
            
        <div style=""text-align: center; position: fixed; top: 5vh; left: 40vw;"">
            <div style=""margin:0 auto; width: 20vw; top: 8vh; font-size: 2vw""> 
            <font color=""green""> Bonus : $0 </font>
            </div>
        </div>
    
            <div> Please press any key to continue to the next movie.</div>
        "," ","ITI","","","","","","",""
"","","","","","html-keyboard-response","6","47136","0.0-5.0-1.0","5f6c828345ca23025dcefa6f","6573617f270241e5da3d355d","6576bffba60d8dd3ea0d1158","null","./stimuli//pack_morph_shapes_1/cat_2/diff_2/ex_2_2_3.gif","null","response","ArrowRight","3","2","2","train","false",""
"","","","","","html-keyboard-response","7","48641","0.0-5.0-2.0","5f6c828345ca23025dcefa6f","6573617f270241e5da3d355d","6576bffba60d8dd3ea0d1158","null","<p> <font color=""red"" size=""5vw""> Time out! </font> <br> Please try to respond as quickly as possible. </p>","null","feedback","","","","","","","0"
"","","","","","html-keyboard-response","8","50034","0.0-5.0-0.1","5f6c828345ca23025dcefa6f","6573617f270241e5da3d355d","6576bffba60d8dd3ea0d1158","1391","
            
        <div style=""text-align: center; position: fixed; top: 5vh; left: 40vw;"">
            <div style=""margin:0 auto; width: 20vw; top: 8vh; font-size: 2vw""> 
            <font color=""green""> Bonus : $0 </font>
            </div>
        </div>
    
            <div> Please press any key to continue to the next movie.</div>
        ","a","ITI","","","","","","",""
"","","","","","html-keyboard-response","9","54036","0.0-5.0-1.1","5f6c828345ca23025dcefa6f","6573617f270241e5da3d355d","6576bffba60d8dd3ea0d1158","null","./stimuli//pack_morph_shapes_1/cat_2/diff_1/ex_2_1_14.gif","null","response","ArrowRight","14","2","1","train","false",""
"","","","","","html-keyboard-response","10","55542","0.0-5.0-2.1","5f6c828345ca23025dcefa6f","6573617f270241e5da3d355d","6576bffba60d8dd3ea0d1158","null","<p> <font color=""red"" size=""5vw""> Time out! </font> <br> Please try to respond as quickly as possible. </p>","null","feedback","","","","","","","0"
"","","","","","html-keyboard-response","11","56590","0.0-5.0-0.2","5f6c828345ca23025dcefa6f","6573617f270241e5da3d355d","6576bffba60d8dd3ea0d1158","1046","
            
        <div style=""text-align: center; position: fixed; top: 5vh; left: 40vw;"">
            <div style=""margin:0 auto; width: 20vw; top: 8vh; font-size: 2vw""> 
            <font color=""green""> Bonus : $0 </font>
            </div>
        </div>
    
            <div> Please press any key to continue to the next movie.</div>
        ","w","ITI","","","","","","",""
"","","","","","html-keyboard-response","12","60596","0.0-5.0-1.2","5f6c828345ca23025dcefa6f","6573617f270241e5da3d355d","6576bffba60d8dd3ea0d1158","null","./stimuli//pack_morph_shapes_1/cat_2/diff_1/ex_2_1_11.gif","null","response","ArrowRight","11","2","1","train","false",""
"","","","","","html-keyboard-response","13","62100","0.0-5.0-2.2","5f6c828345ca23025dcefa6f","6573617f270241e5da3d355d","6576bffba60d8dd3ea0d1158","null","<p> <font color=""red"" size=""5vw""> Time out! </font> <br> Please try to respond as quickly as possible. </p>","null","feedback","","","","","","","0"
"","","","","","html-keyboard-response","14","63522","0.0-5.0-0.3","5f6c828345ca23025dcefa6f","6573617f270241e5da3d355d","6576bffba60d8dd3ea0d1158","1424","
            
        <div style=""text-align: center; position: fixed; top: 5vh; left: 40vw;"">
            <div style=""margin:0 auto; width: 20vw; top: 8vh; font-size: 2vw""> 
            <font color=""green""> Bonus : $0 </font>
            </div>
        </div>
    
            <div> Please press any key to continue to the next movie.</div>
        ","d","ITI","","","","","","",""
"","","","","","html-keyboard-response","15","67517","0.0-5.0-1.3","5f6c828345ca23025dcefa6f","6573617f270241e5da3d355d","6576bffba60d8dd3ea0d1158","null","./stimuli//pack_morph_shapes_1/cat_1/diff_1/ex_1_1_17.gif","null","response","ArrowLeft","17","1","1","train","false",""
"","","","","","html-keyboard-response","16","69016","0.0-5.0-2.3","5f6c828345ca23025dcefa6f","6573617f270241e5da3d355d","6576bffba60d8dd3ea0d1158","null","<p> <font color=""red"" size=""5vw""> Time out! </font> <br> Please try to respond as quickly as possible. </p>","null","feedback","","","","","","","0"
"","","","","","html-keyboard-response","17","69152","0.0-5.0-0.4","5f6c828345ca23025dcefa6f","6573617f270241e5da3d355d","6576bffba60d8dd3ea0d1158","134","
            
        <div style=""text-align: center; position: fixed; top: 5vh; left: 40vw;"">
            <div style=""margin:0 auto; width: 20vw; top: 8vh; font-size: 2vw""> 
            <font color=""green""> Bonus : $0 </font>
            </div>
        </div>
    
            <div> Please press any key to continue to the next movie.</div>
        ","s","ITI","","","","","","",""
"","","","","","html-keyboard-response","18","73150","0.0-5.0-1.4","5f6c828345ca23025dcefa6f","6573617f270241e5da3d355d","6576bffba60d8dd3ea0d1158","null","./stimuli//pack_morph_shapes_1/cat_2/diff_1/ex_2_1_8.gif","null","response","ArrowRight","8","2","1","train","false",""
"","","","","","html-keyboard-response","19","74654","0.0-5.0-2.4","5f6c828345ca23025dcefa6f","6573617f270241e5da3d355d","6576bffba60d8dd3ea0d1158","null","<p> <font color=""red"" size=""5vw""> Time out! </font> <br> Please try to respond as quickly as possible. </p>","null","feedback","","","","","","","0"
"","","","","","html-keyboard-response","20","77009","0.0-5.0-0.5","5f6c828345ca23025dcefa6f","6573617f270241e5da3d355d","6576bffba60d8dd3ea0d1158","2356","
            
        <div style=""text-align: center; position: fixed; top: 5vh; left: 40vw;"">
            <div style=""margin:0 auto; width: 20vw; top: 8vh; font-size: 2vw""> 
            <font color=""green""> Bonus : $0 </font>
            </div>
        </div>
    
            <div> Please press any key to continue to the next movie.</div>
        ","d","ITI","","","","","","",""
"","","","","","html-keyboard-response","21","81009","0.0-5.0-1.5","5f6c828345ca23025dcefa6f","6573617f270241e5da3d355d","6576bffba60d8dd3ea0d1158","null","./stimuli//pack_morph_shapes_1/cat_1/diff_1/ex_1_1_2.gif","null","response","ArrowLeft","2","1","1","train","false",""
"","","","","","html-keyboard-response","22","82514","0.0-5.0-2.5","5f6c828345ca23025dcefa6f","6573617f270241e5da3d355d","6576bffba60d8dd3ea0d1158","null","<p> <font color=""red"" size=""5vw""> Time out! </font> <br> Please try to respond as quickly as possible. </p>","null","feedback","","","","","","","0"
"","","","","","html-keyboard-response","23","90740","0.0-5.0-0.6","5f6c828345ca23025dcefa6f","6573617f270241e5da3d355d","6576bffba60d8dd3ea0d1158","8229","
            
        <div style=""text-align: center; position: fixed; top: 5vh; left: 40vw;"">
            <div style=""margin:0 auto; width: 20vw; top: 8vh; font-size: 2vw""> 
            <font color=""green""> Bonus : $0 </font>
            </div>
        </div>
    
            <div> Please press any key to continue to the next movie.</div>
        "," ","ITI","","","","","","",""
"","","","","","html-keyboard-response","24","94746","0.0-5.0-1.6","5f6c828345ca23025dcefa6f","6573617f270241e5da3d355d","6576bffba60d8dd3ea0d1158","null","./stimuli//pack_morph_shapes_1/cat_2/diff_2/ex_2_2_14.gif","null","response","ArrowRight","14","2","2","train","false",""
"","","","","","html-keyboard-response","25","96252","0.0-5.0-2.6","5f6c828345ca23025dcefa6f","6573617f270241e5da3d355d","6576bffba60d8dd3ea0d1158","null","<p> <font color=""red"" size=""5vw""> Time out! </font> <br> Please try to respond as quickly as possible. </p>","null","feedback","","","","","","","0"
"","","","","","html-keyboard-response","26","104536","0.0-5.0-0.7","5f6c828345ca23025dcefa6f","6573617f270241e5da3d355d","6576bffba60d8dd3ea0d1158","8284","
            
        <div style=""text-align: center; position: fixed; top: 5vh; left: 40vw;"">
            <div style=""margin:0 auto; width: 20vw; top: 8vh; font-size: 2vw""> 
            <font color=""green""> Bonus : $0 </font>
            </div>
        </div>
    
            <div> Please press any key to continue to the next movie.</div>
        "," ","ITI","","","","","","",""
"","","","","","html-keyboard-response","27","106947","0.0-5.0-1.7","5f6c828345ca23025dcefa6f","6573617f270241e5da3d355d","6576bffba60d8dd3ea0d1158","2410","./stimuli//pack_morph_shapes_1/cat_1/diff_1/ex_1_1_9.gif","arrowleft","response","ArrowLeft","9","1","1","train","true",""
"","","","","","html-keyboard-response","28","108453","0.0-5.0-2.7","5f6c828345ca23025dcefa6f","6573617f270241e5da3d355d","6576bffba60d8dd3ea0d1158","null","<p> <font color=""green"" size=""5vw""> Correct category! </font> </p>","null","feedback","","","","","","","0"
"","","","","","html-keyboard-response","29","109550","0.0-5.0-0.8","5f6c828345ca23025dcefa6f","6573617f270241e5da3d355d","6576bffba60d8dd3ea0d1158","1096","
            
        <div style=""text-align: center; position: fixed; top: 5vh; left: 40vw;"">
            <div style=""margin:0 auto; width: 20vw; top: 8vh; font-size: 2vw""> 
            <font color=""green""> Bonus : $0 </font>
            </div>
        </div>
    
            <div> Please press any key to continue to the next movie.</div>
        ","f","ITI","","","","","","",""
"","","","","","html-keyboard-response","30","109922","0.0-5.0-1.8","5f6c828345ca23025dcefa6f","6573617f270241e5da3d355d","6576bffba60d8dd3ea0d1158","371","./stimuli//pack_morph_shapes_1/cat_1/diff_2/ex_1_2_17.gif","arrowleft","response","ArrowLeft","17","1","2","train","true",""
"","","","","","html-keyboard-response","31","111428","0.0-5.0-2.8","5f6c828345ca23025dcefa6f","6573617f270241e5da3d355d","6576bffba60d8dd3ea0d1158","null","<p> <font color=""green"" size=""5vw""> Correct category! </font> </p>","null","feedback","","","","","","","0"
"","","","","","html-keyboard-response","32","111700","0.0-5.0-0.9","5f6c828345ca23025dcefa6f","6573617f270241e5da3d355d","6576bffba60d8dd3ea0d1158","271","
            
        <div style=""text-align: center; position: fixed; top: 5vh; left: 40vw;"">
            <div style=""margin:0 auto; width: 20vw; top: 8vh; font-size: 2vw""> 
            <font color=""green""> Bonus : $0 </font>
            </div>
        </div>
    
            <div> Please press any key to continue to the next movie.</div>
        ","d","ITI","","","","","","",""
"","","","","","html-keyboard-response","33","112271","0.0-5.0-1.9","5f6c828345ca23025dcefa6f","6573617f270241e5da3d355d","6576bffba60d8dd3ea0d1158","570","./stimuli//pack_morph_shapes_1/cat_1/diff_2/ex_1_2_6.gif","arrowright","response","ArrowLeft","6","1","2","train","false",""
"","","","","","html-keyboard-response","34","113775","0.0-5.0-2.9","5f6c828345ca23025dcefa6f","6573617f270241e5da3d355d","6576bffba60d8dd3ea0d1158","null","<p> <font color=""red"" size=""5vw""> Wrong category! </font> </p>","null","feedback","","","","","","","0"
"","","","","","html-keyboard-response","35","113999","0.0-6.0","5f6c828345ca23025dcefa6f","6573617f270241e5da3d355d","6576bffba60d8dd3ea0d1158","223","
            <b> <p> The practice round has finished.</p>
            <b> <p> For the rest of the experiment you will receive a bonus payment for each correct answer, which will be higher the faster you answer!</b></p>
            <b> </p> Also you will lose $0.05 from your bonus payment for each incorrect answer!</p>
            <p> Press any key to begin the test. </p>
            ","d","intermission","","","","","","",""
"","","","","","html-keyboard-response","36","115019","0.0-7.0-0.0","5f6c828345ca23025dcefa6f","6573617f270241e5da3d355d","6576bffba60d8dd3ea0d1158","1019","
            
        <div style=""text-align: center; position: fixed; top: 5vh; left: 40vw;"">
            <div style=""margin:0 auto; width: 20vw; top: 8vh; font-size: 2vw""> 
            <font color=""green""> Bonus : $0 </font>
            </div>
        </div>
    
            <div> Please press any key to continue to the next movie.</div>
        ","arrowleft","ITI","","","","","","",""
"","","","","","html-keyboard-response","37","115713","0.0-7.0-1.0","5f6c828345ca23025dcefa6f","6573617f270241e5da3d355d","6576bffba60d8dd3ea0d1158","692","./stimuli//pack_morph_shapes_1/cat_1/diff_1/ex_1_1_5.gif","arrowleft","response","ArrowLeft","5","1","1","test","true",""
"","","","","","html-keyboard-response","38","117219","0.0-7.0-2.0","5f6c828345ca23025dcefa6f","6573617f270241e5da3d355d","6576bffba60d8dd3ea0d1158","null","<p> <font color=""green"" size=""5vw""> Correct category! </font> <br> <br> <font color=""green"" size=""8vw""> + $0.07 </font> </p>","null","feedback","","","","","","","0.07"
"","","","","","html-keyboard-response","39","117747","0.0-7.1-0.1","5f6c828345ca23025dcefa6f","6573617f270241e5da3d355d","6576bffba60d8dd3ea0d1158","527","
            
        <div style=""text-align: center; position: fixed; top: 5vh; left: 40vw;"">
            <div style=""margin:0 auto; width: 20vw; top: 8vh; font-size: 2vw""> 
            <font color=""green""> Bonus : $0.07 </font>
            </div>
        </div>
    
            <div> Please press any key to continue to the next movie.</div>
        ","d","ITI","","","","","","",""
"","","","","","html-keyboard-response","40","118583","0.0-7.1-1.1","5f6c828345ca23025dcefa6f","6573617f270241e5da3d355d","6576bffba60d8dd3ea0d1158","835","./stimuli//pack_morph_shapes_1/cat_2/diff_1/ex_2_1_12.gif","arrowright","response","ArrowRight","12","2","1","test","true",""
"","","","","","html-keyboard-response","41","120087","0.0-7.1-2.1","5f6c828345ca23025dcefa6f","6573617f270241e5da3d355d","6576bffba60d8dd3ea0d1158","null","<p> <font color=""green"" size=""5vw""> Correct category! </font> <br> <br> <font color=""green"" size=""8vw""> + $0.07 </font> </p>","null","feedback","","","","","","","0.14"
"","","","","","html-keyboard-response","42","120486","0.0-7.2-0.2","5f6c828345ca23025dcefa6f","6573617f270241e5da3d355d","6576bffba60d8dd3ea0d1158","397","
            
        <div style=""text-align: center; position: fixed; top: 5vh; left: 40vw;"">
            <div style=""margin:0 auto; width: 20vw; top: 8vh; font-size: 2vw""> 
            <font color=""green""> Bonus : $0.14 </font>
            </div>
        </div>
    
            <div> Please press any key to continue to the next movie.</div>
        ","d","ITI","","","","","","",""
"","","","","","html-keyboard-response","43","121038","0.0-7.2-1.2","5f6c828345ca23025dcefa6f","6573617f270241e5da3d355d","6576bffba60d8dd3ea0d1158","551","./stimuli//pack_morph_shapes_1/cat_1/diff_1/ex_1_1_5.gif","arrowleft","response","ArrowLeft","5","1","1","test","true",""
"","","","","","html-keyboard-response","44","122544","0.0-7.2-2.2","5f6c828345ca23025dcefa6f","6573617f270241e5da3d355d","6576bffba60d8dd3ea0d1158","null","<p> <font color=""green"" size=""5vw""> Correct category! </font> <br> <br> <font color=""green"" size=""8vw""> + $0.08 </font> </p>","null","feedback","","","","","","","0.22"
"","","","","","html-keyboard-response","45","122999","0.0-7.3-0.3","5f6c828345ca23025dcefa6f","6573617f270241e5da3d355d","6576bffba60d8dd3ea0d1158","453","
            
        <div style=""text-align: center; position: fixed; top: 5vh; left: 40vw;"">
            <div style=""margin:0 auto; width: 20vw; top: 8vh; font-size: 2vw""> 
            <font color=""green""> Bonus : $0.22 </font>
            </div>
        </div>
    
            <div> Please press any key to continue to the next movie.</div>
        ","d","ITI","","","","","","",""
"","","","","","html-keyboard-response","46","123867","0.0-7.3-1.3","5f6c828345ca23025dcefa6f","6573617f270241e5da3d355d","6576bffba60d8dd3ea0d1158","868","./stimuli//pack_morph_shapes_1/cat_1/diff_1/ex_1_1_10.gif","arrowright","response","ArrowLeft","10","1","1","test","false",""
"","","","","","html-keyboard-response","47","125373","0.0-7.3-2.3","5f6c828345ca23025dcefa6f","6573617f270241e5da3d355d","6576bffba60d8dd3ea0d1158","null","<p> <font color=""red"" size=""5vw""> Wrong category! </font> <br> <br> <font color=""red"" size=""8vw""> - $0.05 </font> </p>","null","feedback","","","","","","","0.17"
"","","","","","html-keyboard-response","48","125677","0.0-7.4-0.4","5f6c828345ca23025dcefa6f","6573617f270241e5da3d355d","6576bffba60d8dd3ea0d1158","304","
            
        <div style=""text-align: center; position: fixed; top: 5vh; left: 40vw;"">
            <div style=""margin:0 auto; width: 20vw; top: 8vh; font-size: 2vw""> 
            <font color=""green""> Bonus : $0.17 </font>
            </div>
        </div>
    
            <div> Please press any key to continue to the next movie.</div>
        ","d","ITI","","","","","","",""
"","","","","","html-keyboard-response","49","126663","0.0-7.4-1.4","5f6c828345ca23025dcefa6f","6573617f270241e5da3d355d","6576bffba60d8dd3ea0d1158","984","./stimuli//pack_morph_shapes_1/cat_1/diff_1/ex_1_1_1.gif","arrowleft","response","ArrowLeft","1","1","1","test","true",""
"","","","","","html-keyboard-response","50","128166","0.0-7.4-2.4","5f6c828345ca23025dcefa6f","6573617f270241e5da3d355d","6576bffba60d8dd3ea0d1158","null","<p> <font color=""green"" size=""5vw""> Correct category! </font> <br> <br> <font color=""green"" size=""8vw""> + $0.06 </font> </p>","null","feedback","","","","","","","0.23"
"","","","","","html-keyboard-response","51","128599","0.0-7.5-0.5","5f6c828345ca23025dcefa6f","6573617f270241e5da3d355d","6576bffba60d8dd3ea0d1158","432","
            
        <div style=""text-align: center; position: fixed; top: 5vh; left: 40vw;"">
            <div style=""margin:0 auto; width: 20vw; top: 8vh; font-size: 2vw""> 
            <font color=""green""> Bonus : $0.23 </font>
            </div>
        </div>
    
            <div> Please press any key to continue to the next movie.</div>
        ","d","ITI","","","","","","",""
"","","","","","html-keyboard-response","52","129158","0.0-7.5-1.5","5f6c828345ca23025dcefa6f","6573617f270241e5da3d355d","6576bffba60d8dd3ea0d1158","556","./stimuli//pack_morph_shapes_1/cat_2/diff_2/ex_2_2_7.gif","arrowright","response","ArrowRight","7","2","2","test","true",""
"","","","","","html-keyboard-response","53","130664","0.0-7.5-2.5","5f6c828345ca23025dcefa6f","6573617f270241e5da3d355d","6576bffba60d8dd3ea0d1158","null","<p> <font color=""green"" size=""5vw""> Correct category! </font> <br> <br> <font color=""green"" size=""8vw""> + $0.08 </font> </p>","null","feedback","","","","","","","0.31"
"","","","","","html-keyboard-response","54","131063","0.0-7.6-0.6","5f6c828345ca23025dcefa6f","6573617f270241e5da3d355d","6576bffba60d8dd3ea0d1158","397","
            
        <div style=""text-align: center; position: fixed; top: 5vh; left: 40vw;"">
            <div style=""margin:0 auto; width: 20vw; top: 8vh; font-size: 2vw""> 
            <font color=""green""> Bonus : $0.31 </font>
            </div>
        </div>
    
            <div> Please press any key to continue to the next movie.</div>
        ","d","ITI","","","","","","",""
"","","","","","html-keyboard-response","55","131598","0.0-7.6-1.6","5f6c828345ca23025dcefa6f","6573617f270241e5da3d355d","6576bffba60d8dd3ea0d1158","533","./stimuli//pack_morph_shapes_1/cat_2/diff_2/ex_2_2_10.gif","arrowright","response","ArrowRight","10","2","2","test","true",""
"","","","","","html-keyboard-response","56","133105","0.0-7.6-2.6","5f6c828345ca23025dcefa6f","6573617f270241e5da3d355d","6576bffba60d8dd3ea0d1158","null","<p> <font color=""green"" size=""5vw""> Correct category! </font> <br> <br> <font color=""green"" size=""8vw""> + $0.08 </font> </p>","null","feedback","","","","","","","0.39"
"","","","","","html-keyboard-response","57","133398","0.0-7.7-0.7","5f6c828345ca23025dcefa6f","6573617f270241e5da3d355d","6576bffba60d8dd3ea0d1158","291","
            
        <div style=""text-align: center; position: fixed; top: 5vh; left: 40vw;"">
            <div style=""margin:0 auto; width: 20vw; top: 8vh; font-size: 2vw""> 
            <font color=""green""> Bonus : $0.39 </font>
            </div>
        </div>
    
            <div> Please press any key to continue to the next movie.</div>
        ","d","ITI","","","","","","",""
"","","","","","html-keyboard-response","58","134214","0.0-7.7-1.7","5f6c828345ca23025dcefa6f","6573617f270241e5da3d355d","6576bffba60d8dd3ea0d1158","815","./stimuli//pack_morph_shapes_1/cat_2/diff_2/ex_2_2_6.gif","arrowleft","response","ArrowRight","6","2","2","test","false",""
"","","","","","html-keyboard-response","59","135720","0.0-7.7-2.7","5f6c828345ca23025dcefa6f","6573617f270241e5da3d355d","6576bffba60d8dd3ea0d1158","null","<p> <font color=""red"" size=""5vw""> Wrong category! </font> <br> <br> <font color=""red"" size=""8vw""> - $0.05 </font> </p>","null","feedback","","","","","","","0.34"
"","","","","","html-keyboard-response","60","135911","0.0-7.8-0.8","5f6c828345ca23025dcefa6f","6573617f270241e5da3d355d","6576bffba60d8dd3ea0d1158","188","
            
        <div style=""text-align: center; position: fixed; top: 5vh; left: 40vw;"">
            <div style=""margin:0 auto; width: 20vw; top: 8vh; font-size: 2vw""> 
            <font color=""green""> Bonus : $0.34 </font>
            </div>
        </div>
    
            <div> Please press any key to continue to the next movie.</div>
        ","d","ITI","","","","","","",""
"","","","","","html-keyboard-response","61","136599","0.0-7.8-1.8","5f6c828345ca23025dcefa6f","6573617f270241e5da3d355d","6576bffba60d8dd3ea0d1158","686","./stimuli//pack_morph_shapes_1/cat_1/diff_2/ex_1_2_4.gif","arrowleft","response","ArrowLeft","4","1","2","test","true",""
"","","","","","html-keyboard-response","62","138105","0.0-7.8-2.8","5f6c828345ca23025dcefa6f","6573617f270241e5da3d355d","6576bffba60d8dd3ea0d1158","null","<p> <font color=""green"" size=""5vw""> Correct category! </font> <br> <br> <font color=""green"" size=""8vw""> + $0.07 </font> </p>","null","feedback","","","","","","","0.41"
"","","","","","html-keyboard-response","63","138507","0.0-7.9-0.9","5f6c828345ca23025dcefa6f","6573617f270241e5da3d355d","6576bffba60d8dd3ea0d1158","401","
            
        <div style=""text-align: center; position: fixed; top: 5vh; left: 40vw;"">
            <div style=""margin:0 auto; width: 20vw; top: 8vh; font-size: 2vw""> 
            <font color=""green""> Bonus : $0.41 </font>
            </div>
        </div>
    
            <div> Please press any key to continue to the next movie.</div>
        ","d","ITI","","","","","","",""
"","","","","","html-keyboard-response","64","139255","0.0-7.9-1.9","5f6c828345ca23025dcefa6f","6573617f270241e5da3d355d","6576bffba60d8dd3ea0d1158","747","./stimuli//pack_morph_shapes_1/cat_1/diff_2/ex_1_2_8.gif","arrowleft","response","ArrowLeft","8","1","2","test","true",""
"","","","","","html-keyboard-response","65","140761","0.0-7.9-2.9","5f6c828345ca23025dcefa6f","6573617f270241e5da3d355d","6576bffba60d8dd3ea0d1158","null","<p> <font color=""green"" size=""5vw""> Correct category! </font> <br> <br> <font color=""green"" size=""8vw""> + $0.07 </font> </p>","null","feedback","","","","","","","0.48"
"","","","","","html-keyboard-response","66","141193","0.0-7.10-0.10","5f6c828345ca23025dcefa6f","6573617f270241e5da3d355d","6576bffba60d8dd3ea0d1158","432","
            
        <div style=""text-align: center; position: fixed; top: 5vh; left: 40vw;"">
            <div style=""margin:0 auto; width: 20vw; top: 8vh; font-size: 2vw""> 
            <font color=""green""> Bonus : $0.48 </font>
            </div>
        </div>
    
            <div> Please press any key to continue to the next movie.</div>
        ","d","ITI","","","","","","",""
"","","","","","html-keyboard-response","67","142027","0.0-7.10-1.10","5f6c828345ca23025dcefa6f","6573617f270241e5da3d355d","6576bffba60d8dd3ea0d1158","834","./stimuli//pack_morph_shapes_1/cat_1/diff_3/ex_1_3_12.gif","arrowleft","response","ArrowLeft","12","1","3","test","true",""
"","","","","","html-keyboard-response","68","143531","0.0-7.10-2.10","5f6c828345ca23025dcefa6f","6573617f270241e5da3d355d","6576bffba60d8dd3ea0d1158","null","<p> <font color=""green"" size=""5vw""> Correct category! </font> <br> <br> <font color=""green"" size=""8vw""> + $0.07 </font> </p>","null","feedback","","","","","","","0.55"
"","","","","","html-keyboard-response","69","143793","0.0-7.11-0.11","5f6c828345ca23025dcefa6f","6573617f270241e5da3d355d","6576bffba60d8dd3ea0d1158","260","
            
        <div style=""text-align: center; position: fixed; top: 5vh; left: 40vw;"">
            <div style=""margin:0 auto; width: 20vw; top: 8vh; font-size: 2vw""> 
            <font color=""green""> Bonus : $0.55 </font>
            </div>
        </div>
    
            <div> Please press any key to continue to the next movie.</div>
        ","d","ITI","","","","","","",""
"","","","","","html-keyboard-response","70","144528","0.0-7.11-1.11","5f6c828345ca23025dcefa6f","6573617f270241e5da3d355d","6576bffba60d8dd3ea0d1158","735","./stimuli//pack_morph_shapes_1/cat_1/diff_3/ex_1_3_4.gif","arrowright","response","ArrowLeft","4","1","3","test","false",""
"","","","","","html-keyboard-response","71","146033","0.0-7.11-2.11","5f6c828345ca23025dcefa6f","6573617f270241e5da3d355d","6576bffba60d8dd3ea0d1158","null","<p> <font color=""red"" size=""5vw""> Wrong category! </font> <br> <br> <font color=""red"" size=""8vw""> - $0.05 </font> </p>","null","feedback","","","","","","","0.5"
"","","","","","html-keyboard-response","72","146324","0.0-7.12-0.12","5f6c828345ca23025dcefa6f","6573617f270241e5da3d355d","6576bffba60d8dd3ea0d1158","290","
            
        <div style=""text-align: center; position: fixed; top: 5vh; left: 40vw;"">
            <div style=""margin:0 auto; width: 20vw; top: 8vh; font-size: 2vw""> 
            <font color=""green""> Bonus : $0.5 </font>
            </div>
        </div>
    
            <div> Please press any key to continue to the next movie.</div>
        ","d","ITI","","","","","","",""
"","","","","","html-keyboard-response","73","146993","0.0-7.12-1.12","5f6c828345ca23025dcefa6f","6573617f270241e5da3d355d","6576bffba60d8dd3ea0d1158","669","./stimuli//pack_morph_shapes_1/cat_1/diff_3/ex_1_3_8.gif","arrowleft","response","ArrowLeft","8","1","3","test","true",""
"","","","","","html-keyboard-response","74","148497","0.0-7.12-2.12","5f6c828345ca23025dcefa6f","6573617f270241e5da3d355d","6576bffba60d8dd3ea0d1158","null","<p> <font color=""green"" size=""5vw""> Correct category! </font> <br> <br> <font color=""green"" size=""8vw""> + $0.07 </font> </p>","null","feedback","","","","","","","0.57"
"","","","","","html-keyboard-response","75","148909","0.0-7.13-0.13","5f6c828345ca23025dcefa6f","6573617f270241e5da3d355d","6576bffba60d8dd3ea0d1158","410","
            
        <div style=""text-align: center; position: fixed; top: 5vh; left: 40vw;"">
            <div style=""margin:0 auto; width: 20vw; top: 8vh; font-size: 2vw""> 
            <font color=""green""> Bonus : $0.57 </font>
            </div>
        </div>
    
            <div> Please press any key to continue to the next movie.</div>
        ","d","ITI","","","","","","",""
"","","","","","html-keyboard-response","76","149511","0.0-7.13-1.13","5f6c828345ca23025dcefa6f","6573617f270241e5da3d355d","6576bffba60d8dd3ea0d1158","601","./stimuli//pack_morph_shapes_1/cat_2/diff_3/ex_2_3_13.gif","arrowright","response","ArrowRight","13","2","3","test","true",""
"","","","","","html-keyboard-response","77","151013","0.0-7.13-2.13","5f6c828345ca23025dcefa6f","6573617f270241e5da3d355d","6576bffba60d8dd3ea0d1158","null","<p> <font color=""green"" size=""5vw""> Correct category! </font> <br> <br> <font color=""green"" size=""8vw""> + $0.07 </font> </p>","null","feedback","","","","","","","0.64"
"","","","","","html-keyboard-response","78","151405","0.0-7.14-0.14","5f6c828345ca23025dcefa6f","6573617f270241e5da3d355d","6576bffba60d8dd3ea0d1158","390","
            
        <div style=""text-align: center; position: fixed; top: 5vh; left: 40vw;"">
            <div style=""margin:0 auto; width: 20vw; top: 8vh; font-size: 2vw""> 
            <font color=""green""> Bonus : $0.64 </font>
            </div>
        </div>
    
            <div> Please press any key to continue to the next movie.</div>
        ","d","ITI","","","","","","",""
"","","","","","html-keyboard-response","79","152272","0.0-7.14-1.14","5f6c828345ca23025dcefa6f","6573617f270241e5da3d355d","6576bffba60d8dd3ea0d1158","867","./stimuli//pack_morph_shapes_1/cat_1/diff_3/ex_1_3_17.gif","arrowleft","response","ArrowLeft","17","1","3","test","true",""
"","","","","","html-keyboard-response","80","153776","0.0-7.14-2.14","5f6c828345ca23025dcefa6f","6573617f270241e5da3d355d","6576bffba60d8dd3ea0d1158","null","<p> <font color=""green"" size=""5vw""> Correct category! </font> <br> <br> <font color=""green"" size=""8vw""> + $0.06 </font> </p>","null","feedback","","","","","","","0.7"
"","","","","","html-keyboard-response","81","154065","0.0-7.15-0.15","5f6c828345ca23025dcefa6f","6573617f270241e5da3d355d","6576bffba60d8dd3ea0d1158","290","
            
        <div style=""text-align: center; position: fixed; top: 5vh; left: 40vw;"">
            <div style=""margin:0 auto; width: 20vw; top: 8vh; font-size: 2vw""> 
            <font color=""green""> Bonus : $0.7 </font>
            </div>
        </div>
    
            <div> Please press any key to continue to the next movie.</div>
        ","d","ITI","","","","","","",""
"","","","","","html-keyboard-response","82","155232","0.0-7.15-1.15","5f6c828345ca23025dcefa6f","6573617f270241e5da3d355d","6576bffba60d8dd3ea0d1158","1164","./stimuli//pack_morph_shapes_1/cat_1/diff_4/ex_1_4_5.gif","arrowleft","response","ArrowLeft","5","1","4","test","true",""
"","","","","","html-keyboard-response","83","156738","0.0-7.15-2.15","5f6c828345ca23025dcefa6f","6573617f270241e5da3d355d","6576bffba60d8dd3ea0d1158","null","<p> <font color=""green"" size=""5vw""> Correct category! </font> <br> <br> <font color=""green"" size=""8vw""> + $0.06 </font> </p>","null","feedback","","","","","","","0.76"
"","","","","","html-keyboard-response","84","157343","0.0-7.16-0.16","5f6c828345ca23025dcefa6f","6573617f270241e5da3d355d","6576bffba60d8dd3ea0d1158","603","
            
        <div style=""text-align: center; position: fixed; top: 5vh; left: 40vw;"">
            <div style=""margin:0 auto; width: 20vw; top: 8vh; font-size: 2vw""> 
            <font color=""green""> Bonus : $0.76 </font>
            </div>
        </div>
    
            <div> Please press any key to continue to the next movie.</div>
        ","d","ITI","","","","","","",""
"","","","","","html-keyboard-response","85","158099","0.0-7.16-1.16","5f6c828345ca23025dcefa6f","6573617f270241e5da3d355d","6576bffba60d8dd3ea0d1158","755","./stimuli//pack_morph_shapes_1/cat_2/diff_4/ex_2_4_14.gif","arrowright","response","ArrowRight","14","2","4","test","true",""
"","","","","","html-keyboard-response","86","159605","0.0-7.16-2.16","5f6c828345ca23025dcefa6f","6573617f270241e5da3d355d","6576bffba60d8dd3ea0d1158","null","<p> <font color=""green"" size=""5vw""> Correct category! </font> <br> <br> <font color=""green"" size=""8vw""> + $0.07 </font> </p>","null","feedback","","","","","","","0.83"
"","","","","","html-keyboard-response","87","159882","0.0-7.17-0.17","5f6c828345ca23025dcefa6f","6573617f270241e5da3d355d","6576bffba60d8dd3ea0d1158","275","
            
        <div style=""text-align: center; position: fixed; top: 5vh; left: 40vw;"">
            <div style=""margin:0 auto; width: 20vw; top: 8vh; font-size: 2vw""> 
            <font color=""green""> Bonus : $0.83 </font>
            </div>
        </div>
    
            <div> Please press any key to continue to the next movie.</div>
        ","d","ITI","","","","","","",""
"","","","","","html-keyboard-response","88","160593","0.0-7.17-1.17","5f6c828345ca23025dcefa6f","6573617f270241e5da3d355d","6576bffba60d8dd3ea0d1158","709","./stimuli//pack_morph_shapes_1/cat_1/diff_4/ex_1_4_13.gif","arrowleft","response","ArrowLeft","13","1","4","test","true",""
"","","","","","html-keyboard-response","89","162100","0.0-7.17-2.17","5f6c828345ca23025dcefa6f","6573617f270241e5da3d355d","6576bffba60d8dd3ea0d1158","null","<p> <font color=""green"" size=""5vw""> Correct category! </font> <br> <br> <font color=""green"" size=""8vw""> + $0.07 </font> </p>","null","feedback","","","","","","","0.9"
"","","","","","html-keyboard-response","90","162352","0.0-7.18-0.18","5f6c828345ca23025dcefa6f","6573617f270241e5da3d355d","6576bffba60d8dd3ea0d1158","252","
            
        <div style=""text-align: center; position: fixed; top: 5vh; left: 40vw;"">
            <div style=""margin:0 auto; width: 20vw; top: 8vh; font-size: 2vw""> 
            <font color=""green""> Bonus : $0.9 </font>
            </div>
        </div>
    
            <div> Please press any key to continue to the next movie.</div>
        ","d","ITI","","","","","","",""
"","","","","","html-keyboard-response","91","162981","0.0-7.18-1.18","5f6c828345ca23025dcefa6f","6573617f270241e5da3d355d","6576bffba60d8dd3ea0d1158","629","./stimuli//pack_morph_shapes_1/cat_2/diff_4/ex_2_4_9.gif","arrowright","response","ArrowRight","9","2","4","test","true",""
"","","","","","html-keyboard-response","92","164484","0.0-7.18-2.18","5f6c828345ca23025dcefa6f","6573617f270241e5da3d355d","6576bffba60d8dd3ea0d1158","null","<p> <font color=""green"" size=""5vw""> Correct category! </font> <br> <br> <font color=""green"" size=""8vw""> + $0.07 </font> </p>","null","feedback","","","","","","","0.97"
"","","","","","html-keyboard-response","93","164750","0.0-7.19-0.19","5f6c828345ca23025dcefa6f","6573617f270241e5da3d355d","6576bffba60d8dd3ea0d1158","264","
            
        <div style=""text-align: center; position: fixed; top: 5vh; left: 40vw;"">
            <div style=""margin:0 auto; width: 20vw; top: 8vh; font-size: 2vw""> 
            <font color=""green""> Bonus : $0.97 </font>
            </div>
        </div>
    
            <div> Please press any key to continue to the next movie.</div>
        ","d","ITI","","","","","","",""
"","","","","","html-keyboard-response","94","165728","0.0-7.19-1.19","5f6c828345ca23025dcefa6f","6573617f270241e5da3d355d","6576bffba60d8dd3ea0d1158","976","./stimuli//pack_morph_shapes_1/cat_1/diff_4/ex_1_4_8.gif","arrowleft","response","ArrowLeft","8","1","4","test","true",""
"","","","","","html-keyboard-response","95","167235","0.0-7.19-2.19","5f6c828345ca23025dcefa6f","6573617f270241e5da3d355d","6576bffba60d8dd3ea0d1158","null","<p> <font color=""green"" size=""5vw""> Correct category! </font> <br> <br> <font color=""green"" size=""8vw""> + $0.06 </font> </p>","null","feedback","","","","","","","1.03"
"","","","","","html-keyboard-response","96","167704","0.0-7.20-0.20","5f6c828345ca23025dcefa6f","6573617f270241e5da3d355d","6576bffba60d8dd3ea0d1158","468","
            
        <div style=""text-align: center; position: fixed; top: 5vh; left: 40vw;"">
            <div style=""margin:0 auto; width: 20vw; top: 8vh; font-size: 2vw""> 
            <font color=""green""> Bonus : $1.03 </font>
            </div>
        </div>
    
            <div> Please press any key to continue to the next movie.</div>
        ","v","ITI","","","","","","",""
"","","","","","html-keyboard-response","97","168778","0.0-7.20-1.20","5f6c828345ca23025dcefa6f","6573617f270241e5da3d355d","6576bffba60d8dd3ea0d1158","1072","./stimuli//pack_morph_shapes_1/cat_1/diff_5/ex_1_5_2.gif","arrowleft","response","ArrowLeft","2","1","5","test","true",""
"","","","","","html-keyboard-response","98","170284","0.0-7.20-2.20","5f6c828345ca23025dcefa6f","6573617f270241e5da3d355d","6576bffba60d8dd3ea0d1158","null","<p> <font color=""green"" size=""5vw""> Correct category! </font> <br> <br> <font color=""green"" size=""8vw""> + $0.06 </font> </p>","null","feedback","","","","","","","1.09"
"","","","","","html-keyboard-response","99","170688","0.0-7.21-0.21","5f6c828345ca23025dcefa6f","6573617f270241e5da3d355d","6576bffba60d8dd3ea0d1158","403","
            
        <div style=""text-align: center; position: fixed; top: 5vh; left: 40vw;"">
            <div style=""margin:0 auto; width: 20vw; top: 8vh; font-size: 2vw""> 
            <font color=""green""> Bonus : $1.09 </font>
            </div>
        </div>
    
            <div> Please press any key to continue to the next movie.</div>
        ","v","ITI","","","","","","",""
"","","","","","html-keyboard-response","100","171529","0.0-7.21-1.21","5f6c828345ca23025dcefa6f","6573617f270241e5da3d355d","6576bffba60d8dd3ea0d1158","839","./stimuli//pack_morph_shapes_1/cat_1/diff_5/ex_1_5_6.gif","arrowleft","response","ArrowLeft","6","1","5","test","true",""
"","","","","","html-keyboard-response","101","173033","0.0-7.21-2.21","5f6c828345ca23025dcefa6f","6573617f270241e5da3d355d","6576bffba60d8dd3ea0d1158","null","<p> <font color=""green"" size=""5vw""> Correct category! </font> <br> <br> <font color=""green"" size=""8vw""> + $0.07 </font> </p>","null","feedback","","","","","","","1.16"
"","","","","","html-keyboard-response","102","173312","0.0-7.22-0.22","5f6c828345ca23025dcefa6f","6573617f270241e5da3d355d","6576bffba60d8dd3ea0d1158","278","
            
        <div style=""text-align: center; position: fixed; top: 5vh; left: 40vw;"">
            <div style=""margin:0 auto; width: 20vw; top: 8vh; font-size: 2vw""> 
            <font color=""green""> Bonus : $1.16 </font>
            </div>
        </div>
    
            <div> Please press any key to continue to the next movie.</div>
        ","v","ITI","","","","","","",""
"","","","","","html-keyboard-response","103","173966","0.0-7.22-1.22","5f6c828345ca23025dcefa6f","6573617f270241e5da3d355d","6576bffba60d8dd3ea0d1158","653","./stimuli//pack_morph_shapes_1/cat_2/diff_5/ex_2_5_15.gif","arrowright","response","ArrowRight","15","2","5","test","true",""
"","","","","","html-keyboard-response","104","175471","0.0-7.22-2.22","5f6c828345ca23025dcefa6f","6573617f270241e5da3d355d","6576bffba60d8dd3ea0d1158","null","<p> <font color=""green"" size=""5vw""> Correct category! </font> <br> <br> <font color=""green"" size=""8vw""> + $0.07 </font> </p>","null","feedback","","","","","","","1.23"
"","","","","","html-keyboard-response","105","175768","0.0-7.23-0.23","5f6c828345ca23025dcefa6f","6573617f270241e5da3d355d","6576bffba60d8dd3ea0d1158","296","
            
        <div style=""text-align: center; position: fixed; top: 5vh; left: 40vw;"">
            <div style=""margin:0 auto; width: 20vw; top: 8vh; font-size: 2vw""> 
            <font color=""green""> Bonus : $1.23 </font>
            </div>
        </div>
    
            <div> Please press any key to continue to the next movie.</div>
        ","v","ITI","","","","","","",""
"","","","","","html-keyboard-response","106","176433","0.0-7.23-1.23","5f6c828345ca23025dcefa6f","6573617f270241e5da3d355d","6576bffba60d8dd3ea0d1158","664","./stimuli//pack_morph_shapes_1/cat_2/diff_5/ex_2_5_17.gif","arrowright","response","ArrowRight","17","2","5","test","true",""
"","","","","","html-keyboard-response","107","177937","0.0-7.23-2.23","5f6c828345ca23025dcefa6f","6573617f270241e5da3d355d","6576bffba60d8dd3ea0d1158","null","<p> <font color=""green"" size=""5vw""> Correct category! </font> <br> <br> <font color=""green"" size=""8vw""> + $0.07 </font> </p>","null","feedback","","","","","","","1.3"
"","","","","","html-keyboard-response","108","178249","0.0-7.24-0.24","5f6c828345ca23025dcefa6f","6573617f270241e5da3d355d","6576bffba60d8dd3ea0d1158","310","
            
        <div style=""text-align: center; position: fixed; top: 5vh; left: 40vw;"">
            <div style=""margin:0 auto; width: 20vw; top: 8vh; font-size: 2vw""> 
            <font color=""green""> Bonus : $1.3 </font>
            </div>
        </div>
    
            <div> Please press any key to continue to the next movie.</div>
        ","v","ITI","","","","","","",""
"","","","","","html-keyboard-response","109","178999","0.0-7.24-1.24","5f6c828345ca23025dcefa6f","6573617f270241e5da3d355d","6576bffba60d8dd3ea0d1158","749","./stimuli//pack_morph_shapes_1/cat_2/diff_5/ex_2_5_1.gif","arrowright","response","ArrowRight","1","2","5","test","true",""
"","","","","","html-keyboard-response","110","180505","0.0-7.24-2.24","5f6c828345ca23025dcefa6f","6573617f270241e5da3d355d","6576bffba60d8dd3ea0d1158","null","<p> <font color=""green"" size=""5vw""> Correct category! </font> <br> <br> <font color=""green"" size=""8vw""> + $0.07 </font> </p>","null","feedback","","","","","","","1.37"
"","","","","","html-keyboard-response","111","180985","0.0-7.25-0.25","5f6c828345ca23025dcefa6f","6573617f270241e5da3d355d","6576bffba60d8dd3ea0d1158","478","
            
        <div style=""text-align: center; position: fixed; top: 5vh; left: 40vw;"">
            <div style=""margin:0 auto; width: 20vw; top: 8vh; font-size: 2vw""> 
            <font color=""green""> Bonus : $1.37 </font>
            </div>
        </div>
    
            <div> Please press any key to continue to the next movie.</div>
        ","v","ITI","","","","","","",""
"","","","","","html-keyboard-response","112","181607","0.0-7.25-1.25","5f6c828345ca23025dcefa6f","6573617f270241e5da3d355d","6576bffba60d8dd3ea0d1158","620","./stimuli//pack_morph_shapes_1/cat_2/diff_5/ex_2_5_5.gif","arrowright","response","ArrowRight","5","2","5","test","true",""
"","","","","","html-keyboard-response","113","183111","0.0-7.25-2.25","5f6c828345ca23025dcefa6f","6573617f270241e5da3d355d","6576bffba60d8dd3ea0d1158","null","<p> <font color=""green"" size=""5vw""> Correct category! </font> <br> <br> <font color=""green"" size=""8vw""> + $0.07 </font> </p>","null","feedback","","","","","","","1.44"
"","","","","","html-keyboard-response","114","183537","0.0-7.26-0.26","5f6c828345ca23025dcefa6f","6573617f270241e5da3d355d","6576bffba60d8dd3ea0d1158","425","
            
        <div style=""text-align: center; position: fixed; top: 5vh; left: 40vw;"">
            <div style=""margin:0 auto; width: 20vw; top: 8vh; font-size: 2vw""> 
            <font color=""green""> Bonus : $1.44 </font>
            </div>
        </div>
    
            <div> Please press any key to continue to the next movie.</div>
        ","v","ITI","","","","","","",""
"","","","","","html-keyboard-response","115","184046","0.0-7.26-1.26","5f6c828345ca23025dcefa6f","6573617f270241e5da3d355d","6576bffba60d8dd3ea0d1158","508","./stimuli//pack_morph_shapes_1/cat_2/diff_5/ex_2_5_5.gif","arrowright","response","ArrowRight","5","2","5","test","true",""
"","","","","","html-keyboard-response","116","185548","0.0-7.26-2.26","5f6c828345ca23025dcefa6f","6573617f270241e5da3d355d","6576bffba60d8dd3ea0d1158","null","<p> <font color=""green"" size=""5vw""> Correct category! </font> <br> <br> <font color=""green"" size=""8vw""> + $0.08 </font> </p>","null","feedback","","","","","","","1.52"
"","","","","","html-keyboard-response","117","185863","0.0-7.27-0.27","5f6c828345ca23025dcefa6f","6573617f270241e5da3d355d","6576bffba60d8dd3ea0d1158","314","
            
        <div style=""text-align: center; position: fixed; top: 5vh; left: 40vw;"">
            <div style=""margin:0 auto; width: 20vw; top: 8vh; font-size: 2vw""> 
            <font color=""green""> Bonus : $1.52 </font>
            </div>
        </div>
    
            <div> Please press any key to continue to the next movie.</div>
        ","v","ITI","","","","","","",""
"","","","","","html-keyboard-response","118","186349","0.0-7.27-1.27","5f6c828345ca23025dcefa6f","6573617f270241e5da3d355d","6576bffba60d8dd3ea0d1158","484","./stimuli//pack_morph_shapes_1/cat_1/diff_5/ex_1_5_1.gif","arrowright","response","ArrowLeft","1","1","5","test","false",""
"","","","","","html-keyboard-response","119","187854","0.0-7.27-2.27","5f6c828345ca23025dcefa6f","6573617f270241e5da3d355d","6576bffba60d8dd3ea0d1158","null","<p> <font color=""red"" size=""5vw""> Wrong category! </font> <br> <br> <font color=""red"" size=""8vw""> - $0.05 </font> </p>","null","feedback","","","","","","","1.47"
"","","","","","html-keyboard-response","120","188129","0.0-7.28-0.28","5f6c828345ca23025dcefa6f","6573617f270241e5da3d355d","6576bffba60d8dd3ea0d1158","273","
            
        <div style=""text-align: center; position: fixed; top: 5vh; left: 40vw;"">
            <div style=""margin:0 auto; width: 20vw; top: 8vh; font-size: 2vw""> 
            <font color=""green""> Bonus : $1.47 </font>
            </div>
        </div>
    
            <div> Please press any key to continue to the next movie.</div>
        ","v","ITI","","","","","","",""
"","","","","","html-keyboard-response","121","188816","0.0-7.28-1.28","5f6c828345ca23025dcefa6f","6573617f270241e5da3d355d","6576bffba60d8dd3ea0d1158","685","./stimuli//pack_morph_shapes_1/cat_2/diff_5/ex_2_5_4.gif","arrowright","response","ArrowRight","4","2","5","test","true",""
"","","","","","html-keyboard-response","122","190322","0.0-7.28-2.28","5f6c828345ca23025dcefa6f","6573617f270241e5da3d355d","6576bffba60d8dd3ea0d1158","null","<p> <font color=""green"" size=""5vw""> Correct category! </font> <br> <br> <font color=""green"" size=""8vw""> + $0.07 </font> </p>","null","feedback","","","","","","","1.54"
"","","","","","html-keyboard-response","123","190764","0.0-7.29-0.29","5f6c828345ca23025dcefa6f","6573617f270241e5da3d355d","6576bffba60d8dd3ea0d1158","441","
            
        <div style=""text-align: center; position: fixed; top: 5vh; left: 40vw;"">
            <div style=""margin:0 auto; width: 20vw; top: 8vh; font-size: 2vw""> 
            <font color=""green""> Bonus : $1.54 </font>
            </div>
        </div>
    
            <div> Please press any key to continue to the next movie.</div>
        ","v","ITI","","","","","","",""
"","","","","","html-keyboard-response","124","191355","0.0-7.29-1.29","5f6c828345ca23025dcefa6f","6573617f270241e5da3d355d","6576bffba60d8dd3ea0d1158","590","./stimuli//pack_morph_shapes_1/cat_2/diff_5/ex_2_5_4.gif","arrowright","response","ArrowRight","4","2","5","test","true",""
"","","","","","html-keyboard-response","125","192861","0.0-7.29-2.29","5f6c828345ca23025dcefa6f","6573617f270241e5da3d355d","6576bffba60d8dd3ea0d1158","null","<p> <font color=""green"" size=""5vw""> Correct category! </font> <br> <br> <font color=""green"" size=""8vw""> + $0.07 </font> </p>","null","feedback","","","","","","","1.61"
"","","","","","html-keyboard-response","126","193287","0.0-7.30-0.30","5f6c828345ca23025dcefa6f","6573617f270241e5da3d355d","6576bffba60d8dd3ea0d1158","424","
            
        <div style=""text-align: center; position: fixed; top: 5vh; left: 40vw;"">
            <div style=""margin:0 auto; width: 20vw; top: 8vh; font-size: 2vw""> 
            <font color=""green""> Bonus : $1.61 </font>
            </div>
        </div>
    
            <div> Please press any key to continue to the next movie.</div>
        ","v","ITI","","","","","","",""
"","","","","","html-keyboard-response","127","194165","0.0-7.30-1.30","5f6c828345ca23025dcefa6f","6573617f270241e5da3d355d","6576bffba60d8dd3ea0d1158","877","./stimuli//pack_morph_shapes_1/cat_1/diff_5/ex_1_5_3.gif","arrowleft","response","ArrowLeft","3","1","5","test","true",""
"","","","","","html-keyboard-response","128","195671","0.0-7.30-2.30","5f6c828345ca23025dcefa6f","6573617f270241e5da3d355d","6576bffba60d8dd3ea0d1158","null","<p> <font color=""green"" size=""5vw""> Correct category! </font> <br> <br> <font color=""green"" size=""8vw""> + $0.06 </font> </p>","null","feedback","","","","","","","1.67"
"","","","","","html-keyboard-response","129","195967","0.0-7.31-0.31","5f6c828345ca23025dcefa6f","6573617f270241e5da3d355d","6576bffba60d8dd3ea0d1158","294","
            
        <div style=""text-align: center; position: fixed; top: 5vh; left: 40vw;"">
            <div style=""margin:0 auto; width: 20vw; top: 8vh; font-size: 2vw""> 
            <font color=""green""> Bonus : $1.67 </font>
            </div>
        </div>
    
            <div> Please press any key to continue to the next movie.</div>
        ","v","ITI","","","","","","",""
"","","","","","html-keyboard-response","130","196615","0.0-7.31-1.31","5f6c828345ca23025dcefa6f","6573617f270241e5da3d355d","6576bffba60d8dd3ea0d1158","647","./stimuli//pack_morph_shapes_1/cat_1/diff_5/ex_1_5_13.gif","arrowright","response","ArrowLeft","13","1","5","test","false",""
"","","","","","html-keyboard-response","131","198120","0.0-7.31-2.31","5f6c828345ca23025dcefa6f","6573617f270241e5da3d355d","6576bffba60d8dd3ea0d1158","null","<p> <font color=""red"" size=""5vw""> Wrong category! </font> <br> <br> <font color=""red"" size=""8vw""> - $0.05 </font> </p>","null","feedback","","","","","","","1.62"
"","","","","","html-keyboard-response","132","198445","0.0-7.32-0.32","5f6c828345ca23025dcefa6f","6573617f270241e5da3d355d","6576bffba60d8dd3ea0d1158","324","
            
        <div style=""text-align: center; position: fixed; top: 5vh; left: 40vw;"">
            <div style=""margin:0 auto; width: 20vw; top: 8vh; font-size: 2vw""> 
            <font color=""green""> Bonus : $1.62 </font>
            </div>
        </div>
    
            <div> Please press any key to continue to the next movie.</div>
        ","v","ITI","","","","","","",""
"","","","","","html-keyboard-response","133","199256","0.0-7.32-1.32","5f6c828345ca23025dcefa6f","6573617f270241e5da3d355d","6576bffba60d8dd3ea0d1158","810","./stimuli//pack_morph_shapes_1/cat_2/diff_4/ex_2_4_9.gif","arrowright","response","ArrowRight","9","2","4","test","true",""
"","","","","","html-keyboard-response","134","200760","0.0-7.32-2.32","5f6c828345ca23025dcefa6f","6573617f270241e5da3d355d","6576bffba60d8dd3ea0d1158","null","<p> <font color=""green"" size=""5vw""> Correct category! </font> <br> <br> <font color=""green"" size=""8vw""> + $0.07 </font> </p>","null","feedback","","","","","","","1.69"
"","","","","","html-keyboard-response","135","201131","0.0-7.33-0.33","5f6c828345ca23025dcefa6f","6573617f270241e5da3d355d","6576bffba60d8dd3ea0d1158","370","
            
        <div style=""text-align: center; position: fixed; top: 5vh; left: 40vw;"">
            <div style=""margin:0 auto; width: 20vw; top: 8vh; font-size: 2vw""> 
            <font color=""green""> Bonus : $1.69 </font>
            </div>
        </div>
    
            <div> Please press any key to continue to the next movie.</div>
        ","v","ITI","","","","","","",""
"","","","","","html-keyboard-response","136","201973","0.0-7.33-1.33","5f6c828345ca23025dcefa6f","6573617f270241e5da3d355d","6576bffba60d8dd3ea0d1158","841","./stimuli//pack_morph_shapes_1/cat_1/diff_4/ex_1_4_7.gif","arrowleft","response","ArrowLeft","7","1","4","test","true",""
"","","","","","html-keyboard-response","137","203476","0.0-7.33-2.33","5f6c828345ca23025dcefa6f","6573617f270241e5da3d355d","6576bffba60d8dd3ea0d1158","null","<p> <font color=""green"" size=""5vw""> Correct category! </font> <br> <br> <font color=""green"" size=""8vw""> + $0.07 </font> </p>","null","feedback","","","","","","","1.76"
"","","","","","html-keyboard-response","138","203810","0.0-7.34-0.34","5f6c828345ca23025dcefa6f","6573617f270241e5da3d355d","6576bffba60d8dd3ea0d1158","334","
            
        <div style=""text-align: center; position: fixed; top: 5vh; left: 40vw;"">
            <div style=""margin:0 auto; width: 20vw; top: 8vh; font-size: 2vw""> 
            <font color=""green""> Bonus : $1.76 </font>
            </div>
        </div>
    
            <div> Please press any key to continue to the next movie.</div>
        ","v","ITI","","","","","","",""
"","","","","","html-keyboard-response","139","204816","0.0-7.34-1.34","5f6c828345ca23025dcefa6f","6573617f270241e5da3d355d","6576bffba60d8dd3ea0d1158","1005","./stimuli//pack_morph_shapes_1/cat_1/diff_4/ex_1_4_6.gif","arrowleft","response","ArrowLeft","6","1","4","test","true",""
"","","","","","html-keyboard-response","140","206321","0.0-7.34-2.34","5f6c828345ca23025dcefa6f","6573617f270241e5da3d355d","6576bffba60d8dd3ea0d1158","null","<p> <font color=""green"" size=""5vw""> Correct category! </font> <br> <br> <font color=""green"" size=""8vw""> + $0.06 </font> </p>","null","feedback","","","","","","","1.82"
"","","","","","html-keyboard-response","141","206776","0.0-7.35-0.35","5f6c828345ca23025dcefa6f","6573617f270241e5da3d355d","6576bffba60d8dd3ea0d1158","453","
            
        <div style=""text-align: center; position: fixed; top: 5vh; left: 40vw;"">
            <div style=""margin:0 auto; width: 20vw; top: 8vh; font-size: 2vw""> 
            <font color=""green""> Bonus : $1.82 </font>
            </div>
        </div>
    
            <div> Please press any key to continue to the next movie.</div>
        ","v","ITI","","","","","","",""
"","","","","","html-keyboard-response","142","208188","0.0-7.35-1.35","5f6c828345ca23025dcefa6f","6573617f270241e5da3d355d","6576bffba60d8dd3ea0d1158","1410","./stimuli//pack_morph_shapes_1/cat_2/diff_4/ex_2_4_13.gif","arrowright","response","ArrowRight","13","2","4","test","true",""
"","","","","","html-keyboard-response","143","209694","0.0-7.35-2.35","5f6c828345ca23025dcefa6f","6573617f270241e5da3d355d","6576bffba60d8dd3ea0d1158","null","<p> <font color=""green"" size=""5vw""> Correct category! </font> <br> <br> <font color=""green"" size=""8vw""> + $0.05 </font> </p>","null","feedback","","","","","","","1.87"
"","","","","","html-keyboard-response","144","210090","0.0-7.36-0.36","5f6c828345ca23025dcefa6f","6573617f270241e5da3d355d","6576bffba60d8dd3ea0d1158","395","
            
        <div style=""text-align: center; position: fixed; top: 5vh; left: 40vw;"">
            <div style=""margin:0 auto; width: 20vw; top: 8vh; font-size: 2vw""> 
            <font color=""green""> Bonus : $1.87 </font>
            </div>
        </div>
    
            <div> Please press any key to continue to the next movie.</div>
        ","v","ITI","","","","","","",""
"","","","","","html-keyboard-response","145","210911","0.0-7.36-1.36","5f6c828345ca23025dcefa6f","6573617f270241e5da3d355d","6576bffba60d8dd3ea0d1158","820","./stimuli//pack_morph_shapes_1/cat_1/diff_4/ex_1_4_4.gif","arrowleft","response","ArrowLeft","4","1","4","test","true",""
"","","","","","html-keyboard-response","146","212417","0.0-7.36-2.36","5f6c828345ca23025dcefa6f","6573617f270241e5da3d355d","6576bffba60d8dd3ea0d1158","null","<p> <font color=""green"" size=""5vw""> Correct category! </font> <br> <br> <font color=""green"" size=""8vw""> + $0.07 </font> </p>","null","feedback","","","","","","","1.94"
"","","","","","html-keyboard-response","147","212872","0.0-7.37-0.37","5f6c828345ca23025dcefa6f","6573617f270241e5da3d355d","6576bffba60d8dd3ea0d1158","454","
            
        <div style=""text-align: center; position: fixed; top: 5vh; left: 40vw;"">
            <div style=""margin:0 auto; width: 20vw; top: 8vh; font-size: 2vw""> 
            <font color=""green""> Bonus : $1.94 </font>
            </div>
        </div>
    
            <div> Please press any key to continue to the next movie.</div>
        ","v","ITI","","","","","","",""
"","","","","","html-keyboard-response","148","213597","0.0-7.37-1.37","5f6c828345ca23025dcefa6f","6573617f270241e5da3d355d","6576bffba60d8dd3ea0d1158","724","./stimuli//pack_morph_shapes_1/cat_2/diff_5/ex_2_5_2.gif","arrowright","response","ArrowRight","2","2","5","test","true",""
"","","","","","html-keyboard-response","149","215103","0.0-7.37-2.37","5f6c828345ca23025dcefa6f","6573617f270241e5da3d355d","6576bffba60d8dd3ea0d1158","null","<p> <font color=""green"" size=""5vw""> Correct category! </font> <br> <br> <font color=""green"" size=""8vw""> + $0.07 </font> </p>","null","feedback","","","","","","","2.01"
"","","","","","html-keyboard-response","150","215554","0.0-7.38-0.38","5f6c828345ca23025dcefa6f","6573617f270241e5da3d355d","6576bffba60d8dd3ea0d1158","448","
            
        <div style=""text-align: center; position: fixed; top: 5vh; left: 40vw;"">
            <div style=""margin:0 auto; width: 20vw; top: 8vh; font-size: 2vw""> 
            <font color=""green""> Bonus : $2.01 </font>
            </div>
        </div>
    
            <div> Please press any key to continue to the next movie.</div>
        ","v","ITI","","","","","","",""
"","","","","","html-keyboard-response","151","216375","0.0-7.38-1.38","5f6c828345ca23025dcefa6f","6573617f270241e5da3d355d","6576bffba60d8dd3ea0d1158","820","./stimuli//pack_morph_shapes_1/cat_1/diff_5/ex_1_5_9.gif","arrowleft","response","ArrowLeft","9","1","5","test","true",""
"","","","","","html-keyboard-response","152","217879","0.0-7.38-2.38","5f6c828345ca23025dcefa6f","6573617f270241e5da3d355d","6576bffba60d8dd3ea0d1158","null","<p> <font color=""green"" size=""5vw""> Correct category! </font> <br> <br> <font color=""green"" size=""8vw""> + $0.07 </font> </p>","null","feedback","","","","","","","2.08"
"","","","","","html-keyboard-response","153","218161","0.0-7.39-0.39","5f6c828345ca23025dcefa6f","6573617f270241e5da3d355d","6576bffba60d8dd3ea0d1158","280","
            
        <div style=""text-align: center; position: fixed; top: 5vh; left: 40vw;"">
            <div style=""margin:0 auto; width: 20vw; top: 8vh; font-size: 2vw""> 
            <font color=""green""> Bonus : $2.08 </font>
            </div>
        </div>
    
            <div> Please press any key to continue to the next movie.</div>
        ","v","ITI","","","","","","",""
"","","","","","html-keyboard-response","154","218939","0.0-7.39-1.39","5f6c828345ca23025dcefa6f","6573617f270241e5da3d355d","6576bffba60d8dd3ea0d1158","777","./stimuli//pack_morph_shapes_1/cat_1/diff_5/ex_1_5_14.gif","arrowright","response","ArrowLeft","14","1","5","test","false",""
"","","","","","html-keyboard-response","155","220446","0.0-7.39-2.39","5f6c828345ca23025dcefa6f","6573617f270241e5da3d355d","6576bffba60d8dd3ea0d1158","null","<p> <font color=""red"" size=""5vw""> Wrong category! </font> <br> <br> <font color=""red"" size=""8vw""> - $0.05 </font> </p>","null","feedback","","","","","","","2.03"
"","","","","","html-keyboard-response","156","220733","0.0-7.40-0.40","5f6c828345ca23025dcefa6f","6573617f270241e5da3d355d","6576bffba60d8dd3ea0d1158","286","
            
        <div style=""text-align: center; position: fixed; top: 5vh; left: 40vw;"">
            <div style=""margin:0 auto; width: 20vw; top: 8vh; font-size: 2vw""> 
            <font color=""green""> Bonus : $2.03 </font>
            </div>
        </div>
    
            <div> Please press any key to continue to the next movie.</div>
        ","v","ITI","","","","","","",""
"","","","","","html-keyboard-response","157","222465","0.0-7.40-1.40","5f6c828345ca23025dcefa6f","6573617f270241e5da3d355d","6576bffba60d8dd3ea0d1158","1731","./stimuli//pack_morph_shapes_1/cat_2/diff_5/ex_2_5_14.gif","arrowright","response","ArrowRight","14","2","5","test","true",""
"","","","","","html-keyboard-response","158","223969","0.0-7.40-2.40","5f6c828345ca23025dcefa6f","6573617f270241e5da3d355d","6576bffba60d8dd3ea0d1158","null","<p> <font color=""green"" size=""5vw""> Correct category! </font> <br> <br> <font color=""green"" size=""8vw""> + $0.04 </font> </p>","null","feedback","","","","","","","2.07"
"","","","","","html-keyboard-response","159","224272","0.0-7.41-0.41","5f6c828345ca23025dcefa6f","6573617f270241e5da3d355d","6576bffba60d8dd3ea0d1158","301","
            
        <div style=""text-align: center; position: fixed; top: 5vh; left: 40vw;"">
            <div style=""margin:0 auto; width: 20vw; top: 8vh; font-size: 2vw""> 
            <font color=""green""> Bonus : $2.07 </font>
            </div>
        </div>
    
            <div> Please press any key to continue to the next movie.</div>
        ","v","ITI","","","","","","",""
"","","","","","html-keyboard-response","160","225366","0.0-7.41-1.41","5f6c828345ca23025dcefa6f","6573617f270241e5da3d355d","6576bffba60d8dd3ea0d1158","1092","./stimuli//pack_morph_shapes_1/cat_2/diff_5/ex_2_5_14.gif","arrowright","response","ArrowRight","14","2","5","test","true",""
"","","","","","html-keyboard-response","161","226868","0.0-7.41-2.41","5f6c828345ca23025dcefa6f","6573617f270241e5da3d355d","6576bffba60d8dd3ea0d1158","null","<p> <font color=""green"" size=""5vw""> Correct category! </font> <br> <br> <font color=""green"" size=""8vw""> + $0.06 </font> </p>","null","feedback","","","","","","","2.13"
"","","","","","html-keyboard-response","162","227175","0.0-7.42-0.42","5f6c828345ca23025dcefa6f","6573617f270241e5da3d355d","6576bffba60d8dd3ea0d1158","306","
            
        <div style=""text-align: center; position: fixed; top: 5vh; left: 40vw;"">
            <div style=""margin:0 auto; width: 20vw; top: 8vh; font-size: 2vw""> 
            <font color=""green""> Bonus : $2.13 </font>
            </div>
        </div>
    
            <div> Please press any key to continue to the next movie.</div>
        ","v","ITI","","","","","","",""
"","","","","","html-keyboard-response","163","227934","0.0-7.42-1.42","5f6c828345ca23025dcefa6f","6573617f270241e5da3d355d","6576bffba60d8dd3ea0d1158","757","./stimuli//pack_morph_shapes_1/cat_1/diff_5/ex_1_5_5.gif","arrowleft","response","ArrowLeft","5","1","5","test","true",""
"","","","","","html-keyboard-response","164","229441","0.0-7.42-2.42","5f6c828345ca23025dcefa6f","6573617f270241e5da3d355d","6576bffba60d8dd3ea0d1158","null","<p> <font color=""green"" size=""5vw""> Correct category! </font> <br> <br> <font color=""green"" size=""8vw""> + $0.07 </font> </p>","null","feedback","","","","","","","2.2"
"","","","","","html-keyboard-response","165","229751","0.0-7.43-0.43","5f6c828345ca23025dcefa6f","6573617f270241e5da3d355d","6576bffba60d8dd3ea0d1158","310","
            
        <div style=""text-align: center; position: fixed; top: 5vh; left: 40vw;"">
            <div style=""margin:0 auto; width: 20vw; top: 8vh; font-size: 2vw""> 
            <font color=""green""> Bonus : $2.2 </font>
            </div>
        </div>
    
            <div> Please press any key to continue to the next movie.</div>
        ","v","ITI","","","","","","",""
"","","","","","html-keyboard-response","166","230672","0.0-7.43-1.43","5f6c828345ca23025dcefa6f","6573617f270241e5da3d355d","6576bffba60d8dd3ea0d1158","920","./stimuli//pack_morph_shapes_1/cat_1/diff_5/ex_1_5_6.gif","arrowleft","response","ArrowLeft","6","1","5","test","true",""
"","","","","","html-keyboard-response","167","232176","0.0-7.43-2.43","5f6c828345ca23025dcefa6f","6573617f270241e5da3d355d","6576bffba60d8dd3ea0d1158","null","<p> <font color=""green"" size=""5vw""> Correct category! </font> <br> <br> <font color=""green"" size=""8vw""> + $0.06 </font> </p>","null","feedback","","","","","","","2.26"
"","","","","","html-keyboard-response","168","232602","0.0-7.44-0.44","5f6c828345ca23025dcefa6f","6573617f270241e5da3d355d","6576bffba60d8dd3ea0d1158","424","
            
        <div style=""text-align: center; position: fixed; top: 5vh; left: 40vw;"">
            <div style=""margin:0 auto; width: 20vw; top: 8vh; font-size: 2vw""> 
            <font color=""green""> Bonus : $2.26 </font>
            </div>
        </div>
    
            <div> Please press any key to continue to the next movie.</div>
        ","v","ITI","","","","","","",""
"","","","","","html-keyboard-response","169","233654","0.0-7.44-1.44","5f6c828345ca23025dcefa6f","6573617f270241e5da3d355d","6576bffba60d8dd3ea0d1158","1050","./stimuli//pack_morph_shapes_1/cat_1/diff_5/ex_1_5_6.gif","arrowleft","response","ArrowLeft","6","1","5","test","true",""
"","","","","","html-keyboard-response","170","235158","0.0-7.44-2.44","5f6c828345ca23025dcefa6f","6573617f270241e5da3d355d","6576bffba60d8dd3ea0d1158","null","<p> <font color=""green"" size=""5vw""> Correct category! </font> <br> <br> <font color=""green"" size=""8vw""> + $0.06 </font> </p>","null","feedback","","","","","","","2.32"
"","","","","","html-keyboard-response","171","235581","0.0-7.45-0.45","5f6c828345ca23025dcefa6f","6573617f270241e5da3d355d","6576bffba60d8dd3ea0d1158","421","
            
        <div style=""text-align: center; position: fixed; top: 5vh; left: 40vw;"">
            <div style=""margin:0 auto; width: 20vw; top: 8vh; font-size: 2vw""> 
            <font color=""green""> Bonus : $2.32 </font>
            </div>
        </div>
    
            <div> Please press any key to continue to the next movie.</div>
        ","v","ITI","","","","","","",""
"","","","","","html-keyboard-response","172","236242","0.0-7.45-1.45","5f6c828345ca23025dcefa6f","6573617f270241e5da3d355d","6576bffba60d8dd3ea0d1158","659","./stimuli//pack_morph_shapes_1/cat_2/diff_5/ex_2_5_10.gif","arrowright","response","ArrowRight","10","2","5","test","true",""
"","","","","","html-keyboard-response","173","237747","0.0-7.45-2.45","5f6c828345ca23025dcefa6f","6573617f270241e5da3d355d","6576bffba60d8dd3ea0d1158","null","<p> <font color=""green"" size=""5vw""> Correct category! </font> <br> <br> <font color=""green"" size=""8vw""> + $0.07 </font> </p>","null","feedback","","","","","","","2.39"
"","","","","","html-keyboard-response","174","238152","0.0-7.46-0.46","5f6c828345ca23025dcefa6f","6573617f270241e5da3d355d","6576bffba60d8dd3ea0d1158","404","
            
        <div style=""text-align: center; position: fixed; top: 5vh; left: 40vw;"">
            <div style=""margin:0 auto; width: 20vw; top: 8vh; font-size: 2vw""> 
            <font color=""green""> Bonus : $2.39 </font>
            </div>
        </div>
    
            <div> Please press any key to continue to the next movie.</div>
        ","v","ITI","","","","","","",""
"","","","","","html-keyboard-response","175","238892","0.0-7.46-1.46","5f6c828345ca23025dcefa6f","6573617f270241e5da3d355d","6576bffba60d8dd3ea0d1158","738","./stimuli//pack_morph_shapes_1/cat_1/diff_5/ex_1_5_2.gif","arrowleft","response","ArrowLeft","2","1","5","test","true",""
"","","","","","html-keyboard-response","176","240395","0.0-7.46-2.46","5f6c828345ca23025dcefa6f","6573617f270241e5da3d355d","6576bffba60d8dd3ea0d1158","null","<p> <font color=""green"" size=""5vw""> Correct category! </font> <br> <br> <font color=""green"" size=""8vw""> + $0.07 </font> </p>","null","feedback","","","","","","","2.46"
"","","","","","html-keyboard-response","177","240832","0.0-7.47-0.47","5f6c828345ca23025dcefa6f","6573617f270241e5da3d355d","6576bffba60d8dd3ea0d1158","437","
            
        <div style=""text-align: center; position: fixed; top: 5vh; left: 40vw;"">
            <div style=""margin:0 auto; width: 20vw; top: 8vh; font-size: 2vw""> 
            <font color=""green""> Bonus : $2.46 </font>
            </div>
        </div>
    
            <div> Please press any key to continue to the next movie.</div>
        ","v","ITI","","","","","","",""
"","","","","","html-keyboard-response","178","241722","0.0-7.47-1.47","5f6c828345ca23025dcefa6f","6573617f270241e5da3d355d","6576bffba60d8dd3ea0d1158","889","./stimuli//pack_morph_shapes_1/cat_1/diff_5/ex_1_5_7.gif","arrowleft","response","ArrowLeft","7","1","5","test","true",""
"","","","","","html-keyboard-response","179","243229","0.0-7.47-2.47","5f6c828345ca23025dcefa6f","6573617f270241e5da3d355d","6576bffba60d8dd3ea0d1158","null","<p> <font color=""green"" size=""5vw""> Correct category! </font> <br> <br> <font color=""green"" size=""8vw""> + $0.06 </font> </p>","null","feedback","","","","","","","2.52"
"","","","","","html-keyboard-response","180","243689","0.0-7.48-0.48","5f6c828345ca23025dcefa6f","6573617f270241e5da3d355d","6576bffba60d8dd3ea0d1158","459","
            
        <div style=""text-align: center; position: fixed; top: 5vh; left: 40vw;"">
            <div style=""margin:0 auto; width: 20vw; top: 8vh; font-size: 2vw""> 
            <font color=""green""> Bonus : $2.52 </font>
            </div>
        </div>
    
            <div> Please press any key to continue to the next movie.</div>
        ","v","ITI","","","","","","",""
"","","","","","html-keyboard-response","181","245573","0.0-7.48-1.48","5f6c828345ca23025dcefa6f","6573617f270241e5da3d355d","6576bffba60d8dd3ea0d1158","1882","./stimuli//pack_morph_shapes_1/cat_1/diff_5/ex_1_5_13.gif","arrowleft","response","ArrowLeft","13","1","5","test","true",""
"","","","","","html-keyboard-response","182","247078","0.0-7.48-2.48","5f6c828345ca23025dcefa6f","6573617f270241e5da3d355d","6576bffba60d8dd3ea0d1158","null","<p> <font color=""green"" size=""5vw""> Correct category! </font> <br> <br> <font color=""green"" size=""8vw""> + $0.04 </font> </p>","null","feedback","","","","","","","2.56"
"","","","","","html-keyboard-response","183","247505","0.0-7.49-0.49","5f6c828345ca23025dcefa6f","6573617f270241e5da3d355d","6576bffba60d8dd3ea0d1158","425","
            
        <div style=""text-align: center; position: fixed; top: 5vh; left: 40vw;"">
            <div style=""margin:0 auto; width: 20vw; top: 8vh; font-size: 2vw""> 
            <font color=""green""> Bonus : $2.56 </font>
            </div>
        </div>
    
            <div> Please press any key to continue to the next movie.</div>
        ","v","ITI","","","","","","",""
"","","","","","html-keyboard-response","184","248169","0.0-7.49-1.49","5f6c828345ca23025dcefa6f","6573617f270241e5da3d355d","6576bffba60d8dd3ea0d1158","662","./stimuli//pack_morph_shapes_1/cat_1/diff_5/ex_1_5_13.gif","arrowleft","response","ArrowLeft","13","1","5","test","true",""
"","","","","","html-keyboard-response","185","249675","0.0-7.49-2.49","5f6c828345ca23025dcefa6f","6573617f270241e5da3d355d","6576bffba60d8dd3ea0d1158","null","<p> <font color=""green"" size=""5vw""> Correct category! </font> <br> <br> <font color=""green"" size=""8vw""> + $0.07 </font> </p>","null","feedback","","","","","","","2.63"
"","","","","","html-keyboard-response","186","250099","0.0-7.50-0.50","5f6c828345ca23025dcefa6f","6573617f270241e5da3d355d","6576bffba60d8dd3ea0d1158","423","
            
        <div style=""text-align: center; position: fixed; top: 5vh; left: 40vw;"">
            <div style=""margin:0 auto; width: 20vw; top: 8vh; font-size: 2vw""> 
            <font color=""green""> Bonus : $2.63 </font>
            </div>
        </div>
    
            <div> Please press any key to continue to the next movie.</div>
        ","v","ITI","","","","","","",""
"","","","","","html-keyboard-response","187","250825","0.0-7.50-1.50","5f6c828345ca23025dcefa6f","6573617f270241e5da3d355d","6576bffba60d8dd3ea0d1158","725","./stimuli//pack_morph_shapes_1/cat_2/diff_5/ex_2_5_1.gif","arrowright","response","ArrowRight","1","2","5","test","true",""
"","","","","","html-keyboard-response","188","252330","0.0-7.50-2.50","5f6c828345ca23025dcefa6f","6573617f270241e5da3d355d","6576bffba60d8dd3ea0d1158","null","<p> <font color=""green"" size=""5vw""> Correct category! </font> <br> <br> <font color=""green"" size=""8vw""> + $0.07 </font> </p>","null","feedback","","","","","","","2.7"
"","","","","","html-keyboard-response","189","252828","0.0-7.51-0.51","5f6c828345ca23025dcefa6f","6573617f270241e5da3d355d","6576bffba60d8dd3ea0d1158","496","
            
        <div style=""text-align: center; position: fixed; top: 5vh; left: 40vw;"">
            <div style=""margin:0 auto; width: 20vw; top: 8vh; font-size: 2vw""> 
            <font color=""green""> Bonus : $2.7 </font>
            </div>
        </div>
    
            <div> Please press any key to continue to the next movie.</div>
        ","v","ITI","","","","","","",""
"","","","","","html-keyboard-response","190","253802","0.0-7.51-1.51","5f6c828345ca23025dcefa6f","6573617f270241e5da3d355d","6576bffba60d8dd3ea0d1158","973","./stimuli//pack_morph_shapes_1/cat_1/diff_5/ex_1_5_9.gif","arrowleft","response","ArrowLeft","9","1","5","test","true",""
"","","","","","html-keyboard-response","191","255308","0.0-7.51-2.51","5f6c828345ca23025dcefa6f","6573617f270241e5da3d355d","6576bffba60d8dd3ea0d1158","null","<p> <font color=""green"" size=""5vw""> Correct category! </font> <br> <br> <font color=""green"" size=""8vw""> + $0.06 </font> </p>","null","feedback","","","","","","","2.76"
"","","","","","html-keyboard-response","192","256398","0.0-7.52-0.52","5f6c828345ca23025dcefa6f","6573617f270241e5da3d355d","6576bffba60d8dd3ea0d1158","1089","
            
        <div style=""text-align: center; position: fixed; top: 5vh; left: 40vw;"">
            <div style=""margin:0 auto; width: 20vw; top: 8vh; font-size: 2vw""> 
            <font color=""green""> Bonus : $2.76 </font>
            </div>
        </div>
    
            <div> Please press any key to continue to the next movie.</div>
        ","v","ITI","","","","","","",""
"","","","","","html-keyboard-response","193","258221","0.0-7.52-1.52","5f6c828345ca23025dcefa6f","6573617f270241e5da3d355d","6576bffba60d8dd3ea0d1158","1823","./stimuli//pack_morph_shapes_1/cat_1/diff_5/ex_1_5_11.gif","arrowleft","response","ArrowLeft","11","1","5","test","true",""
"","","","","","html-keyboard-response","194","259725","0.0-7.52-2.52","5f6c828345ca23025dcefa6f","6573617f270241e5da3d355d","6576bffba60d8dd3ea0d1158","null","<p> <font color=""green"" size=""5vw""> Correct category! </font> <br> <br> <font color=""green"" size=""8vw""> + $0.04 </font> </p>","null","feedback","","","","","","","2.8"
"","","","","","html-keyboard-response","195","260163","0.0-7.53-0.53","5f6c828345ca23025dcefa6f","6573617f270241e5da3d355d","6576bffba60d8dd3ea0d1158","437","
            
        <div style=""text-align: center; position: fixed; top: 5vh; left: 40vw;"">
            <div style=""margin:0 auto; width: 20vw; top: 8vh; font-size: 2vw""> 
            <font color=""green""> Bonus : $2.8 </font>
            </div>
        </div>
    
            <div> Please press any key to continue to the next movie.</div>
        ","v","ITI","","","","","","",""
"","","","","","html-keyboard-response","196","261015","0.0-7.53-1.53","5f6c828345ca23025dcefa6f","6573617f270241e5da3d355d","6576bffba60d8dd3ea0d1158","850","./stimuli//pack_morph_shapes_1/cat_2/diff_5/ex_2_5_7.gif","arrowright","response","ArrowRight","7","2","5","test","true",""
"","","","","","html-keyboard-response","197","262521","0.0-7.53-2.53","5f6c828345ca23025dcefa6f","6573617f270241e5da3d355d","6576bffba60d8dd3ea0d1158","null","<p> <font color=""green"" size=""5vw""> Correct category! </font> <br> <br> <font color=""green"" size=""8vw""> + $0.07 </font> </p>","null","feedback","","","","","","","2.87"
"","","","","","html-keyboard-response","198","263218","0.0-7.54-0.54","5f6c828345ca23025dcefa6f","6573617f270241e5da3d355d","6576bffba60d8dd3ea0d1158","695","
            
        <div style=""text-align: center; position: fixed; top: 5vh; left: 40vw;"">
            <div style=""margin:0 auto; width: 20vw; top: 8vh; font-size: 2vw""> 
            <font color=""green""> Bonus : $2.87 </font>
            </div>
        </div>
    
            <div> Please press any key to continue to the next movie.</div>
        ","v","ITI","","","","","","",""
"","","","","","html-keyboard-response","199","264610","0.0-7.54-1.54","5f6c828345ca23025dcefa6f","6573617f270241e5da3d355d","6576bffba60d8dd3ea0d1158","1391","./stimuli//pack_morph_shapes_1/cat_1/diff_5/ex_1_5_17.gif","arrowleft","response","ArrowLeft","17","1","5","test","true",""
"","","","","","html-keyboard-response","200","266117","0.0-7.54-2.54","5f6c828345ca23025dcefa6f","6573617f270241e5da3d355d","6576bffba60d8dd3ea0d1158","null","<p> <font color=""green"" size=""5vw""> Correct category! </font> <br> <br> <font color=""green"" size=""8vw""> + $0.05 </font> </p>","null","feedback","","","","","","","2.92"
"","","","","","html-keyboard-response","201","266834","0.0-7.55-0.55","5f6c828345ca23025dcefa6f","6573617f270241e5da3d355d","6576bffba60d8dd3ea0d1158","715","
            
        <div style=""text-align: center; position: fixed; top: 5vh; left: 40vw;"">
            <div style=""margin:0 auto; width: 20vw; top: 8vh; font-size: 2vw""> 
            <font color=""green""> Bonus : $2.92 </font>
            </div>
        </div>
    
            <div> Please press any key to continue to the next movie.</div>
        ","v","ITI","","","","","","",""
"","","","","","html-keyboard-response","202","267772","0.0-7.55-1.55","5f6c828345ca23025dcefa6f","6573617f270241e5da3d355d","6576bffba60d8dd3ea0d1158","936","./stimuli//pack_morph_shapes_1/cat_2/diff_5/ex_2_5_7.gif","arrowright","response","ArrowRight","7","2","5","test","true",""
"","","","","","html-keyboard-response","203","269278","0.0-7.55-2.55","5f6c828345ca23025dcefa6f","6573617f270241e5da3d355d","6576bffba60d8dd3ea0d1158","null","<p> <font color=""green"" size=""5vw""> Correct category! </font> <br> <br> <font color=""green"" size=""8vw""> + $0.06 </font> </p>","null","feedback","","","","","","","2.98"
"","","","","","html-keyboard-response","204","269673","0.0-7.56-0.56","5f6c828345ca23025dcefa6f","6573617f270241e5da3d355d","6576bffba60d8dd3ea0d1158","393","
            
        <div style=""text-align: center; position: fixed; top: 5vh; left: 40vw;"">
            <div style=""margin:0 auto; width: 20vw; top: 8vh; font-size: 2vw""> 
            <font color=""green""> Bonus : $2.98 </font>
            </div>
        </div>
    
            <div> Please press any key to continue to the next movie.</div>
        ","v","ITI","","","","","","",""
"","","","","","html-keyboard-response","205","270381","0.0-7.56-1.56","5f6c828345ca23025dcefa6f","6573617f270241e5da3d355d","6576bffba60d8dd3ea0d1158","708","./stimuli//pack_morph_shapes_1/cat_1/diff_5/ex_1_5_1.gif","arrowleft","response","ArrowLeft","1","1","5","test","true",""
"","","","","","html-keyboard-response","206","271887","0.0-7.56-2.56","5f6c828345ca23025dcefa6f","6573617f270241e5da3d355d","6576bffba60d8dd3ea0d1158","null","<p> <font color=""green"" size=""5vw""> Correct category! </font> <br> <br> <font color=""green"" size=""8vw""> + $0.07 </font> </p>","null","feedback","","","","","","","3.05"
"","","","","","html-keyboard-response","207","272185","0.0-7.57-0.57","5f6c828345ca23025dcefa6f","6573617f270241e5da3d355d","6576bffba60d8dd3ea0d1158","296","
            
        <div style=""text-align: center; position: fixed; top: 5vh; left: 40vw;"">
            <div style=""margin:0 auto; width: 20vw; top: 8vh; font-size: 2vw""> 
            <font color=""green""> Bonus : $3.05 </font>
            </div>
        </div>
    
            <div> Please press any key to continue to the next movie.</div>
        ","v","ITI","","","","","","",""
"","","","","","html-keyboard-response","208","273820","0.0-7.57-1.57","5f6c828345ca23025dcefa6f","6573617f270241e5da3d355d","6576bffba60d8dd3ea0d1158","1632","./stimuli//pack_morph_shapes_1/cat_2/diff_5/ex_2_5_10.gif","arrowright","response","ArrowRight","10","2","5","test","true",""
"","","","","","html-keyboard-response","209","275327","0.0-7.57-2.57","5f6c828345ca23025dcefa6f","6573617f270241e5da3d355d","6576bffba60d8dd3ea0d1158","null","<p> <font color=""green"" size=""5vw""> Correct category! </font> <br> <br> <font color=""green"" size=""8vw""> + $0.04 </font> </p>","null","feedback","","","","","","","3.09"
"","","","","","html-keyboard-response","210","275798","0.0-7.58-0.58","5f6c828345ca23025dcefa6f","6573617f270241e5da3d355d","6576bffba60d8dd3ea0d1158","471","
            
        <div style=""text-align: center; position: fixed; top: 5vh; left: 40vw;"">
            <div style=""margin:0 auto; width: 20vw; top: 8vh; font-size: 2vw""> 
            <font color=""green""> Bonus : $3.09 </font>
            </div>
        </div>
    
            <div> Please press any key to continue to the next movie.</div>
        ","v","ITI","","","","","","",""
"","","","","","html-keyboard-response","211","276433","0.0-7.58-1.58","5f6c828345ca23025dcefa6f","6573617f270241e5da3d355d","6576bffba60d8dd3ea0d1158","633","./stimuli//pack_morph_shapes_1/cat_1/diff_5/ex_1_5_6.gif","arrowleft","response","ArrowLeft","6","1","5","test","true",""
"","","","","","html-keyboard-response","212","277937","0.0-7.58-2.58","5f6c828345ca23025dcefa6f","6573617f270241e5da3d355d","6576bffba60d8dd3ea0d1158","null","<p> <font color=""green"" size=""5vw""> Correct category! </font> <br> <br> <font color=""green"" size=""8vw""> + $0.07 </font> </p>","null","feedback","","","","","","","3.16"
"","","","","","html-keyboard-response","213","278329","0.0-7.59-0.59","5f6c828345ca23025dcefa6f","6573617f270241e5da3d355d","6576bffba60d8dd3ea0d1158","390","
            
        <div style=""text-align: center; position: fixed; top: 5vh; left: 40vw;"">
            <div style=""margin:0 auto; width: 20vw; top: 8vh; font-size: 2vw""> 
            <font color=""green""> Bonus : $3.16 </font>
            </div>
        </div>
    
            <div> Please press any key to continue to the next movie.</div>
        ","v","ITI","","","","","","",""
"","","","","","html-keyboard-response","214","278847","0.0-7.59-1.59","5f6c828345ca23025dcefa6f","6573617f270241e5da3d355d","6576bffba60d8dd3ea0d1158","516","./stimuli//pack_morph_shapes_1/cat_1/diff_5/ex_1_5_1.gif","arrowleft","response","ArrowLeft","1","1","5","test","true",""
"","","","","","html-keyboard-response","215","280348","0.0-7.59-2.59","5f6c828345ca23025dcefa6f","6573617f270241e5da3d355d","6576bffba60d8dd3ea0d1158","null","<p> <font color=""green"" size=""5vw""> Correct category! </font> <br> <br> <font color=""green"" size=""8vw""> + $0.08 </font> </p>","null","feedback","","","","","","","3.24"
"","","","","","html-keyboard-response","216","280657","0.0-7.60-0.60","5f6c828345ca23025dcefa6f","6573617f270241e5da3d355d","6576bffba60d8dd3ea0d1158","307","
            
        <div style=""text-align: center; position: fixed; top: 5vh; left: 40vw;"">
            <div style=""margin:0 auto; width: 20vw; top: 8vh; font-size: 2vw""> 
            <font color=""green""> Bonus : $3.24 </font>
            </div>
        </div>
    
            <div> Please press any key to continue to the next movie.</div>
        ","v","ITI","","","","","","",""
"","","","","","html-keyboard-response","217","281343","0.0-7.60-1.60","5f6c828345ca23025dcefa6f","6573617f270241e5da3d355d","6576bffba60d8dd3ea0d1158","685","./stimuli//pack_morph_shapes_1/cat_2/diff_5/ex_2_5_4.gif","arrowright","response","ArrowRight","4","2","5","test","true",""
"","","","","","html-keyboard-response","218","282849","0.0-7.60-2.60","5f6c828345ca23025dcefa6f","6573617f270241e5da3d355d","6576bffba60d8dd3ea0d1158","null","<p> <font color=""green"" size=""5vw""> Correct category! </font> <br> <br> <font color=""green"" size=""8vw""> + $0.07 </font> </p>","null","feedback","","","","","","","3.31"
"","","","","","html-keyboard-response","219","283189","0.0-7.61-0.61","5f6c828345ca23025dcefa6f","6573617f270241e5da3d355d","6576bffba60d8dd3ea0d1158","339","
            
        <div style=""text-align: center; position: fixed; top: 5vh; left: 40vw;"">
            <div style=""margin:0 auto; width: 20vw; top: 8vh; font-size: 2vw""> 
            <font color=""green""> Bonus : $3.31 </font>
            </div>
        </div>
    
            <div> Please press any key to continue to the next movie.</div>
        ","v","ITI","","","","","","",""
"","","","","","html-keyboard-response","220","283878","0.0-7.61-1.61","5f6c828345ca23025dcefa6f","6573617f270241e5da3d355d","6576bffba60d8dd3ea0d1158","687","./stimuli//pack_morph_shapes_1/cat_2/diff_5/ex_2_5_2.gif","arrowright","response","ArrowRight","2","2","5","test","true",""
"","","","","","html-keyboard-response","221","285384","0.0-7.61-2.61","5f6c828345ca23025dcefa6f","6573617f270241e5da3d355d","6576bffba60d8dd3ea0d1158","null","<p> <font color=""green"" size=""5vw""> Correct category! </font> <br> <br> <font color=""green"" size=""8vw""> + $0.07 </font> </p>","null","feedback","","","","","","","3.38"
"","","","","","html-keyboard-response","222","285657","0.0-7.62-0.62","5f6c828345ca23025dcefa6f","6573617f270241e5da3d355d","6576bffba60d8dd3ea0d1158","271","
            
        <div style=""text-align: center; position: fixed; top: 5vh; left: 40vw;"">
            <div style=""margin:0 auto; width: 20vw; top: 8vh; font-size: 2vw""> 
            <font color=""green""> Bonus : $3.38 </font>
            </div>
        </div>
    
            <div> Please press any key to continue to the next movie.</div>
        ","v","ITI","","","","","","",""
"","","","","","html-keyboard-response","223","286284","0.0-7.62-1.62","5f6c828345ca23025dcefa6f","6573617f270241e5da3d355d","6576bffba60d8dd3ea0d1158","627","./stimuli//pack_morph_shapes_1/cat_1/diff_5/ex_1_5_3.gif","arrowleft","response","ArrowLeft","3","1","5","test","true",""
"","","","","","html-keyboard-response","224","287785","0.0-7.62-2.62","5f6c828345ca23025dcefa6f","6573617f270241e5da3d355d","6576bffba60d8dd3ea0d1158","null","<p> <font color=""green"" size=""5vw""> Correct category! </font> <br> <br> <font color=""green"" size=""8vw""> + $0.07 </font> </p>","null","feedback","","","","","","","3.45"
"","","","","","html-keyboard-response","225","288099","0.0-7.63-0.63","5f6c828345ca23025dcefa6f","6573617f270241e5da3d355d","6576bffba60d8dd3ea0d1158","313","
            
        <div style=""text-align: center; position: fixed; top: 5vh; left: 40vw;"">
            <div style=""margin:0 auto; width: 20vw; top: 8vh; font-size: 2vw""> 
            <font color=""green""> Bonus : $3.45 </font>
            </div>
        </div>
    
            <div> Please press any key to continue to the next movie.</div>
        ","v","ITI","","","","","","",""
"","","","","","html-keyboard-response","226","288819","0.0-7.63-1.63","5f6c828345ca23025dcefa6f","6573617f270241e5da3d355d","6576bffba60d8dd3ea0d1158","719","./stimuli//pack_morph_shapes_1/cat_2/diff_5/ex_2_5_5.gif","arrowright","response","ArrowRight","5","2","5","test","true",""
"","","","","","html-keyboard-response","227","290326","0.0-7.63-2.63","5f6c828345ca23025dcefa6f","6573617f270241e5da3d355d","6576bffba60d8dd3ea0d1158","null","<p> <font color=""green"" size=""5vw""> Correct category! </font> <br> <br> <font color=""green"" size=""8vw""> + $0.07 </font> </p>","null","feedback","","","","","","","3.52"
"","","","","","html-keyboard-response","228","290625","0.0-7.64-0.64","5f6c828345ca23025dcefa6f","6573617f270241e5da3d355d","6576bffba60d8dd3ea0d1158","298","
            
        <div style=""text-align: center; position: fixed; top: 5vh; left: 40vw;"">
            <div style=""margin:0 auto; width: 20vw; top: 8vh; font-size: 2vw""> 
            <font color=""green""> Bonus : $3.52 </font>
            </div>
        </div>
    
            <div> Please press any key to continue to the next movie.</div>
        ","v","ITI","","","","","","",""
"","","","","","html-keyboard-response","229","291306","0.0-7.64-1.64","5f6c828345ca23025dcefa6f","6573617f270241e5da3d355d","6576bffba60d8dd3ea0d1158","679","./stimuli//pack_morph_shapes_1/cat_1/diff_5/ex_1_5_1.gif","arrowleft","response","ArrowLeft","1","1","5","test","true",""
"","","","","","html-keyboard-response","230","292812","0.0-7.64-2.64","5f6c828345ca23025dcefa6f","6573617f270241e5da3d355d","6576bffba60d8dd3ea0d1158","null","<p> <font color=""green"" size=""5vw""> Correct category! </font> <br> <br> <font color=""green"" size=""8vw""> + $0.07 </font> </p>","null","feedback","","","","","","","3.59"
"","","","","","html-keyboard-response","231","293098","0.0-7.65-0.65","5f6c828345ca23025dcefa6f","6573617f270241e5da3d355d","6576bffba60d8dd3ea0d1158","283","
            
        <div style=""text-align: center; position: fixed; top: 5vh; left: 40vw;"">
            <div style=""margin:0 auto; width: 20vw; top: 8vh; font-size: 2vw""> 
            <font color=""green""> Bonus : $3.59 </font>
            </div>
        </div>
    
            <div> Please press any key to continue to the next movie.</div>
        ","v","ITI","","","","","","",""
"","","","","","html-keyboard-response","232","293699","0.0-7.65-1.65","5f6c828345ca23025dcefa6f","6573617f270241e5da3d355d","6576bffba60d8dd3ea0d1158","600","./stimuli//pack_morph_shapes_1/cat_1/diff_5/ex_1_5_1.gif","arrowleft","response","ArrowLeft","1","1","5","test","true",""
"","","","","","html-keyboard-response","233","295206","0.0-7.65-2.65","5f6c828345ca23025dcefa6f","6573617f270241e5da3d355d","6576bffba60d8dd3ea0d1158","null","<p> <font color=""green"" size=""5vw""> Correct category! </font> <br> <br> <font color=""green"" size=""8vw""> + $0.07 </font> </p>","null","feedback","","","","","","","3.66"
"","","","","","html-keyboard-response","234","295576","0.0-7.66-0.66","5f6c828345ca23025dcefa6f","6573617f270241e5da3d355d","6576bffba60d8dd3ea0d1158","369","
            
        <div style=""text-align: center; position: fixed; top: 5vh; left: 40vw;"">
            <div style=""margin:0 auto; width: 20vw; top: 8vh; font-size: 2vw""> 
            <font color=""green""> Bonus : $3.66 </font>
            </div>
        </div>
    
            <div> Please press any key to continue to the next movie.</div>
        ","v","ITI","","","","","","",""
"","","","","","html-keyboard-response","235","296189","0.0-7.66-1.66","5f6c828345ca23025dcefa6f","6573617f270241e5da3d355d","6576bffba60d8dd3ea0d1158","611","./stimuli//pack_morph_shapes_1/cat_1/diff_5/ex_1_5_8.gif","arrowleft","response","ArrowLeft","8","1","5","test","true",""
"","","","","","html-keyboard-response","236","297696","0.0-7.66-2.66","5f6c828345ca23025dcefa6f","6573617f270241e5da3d355d","6576bffba60d8dd3ea0d1158","null","<p> <font color=""green"" size=""5vw""> Correct category! </font> <br> <br> <font color=""green"" size=""8vw""> + $0.07 </font> </p>","null","feedback","","","","","","","3.73"
"","","","","","html-keyboard-response","237","297974","0.0-7.67-0.67","5f6c828345ca23025dcefa6f","6573617f270241e5da3d355d","6576bffba60d8dd3ea0d1158","278","
            
        <div style=""text-align: center; position: fixed; top: 5vh; left: 40vw;"">
            <div style=""margin:0 auto; width: 20vw; top: 8vh; font-size: 2vw""> 
            <font color=""green""> Bonus : $3.73 </font>
            </div>
        </div>
    
            <div> Please press any key to continue to the next movie.</div>
        ","v","ITI","","","","","","",""
"","","","","","html-keyboard-response","238","298966","0.0-7.67-1.67","5f6c828345ca23025dcefa6f","6573617f270241e5da3d355d","6576bffba60d8dd3ea0d1158","992","./stimuli//pack_morph_shapes_1/cat_2/diff_5/ex_2_5_16.gif","arrowright","response","ArrowRight","16","2","5","test","true",""
"","","","","","html-keyboard-response","239","300468","0.0-7.67-2.67","5f6c828345ca23025dcefa6f","6573617f270241e5da3d355d","6576bffba60d8dd3ea0d1158","null","<p> <font color=""green"" size=""5vw""> Correct category! </font> <br> <br> <font color=""green"" size=""8vw""> + $0.06 </font> </p>","null","feedback","","","","","","","3.79"
"","","","","","html-keyboard-response","240","300680","0.0-7.68-0.68","5f6c828345ca23025dcefa6f","6573617f270241e5da3d355d","6576bffba60d8dd3ea0d1158","211","
            
        <div style=""text-align: center; position: fixed; top: 5vh; left: 40vw;"">
            <div style=""margin:0 auto; width: 20vw; top: 8vh; font-size: 2vw""> 
            <font color=""green""> Bonus : $3.79 </font>
            </div>
        </div>
    
            <div> Please press any key to continue to the next movie.</div>
        ","v","ITI","","","","","","",""
"","","","","","html-keyboard-response","241","301338","0.0-7.68-1.68","5f6c828345ca23025dcefa6f","6573617f270241e5da3d355d","6576bffba60d8dd3ea0d1158","657","./stimuli//pack_morph_shapes_1/cat_1/diff_5/ex_1_5_9.gif","arrowleft","response","ArrowLeft","9","1","5","test","true",""
"","","","","","html-keyboard-response","242","302844","0.0-7.68-2.68","5f6c828345ca23025dcefa6f","6573617f270241e5da3d355d","6576bffba60d8dd3ea0d1158","null","<p> <font color=""green"" size=""5vw""> Correct category! </font> <br> <br> <font color=""green"" size=""8vw""> + $0.07 </font> </p>","null","feedback","","","","","","","3.86"
"","","","","","html-keyboard-response","243","303173","0.0-7.69-0.69","5f6c828345ca23025dcefa6f","6573617f270241e5da3d355d","6576bffba60d8dd3ea0d1158","329","
            
        <div style=""text-align: center; position: fixed; top: 5vh; left: 40vw;"">
            <div style=""margin:0 auto; width: 20vw; top: 8vh; font-size: 2vw""> 
            <font color=""green""> Bonus : $3.86 </font>
            </div>
        </div>
    
            <div> Please press any key to continue to the next movie.</div>
        ","v","ITI","","","","","","",""
"","","","","","html-keyboard-response","244","303888","0.0-7.69-1.69","5f6c828345ca23025dcefa6f","6573617f270241e5da3d355d","6576bffba60d8dd3ea0d1158","713","./stimuli//pack_morph_shapes_1/cat_2/diff_5/ex_2_5_5.gif","arrowright","response","ArrowRight","5","2","5","test","true",""
"","","","","","html-keyboard-response","245","305391","0.0-7.69-2.69","5f6c828345ca23025dcefa6f","6573617f270241e5da3d355d","6576bffba60d8dd3ea0d1158","null","<p> <font color=""green"" size=""5vw""> Correct category! </font> <br> <br> <font color=""green"" size=""8vw""> + $0.07 </font> </p>","null","feedback","","","","","","","3.93"
"","","","","","html-keyboard-response","246","305755","0.0-7.70-0.70","5f6c828345ca23025dcefa6f","6573617f270241e5da3d355d","6576bffba60d8dd3ea0d1158","363","
            
        <div style=""text-align: center; position: fixed; top: 5vh; left: 40vw;"">
            <div style=""margin:0 auto; width: 20vw; top: 8vh; font-size: 2vw""> 
            <font color=""green""> Bonus : $3.93 </font>
            </div>
        </div>
    
            <div> Please press any key to continue to the next movie.</div>
        ","v","ITI","","","","","","",""
"","","","","","html-keyboard-response","247","307654","0.0-7.70-1.70","5f6c828345ca23025dcefa6f","6573617f270241e5da3d355d","6576bffba60d8dd3ea0d1158","1897","./stimuli//pack_morph_shapes_1/cat_2/diff_5/ex_2_5_15.gif","arrowright","response","ArrowRight","15","2","5","test","true",""
"","","","","","html-keyboard-response","248","309156","0.0-7.70-2.70","5f6c828345ca23025dcefa6f","6573617f270241e5da3d355d","6576bffba60d8dd3ea0d1158","null","<p> <font color=""green"" size=""5vw""> Correct category! </font> <br> <br> <font color=""green"" size=""8vw""> + $0.04 </font> </p>","null","feedback","","","","","","","3.97"
"","","","","","html-keyboard-response","249","309651","0.0-7.71-0.71","5f6c828345ca23025dcefa6f","6573617f270241e5da3d355d","6576bffba60d8dd3ea0d1158","493","
            
        <div style=""text-align: center; position: fixed; top: 5vh; left: 40vw;"">
            <div style=""margin:0 auto; width: 20vw; top: 8vh; font-size: 2vw""> 
            <font color=""green""> Bonus : $3.97 </font>
            </div>
        </div>
    
            <div> Please press any key to continue to the next movie.</div>
        ","v","ITI","","","","","","",""
"","","","","","html-keyboard-response","250","310358","0.0-7.71-1.71","5f6c828345ca23025dcefa6f","6573617f270241e5da3d355d","6576bffba60d8dd3ea0d1158","705","./stimuli//pack_morph_shapes_1/cat_1/diff_5/ex_1_5_7.gif","arrowleft","response","ArrowLeft","7","1","5","test","true",""
"","","","","","html-keyboard-response","251","311859","0.0-7.71-2.71","5f6c828345ca23025dcefa6f","6573617f270241e5da3d355d","6576bffba60d8dd3ea0d1158","null","<p> <font color=""green"" size=""5vw""> Correct category! </font> <br> <br> <font color=""green"" size=""8vw""> + $0.07 </font> </p>","null","feedback","","","","","","","4.04"
"","","","","","html-keyboard-response","252","312140","0.0-7.72-0.72","5f6c828345ca23025dcefa6f","6573617f270241e5da3d355d","6576bffba60d8dd3ea0d1158","280","
            
        <div style=""text-align: center; position: fixed; top: 5vh; left: 40vw;"">
            <div style=""margin:0 auto; width: 20vw; top: 8vh; font-size: 2vw""> 
            <font color=""green""> Bonus : $4.04 </font>
            </div>
        </div>
    
            <div> Please press any key to continue to the next movie.</div>
        ","v","ITI","","","","","","",""
"","","","","","html-keyboard-response","253","313150","0.0-7.72-1.72","5f6c828345ca23025dcefa6f","6573617f270241e5da3d355d","6576bffba60d8dd3ea0d1158","1010","./stimuli//pack_morph_shapes_1/cat_2/diff_5/ex_2_5_17.gif","arrowright","response","ArrowRight","17","2","5","test","true",""
"","","","","","html-keyboard-response","254","314653","0.0-7.72-2.72","5f6c828345ca23025dcefa6f","6573617f270241e5da3d355d","6576bffba60d8dd3ea0d1158","null","<p> <font color=""green"" size=""5vw""> Correct category! </font> <br> <br> <font color=""green"" size=""8vw""> + $0.06 </font> </p>","null","feedback","","","","","","","4.1"
"","","","","","html-keyboard-response","255","315307","0.0-7.73-0.73","5f6c828345ca23025dcefa6f","6573617f270241e5da3d355d","6576bffba60d8dd3ea0d1158","653","
            
