"success","timeout","failed_images","failed_audio","failed_video","trial_type","trial_index","time_elapsed","internal_node_id","subject_id","study_id","session_id","rt","stimulus","response","task","correct_response","exemplar_ID","category","difficulty","phase","correct","bonus"
"true","false","[]","[]","[]","preload","0","6","0.0-0.0","60a6bc4f4cb533e7e0867aab","6573617f270241e5da3d355d","6576c301d1d93165c5d224c4","","","","","","","","","","",""
"","","","","","html-keyboard-response","1","8244","0.0-1.0","60a6bc4f4cb533e7e0867aab","6573617f270241e5da3d355d","6576c301d1d93165c5d224c4","8235","Welcome to the Category Learning experiment! Press any key to continue."," ","welcome","","","","","","",""
"","","","","","html-keyboard-response","2","51779","0.0-2.0","60a6bc4f4cb533e7e0867aab","6573617f270241e5da3d355d","6576c301d1d93165c5d224c4","43534","
            <p>You will be shown movies. Each movie contains a sequence of shapes changing form. 
            <br> Some shapes are category A, some are category B. <b> Within a single movie, all shapes belong to the same category. </b>
            <br> You will not know in advance which category the shapes of each movie belong to.</p>
            <p> While you watch a movie, you have to guess the category that its shapes belong to <b>(left arrow for category A, right arrow for category B)</b></p>
            <p> After you choose, the screen will show you whether you were correct or not.</p>
            <p>Press any key to continue.</p>
            "," ","introduction_1","","","","","","",""
"","","","","","html-keyboard-response","3","71986","0.0-3.0","60a6bc4f4cb533e7e0867aab","6573617f270241e5da3d355d","6576c301d1d93165c5d224c4","20181","
              <p><b>You will receive a bonus payment for each correct answer! The faster you answer the higher the bonus will be!</b></p>
              <p> So you can increase your bonus by guessing as quickly and accurately as possible.</p>
              <p><b>You will lose $0.05 from your bonus payment for each incorrect answer! The bonus can not become less that $0.</b> </p>
              <p>Press any key to continue.</p>
              "," ","introduction_2","","","","","","",""
"","","","","","html-keyboard-response","4","80005","0.0-4.0","60a6bc4f4cb533e7e0867aab","6573617f270241e5da3d355d","6576c301d1d93165c5d224c4","8017","
            <p> <b>The first 10 trials are a practice round that will not count towards your bonus payment.</b></p>
            <p> You will be notified when practice finishes and the test begins. </p>
            <p> Press any key to begin the practice round.</p>
            "," ","introduction_3","","","","","","",""
"","","","","","html-keyboard-response","5","85951","0.0-5.0-0.0","60a6bc4f4cb533e7e0867aab","6573617f270241e5da3d355d","6576c301d1d93165c5d224c4","5944","
            
        <div style=""text-align: center; position: fixed; top: 5vh; left: 40vw;"">
            <div style=""margin:0 auto; width: 20vw; top: 8vh; font-size: 2vw""> 
            <font color=""green""> Bonus : $0 </font>
            </div>
        </div>
    
            <div> Please press any key to continue to the next movie.</div>
        "," ","ITI","","","","","","",""
"","","","","","html-keyboard-response","6","89388","0.0-5.0-1.0","60a6bc4f4cb533e7e0867aab","6573617f270241e5da3d355d","6576c301d1d93165c5d224c4","3432","./stimuli//pack_morph_shapes_1/cat_1/diff_2/ex_1_2_5.gif","arrowleft","response","ArrowLeft","5","1","2","train","true",""
"","","","","","html-keyboard-response","7","90893","0.0-5.0-2.0","60a6bc4f4cb533e7e0867aab","6573617f270241e5da3d355d","6576c301d1d93165c5d224c4","null","<p> <font color=""green"" size=""5vw""> Correct category! </font> </p>","null","feedback","","","","","","","0"
"","","","","","html-keyboard-response","8","92906","0.0-5.0-0.1","60a6bc4f4cb533e7e0867aab","6573617f270241e5da3d355d","6576c301d1d93165c5d224c4","2011","
            
        <div style=""text-align: center; position: fixed; top: 5vh; left: 40vw;"">
            <div style=""margin:0 auto; width: 20vw; top: 8vh; font-size: 2vw""> 
            <font color=""green""> Bonus : $0 </font>
            </div>
        </div>
    
            <div> Please press any key to continue to the next movie.</div>
        "," ","ITI","","","","","","",""
"","","","","","html-keyboard-response","9","94602","0.0-5.0-1.1","60a6bc4f4cb533e7e0867aab","6573617f270241e5da3d355d","6576c301d1d93165c5d224c4","1695","./stimuli//pack_morph_shapes_1/cat_2/diff_1/ex_2_1_15.gif","arrowright","response","ArrowRight","15","2","1","train","true",""
"","","","","","html-keyboard-response","10","96110","0.0-5.0-2.1","60a6bc4f4cb533e7e0867aab","6573617f270241e5da3d355d","6576c301d1d93165c5d224c4","null","<p> <font color=""green"" size=""5vw""> Correct category! </font> </p>","null","feedback","","","","","","","0"
"","","","","","html-keyboard-response","11","97279","0.0-5.0-0.2","60a6bc4f4cb533e7e0867aab","6573617f270241e5da3d355d","6576c301d1d93165c5d224c4","1167","
            
        <div style=""text-align: center; position: fixed; top: 5vh; left: 40vw;"">
            <div style=""margin:0 auto; width: 20vw; top: 8vh; font-size: 2vw""> 
            <font color=""green""> Bonus : $0 </font>
            </div>
        </div>
    
            <div> Please press any key to continue to the next movie.</div>
        "," ","ITI","","","","","","",""
"","","","","","html-keyboard-response","12","98458","0.0-5.0-1.2","60a6bc4f4cb533e7e0867aab","6573617f270241e5da3d355d","6576c301d1d93165c5d224c4","1178","./stimuli//pack_morph_shapes_1/cat_1/diff_2/ex_1_2_11.gif","arrowleft","response","ArrowLeft","11","1","2","train","true",""
"","","","","","html-keyboard-response","13","99961","0.0-5.0-2.2","60a6bc4f4cb533e7e0867aab","6573617f270241e5da3d355d","6576c301d1d93165c5d224c4","null","<p> <font color=""green"" size=""5vw""> Correct category! </font> </p>","null","feedback","","","","","","","0"
"","","","","","html-keyboard-response","14","100950","0.0-5.0-0.3","60a6bc4f4cb533e7e0867aab","6573617f270241e5da3d355d","6576c301d1d93165c5d224c4","987","
            
        <div style=""text-align: center; position: fixed; top: 5vh; left: 40vw;"">
            <div style=""margin:0 auto; width: 20vw; top: 8vh; font-size: 2vw""> 
            <font color=""green""> Bonus : $0 </font>
            </div>
        </div>
    
            <div> Please press any key to continue to the next movie.</div>
        "," ","ITI","","","","","","",""
"","","","","","html-keyboard-response","15","102584","0.0-5.0-1.3","60a6bc4f4cb533e7e0867aab","6573617f270241e5da3d355d","6576c301d1d93165c5d224c4","1633","./stimuli//pack_morph_shapes_1/cat_1/diff_1/ex_1_1_9.gif","arrowleft","response","ArrowLeft","9","1","1","train","true",""
"","","","","","html-keyboard-response","16","104089","0.0-5.0-2.3","60a6bc4f4cb533e7e0867aab","6573617f270241e5da3d355d","6576c301d1d93165c5d224c4","null","<p> <font color=""green"" size=""5vw""> Correct category! </font> </p>","null","feedback","","","","","","","0"
"","","","","","html-keyboard-response","17","105139","0.0-5.0-0.4","60a6bc4f4cb533e7e0867aab","6573617f270241e5da3d355d","6576c301d1d93165c5d224c4","1048","
            
        <div style=""text-align: center; position: fixed; top: 5vh; left: 40vw;"">
            <div style=""margin:0 auto; width: 20vw; top: 8vh; font-size: 2vw""> 
            <font color=""green""> Bonus : $0 </font>
            </div>
        </div>
    
            <div> Please press any key to continue to the next movie.</div>
        "," ","ITI","","","","","","",""
"","","","","","html-keyboard-response","18","106652","0.0-5.0-1.4","60a6bc4f4cb533e7e0867aab","6573617f270241e5da3d355d","6576c301d1d93165c5d224c4","1512","./stimuli//pack_morph_shapes_1/cat_1/diff_1/ex_1_1_11.gif","arrowright","response","ArrowLeft","11","1","1","train","false",""
"","","","","","html-keyboard-response","19","108160","0.0-5.0-2.4","60a6bc4f4cb533e7e0867aab","6573617f270241e5da3d355d","6576c301d1d93165c5d224c4","null","<p> <font color=""red"" size=""5vw""> Wrong category! </font> </p>","null","feedback","","","","","","","0"
"","","","","","html-keyboard-response","20","109017","0.0-5.0-0.5","60a6bc4f4cb533e7e0867aab","6573617f270241e5da3d355d","6576c301d1d93165c5d224c4","857","
            
        <div style=""text-align: center; position: fixed; top: 5vh; left: 40vw;"">
            <div style=""margin:0 auto; width: 20vw; top: 8vh; font-size: 2vw""> 
            <font color=""green""> Bonus : $0 </font>
            </div>
        </div>
    
            <div> Please press any key to continue to the next movie.</div>
        "," ","ITI","","","","","","",""
"","","","","","html-keyboard-response","21","110315","0.0-5.0-1.5","60a6bc4f4cb533e7e0867aab","6573617f270241e5da3d355d","6576c301d1d93165c5d224c4","1296","./stimuli//pack_morph_shapes_1/cat_2/diff_2/ex_2_2_13.gif","arrowright","response","ArrowRight","13","2","2","train","true",""
"","","","","","html-keyboard-response","22","111817","0.0-5.0-2.5","60a6bc4f4cb533e7e0867aab","6573617f270241e5da3d355d","6576c301d1d93165c5d224c4","null","<p> <font color=""green"" size=""5vw""> Correct category! </font> </p>","null","feedback","","","","","","","0"
"","","","","","html-keyboard-response","23","112322","0.0-5.0-0.6","60a6bc4f4cb533e7e0867aab","6573617f270241e5da3d355d","6576c301d1d93165c5d224c4","504","
            
        <div style=""text-align: center; position: fixed; top: 5vh; left: 40vw;"">
            <div style=""margin:0 auto; width: 20vw; top: 8vh; font-size: 2vw""> 
            <font color=""green""> Bonus : $0 </font>
            </div>
        </div>
    
            <div> Please press any key to continue to the next movie.</div>
        "," ","ITI","","","","","","",""
"","","","","","html-keyboard-response","24","113909","0.0-5.0-1.6","60a6bc4f4cb533e7e0867aab","6573617f270241e5da3d355d","6576c301d1d93165c5d224c4","1586","./stimuli//pack_morph_shapes_1/cat_1/diff_1/ex_1_1_12.gif","arrowleft","response","ArrowLeft","12","1","1","train","true",""
"","","","","","html-keyboard-response","25","115424","0.0-5.0-2.6","60a6bc4f4cb533e7e0867aab","6573617f270241e5da3d355d","6576c301d1d93165c5d224c4","null","<p> <font color=""green"" size=""5vw""> Correct category! </font> </p>","null","feedback","","","","","","","0"
"","","","","","html-keyboard-response","26","116247","0.0-5.0-0.7","60a6bc4f4cb533e7e0867aab","6573617f270241e5da3d355d","6576c301d1d93165c5d224c4","821","
            
        <div style=""text-align: center; position: fixed; top: 5vh; left: 40vw;"">
            <div style=""margin:0 auto; width: 20vw; top: 8vh; font-size: 2vw""> 
            <font color=""green""> Bonus : $0 </font>
            </div>
        </div>
    
            <div> Please press any key to continue to the next movie.</div>
        "," ","ITI","","","","","","",""
"","","","","","html-keyboard-response","27","117792","0.0-5.0-1.7","60a6bc4f4cb533e7e0867aab","6573617f270241e5da3d355d","6576c301d1d93165c5d224c4","1545","./stimuli//pack_morph_shapes_1/cat_2/diff_1/ex_2_1_3.gif","arrowright","response","ArrowRight","3","2","1","train","true",""
"","","","","","html-keyboard-response","28","119297","0.0-5.0-2.7","60a6bc4f4cb533e7e0867aab","6573617f270241e5da3d355d","6576c301d1d93165c5d224c4","null","<p> <font color=""green"" size=""5vw""> Correct category! </font> </p>","null","feedback","","","","","","","0"
"","","","","","html-keyboard-response","29","119361","0.0-5.0-0.8","60a6bc4f4cb533e7e0867aab","6573617f270241e5da3d355d","6576c301d1d93165c5d224c4","62","
            
        <div style=""text-align: center; position: fixed; top: 5vh; left: 40vw;"">
            <div style=""margin:0 auto; width: 20vw; top: 8vh; font-size: 2vw""> 
            <font color=""green""> Bonus : $0 </font>
            </div>
        </div>
    
            <div> Please press any key to continue to the next movie.</div>
        "," ","ITI","","","","","","",""
"","","","","","html-keyboard-response","30","120354","0.0-5.0-1.8","60a6bc4f4cb533e7e0867aab","6573617f270241e5da3d355d","6576c301d1d93165c5d224c4","992","./stimuli//pack_morph_shapes_1/cat_2/diff_2/ex_2_2_7.gif","arrowright","response","ArrowRight","7","2","2","train","true",""
"","","","","","html-keyboard-response","31","121858","0.0-5.0-2.8","60a6bc4f4cb533e7e0867aab","6573617f270241e5da3d355d","6576c301d1d93165c5d224c4","null","<p> <font color=""green"" size=""5vw""> Correct category! </font> </p>","null","feedback","","","","","","","0"
"","","","","","html-keyboard-response","32","122569","0.0-5.0-0.9","60a6bc4f4cb533e7e0867aab","6573617f270241e5da3d355d","6576c301d1d93165c5d224c4","710","
            
        <div style=""text-align: center; position: fixed; top: 5vh; left: 40vw;"">
            <div style=""margin:0 auto; width: 20vw; top: 8vh; font-size: 2vw""> 
            <font color=""green""> Bonus : $0 </font>
            </div>
        </div>
    
            <div> Please press any key to continue to the next movie.</div>
        "," ","ITI","","","","","","",""
"","","","","","html-keyboard-response","33","123642","0.0-5.0-1.9","60a6bc4f4cb533e7e0867aab","6573617f270241e5da3d355d","6576c301d1d93165c5d224c4","1072","./stimuli//pack_morph_shapes_1/cat_2/diff_1/ex_2_1_11.gif","arrowright","response","ArrowRight","11","2","1","train","true",""
"","","","","","html-keyboard-response","34","125152","0.0-5.0-2.9","60a6bc4f4cb533e7e0867aab","6573617f270241e5da3d355d","6576c301d1d93165c5d224c4","null","<p> <font color=""green"" size=""5vw""> Correct category! </font> </p>","null","feedback","","","","","","","0"
"","","","","","html-keyboard-response","35","126369","0.0-6.0","60a6bc4f4cb533e7e0867aab","6573617f270241e5da3d355d","6576c301d1d93165c5d224c4","1215","
            <b> <p> The practice round has finished.</p>
            <b> <p> For the rest of the experiment you will receive a bonus payment for each correct answer, which will be higher the faster you answer!</b></p>
            <b> </p> Also you will lose $0.05 from your bonus payment for each incorrect answer!</p>
            <p> Press any key to begin the test. </p>
            "," ","intermission","","","","","","",""
"","","","","","html-keyboard-response","36","127387","0.0-7.0-0.0","60a6bc4f4cb533e7e0867aab","6573617f270241e5da3d355d","6576c301d1d93165c5d224c4","1017","
            
        <div style=""text-align: center; position: fixed; top: 5vh; left: 40vw;"">
            <div style=""margin:0 auto; width: 20vw; top: 8vh; font-size: 2vw""> 
            <font color=""green""> Bonus : $0 </font>
            </div>
        </div>
    
            <div> Please press any key to continue to the next movie.</div>
        "," ","ITI","","","","","","",""
"","","","","","html-keyboard-response","37","128781","0.0-7.0-1.0","60a6bc4f4cb533e7e0867aab","6573617f270241e5da3d355d","6576c301d1d93165c5d224c4","1390","./stimuli//pack_morph_shapes_1/cat_2/diff_1/ex_2_1_1.gif","arrowright","response","ArrowRight","1","2","1","test","true",""
"","","","","","html-keyboard-response","38","130298","0.0-7.0-2.0","60a6bc4f4cb533e7e0867aab","6573617f270241e5da3d355d","6576c301d1d93165c5d224c4","null","<p> <font color=""green"" size=""5vw""> Correct category! </font> <br> <br> <font color=""green"" size=""8vw""> + $0.05 </font> </p>","null","feedback","","","","","","","0.05"
"","","","","","html-keyboard-response","39","131602","0.0-7.1-0.1","60a6bc4f4cb533e7e0867aab","6573617f270241e5da3d355d","6576c301d1d93165c5d224c4","1302","
            
        <div style=""text-align: center; position: fixed; top: 5vh; left: 40vw;"">
            <div style=""margin:0 auto; width: 20vw; top: 8vh; font-size: 2vw""> 
            <font color=""green""> Bonus : $0.05 </font>
            </div>
        </div>
    
            <div> Please press any key to continue to the next movie.</div>
        "," ","ITI","","","","","","",""
"","","","","","html-keyboard-response","40","132581","0.0-7.1-1.1","60a6bc4f4cb533e7e0867aab","6573617f270241e5da3d355d","6576c301d1d93165c5d224c4","977","./stimuli//pack_morph_shapes_1/cat_2/diff_1/ex_2_1_14.gif","arrowright","response","ArrowRight","14","2","1","test","true",""
"","","","","","html-keyboard-response","41","134093","0.0-7.1-2.1","60a6bc4f4cb533e7e0867aab","6573617f270241e5da3d355d","6576c301d1d93165c5d224c4","null","<p> <font color=""green"" size=""5vw""> Correct category! </font> <br> <br> <font color=""green"" size=""8vw""> + $0.06 </font> </p>","null","feedback","","","","","","","0.11"
"","","","","","html-keyboard-response","42","136908","0.0-7.2-0.2","60a6bc4f4cb533e7e0867aab","6573617f270241e5da3d355d","6576c301d1d93165c5d224c4","2814","
            
        <div style=""text-align: center; position: fixed; top: 5vh; left: 40vw;"">
            <div style=""margin:0 auto; width: 20vw; top: 8vh; font-size: 2vw""> 
            <font color=""green""> Bonus : $0.11 </font>
            </div>
        </div>
    
            <div> Please press any key to continue to the next movie.</div>
        "," ","ITI","","","","","","",""
"","","","","","html-keyboard-response","43","138173","0.0-7.2-1.2","60a6bc4f4cb533e7e0867aab","6573617f270241e5da3d355d","6576c301d1d93165c5d224c4","1263","./stimuli//pack_morph_shapes_1/cat_1/diff_1/ex_1_1_17.gif","arrowright","response","ArrowLeft","17","1","1","test","false",""
"","","","","","html-keyboard-response","44","139686","0.0-7.2-2.2","60a6bc4f4cb533e7e0867aab","6573617f270241e5da3d355d","6576c301d1d93165c5d224c4","null","<p> <font color=""red"" size=""5vw""> Wrong category! </font> <br> <br> <font color=""red"" size=""8vw""> - $0.05 </font> </p>","null","feedback","","","","","","","0.06"
"","","","","","html-keyboard-response","45","139726","0.0-7.3-0.3","60a6bc4f4cb533e7e0867aab","6573617f270241e5da3d355d","6576c301d1d93165c5d224c4","39","
            
        <div style=""text-align: center; position: fixed; top: 5vh; left: 40vw;"">
            <div style=""margin:0 auto; width: 20vw; top: 8vh; font-size: 2vw""> 
            <font color=""green""> Bonus : $0.06 </font>
            </div>
        </div>
    
            <div> Please press any key to continue to the next movie.</div>
        "," ","ITI","","","","","","",""
"","","","","","html-keyboard-response","46","140975","0.0-7.3-1.3","60a6bc4f4cb533e7e0867aab","6573617f270241e5da3d355d","6576c301d1d93165c5d224c4","1248","./stimuli//pack_morph_shapes_1/cat_2/diff_1/ex_2_1_17.gif","arrowright","response","ArrowRight","17","2","1","test","true",""
"","","","","","html-keyboard-response","47","142477","0.0-7.3-2.3","60a6bc4f4cb533e7e0867aab","6573617f270241e5da3d355d","6576c301d1d93165c5d224c4","null","<p> <font color=""green"" size=""5vw""> Correct category! </font> <br> <br> <font color=""green"" size=""8vw""> + $0.05 </font> </p>","null","feedback","","","","","","","0.11"
"","","","","","html-keyboard-response","48","142703","0.0-7.4-0.4","60a6bc4f4cb533e7e0867aab","6573617f270241e5da3d355d","6576c301d1d93165c5d224c4","226","
            
        <div style=""text-align: center; position: fixed; top: 5vh; left: 40vw;"">
            <div style=""margin:0 auto; width: 20vw; top: 8vh; font-size: 2vw""> 
            <font color=""green""> Bonus : $0.11 </font>
            </div>
        </div>
    
            <div> Please press any key to continue to the next movie.</div>
        "," ","ITI","","","","","","",""
"","","","","","html-keyboard-response","49","143866","0.0-7.4-1.4","60a6bc4f4cb533e7e0867aab","6573617f270241e5da3d355d","6576c301d1d93165c5d224c4","1162","./stimuli//pack_morph_shapes_1/cat_2/diff_1/ex_2_1_5.gif","arrowright","response","ArrowRight","5","2","1","test","true",""
"","","","","","html-keyboard-response","50","145368","0.0-7.4-2.4","60a6bc4f4cb533e7e0867aab","6573617f270241e5da3d355d","6576c301d1d93165c5d224c4","null","<p> <font color=""green"" size=""5vw""> Correct category! </font> <br> <br> <font color=""green"" size=""8vw""> + $0.06 </font> </p>","null","feedback","","","","","","","0.17"
"","","","","","html-keyboard-response","51","145880","0.0-7.5-0.5","60a6bc4f4cb533e7e0867aab","6573617f270241e5da3d355d","6576c301d1d93165c5d224c4","512","
            
        <div style=""text-align: center; position: fixed; top: 5vh; left: 40vw;"">
            <div style=""margin:0 auto; width: 20vw; top: 8vh; font-size: 2vw""> 
            <font color=""green""> Bonus : $0.17 </font>
            </div>
        </div>
    
            <div> Please press any key to continue to the next movie.</div>
        "," ","ITI","","","","","","",""
"","","","","","html-keyboard-response","52","147164","0.0-7.5-1.5","60a6bc4f4cb533e7e0867aab","6573617f270241e5da3d355d","6576c301d1d93165c5d224c4","1283","./stimuli//pack_morph_shapes_1/cat_1/diff_2/ex_1_2_12.gif","arrowleft","response","ArrowLeft","12","1","2","test","true",""
"","","","","","html-keyboard-response","53","148676","0.0-7.5-2.5","60a6bc4f4cb533e7e0867aab","6573617f270241e5da3d355d","6576c301d1d93165c5d224c4","null","<p> <font color=""green"" size=""5vw""> Correct category! </font> <br> <br> <font color=""green"" size=""8vw""> + $0.05 </font> </p>","null","feedback","","","","","","","0.22"
"","","","","","html-keyboard-response","54","149081","0.0-7.6-0.6","60a6bc4f4cb533e7e0867aab","6573617f270241e5da3d355d","6576c301d1d93165c5d224c4","404","
            
        <div style=""text-align: center; position: fixed; top: 5vh; left: 40vw;"">
            <div style=""margin:0 auto; width: 20vw; top: 8vh; font-size: 2vw""> 
            <font color=""green""> Bonus : $0.22 </font>
            </div>
        </div>
    
            <div> Please press any key to continue to the next movie.</div>
        "," ","ITI","","","","","","",""
"","","","","","html-keyboard-response","55","150238","0.0-7.6-1.6","60a6bc4f4cb533e7e0867aab","6573617f270241e5da3d355d","6576c301d1d93165c5d224c4","1156","./stimuli//pack_morph_shapes_1/cat_1/diff_2/ex_1_2_9.gif","arrowleft","response","ArrowLeft","9","1","2","test","true",""
"","","","","","html-keyboard-response","56","151746","0.0-7.6-2.6","60a6bc4f4cb533e7e0867aab","6573617f270241e5da3d355d","6576c301d1d93165c5d224c4","null","<p> <font color=""green"" size=""5vw""> Correct category! </font> <br> <br> <font color=""green"" size=""8vw""> + $0.06 </font> </p>","null","feedback","","","","","","","0.28"
"","","","","","html-keyboard-response","57","151892","0.0-7.7-0.7","60a6bc4f4cb533e7e0867aab","6573617f270241e5da3d355d","6576c301d1d93165c5d224c4","146","
            
        <div style=""text-align: center; position: fixed; top: 5vh; left: 40vw;"">
            <div style=""margin:0 auto; width: 20vw; top: 8vh; font-size: 2vw""> 
            <font color=""green""> Bonus : $0.28 </font>
            </div>
        </div>
    
            <div> Please press any key to continue to the next movie.</div>
        "," ","ITI","","","","","","",""
"","","","","","html-keyboard-response","58","153999","0.0-7.7-1.7","60a6bc4f4cb533e7e0867aab","6573617f270241e5da3d355d","6576c301d1d93165c5d224c4","2106","./stimuli//pack_morph_shapes_1/cat_1/diff_2/ex_1_2_14.gif","arrowleft","response","ArrowLeft","14","1","2","test","true",""
"","","","","","html-keyboard-response","59","155509","0.0-7.7-2.7","60a6bc4f4cb533e7e0867aab","6573617f270241e5da3d355d","6576c301d1d93165c5d224c4","null","<p> <font color=""green"" size=""5vw""> Correct category! </font> <br> <br> <font color=""green"" size=""8vw""> + $0.03 </font> </p>","null","feedback","","","","","","","0.31"
"","","","","","html-keyboard-response","60","155575","0.0-7.8-0.8","60a6bc4f4cb533e7e0867aab","6573617f270241e5da3d355d","6576c301d1d93165c5d224c4","64","
            
        <div style=""text-align: center; position: fixed; top: 5vh; left: 40vw;"">
            <div style=""margin:0 auto; width: 20vw; top: 8vh; font-size: 2vw""> 
            <font color=""green""> Bonus : $0.31 </font>
            </div>
        </div>
    
            <div> Please press any key to continue to the next movie.</div>
        "," ","ITI","","","","","","",""
"","","","","","html-keyboard-response","61","156576","0.0-7.8-1.8","60a6bc4f4cb533e7e0867aab","6573617f270241e5da3d355d","6576c301d1d93165c5d224c4","1000","./stimuli//pack_morph_shapes_1/cat_2/diff_2/ex_2_2_3.gif","arrowright","response","ArrowRight","3","2","2","test","true",""
"","","","","","html-keyboard-response","62","158096","0.0-7.8-2.8","60a6bc4f4cb533e7e0867aab","6573617f270241e5da3d355d","6576c301d1d93165c5d224c4","null","<p> <font color=""green"" size=""5vw""> Correct category! </font> <br> <br> <font color=""green"" size=""8vw""> + $0.06 </font> </p>","null","feedback","","","","","","","0.37"
"","","","","","html-keyboard-response","63","159141","0.0-7.9-0.9","60a6bc4f4cb533e7e0867aab","6573617f270241e5da3d355d","6576c301d1d93165c5d224c4","1045","
            
        <div style=""text-align: center; position: fixed; top: 5vh; left: 40vw;"">
            <div style=""margin:0 auto; width: 20vw; top: 8vh; font-size: 2vw""> 
            <font color=""green""> Bonus : $0.37 </font>
            </div>
        </div>
    
            <div> Please press any key to continue to the next movie.</div>
        "," ","ITI","","","","","","",""
"","","","","","html-keyboard-response","64","161300","0.0-7.9-1.9","60a6bc4f4cb533e7e0867aab","6573617f270241e5da3d355d","6576c301d1d93165c5d224c4","2156","./stimuli//pack_morph_shapes_1/cat_1/diff_2/ex_1_2_16.gif","arrowright","response","ArrowLeft","16","1","2","test","false",""
"","","","","","html-keyboard-response","65","162811","0.0-7.9-2.9","60a6bc4f4cb533e7e0867aab","6573617f270241e5da3d355d","6576c301d1d93165c5d224c4","null","<p> <font color=""red"" size=""5vw""> Wrong category! </font> <br> <br> <font color=""red"" size=""8vw""> - $0.05 </font> </p>","null","feedback","","","","","","","0.32"
"","","","","","html-keyboard-response","66","163354","0.0-7.10-0.10","60a6bc4f4cb533e7e0867aab","6573617f270241e5da3d355d","6576c301d1d93165c5d224c4","541","
            
        <div style=""text-align: center; position: fixed; top: 5vh; left: 40vw;"">
            <div style=""margin:0 auto; width: 20vw; top: 8vh; font-size: 2vw""> 
            <font color=""green""> Bonus : $0.32 </font>
            </div>
        </div>
    
            <div> Please press any key to continue to the next movie.</div>
        "," ","ITI","","","","","","",""
"","","","","","html-keyboard-response","67","164691","0.0-7.10-1.10","60a6bc4f4cb533e7e0867aab","6573617f270241e5da3d355d","6576c301d1d93165c5d224c4","1335","./stimuli//pack_morph_shapes_1/cat_2/diff_3/ex_2_3_17.gif","arrowright","response","ArrowRight","17","2","3","test","true",""
"","","","","","html-keyboard-response","68","166195","0.0-7.10-2.10","60a6bc4f4cb533e7e0867aab","6573617f270241e5da3d355d","6576c301d1d93165c5d224c4","null","<p> <font color=""green"" size=""5vw""> Correct category! </font> <br> <br> <font color=""green"" size=""8vw""> + $0.05 </font> </p>","null","feedback","","","","","","","0.37"
"","","","","","html-keyboard-response","69","167255","0.0-7.11-0.11","60a6bc4f4cb533e7e0867aab","6573617f270241e5da3d355d","6576c301d1d93165c5d224c4","1059","
            
        <div style=""text-align: center; position: fixed; top: 5vh; left: 40vw;"">
            <div style=""margin:0 auto; width: 20vw; top: 8vh; font-size: 2vw""> 
            <font color=""green""> Bonus : $0.37 </font>
            </div>
        </div>
    
            <div> Please press any key to continue to the next movie.</div>
        "," ","ITI","","","","","","",""
"","","","","","html-keyboard-response","70","168275","0.0-7.11-1.11","60a6bc4f4cb533e7e0867aab","6573617f270241e5da3d355d","6576c301d1d93165c5d224c4","1019","./stimuli//pack_morph_shapes_1/cat_1/diff_3/ex_1_3_12.gif","arrowleft","response","ArrowLeft","12","1","3","test","true",""
"","","","","","html-keyboard-response","71","169781","0.0-7.11-2.11","60a6bc4f4cb533e7e0867aab","6573617f270241e5da3d355d","6576c301d1d93165c5d224c4","null","<p> <font color=""green"" size=""5vw""> Correct category! </font> <br> <br> <font color=""green"" size=""8vw""> + $0.06 </font> </p>","null","feedback","","","","","","","0.43"
"","","","","","html-keyboard-response","72","170199","0.0-7.12-0.12","60a6bc4f4cb533e7e0867aab","6573617f270241e5da3d355d","6576c301d1d93165c5d224c4","417","
            
        <div style=""text-align: center; position: fixed; top: 5vh; left: 40vw;"">
            <div style=""margin:0 auto; width: 20vw; top: 8vh; font-size: 2vw""> 
            <font color=""green""> Bonus : $0.43 </font>
            </div>
        </div>
    
            <div> Please press any key to continue to the next movie.</div>
        "," ","ITI","","","","","","",""
"","","","","","html-keyboard-response","73","171712","0.0-7.12-1.12","60a6bc4f4cb533e7e0867aab","6573617f270241e5da3d355d","6576c301d1d93165c5d224c4","1511","./stimuli//pack_morph_shapes_1/cat_1/diff_3/ex_1_3_10.gif","arrowleft","response","ArrowLeft","10","1","3","test","true",""
"","","","","","html-keyboard-response","74","173221","0.0-7.12-2.12","60a6bc4f4cb533e7e0867aab","6573617f270241e5da3d355d","6576c301d1d93165c5d224c4","null","<p> <font color=""green"" size=""5vw""> Correct category! </font> <br> <br> <font color=""green"" size=""8vw""> + $0.05 </font> </p>","null","feedback","","","","","","","0.48"
"","","","","","html-keyboard-response","75","173877","0.0-7.13-0.13","60a6bc4f4cb533e7e0867aab","6573617f270241e5da3d355d","6576c301d1d93165c5d224c4","654","
            
        <div style=""text-align: center; position: fixed; top: 5vh; left: 40vw;"">
            <div style=""margin:0 auto; width: 20vw; top: 8vh; font-size: 2vw""> 
            <font color=""green""> Bonus : $0.48 </font>
            </div>
        </div>
    
            <div> Please press any key to continue to the next movie.</div>
        "," ","ITI","","","","","","",""
"","","","","","html-keyboard-response","76","175310","0.0-7.13-1.13","60a6bc4f4cb533e7e0867aab","6573617f270241e5da3d355d","6576c301d1d93165c5d224c4","1432","./stimuli//pack_morph_shapes_1/cat_1/diff_3/ex_1_3_13.gif","arrowleft","response","ArrowLeft","13","1","3","test","true",""
"","","","","","html-keyboard-response","77","176830","0.0-7.13-2.13","60a6bc4f4cb533e7e0867aab","6573617f270241e5da3d355d","6576c301d1d93165c5d224c4","null","<p> <font color=""green"" size=""5vw""> Correct category! </font> <br> <br> <font color=""green"" size=""8vw""> + $0.05 </font> </p>","null","feedback","","","","","","","0.53"
"","","","","","html-keyboard-response","78","177839","0.0-7.14-0.14","60a6bc4f4cb533e7e0867aab","6573617f270241e5da3d355d","6576c301d1d93165c5d224c4","1007","
            
        <div style=""text-align: center; position: fixed; top: 5vh; left: 40vw;"">
            <div style=""margin:0 auto; width: 20vw; top: 8vh; font-size: 2vw""> 
            <font color=""green""> Bonus : $0.53 </font>
            </div>
        </div>
    
            <div> Please press any key to continue to the next movie.</div>
        "," ","ITI","","","","","","",""
"","","","","","html-keyboard-response","79","178874","0.0-7.14-1.14","60a6bc4f4cb533e7e0867aab","6573617f270241e5da3d355d","6576c301d1d93165c5d224c4","1034","./stimuli//pack_morph_shapes_1/cat_1/diff_3/ex_1_3_2.gif","arrowleft","response","ArrowLeft","2","1","3","test","true",""
"","","","","","html-keyboard-response","80","180378","0.0-7.14-2.14","60a6bc4f4cb533e7e0867aab","6573617f270241e5da3d355d","6576c301d1d93165c5d224c4","null","<p> <font color=""green"" size=""5vw""> Correct category! </font> <br> <br> <font color=""green"" size=""8vw""> + $0.06 </font> </p>","null","feedback","","","","","","","0.59"
"","","","","","html-keyboard-response","81","180793","0.0-7.15-0.15","60a6bc4f4cb533e7e0867aab","6573617f270241e5da3d355d","6576c301d1d93165c5d224c4","414","
            
        <div style=""text-align: center; position: fixed; top: 5vh; left: 40vw;"">
            <div style=""margin:0 auto; width: 20vw; top: 8vh; font-size: 2vw""> 
            <font color=""green""> Bonus : $0.59 </font>
            </div>
        </div>
    
            <div> Please press any key to continue to the next movie.</div>
        "," ","ITI","","","","","","",""
"","","","","","html-keyboard-response","82","181779","0.0-7.15-1.15","60a6bc4f4cb533e7e0867aab","6573617f270241e5da3d355d","6576c301d1d93165c5d224c4","985","./stimuli//pack_morph_shapes_1/cat_2/diff_4/ex_2_4_2.gif","arrowright","response","ArrowRight","2","2","4","test","true",""
"","","","","","html-keyboard-response","83","183288","0.0-7.15-2.15","60a6bc4f4cb533e7e0867aab","6573617f270241e5da3d355d","6576c301d1d93165c5d224c4","null","<p> <font color=""green"" size=""5vw""> Correct category! </font> <br> <br> <font color=""green"" size=""8vw""> + $0.06 </font> </p>","null","feedback","","","","","","","0.65"
"","","","","","html-keyboard-response","84","183754","0.0-7.16-0.16","60a6bc4f4cb533e7e0867aab","6573617f270241e5da3d355d","6576c301d1d93165c5d224c4","465","
            
        <div style=""text-align: center; position: fixed; top: 5vh; left: 40vw;"">
            <div style=""margin:0 auto; width: 20vw; top: 8vh; font-size: 2vw""> 
            <font color=""green""> Bonus : $0.65 </font>
            </div>
        </div>
    
            <div> Please press any key to continue to the next movie.</div>
        "," ","ITI","","","","","","",""
"","","","","","html-keyboard-response","85","185587","0.0-7.16-1.16","60a6bc4f4cb533e7e0867aab","6573617f270241e5da3d355d","6576c301d1d93165c5d224c4","1830","./stimuli//pack_morph_shapes_1/cat_1/diff_4/ex_1_4_13.gif","arrowright","response","ArrowLeft","13","1","4","test","false",""
"","","","","","html-keyboard-response","86","187098","0.0-7.16-2.16","60a6bc4f4cb533e7e0867aab","6573617f270241e5da3d355d","6576c301d1d93165c5d224c4","null","<p> <font color=""red"" size=""5vw""> Wrong category! </font> <br> <br> <font color=""red"" size=""8vw""> - $0.05 </font> </p>","null","feedback","","","","","","","0.6"
"","","","","","html-keyboard-response","87","187218","0.0-7.17-0.17","60a6bc4f4cb533e7e0867aab","6573617f270241e5da3d355d","6576c301d1d93165c5d224c4","118","
            
        <div style=""text-align: center; position: fixed; top: 5vh; left: 40vw;"">
            <div style=""margin:0 auto; width: 20vw; top: 8vh; font-size: 2vw""> 
            <font color=""green""> Bonus : $0.6 </font>
            </div>
        </div>
    
            <div> Please press any key to continue to the next movie.</div>
        ","arrowleft","ITI","","","","","","",""
"","","","","","html-keyboard-response","88","188898","0.0-7.17-1.17","60a6bc4f4cb533e7e0867aab","6573617f270241e5da3d355d","6576c301d1d93165c5d224c4","1679","./stimuli//pack_morph_shapes_1/cat_1/diff_4/ex_1_4_8.gif","arrowleft","response","ArrowLeft","8","1","4","test","true",""
"","","","","","html-keyboard-response","89","190402","0.0-7.17-2.17","60a6bc4f4cb533e7e0867aab","6573617f270241e5da3d355d","6576c301d1d93165c5d224c4","null","<p> <font color=""green"" size=""5vw""> Correct category! </font> <br> <br> <font color=""green"" size=""8vw""> + $0.04 </font> </p>","null","feedback","","","","","","","0.64"
"","","","","","html-keyboard-response","90","191366","0.0-7.18-0.18","60a6bc4f4cb533e7e0867aab","6573617f270241e5da3d355d","6576c301d1d93165c5d224c4","963","
            
        <div style=""text-align: center; position: fixed; top: 5vh; left: 40vw;"">
            <div style=""margin:0 auto; width: 20vw; top: 8vh; font-size: 2vw""> 
            <font color=""green""> Bonus : $0.64 </font>
            </div>
        </div>
    
            <div> Please press any key to continue to the next movie.</div>
        "," ","ITI","","","","","","",""
"","","","","","html-keyboard-response","91","192742","0.0-7.18-1.18","60a6bc4f4cb533e7e0867aab","6573617f270241e5da3d355d","6576c301d1d93165c5d224c4","1374","./stimuli//pack_morph_shapes_1/cat_2/diff_4/ex_2_4_7.gif","arrowright","response","ArrowRight","7","2","4","test","true",""
"","","","","","html-keyboard-response","92","194251","0.0-7.18-2.18","60a6bc4f4cb533e7e0867aab","6573617f270241e5da3d355d","6576c301d1d93165c5d224c4","null","<p> <font color=""green"" size=""5vw""> Correct category! </font> <br> <br> <font color=""green"" size=""8vw""> + $0.05 </font> </p>","null","feedback","","","","","","","0.69"
"","","","","","html-keyboard-response","93","194613","0.0-7.19-0.19","60a6bc4f4cb533e7e0867aab","6573617f270241e5da3d355d","6576c301d1d93165c5d224c4","361","
            
        <div style=""text-align: center; position: fixed; top: 5vh; left: 40vw;"">
            <div style=""margin:0 auto; width: 20vw; top: 8vh; font-size: 2vw""> 
            <font color=""green""> Bonus : $0.69 </font>
            </div>
        </div>
    
            <div> Please press any key to continue to the next movie.</div>
        "," ","ITI","","","","","","",""
"","","","","","html-keyboard-response","94","195529","0.0-7.19-1.19","60a6bc4f4cb533e7e0867aab","6573617f270241e5da3d355d","6576c301d1d93165c5d224c4","914","./stimuli//pack_morph_shapes_1/cat_1/diff_4/ex_1_4_14.gif","arrowleft","response","ArrowLeft","14","1","4","test","true",""
"","","","","","html-keyboard-response","95","197044","0.0-7.19-2.19","60a6bc4f4cb533e7e0867aab","6573617f270241e5da3d355d","6576c301d1d93165c5d224c4","null","<p> <font color=""green"" size=""5vw""> Correct category! </font> <br> <br> <font color=""green"" size=""8vw""> + $0.06 </font> </p>","null","feedback","","","","","","","0.75"
"","","","","","html-keyboard-response","96","199537","0.0-7.20-0.20","60a6bc4f4cb533e7e0867aab","6573617f270241e5da3d355d","6576c301d1d93165c5d224c4","2491","
            
        <div style=""text-align: center; position: fixed; top: 5vh; left: 40vw;"">
            <div style=""margin:0 auto; width: 20vw; top: 8vh; font-size: 2vw""> 
            <font color=""green""> Bonus : $0.75 </font>
            </div>
        </div>
    
            <div> Please press any key to continue to the next movie.</div>
        "," ","ITI","","","","","","",""
"","","","","","html-keyboard-response","97","200778","0.0-7.20-1.20","60a6bc4f4cb533e7e0867aab","6573617f270241e5da3d355d","6576c301d1d93165c5d224c4","1238","./stimuli//pack_morph_shapes_1/cat_2/diff_5/ex_2_5_2.gif","arrowright","response","ArrowRight","2","2","5","test","true",""
"","","","","","html-keyboard-response","98","202291","0.0-7.20-2.20","60a6bc4f4cb533e7e0867aab","6573617f270241e5da3d355d","6576c301d1d93165c5d224c4","null","<p> <font color=""green"" size=""5vw""> Correct category! </font> <br> <br> <font color=""green"" size=""8vw""> + $0.05 </font> </p>","null","feedback","","","","","","","0.8"
"","","","","","html-keyboard-response","99","202793","0.0-7.21-0.21","60a6bc4f4cb533e7e0867aab","6573617f270241e5da3d355d","6576c301d1d93165c5d224c4","501","
            
        <div style=""text-align: center; position: fixed; top: 5vh; left: 40vw;"">
            <div style=""margin:0 auto; width: 20vw; top: 8vh; font-size: 2vw""> 
            <font color=""green""> Bonus : $0.8 </font>
            </div>
        </div>
    
            <div> Please press any key to continue to the next movie.</div>
        "," ","ITI","","","","","","",""
"","","","","","html-keyboard-response","100","204038","0.0-7.21-1.21","60a6bc4f4cb533e7e0867aab","6573617f270241e5da3d355d","6576c301d1d93165c5d224c4","1245","./stimuli//pack_morph_shapes_1/cat_1/diff_5/ex_1_5_3.gif","arrowleft","response","ArrowLeft","3","1","5","test","true",""
"","","","","","html-keyboard-response","101","205555","0.0-7.21-2.21","60a6bc4f4cb533e7e0867aab","6573617f270241e5da3d355d","6576c301d1d93165c5d224c4","null","<p> <font color=""green"" size=""5vw""> Correct category! </font> <br> <br> <font color=""green"" size=""8vw""> + $0.05 </font> </p>","null","feedback","","","","","","","0.85"
"","","","","","html-keyboard-response","102","205868","0.0-7.22-0.22","60a6bc4f4cb533e7e0867aab","6573617f270241e5da3d355d","6576c301d1d93165c5d224c4","311","
            
        <div style=""text-align: center; position: fixed; top: 5vh; left: 40vw;"">
            <div style=""margin:0 auto; width: 20vw; top: 8vh; font-size: 2vw""> 
            <font color=""green""> Bonus : $0.85 </font>
            </div>
        </div>
    
            <div> Please press any key to continue to the next movie.</div>
        "," ","ITI","","","","","","",""
"","","","","","html-keyboard-response","103","206761","0.0-7.22-1.22","60a6bc4f4cb533e7e0867aab","6573617f270241e5da3d355d","6576c301d1d93165c5d224c4","891","./stimuli//pack_morph_shapes_1/cat_1/diff_5/ex_1_5_9.gif","arrowleft","response","ArrowLeft","9","1","5","test","true",""
"","","","","","html-keyboard-response","104","208263","0.0-7.22-2.22","60a6bc4f4cb533e7e0867aab","6573617f270241e5da3d355d","6576c301d1d93165c5d224c4","null","<p> <font color=""green"" size=""5vw""> Correct category! </font> <br> <br> <font color=""green"" size=""8vw""> + $0.06 </font> </p>","null","feedback","","","","","","","0.91"
"","","","","","html-keyboard-response","105","209604","0.0-7.23-0.23","60a6bc4f4cb533e7e0867aab","6573617f270241e5da3d355d","6576c301d1d93165c5d224c4","1340","
            
        <div style=""text-align: center; position: fixed; top: 5vh; left: 40vw;"">
            <div style=""margin:0 auto; width: 20vw; top: 8vh; font-size: 2vw""> 
            <font color=""green""> Bonus : $0.91 </font>
            </div>
        </div>
    
            <div> Please press any key to continue to the next movie.</div>
        "," ","ITI","","","","","","",""
"","","","","","html-keyboard-response","106","210664","0.0-7.23-1.23","60a6bc4f4cb533e7e0867aab","6573617f270241e5da3d355d","6576c301d1d93165c5d224c4","1056","./stimuli//pack_morph_shapes_1/cat_1/diff_5/ex_1_5_6.gif","arrowleft","response","ArrowLeft","6","1","5","test","true",""
"","","","","","html-keyboard-response","107","212175","0.0-7.23-2.23","60a6bc4f4cb533e7e0867aab","6573617f270241e5da3d355d","6576c301d1d93165c5d224c4","null","<p> <font color=""green"" size=""5vw""> Correct category! </font> <br> <br> <font color=""green"" size=""8vw""> + $0.06 </font> </p>","null","feedback","","","","","","","0.97"
"","","","","","html-keyboard-response","108","212614","0.0-7.24-0.24","60a6bc4f4cb533e7e0867aab","6573617f270241e5da3d355d","6576c301d1d93165c5d224c4","437","
            
        <div style=""text-align: center; position: fixed; top: 5vh; left: 40vw;"">
            <div style=""margin:0 auto; width: 20vw; top: 8vh; font-size: 2vw""> 
            <font color=""green""> Bonus : $0.97 </font>
            </div>
        </div>
    
            <div> Please press any key to continue to the next movie.</div>
        "," ","ITI","","","","","","",""
"","","","","","html-keyboard-response","109","213481","0.0-7.24-1.24","60a6bc4f4cb533e7e0867aab","6573617f270241e5da3d355d","6576c301d1d93165c5d224c4","866","./stimuli//pack_morph_shapes_1/cat_2/diff_5/ex_2_5_11.gif","arrowright","response","ArrowRight","11","2","5","test","true",""
"","","","","","html-keyboard-response","110","214990","0.0-7.24-2.24","60a6bc4f4cb533e7e0867aab","6573617f270241e5da3d355d","6576c301d1d93165c5d224c4","null","<p> <font color=""green"" size=""5vw""> Correct category! </font> <br> <br> <font color=""green"" size=""8vw""> + $0.06 </font> </p>","null","feedback","","","","","","","1.03"
"","","","","","html-keyboard-response","111","215424","0.0-7.25-0.25","60a6bc4f4cb533e7e0867aab","6573617f270241e5da3d355d","6576c301d1d93165c5d224c4","433","
            
        <div style=""text-align: center; position: fixed; top: 5vh; left: 40vw;"">
            <div style=""margin:0 auto; width: 20vw; top: 8vh; font-size: 2vw""> 
            <font color=""green""> Bonus : $1.03 </font>
            </div>
        </div>
    
            <div> Please press any key to continue to the next movie.</div>
        "," ","ITI","","","","","","",""
"","","","","","html-keyboard-response","112","217383","0.0-7.25-1.25","60a6bc4f4cb533e7e0867aab","6573617f270241e5da3d355d","6576c301d1d93165c5d224c4","1957","./stimuli//pack_morph_shapes_1/cat_2/diff_5/ex_2_5_1.gif","arrowright","response","ArrowRight","1","2","5","test","true",""
"","","","","","html-keyboard-response","113","218894","0.0-7.25-2.25","60a6bc4f4cb533e7e0867aab","6573617f270241e5da3d355d","6576c301d1d93165c5d224c4","null","<p> <font color=""green"" size=""5vw""> Correct category! </font> <br> <br> <font color=""green"" size=""8vw""> + $0.04 </font> </p>","null","feedback","","","","","","","1.07"
"","","","","","html-keyboard-response","114","220211","0.0-7.26-0.26","60a6bc4f4cb533e7e0867aab","6573617f270241e5da3d355d","6576c301d1d93165c5d224c4","1316","
            
        <div style=""text-align: center; position: fixed; top: 5vh; left: 40vw;"">
            <div style=""margin:0 auto; width: 20vw; top: 8vh; font-size: 2vw""> 
            <font color=""green""> Bonus : $1.07 </font>
            </div>
        </div>
    
            <div> Please press any key to continue to the next movie.</div>
        "," ","ITI","","","","","","",""
"","","","","","html-keyboard-response","115","220984","0.0-7.26-1.26","60a6bc4f4cb533e7e0867aab","6573617f270241e5da3d355d","6576c301d1d93165c5d224c4","771","./stimuli//pack_morph_shapes_1/cat_1/diff_5/ex_1_5_1.gif","arrowleft","response","ArrowLeft","1","1","5","test","true",""
"","","","","","html-keyboard-response","116","222503","0.0-7.26-2.26","60a6bc4f4cb533e7e0867aab","6573617f270241e5da3d355d","6576c301d1d93165c5d224c4","null","<p> <font color=""green"" size=""5vw""> Correct category! </font> <br> <br> <font color=""green"" size=""8vw""> + $0.07 </font> </p>","null","feedback","","","","","","","1.14"
"","","","","","html-keyboard-response","117","223133","0.0-7.27-0.27","60a6bc4f4cb533e7e0867aab","6573617f270241e5da3d355d","6576c301d1d93165c5d224c4","629","
            
        <div style=""text-align: center; position: fixed; top: 5vh; left: 40vw;"">
            <div style=""margin:0 auto; width: 20vw; top: 8vh; font-size: 2vw""> 
            <font color=""green""> Bonus : $1.14 </font>
            </div>
        </div>
    
            <div> Please press any key to continue to the next movie.</div>
        "," ","ITI","","","","","","",""
"","","","","","html-keyboard-response","118","224024","0.0-7.27-1.27","60a6bc4f4cb533e7e0867aab","6573617f270241e5da3d355d","6576c301d1d93165c5d224c4","890","./stimuli//pack_morph_shapes_1/cat_1/diff_5/ex_1_5_13.gif","arrowright","response","ArrowLeft","13","1","5","test","false",""
"","","","","","html-keyboard-response","119","225529","0.0-7.27-2.27","60a6bc4f4cb533e7e0867aab","6573617f270241e5da3d355d","6576c301d1d93165c5d224c4","null","<p> <font color=""red"" size=""5vw""> Wrong category! </font> <br> <br> <font color=""red"" size=""8vw""> - $0.05 </font> </p>","null","feedback","","","","","","","1.09"
"","","","","","html-keyboard-response","120","226167","0.0-7.28-0.28","60a6bc4f4cb533e7e0867aab","6573617f270241e5da3d355d","6576c301d1d93165c5d224c4","637","
            
        <div style=""text-align: center; position: fixed; top: 5vh; left: 40vw;"">
            <div style=""margin:0 auto; width: 20vw; top: 8vh; font-size: 2vw""> 
            <font color=""green""> Bonus : $1.09 </font>
            </div>
        </div>
    
            <div> Please press any key to continue to the next movie.</div>
        "," ","ITI","","","","","","",""
"","","","","","html-keyboard-response","121","227204","0.0-7.28-1.28","60a6bc4f4cb533e7e0867aab","6573617f270241e5da3d355d","6576c301d1d93165c5d224c4","1035","./stimuli//pack_morph_shapes_1/cat_2/diff_5/ex_2_5_16.gif","arrowleft","response","ArrowRight","16","2","5","test","false",""
"","","","","","html-keyboard-response","122","228713","0.0-7.28-2.28","60a6bc4f4cb533e7e0867aab","6573617f270241e5da3d355d","6576c301d1d93165c5d224c4","null","<p> <font color=""red"" size=""5vw""> Wrong category! </font> <br> <br> <font color=""red"" size=""8vw""> - $0.05 </font> </p>","null","feedback","","","","","","","1.04"
"","","","","","html-keyboard-response","123","229297","0.0-7.29-0.29","60a6bc4f4cb533e7e0867aab","6573617f270241e5da3d355d","6576c301d1d93165c5d224c4","582","
            
        <div style=""text-align: center; position: fixed; top: 5vh; left: 40vw;"">
            <div style=""margin:0 auto; width: 20vw; top: 8vh; font-size: 2vw""> 
            <font color=""green""> Bonus : $1.04 </font>
            </div>
        </div>
    
            <div> Please press any key to continue to the next movie.</div>
        "," ","ITI","","","","","","",""
"","","","","","html-keyboard-response","124","230182","0.0-7.29-1.29","60a6bc4f4cb533e7e0867aab","6573617f270241e5da3d355d","6576c301d1d93165c5d224c4","883","./stimuli//pack_morph_shapes_1/cat_1/diff_4/ex_1_4_4.gif","arrowleft","response","ArrowLeft","4","1","4","test","true",""
"","","","","","html-keyboard-response","125","231691","0.0-7.29-2.29","60a6bc4f4cb533e7e0867aab","6573617f270241e5da3d355d","6576c301d1d93165c5d224c4","null","<p> <font color=""green"" size=""5vw""> Correct category! </font> <br> <br> <font color=""green"" size=""8vw""> + $0.06 </font> </p>","null","feedback","","","","","","","1.1"
"","","","","","html-keyboard-response","126","232515","0.0-7.30-0.30","60a6bc4f4cb533e7e0867aab","6573617f270241e5da3d355d","6576c301d1d93165c5d224c4","823","
            
        <div style=""text-align: center; position: fixed; top: 5vh; left: 40vw;"">
            <div style=""margin:0 auto; width: 20vw; top: 8vh; font-size: 2vw""> 
            <font color=""green""> Bonus : $1.1 </font>
            </div>
        </div>
    
            <div> Please press any key to continue to the next movie.</div>
        "," ","ITI","","","","","","",""
"","","","","","html-keyboard-response","127","233486","0.0-7.30-1.30","60a6bc4f4cb533e7e0867aab","6573617f270241e5da3d355d","6576c301d1d93165c5d224c4","970","./stimuli//pack_morph_shapes_1/cat_1/diff_4/ex_1_4_17.gif","arrowleft","response","ArrowLeft","17","1","4","test","true",""
"","","","","","html-keyboard-response","128","234990","0.0-7.30-2.30","60a6bc4f4cb533e7e0867aab","6573617f270241e5da3d355d","6576c301d1d93165c5d224c4","null","<p> <font color=""green"" size=""5vw""> Correct category! </font> <br> <br> <font color=""green"" size=""8vw""> + $0.06 </font> </p>","null","feedback","","","","","","","1.16"
"","","","","","html-keyboard-response","129","235636","0.0-7.31-0.31","60a6bc4f4cb533e7e0867aab","6573617f270241e5da3d355d","6576c301d1d93165c5d224c4","645","
            
        <div style=""text-align: center; position: fixed; top: 5vh; left: 40vw;"">
            <div style=""margin:0 auto; width: 20vw; top: 8vh; font-size: 2vw""> 
            <font color=""green""> Bonus : $1.16 </font>
            </div>
        </div>
    
            <div> Please press any key to continue to the next movie.</div>
        "," ","ITI","","","","","","",""
"","","","","","html-keyboard-response","130","236592","0.0-7.31-1.31","60a6bc4f4cb533e7e0867aab","6573617f270241e5da3d355d","6576c301d1d93165c5d224c4","954","./stimuli//pack_morph_shapes_1/cat_2/diff_4/ex_2_4_16.gif","arrowright","response","ArrowRight","16","2","4","test","true",""
"","","","","","html-keyboard-response","131","238126","0.0-7.31-2.31","60a6bc4f4cb533e7e0867aab","6573617f270241e5da3d355d","6576c301d1d93165c5d224c4","null","<p> <font color=""green"" size=""5vw""> Correct category! </font> <br> <br> <font color=""green"" size=""8vw""> + $0.06 </font> </p>","null","feedback","","","","","","","1.22"
"","","","","","html-keyboard-response","132","239520","0.0-7.32-0.32","60a6bc4f4cb533e7e0867aab","6573617f270241e5da3d355d","6576c301d1d93165c5d224c4","1393","
            
        <div style=""text-align: center; position: fixed; top: 5vh; left: 40vw;"">
            <div style=""margin:0 auto; width: 20vw; top: 8vh; font-size: 2vw""> 
            <font color=""green""> Bonus : $1.22 </font>
            </div>
        </div>
    
            <div> Please press any key to continue to the next movie.</div>
        "," ","ITI","","","","","","",""
"","","","","","html-keyboard-response","133","240363","0.0-7.32-1.32","60a6bc4f4cb533e7e0867aab","6573617f270241e5da3d355d","6576c301d1d93165c5d224c4","841","./stimuli//pack_morph_shapes_1/cat_2/diff_4/ex_2_4_5.gif","arrowright","response","ArrowRight","5","2","4","test","true",""
"","","","","","html-keyboard-response","134","241871","0.0-7.32-2.32","60a6bc4f4cb533e7e0867aab","6573617f270241e5da3d355d","6576c301d1d93165c5d224c4","null","<p> <font color=""green"" size=""5vw""> Correct category! </font> <br> <br> <font color=""green"" size=""8vw""> + $0.07 </font> </p>","null","feedback","","","","","","","1.29"
"","","","","","html-keyboard-response","135","242361","0.0-7.33-0.33","60a6bc4f4cb533e7e0867aab","6573617f270241e5da3d355d","6576c301d1d93165c5d224c4","490","
            
        <div style=""text-align: center; position: fixed; top: 5vh; left: 40vw;"">
            <div style=""margin:0 auto; width: 20vw; top: 8vh; font-size: 2vw""> 
            <font color=""green""> Bonus : $1.29 </font>
            </div>
        </div>
    
            <div> Please press any key to continue to the next movie.</div>
        "," ","ITI","","","","","","",""
"","","","","","html-keyboard-response","136","243302","0.0-7.33-1.33","60a6bc4f4cb533e7e0867aab","6573617f270241e5da3d355d","6576c301d1d93165c5d224c4","939","./stimuli//pack_morph_shapes_1/cat_2/diff_4/ex_2_4_8.gif","arrowright","response","ArrowRight","8","2","4","test","true",""
"","","","","","html-keyboard-response","137","244809","0.0-7.33-2.33","60a6bc4f4cb533e7e0867aab","6573617f270241e5da3d355d","6576c301d1d93165c5d224c4","null","<p> <font color=""green"" size=""5vw""> Correct category! </font> <br> <br> <font color=""green"" size=""8vw""> + $0.06 </font> </p>","null","feedback","","","","","","","1.35"
"","","","","","html-keyboard-response","138","246551","0.0-7.34-0.34","60a6bc4f4cb533e7e0867aab","6573617f270241e5da3d355d","6576c301d1d93165c5d224c4","1740","
            
        <div style=""text-align: center; position: fixed; top: 5vh; left: 40vw;"">
            <div style=""margin:0 auto; width: 20vw; top: 8vh; font-size: 2vw""> 
            <font color=""green""> Bonus : $1.35 </font>
            </div>
        </div>
    
            <div> Please press any key to continue to the next movie.</div>
        "," ","ITI","","","","","","",""
"","","","","","html-keyboard-response","139","247420","0.0-7.34-1.34","60a6bc4f4cb533e7e0867aab","6573617f270241e5da3d355d","6576c301d1d93165c5d224c4","867","./stimuli//pack_morph_shapes_1/cat_2/diff_5/ex_2_5_12.gif","arrowleft","response","ArrowRight","12","2","5","test","false",""
"","","","","","html-keyboard-response","140","248922","0.0-7.34-2.34","60a6bc4f4cb533e7e0867aab","6573617f270241e5da3d355d","6576c301d1d93165c5d224c4","null","<p> <font color=""red"" size=""5vw""> Wrong category! </font> <br> <br> <font color=""red"" size=""8vw""> - $0.05 </font> </p>","null","feedback","","","","","","","1.3"
"","","","","","html-keyboard-response","141","249814","0.0-7.35-0.35","60a6bc4f4cb533e7e0867aab","6573617f270241e5da3d355d","6576c301d1d93165c5d224c4","890","
            
        <div style=""text-align: center; position: fixed; top: 5vh; left: 40vw;"">
            <div style=""margin:0 auto; width: 20vw; top: 8vh; font-size: 2vw""> 
            <font color=""green""> Bonus : $1.3 </font>
            </div>
        </div>
    
            <div> Please press any key to continue to the next movie.</div>
        "," ","ITI","","","","","","",""
"","","","","","html-keyboard-response","142","250964","0.0-7.35-1.35","60a6bc4f4cb533e7e0867aab","6573617f270241e5da3d355d","6576c301d1d93165c5d224c4","1149","./stimuli//pack_morph_shapes_1/cat_1/diff_5/ex_1_5_16.gif","arrowleft","response","ArrowLeft","16","1","5","test","true",""
"","","","","","html-keyboard-response","143","252479","0.0-7.35-2.35","60a6bc4f4cb533e7e0867aab","6573617f270241e5da3d355d","6576c301d1d93165c5d224c4","null","<p> <font color=""green"" size=""5vw""> Correct category! </font> <br> <br> <font color=""green"" size=""8vw""> + $0.06 </font> </p>","null","feedback","","","","","","","1.36"
"","","","","","html-keyboard-response","144","253883","0.0-7.36-0.36","60a6bc4f4cb533e7e0867aab","6573617f270241e5da3d355d","6576c301d1d93165c5d224c4","1403","
            
        <div style=""text-align: center; position: fixed; top: 5vh; left: 40vw;"">
            <div style=""margin:0 auto; width: 20vw; top: 8vh; font-size: 2vw""> 
            <font color=""green""> Bonus : $1.36 </font>
            </div>
        </div>
    
            <div> Please press any key to continue to the next movie.</div>
        "," ","ITI","","","","","","",""
"","","","","","html-keyboard-response","145","254889","0.0-7.36-1.36","60a6bc4f4cb533e7e0867aab","6573617f270241e5da3d355d","6576c301d1d93165c5d224c4","1004","./stimuli//pack_morph_shapes_1/cat_1/diff_5/ex_1_5_11.gif","arrowleft","response","ArrowLeft","11","1","5","test","true",""
"","","","","","html-keyboard-response","146","256400","0.0-7.36-2.36","60a6bc4f4cb533e7e0867aab","6573617f270241e5da3d355d","6576c301d1d93165c5d224c4","null","<p> <font color=""green"" size=""5vw""> Correct category! </font> <br> <br> <font color=""green"" size=""8vw""> + $0.06 </font> </p>","null","feedback","","","","","","","1.42"
"","","","","","html-keyboard-response","147","256795","0.0-7.37-0.37","60a6bc4f4cb533e7e0867aab","6573617f270241e5da3d355d","6576c301d1d93165c5d224c4","393","
            
        <div style=""text-align: center; position: fixed; top: 5vh; left: 40vw;"">
            <div style=""margin:0 auto; width: 20vw; top: 8vh; font-size: 2vw""> 
            <font color=""green""> Bonus : $1.42 </font>
            </div>
        </div>
    
            <div> Please press any key to continue to the next movie.</div>
        "," ","ITI","","","","","","",""
"","","","","","html-keyboard-response","148","257585","0.0-7.37-1.37","60a6bc4f4cb533e7e0867aab","6573617f270241e5da3d355d","6576c301d1d93165c5d224c4","788","./stimuli//pack_morph_shapes_1/cat_1/diff_5/ex_1_5_1.gif","arrowleft","response","ArrowLeft","1","1","5","test","true",""
"","","","","","html-keyboard-response","149","259093","0.0-7.37-2.37","60a6bc4f4cb533e7e0867aab","6573617f270241e5da3d355d","6576c301d1d93165c5d224c4","null","<p> <font color=""green"" size=""5vw""> Correct category! </font> <br> <br> <font color=""green"" size=""8vw""> + $0.07 </font> </p>","null","feedback","","","","","","","1.49"
"","","","","","html-keyboard-response","150","259501","0.0-7.38-0.38","60a6bc4f4cb533e7e0867aab","6573617f270241e5da3d355d","6576c301d1d93165c5d224c4","407","
            
        <div style=""text-align: center; position: fixed; top: 5vh; left: 40vw;"">
            <div style=""margin:0 auto; width: 20vw; top: 8vh; font-size: 2vw""> 
            <font color=""green""> Bonus : $1.49 </font>
            </div>
        </div>
    
            <div> Please press any key to continue to the next movie.</div>
        "," ","ITI","","","","","","",""
"","","","","","html-keyboard-response","151","260425","0.0-7.38-1.38","60a6bc4f4cb533e7e0867aab","6573617f270241e5da3d355d","6576c301d1d93165c5d224c4","923","./stimuli//pack_morph_shapes_1/cat_1/diff_5/ex_1_5_12.gif","arrowleft","response","ArrowLeft","12","1","5","test","true",""
"","","","","","html-keyboard-response","152","261938","0.0-7.38-2.38","60a6bc4f4cb533e7e0867aab","6573617f270241e5da3d355d","6576c301d1d93165c5d224c4","null","<p> <font color=""green"" size=""5vw""> Correct category! </font> <br> <br> <font color=""green"" size=""8vw""> + $0.06 </font> </p>","null","feedback","","","","","","","1.55"
"","","","","","html-keyboard-response","153","262533","0.0-7.39-0.39","60a6bc4f4cb533e7e0867aab","6573617f270241e5da3d355d","6576c301d1d93165c5d224c4","593","
            
        <div style=""text-align: center; position: fixed; top: 5vh; left: 40vw;"">
            <div style=""margin:0 auto; width: 20vw; top: 8vh; font-size: 2vw""> 
            <font color=""green""> Bonus : $1.55 </font>
            </div>
        </div>
    
            <div> Please press any key to continue to the next movie.</div>
        "," ","ITI","","","","","","",""
"","","","","","html-keyboard-response","154","263393","0.0-7.39-1.39","60a6bc4f4cb533e7e0867aab","6573617f270241e5da3d355d","6576c301d1d93165c5d224c4","859","./stimuli//pack_morph_shapes_1/cat_1/diff_5/ex_1_5_5.gif","arrowleft","response","ArrowLeft","5","1","5","test","true",""
"","","","","","html-keyboard-response","155","264895","0.0-7.39-2.39","60a6bc4f4cb533e7e0867aab","6573617f270241e5da3d355d","6576c301d1d93165c5d224c4","null","<p> <font color=""green"" size=""5vw""> Correct category! </font> <br> <br> <font color=""green"" size=""8vw""> + $0.07 </font> </p>","null","feedback","","","","","","","1.62"
"","","","","","html-keyboard-response","156","265198","0.0-7.40-0.40","60a6bc4f4cb533e7e0867aab","6573617f270241e5da3d355d","6576c301d1d93165c5d224c4","302","
            
        <div style=""text-align: center; position: fixed; top: 5vh; left: 40vw;"">
            <div style=""margin:0 auto; width: 20vw; top: 8vh; font-size: 2vw""> 
            <font color=""green""> Bonus : $1.62 </font>
            </div>
        </div>
    
            <div> Please press any key to continue to the next movie.</div>
        "," ","ITI","","","","","","",""
"","","","","","html-keyboard-response","157","265907","0.0-7.40-1.40","60a6bc4f4cb533e7e0867aab","6573617f270241e5da3d355d","6576c301d1d93165c5d224c4","707","./stimuli//pack_morph_shapes_1/cat_1/diff_5/ex_1_5_5.gif","arrowleft","response","ArrowLeft","5","1","5","test","true",""
"","","","","","html-keyboard-response","158","267419","0.0-7.40-2.40","60a6bc4f4cb533e7e0867aab","6573617f270241e5da3d355d","6576c301d1d93165c5d224c4","null","<p> <font color=""green"" size=""5vw""> Correct category! </font> <br> <br> <font color=""green"" size=""8vw""> + $0.07 </font> </p>","null","feedback","","","","","","","1.69"
"","","","","","html-keyboard-response","159","268453","0.0-7.41-0.41","60a6bc4f4cb533e7e0867aab","6573617f270241e5da3d355d","6576c301d1d93165c5d224c4","1033","
            
        <div style=""text-align: center; position: fixed; top: 5vh; left: 40vw;"">
            <div style=""margin:0 auto; width: 20vw; top: 8vh; font-size: 2vw""> 
            <font color=""green""> Bonus : $1.69 </font>
            </div>
        </div>
    
            <div> Please press any key to continue to the next movie.</div>
        "," ","ITI","","","","","","",""
"","","","","","html-keyboard-response","160","269168","0.0-7.41-1.41","60a6bc4f4cb533e7e0867aab","6573617f270241e5da3d355d","6576c301d1d93165c5d224c4","714","./stimuli//pack_morph_shapes_1/cat_2/diff_5/ex_2_5_11.gif","arrowright","response","ArrowRight","11","2","5","test","true",""
"","","","","","html-keyboard-response","161","270685","0.0-7.41-2.41","60a6bc4f4cb533e7e0867aab","6573617f270241e5da3d355d","6576c301d1d93165c5d224c4","null","<p> <font color=""green"" size=""5vw""> Correct category! </font> <br> <br> <font color=""green"" size=""8vw""> + $0.07 </font> </p>","null","feedback","","","","","","","1.76"
"","","","","","html-keyboard-response","162","270793","0.0-7.42-0.42","60a6bc4f4cb533e7e0867aab","6573617f270241e5da3d355d","6576c301d1d93165c5d224c4","107","
            
        <div style=""text-align: center; position: fixed; top: 5vh; left: 40vw;"">
            <div style=""margin:0 auto; width: 20vw; top: 8vh; font-size: 2vw""> 
            <font color=""green""> Bonus : $1.76 </font>
            </div>
        </div>
    
            <div> Please press any key to continue to the next movie.</div>
        "," ","ITI","","","","","","",""
"","","","","","html-keyboard-response","163","271796","0.0-7.42-1.42","60a6bc4f4cb533e7e0867aab","6573617f270241e5da3d355d","6576c301d1d93165c5d224c4","1002","./stimuli//pack_morph_shapes_1/cat_1/diff_5/ex_1_5_7.gif","arrowleft","response","ArrowLeft","7","1","5","test","true",""
"","","","","","html-keyboard-response","164","273310","0.0-7.42-2.42","60a6bc4f4cb533e7e0867aab","6573617f270241e5da3d355d","6576c301d1d93165c5d224c4","null","<p> <font color=""green"" size=""5vw""> Correct category! </font> <br> <br> <font color=""green"" size=""8vw""> + $0.06 </font> </p>","null","feedback","","","","","","","1.82"
"","","","","","html-keyboard-response","165","273604","0.0-7.43-0.43","60a6bc4f4cb533e7e0867aab","6573617f270241e5da3d355d","6576c301d1d93165c5d224c4","292","
            
        <div style=""text-align: center; position: fixed; top: 5vh; left: 40vw;"">
            <div style=""margin:0 auto; width: 20vw; top: 8vh; font-size: 2vw""> 
            <font color=""green""> Bonus : $1.82 </font>
            </div>
        </div>
    
            <div> Please press any key to continue to the next movie.</div>
        "," ","ITI","","","","","","",""
"","","","","","html-keyboard-response","166","274369","0.0-7.43-1.43","60a6bc4f4cb533e7e0867aab","6573617f270241e5da3d355d","6576c301d1d93165c5d224c4","764","./stimuli//pack_morph_shapes_1/cat_1/diff_5/ex_1_5_6.gif","arrowleft","response","ArrowLeft","6","1","5","test","true",""
"","","","","","html-keyboard-response","167","275871","0.0-7.43-2.43","60a6bc4f4cb533e7e0867aab","6573617f270241e5da3d355d","6576c301d1d93165c5d224c4","null","<p> <font color=""green"" size=""5vw""> Correct category! </font> <br> <br> <font color=""green"" size=""8vw""> + $0.07 </font> </p>","null","feedback","","","","","","","1.89"
"","","","","","html-keyboard-response","168","276197","0.0-7.44-0.44","60a6bc4f4cb533e7e0867aab","6573617f270241e5da3d355d","6576c301d1d93165c5d224c4","325","
            
        <div style=""text-align: center; position: fixed; top: 5vh; left: 40vw;"">
            <div style=""margin:0 auto; width: 20vw; top: 8vh; font-size: 2vw""> 
            <font color=""green""> Bonus : $1.89 </font>
            </div>
        </div>
    
            <div> Please press any key to continue to the next movie.</div>
        "," ","ITI","","","","","","",""
"","","","","","html-keyboard-response","169","277227","0.0-7.44-1.44","60a6bc4f4cb533e7e0867aab","6573617f270241e5da3d355d","6576c301d1d93165c5d224c4","1028","./stimuli//pack_morph_shapes_1/cat_1/diff_5/ex_1_5_6.gif","arrowleft","response","ArrowLeft","6","1","5","test","true",""
"","","","","","html-keyboard-response","170","278730","0.0-7.44-2.44","60a6bc4f4cb533e7e0867aab","6573617f270241e5da3d355d","6576c301d1d93165c5d224c4","null","<p> <font color=""green"" size=""5vw""> Correct category! </font> <br> <br> <font color=""green"" size=""8vw""> + $0.06 </font> </p>","null","feedback","","","","","","","1.95"
"","","","","","html-keyboard-response","171","279248","0.0-7.45-0.45","60a6bc4f4cb533e7e0867aab","6573617f270241e5da3d355d","6576c301d1d93165c5d224c4","518","
            
        <div style=""text-align: center; position: fixed; top: 5vh; left: 40vw;"">
            <div style=""margin:0 auto; width: 20vw; top: 8vh; font-size: 2vw""> 
            <font color=""green""> Bonus : $1.95 </font>
            </div>
        </div>
    
            <div> Please press any key to continue to the next movie.</div>
        "," ","ITI","","","","","","",""
"","","","","","html-keyboard-response","172","280764","0.0-7.45-1.45","60a6bc4f4cb533e7e0867aab","6573617f270241e5da3d355d","6576c301d1d93165c5d224c4","1514","./stimuli//pack_morph_shapes_1/cat_2/diff_5/ex_2_5_12.gif","arrowright","response","ArrowRight","12","2","5","test","true",""
"","","","","","html-keyboard-response","173","282267","0.0-7.45-2.45","60a6bc4f4cb533e7e0867aab","6573617f270241e5da3d355d","6576c301d1d93165c5d224c4","null","<p> <font color=""green"" size=""5vw""> Correct category! </font> <br> <br> <font color=""green"" size=""8vw""> + $0.05 </font> </p>","null","feedback","","","","","","","2"
"","","","","","html-keyboard-response","174","282974","0.0-7.46-0.46","60a6bc4f4cb533e7e0867aab","6573617f270241e5da3d355d","6576c301d1d93165c5d224c4","705","
            
        <div style=""text-align: center; position: fixed; top: 5vh; left: 40vw;"">
            <div style=""margin:0 auto; width: 20vw; top: 8vh; font-size: 2vw""> 
            <font color=""green""> Bonus : $2 </font>
            </div>
        </div>
    
            <div> Please press any key to continue to the next movie.</div>
        "," ","ITI","","","","","","",""
"","","","","","html-keyboard-response","175","284089","0.0-7.46-1.46","60a6bc4f4cb533e7e0867aab","6573617f270241e5da3d355d","6576c301d1d93165c5d224c4","1112","./stimuli//pack_morph_shapes_1/cat_2/diff_5/ex_2_5_6.gif","arrowright","response","ArrowRight","6","2","5","test","true",""
"","","","","","html-keyboard-response","176","285604","0.0-7.46-2.46","60a6bc4f4cb533e7e0867aab","6573617f270241e5da3d355d","6576c301d1d93165c5d224c4","null","<p> <font color=""green"" size=""5vw""> Correct category! </font> <br> <br> <font color=""green"" size=""8vw""> + $0.06 </font> </p>","null","feedback","","","","","","","2.06"
"","","","","","html-keyboard-response","177","286308","0.0-7.47-0.47","60a6bc4f4cb533e7e0867aab","6573617f270241e5da3d355d","6576c301d1d93165c5d224c4","703","
            
        <div style=""text-align: center; position: fixed; top: 5vh; left: 40vw;"">
            <div style=""margin:0 auto; width: 20vw; top: 8vh; font-size: 2vw""> 
            <font color=""green""> Bonus : $2.06 </font>
            </div>
        </div>
    
            <div> Please press any key to continue to the next movie.</div>
        "," ","ITI","","","","","","",""
"","","","","","html-keyboard-response","178","287153","0.0-7.47-1.47","60a6bc4f4cb533e7e0867aab","6573617f270241e5da3d355d","6576c301d1d93165c5d224c4","843","./stimuli//pack_morph_shapes_1/cat_1/diff_5/ex_1_5_1.gif","arrowleft","response","ArrowLeft","1","1","5","test","true",""
"","","","","","html-keyboard-response","179","288660","0.0-7.47-2.47","60a6bc4f4cb533e7e0867aab","6573617f270241e5da3d355d","6576c301d1d93165c5d224c4","null","<p> <font color=""green"" size=""5vw""> Correct category! </font> <br> <br> <font color=""green"" size=""8vw""> + $0.07 </font> </p>","null","feedback","","","","","","","2.13"
"","","","","","html-keyboard-response","180","289149","0.0-7.48-0.48","60a6bc4f4cb533e7e0867aab","6573617f270241e5da3d355d","6576c301d1d93165c5d224c4","488","
            
        <div style=""text-align: center; position: fixed; top: 5vh; left: 40vw;"">
            <div style=""margin:0 auto; width: 20vw; top: 8vh; font-size: 2vw""> 
            <font color=""green""> Bonus : $2.13 </font>
            </div>
        </div>
    
            <div> Please press any key to continue to the next movie.</div>
        "," ","ITI","","","","","","",""
"","","","","","html-keyboard-response","181","290337","0.0-7.48-1.48","60a6bc4f4cb533e7e0867aab","6573617f270241e5da3d355d","6576c301d1d93165c5d224c4","1186","./stimuli//pack_morph_shapes_1/cat_1/diff_5/ex_1_5_13.gif","arrowleft","response","ArrowLeft","13","1","5","test","true",""
"","","","","","html-keyboard-response","182","291853","0.0-7.48-2.48","60a6bc4f4cb533e7e0867aab","6573617f270241e5da3d355d","6576c301d1d93165c5d224c4","null","<p> <font color=""green"" size=""5vw""> Correct category! </font> <br> <br> <font color=""green"" size=""8vw""> + $0.06 </font> </p>","null","feedback","","","","","","","2.19"
"","","","","","html-keyboard-response","183","292182","0.0-7.49-0.49","60a6bc4f4cb533e7e0867aab","6573617f270241e5da3d355d","6576c301d1d93165c5d224c4","326","
            
        <div style=""text-align: center; position: fixed; top: 5vh; left: 40vw;"">
            <div style=""margin:0 auto; width: 20vw; top: 8vh; font-size: 2vw""> 
            <font color=""green""> Bonus : $2.19 </font>
            </div>
        </div>
    
            <div> Please press any key to continue to the next movie.</div>
        "," ","ITI","","","","","","",""
"","","","","","html-keyboard-response","184","292955","0.0-7.49-1.49","60a6bc4f4cb533e7e0867aab","6573617f270241e5da3d355d","6576c301d1d93165c5d224c4","772","./stimuli//pack_morph_shapes_1/cat_1/diff_5/ex_1_5_6.gif","arrowleft","response","ArrowLeft","6","1","5","test","true",""
"","","","","","html-keyboard-response","185","294462","0.0-7.49-2.49","60a6bc4f4cb533e7e0867aab","6573617f270241e5da3d355d","6576c301d1d93165c5d224c4","null","<p> <font color=""green"" size=""5vw""> Correct category! </font> <br> <br> <font color=""green"" size=""8vw""> + $0.07 </font> </p>","null","feedback","","","","","","","2.26"
"","","","","","html-keyboard-response","186","294800","0.0-7.50-0.50","60a6bc4f4cb533e7e0867aab","6573617f270241e5da3d355d","6576c301d1d93165c5d224c4","336","
            
        <div style=""text-align: center; position: fixed; top: 5vh; left: 40vw;"">
            <div style=""margin:0 auto; width: 20vw; top: 8vh; font-size: 2vw""> 
            <font color=""green""> Bonus : $2.26 </font>
            </div>
        </div>
    
            <div> Please press any key to continue to the next movie.</div>
        "," ","ITI","","","","","","",""
"","","","","","html-keyboard-response","187","295723","0.0-7.50-1.50","60a6bc4f4cb533e7e0867aab","6573617f270241e5da3d355d","6576c301d1d93165c5d224c4","921","./stimuli//pack_morph_shapes_1/cat_2/diff_5/ex_2_5_7.gif","arrowright","response","ArrowRight","7","2","5","test","true",""
"","","","","","html-keyboard-response","188","297235","0.0-7.50-2.50","60a6bc4f4cb533e7e0867aab","6573617f270241e5da3d355d","6576c301d1d93165c5d224c4","null","<p> <font color=""green"" size=""5vw""> Correct category! </font> <br> <br> <font color=""green"" size=""8vw""> + $0.06 </font> </p>","null","feedback","","","","","","","2.32"
"","","","","","html-keyboard-response","189","298026","0.0-7.51-0.51","60a6bc4f4cb533e7e0867aab","6573617f270241e5da3d355d","6576c301d1d93165c5d224c4","790","
            
        <div style=""text-align: center; position: fixed; top: 5vh; left: 40vw;"">
            <div style=""margin:0 auto; width: 20vw; top: 8vh; font-size: 2vw""> 
            <font color=""green""> Bonus : $2.32 </font>
            </div>
        </div>
    
            <div> Please press any key to continue to the next movie.</div>
        ","arrowleft","ITI","","","","","","",""
"","","","","","html-keyboard-response","190","299091","0.0-7.51-1.51","60a6bc4f4cb533e7e0867aab","6573617f270241e5da3d355d","6576c301d1d93165c5d224c4","1055","./stimuli//pack_morph_shapes_1/cat_2/diff_5/ex_2_5_5.gif","arrowright","response","ArrowRight","5","2","5","test","true",""
"","","","","","html-keyboard-response","191","300603","0.0-7.51-2.51","60a6bc4f4cb533e7e0867aab","6573617f270241e5da3d355d","6576c301d1d93165c5d224c4","null","<p> <font color=""green"" size=""5vw""> Correct category! </font> <br> <br> <font color=""green"" size=""8vw""> + $0.06 </font> </p>","null","feedback","","","","","","","2.38"
"","","","","","html-keyboard-response","192","301335","0.0-7.52-0.52","60a6bc4f4cb533e7e0867aab","6573617f270241e5da3d355d","6576c301d1d93165c5d224c4","731","
            
        <div style=""text-align: center; position: fixed; top: 5vh; left: 40vw;"">
            <div style=""margin:0 auto; width: 20vw; top: 8vh; font-size: 2vw""> 
            <font color=""green""> Bonus : $2.38 </font>
            </div>
        </div>
    
            <div> Please press any key to continue to the next movie.</div>
        ","arrowleft","ITI","","","","","","",""
"","","","","","html-keyboard-response","193","302210","0.0-7.52-1.52","60a6bc4f4cb533e7e0867aab","6573617f270241e5da3d355d","6576c301d1d93165c5d224c4","874","./stimuli//pack_morph_shapes_1/cat_2/diff_5/ex_2_5_5.gif","arrowright","response","ArrowRight","5","2","5","test","true",""
"","","","","","html-keyboard-response","194","303713","0.0-7.52-2.52","60a6bc4f4cb533e7e0867aab","6573617f270241e5da3d355d","6576c301d1d93165c5d224c4","null","<p> <font color=""green"" size=""5vw""> Correct category! </font> <br> <br> <font color=""green"" size=""8vw""> + $0.06 </font> </p>","null","feedback","","","","","","","2.44"
"","","","","","html-keyboard-response","195","305095","0.0-7.53-0.53","60a6bc4f4cb533e7e0867aab","6573617f270241e5da3d355d","6576c301d1d93165c5d224c4","1380","
            
        <div style=""text-align: center; position: fixed; top: 5vh; left: 40vw;"">
            <div style=""margin:0 auto; width: 20vw; top: 8vh; font-size: 2vw""> 
            <font color=""green""> Bonus : $2.44 </font>
            </div>
        </div>
    
            <div> Please press any key to continue to the next movie.</div>
        "," ","ITI","","","","","","",""
"","","","","","html-keyboard-response","196","305923","0.0-7.53-1.53","60a6bc4f4cb533e7e0867aab","6573617f270241e5da3d355d","6576c301d1d93165c5d224c4","827","./stimuli//pack_morph_shapes_1/cat_1/diff_5/ex_1_5_3.gif","arrowleft","response","ArrowLeft","3","1","5","test","true",""
"","","","","","html-keyboard-response","197","307425","0.0-7.53-2.53","60a6bc4f4cb533e7e0867aab","6573617f270241e5da3d355d","6576c301d1d93165c5d224c4","null","<p> <font color=""green"" size=""5vw""> Correct category! </font> <br> <br> <font color=""green"" size=""8vw""> + $0.07 </font> </p>","null","feedback","","","","","","","2.51"
"","","","","","html-keyboard-response","198","307826","0.0-7.54-0.54","60a6bc4f4cb533e7e0867aab","6573617f270241e5da3d355d","6576c301d1d93165c5d224c4","401","
            
        <div style=""text-align: center; position: fixed; top: 5vh; left: 40vw;"">
            <div style=""margin:0 auto; width: 20vw; top: 8vh; font-size: 2vw""> 
            <font color=""green""> Bonus : $2.51 </font>
            </div>
        </div>
    
            <div> Please press any key to continue to the next movie.</div>
        "," ","ITI","","","","","","",""
"","","","","","html-keyboard-response","199","308933","0.0-7.54-1.54","60a6bc4f4cb533e7e0867aab","6573617f270241e5da3d355d","6576c301d1d93165c5d224c4","1106","./stimuli//pack_morph_shapes_1/cat_2/diff_5/ex_2_5_15.gif","arrowright","response","ArrowRight","15","2","5","test","true",""
"","","","","","html-keyboard-response","200","310448","0.0-7.54-2.54","60a6bc4f4cb533e7e0867aab","6573617f270241e5da3d355d","6576c301d1d93165c5d224c4","null","<p> <font color=""green"" size=""5vw""> Correct category! </font> <br> <br> <font color=""green"" size=""8vw""> + $0.06 </font> </p>","null","feedback","","","","","","","2.57"
"","","","","","html-keyboard-response","201","311592","0.0-7.55-0.55","60a6bc4f4cb533e7e0867aab","6573617f270241e5da3d355d","6576c301d1d93165c5d224c4","1142","
            
        <div style=""text-align: center; position: fixed; top: 5vh; left: 40vw;"">
            <div style=""margin:0 auto; width: 20vw; top: 8vh; font-size: 2vw""> 
            <font color=""green""> Bonus : $2.57 </font>
            </div>
        </div>
    
            <div> Please press any key to continue to the next movie.</div>
        "," ","ITI","","","","","","",""
"","","","","","html-keyboard-response","202","312462","0.0-7.55-1.55","60a6bc4f4cb533e7e0867aab","6573617f270241e5da3d355d","6576c301d1d93165c5d224c4","870","./stimuli//pack_morph_shapes_1/cat_1/diff_5/ex_1_5_13.gif","arrowleft","response","ArrowLeft","13","1","5","test","true",""
"","","","","","html-keyboard-response","203","313982","0.0-7.55-2.55","60a6bc4f4cb533e7e0867aab","6573617f270241e5da3d355d","6576c301d1d93165c5d224c4","null","<p> <font color=""green"" size=""5vw""> Correct category! </font> <br> <br> <font color=""green"" size=""8vw""> + $0.06 </font> </p>","null","feedback","","","","","","","2.63"
"","","","","","html-keyboard-response","204","314396","0.0-7.56-0.56","60a6bc4f4cb533e7e0867aab","6573617f270241e5da3d355d","6576c301d1d93165c5d224c4","413","
            
        <div style=""text-align: center; position: fixed; top: 5vh; left: 40vw;"">
            <div style=""margin:0 auto; width: 20vw; top: 8vh; font-size: 2vw""> 
            <font color=""green""> Bonus : $2.63 </font>
            </div>
        </div>
    
            <div> Please press any key to continue to the next movie.</div>
        "," ","ITI","","","","","","",""
"","","","","","html-keyboard-response","205","315518","0.0-7.56-1.56","60a6bc4f4cb533e7e0867aab","6573617f270241e5da3d355d","6576c301d1d93165c5d224c4","1120","./stimuli//pack_morph_shapes_1/cat_2/diff_5/ex_2_5_14.gif","arrowright","response","ArrowRight","14","2","5","test","true",""
"","","","","","html-keyboard-response","206","317022","0.0-7.56-2.56","60a6bc4f4cb533e7e0867aab","6573617f270241e5da3d355d","6576c301d1d93165c5d224c4","null","<p> <font color=""green"" size=""5vw""> Correct category! </font> <br> <br> <font color=""green"" size=""8vw""> + $0.06 </font> </p>","null","feedback","","","","","","","2.69"
"","","","","","html-keyboard-response","207","317422","0.0-7.57-0.57","60a6bc4f4cb533e7e0867aab","6573617f270241e5da3d355d","6576c301d1d93165c5d224c4","399","
            
        <div style=""text-align: center; position: fixed; top: 5vh; left: 40vw;"">
            <div style=""margin:0 auto; width: 20vw; top: 8vh; font-size: 2vw""> 
            <font color=""green""> Bonus : $2.69 </font>
            </div>
        </div>
    
            <div> Please press any key to continue to the next movie.</div>
        "," ","ITI","","","","","","",""
"","","","","","html-keyboard-response","208","318273","0.0-7.57-1.57","60a6bc4f4cb533e7e0867aab","6573617f270241e5da3d355d","6576c301d1d93165c5d224c4","849","./stimuli//pack_morph_shapes_1/cat_2/diff_5/ex_2_5_9.gif","arrowright","response","ArrowRight","9","2","5","test","true",""
"","","","","","html-keyboard-response","209","319779","0.0-7.57-2.57","60a6bc4f4cb533e7e0867aab","6573617f270241e5da3d355d","6576c301d1d93165c5d224c4","null","<p> <font color=""green"" size=""5vw""> Correct category! </font> <br> <br> <font color=""green"" size=""8vw""> + $0.07 </font> </p>","null","feedback","","","","","","","2.76"
"","","","","","html-keyboard-response","210","319980","0.0-7.58-0.58","60a6bc4f4cb533e7e0867aab","6573617f270241e5da3d355d","6576c301d1d93165c5d224c4","200","
            
        <div style=""text-align: center; position: fixed; top: 5vh; left: 40vw;"">
            <div style=""margin:0 auto; width: 20vw; top: 8vh; font-size: 2vw""> 
            <font color=""green""> Bonus : $2.76 </font>
            </div>
        </div>
    
            <div> Please press any key to continue to the next movie.</div>
        ","arrowleft","ITI","","","","","","",""
"","","","","","html-keyboard-response","211","321046","0.0-7.58-1.58","60a6bc4f4cb533e7e0867aab","6573617f270241e5da3d355d","6576c301d1d93165c5d224c4","1065","./stimuli//pack_morph_shapes_1/cat_1/diff_5/ex_1_5_10.gif","arrowleft","response","ArrowLeft","10","1","5","test","true",""
"","","","","","html-keyboard-response","212","322554","0.0-7.58-2.58","60a6bc4f4cb533e7e0867aab","6573617f270241e5da3d355d","6576c301d1d93165c5d224c4","null","<p> <font color=""green"" size=""5vw""> Correct category! </font> <br> <br> <font color=""green"" size=""8vw""> + $0.06 </font> </p>","null","feedback","","","","","","","2.82"
"","","","","","html-keyboard-response","213","323652","0.0-7.59-0.59","60a6bc4f4cb533e7e0867aab","6573617f270241e5da3d355d","6576c301d1d93165c5d224c4","1096","
            
        <div style=""text-align: center; position: fixed; top: 5vh; left: 40vw;"">
            <div style=""margin:0 auto; width: 20vw; top: 8vh; font-size: 2vw""> 
            <font color=""green""> Bonus : $2.82 </font>
            </div>
        </div>
    
            <div> Please press any key to continue to the next movie.</div>
        ","arrowleft","ITI","","","","","","",""
"","","","","","html-keyboard-response","214","324484","0.0-7.59-1.59","60a6bc4f4cb533e7e0867aab","6573617f270241e5da3d355d","6576c301d1d93165c5d224c4","831","./stimuli//pack_morph_shapes_1/cat_2/diff_5/ex_2_5_5.gif","arrowright","response","ArrowRight","5","2","5","test","true",""
"","","","","","html-keyboard-response","215","325988","0.0-7.59-2.59","60a6bc4f4cb533e7e0867aab","6573617f270241e5da3d355d","6576c301d1d93165c5d224c4","null","<p> <font color=""green"" size=""5vw""> Correct category! </font> <br> <br> <font color=""green"" size=""8vw""> + $0.07 </font> </p>","null","feedback","","","","","","","2.89"
"","","","","","html-keyboard-response","216","326916","0.0-7.60-0.60","60a6bc4f4cb533e7e0867aab","6573617f270241e5da3d355d","6576c301d1d93165c5d224c4","926","
            
        <div style=""text-align: center; position: fixed; top: 5vh; left: 40vw;"">
            <div style=""margin:0 auto; width: 20vw; top: 8vh; font-size: 2vw""> 
            <font color=""green""> Bonus : $2.89 </font>
            </div>
        </div>
    
            <div> Please press any key to continue to the next movie.</div>
        ","arrowright","ITI","","","","","","",""
"","","","","","html-keyboard-response","217","328549","0.0-7.60-1.60","60a6bc4f4cb533e7e0867aab","6573617f270241e5da3d355d","6576c301d1d93165c5d224c4","1632","./stimuli//pack_morph_shapes_1/cat_1/diff_5/ex_1_5_11.gif","arrowleft","response","ArrowLeft","11","1","5","test","true",""
"","","","","","html-keyboard-response","218","330060","0.0-7.60-2.60","60a6bc4f4cb533e7e0867aab","6573617f270241e5da3d355d","6576c301d1d93165c5d224c4","null","<p> <font color=""green"" size=""5vw""> Correct category! </font> <br> <br> <font color=""green"" size=""8vw""> + $0.04 </font> </p>","null","feedback","","","","","","","2.93"
"","","","","","html-keyboard-response","219","330755","0.0-7.61-0.61","60a6bc4f4cb533e7e0867aab","6573617f270241e5da3d355d","6576c301d1d93165c5d224c4","694","
            
        <div style=""text-align: center; position: fixed; top: 5vh; left: 40vw;"">
            <div style=""margin:0 auto; width: 20vw; top: 8vh; font-size: 2vw""> 
            <font color=""green""> Bonus : $2.93 </font>
            </div>
        </div>
    
            <div> Please press any key to continue to the next movie.</div>
        ","arrowright","ITI","","","","","","",""
"","","","","","html-keyboard-response","220","331965","0.0-7.61-1.61","60a6bc4f4cb533e7e0867aab","6573617f270241e5da3d355d","6576c301d1d93165c5d224c4","1210","./stimuli//pack_morph_shapes_1/cat_1/diff_5/ex_1_5_2.gif","arrowleft","response","ArrowLeft","2","1","5","test","true",""
"","","","","","html-keyboard-response","221","333470","0.0-7.61-2.61","60a6bc4f4cb533e7e0867aab","6573617f270241e5da3d355d","6576c301d1d93165c5d224c4","null","<p> <font color=""green"" size=""5vw""> Correct category! </font> <br> <br> <font color=""green"" size=""8vw""> + $0.05 </font> </p>","null","feedback","","","","","","","2.98"
"","","","","","html-keyboard-response","222","334530","0.0-7.62-0.62","60a6bc4f4cb533e7e0867aab","6573617f270241e5da3d355d","6576c301d1d93165c5d224c4","1059","
            
        <div style=""text-align: center; position: fixed; top: 5vh; left: 40vw;"">
            <div style=""margin:0 auto; width: 20vw; top: 8vh; font-size: 2vw""> 
            <font color=""green""> Bonus : $2.98 </font>
            </div>
        </div>
    
            <div> Please press any key to continue to the next movie.</div>
        ","arrowright","ITI","","","","","","",""
"","","","","","html-keyboard-response","223","335245","0.0-7.62-1.62","60a6bc4f4cb533e7e0867aab","6573617f270241e5da3d355d","6576c301d1d93165c5d224c4","713","./stimuli//pack_morph_shapes_1/cat_2/diff_5/ex_2_5_14.gif","arrowright","response","ArrowRight","14","2","5","test","true",""
"","","","","","html-keyboard-response","224","336749","0.0-7.62-2.62","60a6bc4f4cb533e7e0867aab","6573617f270241e5da3d355d","6576c301d1d93165c5d224c4","null","<p> <font color=""green"" size=""5vw""> Correct category! </font> <br> <br> <font color=""green"" size=""8vw""> + $0.07 </font> </p>","null","feedback","","","","","","","3.05"
"","","","","","html-keyboard-response","225","337548","0.0-7.63-0.63","60a6bc4f4cb533e7e0867aab","6573617f270241e5da3d355d","6576c301d1d93165c5d224c4","798","
            
        <div style=""text-align: center; position: fixed; top: 5vh; left: 40vw;"">
            <div style=""margin:0 auto; width: 20vw; top: 8vh; font-size: 2vw""> 
            <font color=""green""> Bonus : $3.05 </font>
            </div>
        </div>
    
            <div> Please press any key to continue to the next movie.</div>
        ","arrowright","ITI","","","","","","",""
"","","","","","html-keyboard-response","226","338208","0.0-7.63-1.63","60a6bc4f4cb533e7e0867aab","6573617f270241e5da3d355d","6576c301d1d93165c5d224c4","658","./stimuli//pack_morph_shapes_1/cat_2/diff_5/ex_2_5_5.gif","arrowright","response","ArrowRight","5","2","5","test","true",""
"","","","","","html-keyboard-response","227","339722","0.0-7.63-2.63","60a6bc4f4cb533e7e0867aab","6573617f270241e5da3d355d","6576c301d1d93165c5d224c4","null","<p> <font color=""green"" size=""5vw""> Correct category! </font> <br> <br> <font color=""green"" size=""8vw""> + $0.07 </font> </p>","null","feedback","","","","","","","3.12"
"","","","","","html-keyboard-response","228","340479","0.0-7.64-0.64","60a6bc4f4cb533e7e0867aab","6573617f270241e5da3d355d","6576c301d1d93165c5d224c4","756","
            
        <div style=""text-align: center; position: fixed; top: 5vh; left: 40vw;"">
            <div style=""margin:0 auto; width: 20vw; top: 8vh; font-size: 2vw""> 
            <font color=""green""> Bonus : $3.12 </font>
            </div>
        </div>
    
            <div> Please press any key to continue to the next movie.</div>
        ","arrowright","ITI","","","","","","",""
"","","","","","html-keyboard-response","229","341480","0.0-7.64-1.64","60a6bc4f4cb533e7e0867aab","6573617f270241e5da3d355d","6576c301d1d93165c5d224c4","999","./stimuli//pack_morph_shapes_1/cat_2/diff_5/ex_2_5_10.gif","arrowright","response","ArrowRight","10","2","5","test","true",""
"","","","","","html-keyboard-response","230","342999","0.0-7.64-2.64","60a6bc4f4cb533e7e0867aab","6573617f270241e5da3d355d","6576c301d1d93165c5d224c4","null","<p> <font color=""green"" size=""5vw""> Correct category! </font> <br> <br> <font color=""green"" size=""8vw""> + $0.06 </font> </p>","null","feedback","","","","","","","3.18"
"","","","","","html-keyboard-response","231","343313","0.0-7.65-0.65","60a6bc4f4cb533e7e0867aab","6573617f270241e5da3d355d","6576c301d1d93165c5d224c4","313","
            
        <div style=""text-align: center; position: fixed; top: 5vh; left: 40vw;"">
            <div style=""margin:0 auto; width: 20vw; top: 8vh; font-size: 2vw""> 
            <font color=""green""> Bonus : $3.18 </font>
            </div>
        </div>
    
            <div> Please press any key to continue to the next movie.</div>
        ","arrowright","ITI","","","","","","",""
"","","","","","html-keyboard-response","232","343956","0.0-7.65-1.65","60a6bc4f4cb533e7e0867aab","6573617f270241e5da3d355d","6576c301d1d93165c5d224c4","642","./stimuli//pack_morph_shapes_1/cat_2/diff_5/ex_2_5_4.gif","arrowright","response","ArrowRight","4","2","5","test","true",""
"","","","","","html-keyboard-response","233","345469","0.0-7.65-2.65","60a6bc4f4cb533e7e0867aab","6573617f270241e5da3d355d","6576c301d1d93165c5d224c4","null","<p> <font color=""green"" size=""5vw""> Correct category! </font> <br> <br> <font color=""green"" size=""8vw""> + $0.07 </font> </p>","null","feedback","","","","","","","3.25"
"","","","","","html-keyboard-response","234","345949","0.0-7.66-0.66","60a6bc4f4cb533e7e0867aab","6573617f270241e5da3d355d","6576c301d1d93165c5d224c4","479","
            
        <div style=""text-align: center; position: fixed; top: 5vh; left: 40vw;"">
            <div style=""margin:0 auto; width: 20vw; top: 8vh; font-size: 2vw""> 
            <font color=""green""> Bonus : $3.25 </font>
            </div>
        </div>
    
            <div> Please press any key to continue to the next movie.</div>
        ","arrowright","ITI","","","","","","",""
"","","","","","html-keyboard-response","235","346722","0.0-7.66-1.66","60a6bc4f4cb533e7e0867aab","6573617f270241e5da3d355d","6576c301d1d93165c5d224c4","772","./stimuli//pack_morph_shapes_1/cat_1/diff_5/ex_1_5_9.gif","arrowleft","response","ArrowLeft","9","1","5","test","true",""
"","","","","","html-keyboard-response","236","348229","0.0-7.66-2.66","60a6bc4f4cb533e7e0867aab","6573617f270241e5da3d355d","6576c301d1d93165c5d224c4","null","<p> <font color=""green"" size=""5vw""> Correct category! </font> <br> <br> <font color=""green"" size=""8vw""> + $0.07 </font> </p>","null","feedback","","","","","","","3.32"
"","","","","","html-keyboard-response","237","348571","0.0-7.67-0.67","60a6bc4f4cb533e7e0867aab","6573617f270241e5da3d355d","6576c301d1d93165c5d224c4","340","
            
        <div style=""text-align: center; position: fixed; top: 5vh; left: 40vw;"">
            <div style=""margin:0 auto; width: 20vw; top: 8vh; font-size: 2vw""> 
            <font color=""green""> Bonus : $3.32 </font>
            </div>
        </div>
    
            <div> Please press any key to continue to the next movie.</div>
        ","arrowleft","ITI","","","","","","",""
"","","","","","html-keyboard-response","238","349319","0.0-7.67-1.67","60a6bc4f4cb533e7e0867aab","6573617f270241e5da3d355d","6576c301d1d93165c5d224c4","747","./stimuli//pack_morph_shapes_1/cat_1/diff_5/ex_1_5_14.gif","arrowleft","response","ArrowLeft","14","1","5","test","true",""
"","","","","","html-keyboard-response","239","350821","0.0-7.67-2.67","60a6bc4f4cb533e7e0867aab","6573617f270241e5da3d355d","6576c301d1d93165c5d224c4","null","<p> <font color=""green"" size=""5vw""> Correct category! </font> <br> <br> <font color=""green"" size=""8vw""> + $0.07 </font> </p>","null","feedback","","","","","","","3.39"
"","","","","","html-keyboard-response","240","351175","0.0-7.68-0.68","60a6bc4f4cb533e7e0867aab","6573617f270241e5da3d355d","6576c301d1d93165c5d224c4","353","
            
        <div style=""text-align: center; position: fixed; top: 5vh; left: 40vw;"">
            <div style=""margin:0 auto; width: 20vw; top: 8vh; font-size: 2vw""> 
            <font color=""green""> Bonus : $3.39 </font>
            </div>
        </div>
    
            <div> Please press any key to continue to the next movie.</div>
        ","arrowleft","ITI","","","","","","",""
"","","","","","html-keyboard-response","241","352098","0.0-7.68-1.68","60a6bc4f4cb533e7e0867aab","6573617f270241e5da3d355d","6576c301d1d93165c5d224c4","922","./stimuli//pack_morph_shapes_1/cat_2/diff_5/ex_2_5_17.gif","arrowleft","response","ArrowRight","17","2","5","test","false",""
"","","","","","html-keyboard-response","242","353607","0.0-7.68-2.68","60a6bc4f4cb533e7e0867aab","6573617f270241e5da3d355d","6576c301d1d93165c5d224c4","null","<p> <font color=""red"" size=""5vw""> Wrong category! </font> <br> <br> <font color=""red"" size=""8vw""> - $0.05 </font> </p>","null","feedback","","","","","","","3.34"
"","","","","","html-keyboard-response","243","354249","0.0-7.69-0.69","60a6bc4f4cb533e7e0867aab","6573617f270241e5da3d355d","6576c301d1d93165c5d224c4","641","
            
        <div style=""text-align: center; position: fixed; top: 5vh; left: 40vw;"">
            <div style=""margin:0 auto; width: 20vw; top: 8vh; font-size: 2vw""> 
            <font color=""green""> Bonus : $3.34 </font>
            </div>
        </div>
    
            <div> Please press any key to continue to the next movie.</div>
        ","arrowleft","ITI","","","","","","",""
"","","","","","html-keyboard-response","244","354955","0.0-7.69-1.69","60a6bc4f4cb533e7e0867aab","6573617f270241e5da3d355d","6576c301d1d93165c5d224c4","704","./stimuli//pack_morph_shapes_1/cat_1/diff_5/ex_1_5_2.gif","arrowright","response","ArrowLeft","2","1","5","test","false",""
"","","","","","html-keyboard-response","245","356463","0.0-7.69-2.69","60a6bc4f4cb533e7e0867aab","6573617f270241e5da3d355d","6576c301d1d93165c5d224c4","null","<p> <font color=""red"" size=""5vw""> Wrong category! </font> <br> <br> <font color=""red"" size=""8vw""> - $0.05 </font> </p>","null","feedback","","","","","","","3.29"
"","","","","","html-keyboard-response","246","357226","0.0-7.70-0.70","60a6bc4f4cb533e7e0867aab","6573617f270241e5da3d355d","6576c301d1d93165c5d224c4","761","
            
        <div style=""text-align: center; position: fixed; top: 5vh; left: 40vw;"">
            <div style=""margin:0 auto; width: 20vw; top: 8vh; font-size: 2vw""> 
            <font color=""green""> Bonus : $3.29 </font>
            </div>
        </div>
    
            <div> Please press any key to continue to the next movie.</div>
        ","arrowright","ITI","","","","","","",""
"","","","","","html-keyboard-response","247","358188","0.0-7.70-1.70","60a6bc4f4cb533e7e0867aab","6573617f270241e5da3d355d","6576c301d1d93165c5d224c4","961","./stimuli//pack_morph_shapes_1/cat_2/diff_4/ex_2_4_9.gif","arrowright","response","ArrowRight","9","2","4","test","true",""
"","","","","","html-keyboard-response","248","359719","0.0-7.70-2.70","60a6bc4f4cb533e7e0867aab","6573617f270241e5da3d355d","6576c301d1d93165c5d224c4","null","<p> <font color=""green"" size=""5vw""> Correct category! </font> <br> <br> <font color=""green"" size=""8vw""> + $0.06 </font> </p>","null","feedback","","","","","","","3.35"
"","","","","","html-keyboard-response","249","360046","0.0-7.71-0.71","60a6bc4f4cb533e7e0867aab","6573617f270241e5da3d355d","6576c301d1d93165c5d224c4","326","
            
        <div style=""text-align: center; position: fixed; top: 5vh; left: 40vw;"">
            <div style=""margin:0 auto; width: 20vw; top: 8vh; font-size: 2vw""> 
            <font color=""green""> Bonus : $3.35 </font>
            </div>
        </div>
    
            <div> Please press any key to continue to the next movie.</div>
        ","arrowright","ITI","","","","","","",""
"","","","","","html-keyboard-response","250","361065","0.0-7.71-1.71","60a6bc4f4cb533e7e0867aab","6573617f270241e5da3d355d","6576c301d1d93165c5d224c4","1017","./stimuli//pack_morph_shapes_1/cat_1/diff_4/ex_1_4_8.gif","arrowleft","response","ArrowLeft","8","1","4","test","true",""
"","","","","","html-keyboard-response","251","362574","0.0-7.71-2.71","60a6bc4f4cb533e7e0867aab","6573617f270241e5da3d355d","6576c301d1d93165c5d224c4","null","<p> <font color=""green"" size=""5vw""> Correct category! </font> <br> <br> <font color=""green"" size=""8vw""> + $0.06 </font> </p>","null","feedback","","","","","","","3.41"
"","","","","","html-keyboard-response","252","363369","0.0-7.72-0.72","60a6bc4f4cb533e7e0867aab","6573617f270241e5da3d355d","6576c301d1d93165c5d224c4","794","
            
        <div style=""text-align: center; position: fixed; top: 5vh; left: 40vw;"">
            <div style=""margin:0 auto; width: 20vw; top: 8vh; font-size: 2vw""> 
            <font color=""green""> Bonus : $3.41 </font>
            </div>
        </div>
    
            <div> Please press any key to continue to the next movie.</div>
        ","arrowleft","ITI","","","","","","",""
"","","","","","html-keyboard-response","253","364434","0.0-7.72-1.72","60a6bc4f4cb533e7e0867aab","6573617f270241e5da3d355d","6576c301d1d93165c5d224c4","1063","./stimuli//pack_morph_shapes_1/cat_2/diff_4/ex_2_4_6.gif","arrowright","response","ArrowRight","6","2","4","test","true",""
"","","","","","html-keyboard-response","254","365936","0.0-7.72-2.72","60a6bc4f4cb533e7e0867aab","6573617f270241e5da3d355d","6576c301d1d93165c5d224c4","null","<p> <font color=""green"" size=""5vw""> Correct category! </font> <br> <br> <font color=""green"" size=""8vw""> + $0.06 </font> </p>","null","feedback","","","","","","","3.47"
"","","","","","html-keyboard-response","255","366841","0.0-7.73-0.73","60a6bc4f4cb533e7e0867aab","6573617f270241e5da3d355d","6576c301d1d93165c5d224c4","904","
            
        <div style=""text-align: center; position: fixed; top: 5vh; left: 40vw;"">
