"success","timeout","failed_images","failed_audio","failed_video","trial_type","trial_index","time_elapsed","internal_node_id","subject_id","study_id","session_id","rt","stimulus","response","task","correct_response","exemplar_ID","category","difficulty","phase","correct","bonus"
"true","false","[]","[]","[]","preload","0","3","0.0-0.0","5f418da10dab34340bd50d60","65576f040411c2a4be0341a4","65576f870665f7de6baa17e9","","","","","","","","","","",""
"","","","","","html-keyboard-response","1","2953","0.0-1.0","5f418da10dab34340bd50d60","65576f040411c2a4be0341a4","65576f870665f7de6baa17e9","2949","Welcome to the Category Learning experiment! Press any key to continue."," ","welcome","","","","","","",""
"","","","","","html-keyboard-response","2","22127","0.0-2.0","5f418da10dab34340bd50d60","65576f040411c2a4be0341a4","65576f870665f7de6baa17e9","19173","
            <p>You will be shown images of black shapes. Some are category A, some are category B.
            <br>You will not know in advance which category a specific shape belongs to.</p>
            <p>After you see an image, you will be asked to guess its category <b>(left arrow for category A, right arrow for category B)</b></p>
            <p>After you choose, the screen will show you whether you were correct or not.</p>
            <p><b>You will receive a bonus payment of $0.05 for each correct answer!</b></p>
            <p> So you can increase your bonus by guessing correctly, and by guessing as quickly as possible so you move on to the next image sooner.</p>
            <p>Press any key to continue.</p>
            "," ","introduction_1","","","","","","",""
"","","","","","html-keyboard-response","3","25552","0.0-3.0","5f418da10dab34340bd50d60","65576f040411c2a4be0341a4","65576f870665f7de6baa17e9","3425","
            <p> <b>The first 10 trials are a practice round that will not count towards your bonus payment.</b></p>
            <p> You will be notified when practice finishes and the test begins. </p>
            <p> Press any key to begin the practice round.</p>
            "," ","introduction_2","","","","","","",""
"","","","","","html-keyboard-response","4","28336","0.0-4.0-0.0","5f418da10dab34340bd50d60","65576f040411c2a4be0341a4","65576f870665f7de6baa17e9","2783","
            
        <div style=""text-align: center; position: fixed; top: 5vh; left: 40vw;"">
            <div style=""margin:0 auto; width: 20vw; top: 8vh; font-size: 2vw""> 
            <font color=""green""> Bonus : $0 </font>
            </div>
        </div>
    
            <div> Please press any button to continue to the next trial.</div>
        "," ","ITI","","","","","","",""
"","","","","","html-keyboard-response","5","28950","0.0-4.0-1.0","5f418da10dab34340bd50d60","65576f040411c2a4be0341a4","65576f870665f7de6baa17e9","null","
        
        <div style=""text-align: center; position: fixed; top: 5vh; left: 40vw;"">
            <div style=""margin:0 auto; width: 20vw; top: 8vh; font-size: 2vw""> 
            <font color=""green""> Bonus : $0 </font>
            </div>
        </div>
    
        <img class=""stim"" src=./stimuli//pack_shapes_diff/cat_1/diff_1/ex_1_1_13.png></img>
    ","null","stimulus","","","","","","",""
"","","","","","html-keyboard-response","6","29962","0.0-4.0-2.0","5f418da10dab34340bd50d60","65576f040411c2a4be0341a4","65576f870665f7de6baa17e9","null","
        <div style=""text-align: center; position: fixed; top: 5vh; left: 40vw;"">
            <div style=""margin:0 auto; width: 20vw; top: 8vh; font-size: 2vw""> 
            <font color=""green""> Bonus : $0 </font>
            </div>
        </div>
    ","null","","","","","","","",""
"","","","","","html-keyboard-response","7","33396","0.0-4.0-3.0","5f418da10dab34340bd50d60","65576f040411c2a4be0341a4","65576f870665f7de6baa17e9","3433","./stimuli//pack_shapes_diff/cat_1/diff_1/ex_1_1_13.png","arrowright","response","ArrowLeft","13","1","1","train","false",""
"","","","","","html-keyboard-response","8","34901","0.0-4.0-4.0","5f418da10dab34340bd50d60","65576f040411c2a4be0341a4","65576f870665f7de6baa17e9","null","<p> <font color=""red"" size=""5vw""> Wrong category! </font> </p>","null","feedback","","","","","","","0"
"","","","","","html-keyboard-response","9","36982","0.0-4.0-0.1","5f418da10dab34340bd50d60","65576f040411c2a4be0341a4","65576f870665f7de6baa17e9","2080","
            
        <div style=""text-align: center; position: fixed; top: 5vh; left: 40vw;"">
            <div style=""margin:0 auto; width: 20vw; top: 8vh; font-size: 2vw""> 
            <font color=""green""> Bonus : $0 </font>
            </div>
        </div>
    
            <div> Please press any button to continue to the next trial.</div>
        "," ","ITI","","","","","","",""
"","","","","","html-keyboard-response","10","37591","0.0-4.0-1.1","5f418da10dab34340bd50d60","65576f040411c2a4be0341a4","65576f870665f7de6baa17e9","null","
        
        <div style=""text-align: center; position: fixed; top: 5vh; left: 40vw;"">
            <div style=""margin:0 auto; width: 20vw; top: 8vh; font-size: 2vw""> 
            <font color=""green""> Bonus : $0 </font>
            </div>
        </div>
    
        <img class=""stim"" src=./stimuli//pack_shapes_diff/cat_1/diff_2/ex_1_2_16.png></img>
    ","null","stimulus","","","","","","",""
"","","","","","html-keyboard-response","11","38599","0.0-4.0-2.1","5f418da10dab34340bd50d60","65576f040411c2a4be0341a4","65576f870665f7de6baa17e9","null","
        <div style=""text-align: center; position: fixed; top: 5vh; left: 40vw;"">
            <div style=""margin:0 auto; width: 20vw; top: 8vh; font-size: 2vw""> 
            <font color=""green""> Bonus : $0 </font>
            </div>
        </div>
    ","null","","","","","","","",""
"","","","","","html-keyboard-response","12","38850","0.0-4.0-3.1","5f418da10dab34340bd50d60","65576f040411c2a4be0341a4","65576f870665f7de6baa17e9","250","./stimuli//pack_shapes_diff/cat_1/diff_2/ex_1_2_16.png","arrowleft","response","ArrowLeft","16","1","2","train","true",""
"","","","","","html-keyboard-response","13","40359","0.0-4.0-4.1","5f418da10dab34340bd50d60","65576f040411c2a4be0341a4","65576f870665f7de6baa17e9","null","<p> <font color=""green"" size=""5vw""> Correct category! </font> </p>","null","feedback","","","","","","","0"
"","","","","","html-keyboard-response","14","41258","0.0-4.0-0.2","5f418da10dab34340bd50d60","65576f040411c2a4be0341a4","65576f870665f7de6baa17e9","899","
            
        <div style=""text-align: center; position: fixed; top: 5vh; left: 40vw;"">
            <div style=""margin:0 auto; width: 20vw; top: 8vh; font-size: 2vw""> 
            <font color=""green""> Bonus : $0 </font>
            </div>
        </div>
    
            <div> Please press any button to continue to the next trial.</div>
        "," ","ITI","","","","","","",""
"","","","","","html-keyboard-response","15","41872","0.0-4.0-1.2","5f418da10dab34340bd50d60","65576f040411c2a4be0341a4","65576f870665f7de6baa17e9","null","
        
        <div style=""text-align: center; position: fixed; top: 5vh; left: 40vw;"">
            <div style=""margin:0 auto; width: 20vw; top: 8vh; font-size: 2vw""> 
            <font color=""green""> Bonus : $0 </font>
            </div>
        </div>
    
        <img class=""stim"" src=./stimuli//pack_shapes_diff/cat_2/diff_1/ex_2_1_12.png></img>
    ","null","stimulus","","","","","","",""
"","","","","","html-keyboard-response","16","42880","0.0-4.0-2.2","5f418da10dab34340bd50d60","65576f040411c2a4be0341a4","65576f870665f7de6baa17e9","null","
        <div style=""text-align: center; position: fixed; top: 5vh; left: 40vw;"">
            <div style=""margin:0 auto; width: 20vw; top: 8vh; font-size: 2vw""> 
            <font color=""green""> Bonus : $0 </font>
            </div>
        </div>
    ","null","","","","","","","",""
"","","","","","html-keyboard-response","17","43132","0.0-4.0-3.2","5f418da10dab34340bd50d60","65576f040411c2a4be0341a4","65576f870665f7de6baa17e9","251","./stimuli//pack_shapes_diff/cat_2/diff_1/ex_2_1_12.png","arrowleft","response","ArrowRight","12","2","1","train","false",""
"","","","","","html-keyboard-response","18","44639","0.0-4.0-4.2","5f418da10dab34340bd50d60","65576f040411c2a4be0341a4","65576f870665f7de6baa17e9","null","<p> <font color=""red"" size=""5vw""> Wrong category! </font> </p>","null","feedback","","","","","","","0"
"","","","","","html-keyboard-response","19","44930","0.0-4.0-0.3","5f418da10dab34340bd50d60","65576f040411c2a4be0341a4","65576f870665f7de6baa17e9","290","
            
        <div style=""text-align: center; position: fixed; top: 5vh; left: 40vw;"">
            <div style=""margin:0 auto; width: 20vw; top: 8vh; font-size: 2vw""> 
            <font color=""green""> Bonus : $0 </font>
            </div>
        </div>
    
            <div> Please press any button to continue to the next trial.</div>
        ","shift","ITI","","","","","","",""
"","","","","","html-keyboard-response","20","45544","0.0-4.0-1.3","5f418da10dab34340bd50d60","65576f040411c2a4be0341a4","65576f870665f7de6baa17e9","null","
        
        <div style=""text-align: center; position: fixed; top: 5vh; left: 40vw;"">
            <div style=""margin:0 auto; width: 20vw; top: 8vh; font-size: 2vw""> 
            <font color=""green""> Bonus : $0 </font>
            </div>
        </div>
    
        <img class=""stim"" src=./stimuli//pack_shapes_diff/cat_2/diff_1/ex_2_1_4.png></img>
    ","null","stimulus","","","","","","",""
"","","","","","html-keyboard-response","21","46560","0.0-4.0-2.3","5f418da10dab34340bd50d60","65576f040411c2a4be0341a4","65576f870665f7de6baa17e9","null","
        <div style=""text-align: center; position: fixed; top: 5vh; left: 40vw;"">
            <div style=""margin:0 auto; width: 20vw; top: 8vh; font-size: 2vw""> 
            <font color=""green""> Bonus : $0 </font>
            </div>
        </div>
    ","null","","","","","","","",""
"","","","","","html-keyboard-response","22","46955","0.0-4.0-3.3","5f418da10dab34340bd50d60","65576f040411c2a4be0341a4","65576f870665f7de6baa17e9","395","./stimuli//pack_shapes_diff/cat_2/diff_1/ex_2_1_4.png","arrowright","response","ArrowRight","4","2","1","train","true",""
"","","","","","html-keyboard-response","23","48461","0.0-4.0-4.3","5f418da10dab34340bd50d60","65576f040411c2a4be0341a4","65576f870665f7de6baa17e9","null","<p> <font color=""green"" size=""5vw""> Correct category! </font> </p>","null","feedback","","","","","","","0"
"","","","","","html-keyboard-response","24","48971","0.0-4.0-0.4","5f418da10dab34340bd50d60","65576f040411c2a4be0341a4","65576f870665f7de6baa17e9","509","
            
        <div style=""text-align: center; position: fixed; top: 5vh; left: 40vw;"">
            <div style=""margin:0 auto; width: 20vw; top: 8vh; font-size: 2vw""> 
            <font color=""green""> Bonus : $0 </font>
            </div>
        </div>
    
            <div> Please press any button to continue to the next trial.</div>
        "," ","ITI","","","","","","",""
"","","","","","html-keyboard-response","25","49587","0.0-4.0-1.4","5f418da10dab34340bd50d60","65576f040411c2a4be0341a4","65576f870665f7de6baa17e9","null","
        
        <div style=""text-align: center; position: fixed; top: 5vh; left: 40vw;"">
            <div style=""margin:0 auto; width: 20vw; top: 8vh; font-size: 2vw""> 
            <font color=""green""> Bonus : $0 </font>
            </div>
        </div>
    
        <img class=""stim"" src=./stimuli//pack_shapes_diff/cat_1/diff_1/ex_1_1_1.png></img>
    ","null","stimulus","","","","","","",""
"","","","","","html-keyboard-response","26","50596","0.0-4.0-2.4","5f418da10dab34340bd50d60","65576f040411c2a4be0341a4","65576f870665f7de6baa17e9","null","
        <div style=""text-align: center; position: fixed; top: 5vh; left: 40vw;"">
            <div style=""margin:0 auto; width: 20vw; top: 8vh; font-size: 2vw""> 
            <font color=""green""> Bonus : $0 </font>
            </div>
        </div>
    ","null","","","","","","","",""
"","","","","","html-keyboard-response","27","50857","0.0-4.0-3.4","5f418da10dab34340bd50d60","65576f040411c2a4be0341a4","65576f870665f7de6baa17e9","260","./stimuli//pack_shapes_diff/cat_1/diff_1/ex_1_1_1.png","arrowleft","response","ArrowLeft","1","1","1","train","true",""
"","","","","","html-keyboard-response","28","52368","0.0-4.0-4.4","5f418da10dab34340bd50d60","65576f040411c2a4be0341a4","65576f870665f7de6baa17e9","null","<p> <font color=""green"" size=""5vw""> Correct category! </font> </p>","null","feedback","","","","","","","0"
"","","","","","html-keyboard-response","29","52692","0.0-4.0-0.5","5f418da10dab34340bd50d60","65576f040411c2a4be0341a4","65576f870665f7de6baa17e9","324","
            
        <div style=""text-align: center; position: fixed; top: 5vh; left: 40vw;"">
            <div style=""margin:0 auto; width: 20vw; top: 8vh; font-size: 2vw""> 
            <font color=""green""> Bonus : $0 </font>
            </div>
        </div>
    
            <div> Please press any button to continue to the next trial.</div>
        "," ","ITI","","","","","","",""
"","","","","","html-keyboard-response","30","53305","0.0-4.0-1.5","5f418da10dab34340bd50d60","65576f040411c2a4be0341a4","65576f870665f7de6baa17e9","null","
        
        <div style=""text-align: center; position: fixed; top: 5vh; left: 40vw;"">
            <div style=""margin:0 auto; width: 20vw; top: 8vh; font-size: 2vw""> 
            <font color=""green""> Bonus : $0 </font>
            </div>
        </div>
    
        <img class=""stim"" src=./stimuli//pack_shapes_diff/cat_2/diff_2/ex_2_2_15.png></img>
    ","null","stimulus","","","","","","",""
"","","","","","html-keyboard-response","31","54313","0.0-4.0-2.5","5f418da10dab34340bd50d60","65576f040411c2a4be0341a4","65576f870665f7de6baa17e9","null","
        <div style=""text-align: center; position: fixed; top: 5vh; left: 40vw;"">
            <div style=""margin:0 auto; width: 20vw; top: 8vh; font-size: 2vw""> 
            <font color=""green""> Bonus : $0 </font>
            </div>
        </div>
    ","null","","","","","","","",""
"","","","","","html-keyboard-response","32","54507","0.0-4.0-3.5","5f418da10dab34340bd50d60","65576f040411c2a4be0341a4","65576f870665f7de6baa17e9","193","./stimuli//pack_shapes_diff/cat_2/diff_2/ex_2_2_15.png","arrowright","response","ArrowRight","15","2","2","train","true",""
"","","","","","html-keyboard-response","33","56009","0.0-4.0-4.5","5f418da10dab34340bd50d60","65576f040411c2a4be0341a4","65576f870665f7de6baa17e9","null","<p> <font color=""green"" size=""5vw""> Correct category! </font> </p>","null","feedback","","","","","","","0"
"","","","","","html-keyboard-response","34","56311","0.0-4.0-0.6","5f418da10dab34340bd50d60","65576f040411c2a4be0341a4","65576f870665f7de6baa17e9","302","
            
        <div style=""text-align: center; position: fixed; top: 5vh; left: 40vw;"">
            <div style=""margin:0 auto; width: 20vw; top: 8vh; font-size: 2vw""> 
            <font color=""green""> Bonus : $0 </font>
            </div>
        </div>
    
            <div> Please press any button to continue to the next trial.</div>
        "," ","ITI","","","","","","",""
"","","","","","html-keyboard-response","35","56912","0.0-4.0-1.6","5f418da10dab34340bd50d60","65576f040411c2a4be0341a4","65576f870665f7de6baa17e9","null","
        
        <div style=""text-align: center; position: fixed; top: 5vh; left: 40vw;"">
            <div style=""margin:0 auto; width: 20vw; top: 8vh; font-size: 2vw""> 
            <font color=""green""> Bonus : $0 </font>
            </div>
        </div>
    
        <img class=""stim"" src=./stimuli//pack_shapes_diff/cat_1/diff_1/ex_1_1_3.png></img>
    ","null","stimulus","","","","","","",""
"","","","","","html-keyboard-response","36","57924","0.0-4.0-2.6","5f418da10dab34340bd50d60","65576f040411c2a4be0341a4","65576f870665f7de6baa17e9","null","
        <div style=""text-align: center; position: fixed; top: 5vh; left: 40vw;"">
            <div style=""margin:0 auto; width: 20vw; top: 8vh; font-size: 2vw""> 
            <font color=""green""> Bonus : $0 </font>
            </div>
        </div>
    ","null","","","","","","","",""
"","","","","","html-keyboard-response","37","58062","0.0-4.0-3.6","5f418da10dab34340bd50d60","65576f040411c2a4be0341a4","65576f870665f7de6baa17e9","138","./stimuli//pack_shapes_diff/cat_1/diff_1/ex_1_1_3.png","arrowleft","response","ArrowLeft","3","1","1","train","true",""
"","","","","","html-keyboard-response","38","59566","0.0-4.0-4.6","5f418da10dab34340bd50d60","65576f040411c2a4be0341a4","65576f870665f7de6baa17e9","null","<p> <font color=""green"" size=""5vw""> Correct category! </font> </p>","null","feedback","","","","","","","0"
"","","","","","html-keyboard-response","39","59987","0.0-4.0-0.7","5f418da10dab34340bd50d60","65576f040411c2a4be0341a4","65576f870665f7de6baa17e9","421","
            
        <div style=""text-align: center; position: fixed; top: 5vh; left: 40vw;"">
            <div style=""margin:0 auto; width: 20vw; top: 8vh; font-size: 2vw""> 
            <font color=""green""> Bonus : $0 </font>
            </div>
        </div>
    
            <div> Please press any button to continue to the next trial.</div>
        "," ","ITI","","","","","","",""
"","","","","","html-keyboard-response","40","60593","0.0-4.0-1.7","5f418da10dab34340bd50d60","65576f040411c2a4be0341a4","65576f870665f7de6baa17e9","null","
        
        <div style=""text-align: center; position: fixed; top: 5vh; left: 40vw;"">
            <div style=""margin:0 auto; width: 20vw; top: 8vh; font-size: 2vw""> 
            <font color=""green""> Bonus : $0 </font>
            </div>
        </div>
    
        <img class=""stim"" src=./stimuli//pack_shapes_diff/cat_2/diff_2/ex_2_2_12.png></img>
    ","null","stimulus","","","","","","",""
"","","","","","html-keyboard-response","41","61603","0.0-4.0-2.7","5f418da10dab34340bd50d60","65576f040411c2a4be0341a4","65576f870665f7de6baa17e9","null","
        <div style=""text-align: center; position: fixed; top: 5vh; left: 40vw;"">
            <div style=""margin:0 auto; width: 20vw; top: 8vh; font-size: 2vw""> 
            <font color=""green""> Bonus : $0 </font>
            </div>
        </div>
    ","null","","","","","","","",""
"","","","","","html-keyboard-response","42","61952","0.0-4.0-3.7","5f418da10dab34340bd50d60","65576f040411c2a4be0341a4","65576f870665f7de6baa17e9","348","./stimuli//pack_shapes_diff/cat_2/diff_2/ex_2_2_12.png","arrowright","response","ArrowRight","12","2","2","train","true",""
"","","","","","html-keyboard-response","43","63455","0.0-4.0-4.7","5f418da10dab34340bd50d60","65576f040411c2a4be0341a4","65576f870665f7de6baa17e9","null","<p> <font color=""green"" size=""5vw""> Correct category! </font> </p>","null","feedback","","","","","","","0"
"","","","","","html-keyboard-response","44","63886","0.0-4.0-0.8","5f418da10dab34340bd50d60","65576f040411c2a4be0341a4","65576f870665f7de6baa17e9","431","
            
        <div style=""text-align: center; position: fixed; top: 5vh; left: 40vw;"">
            <div style=""margin:0 auto; width: 20vw; top: 8vh; font-size: 2vw""> 
            <font color=""green""> Bonus : $0 </font>
            </div>
        </div>
    
            <div> Please press any button to continue to the next trial.</div>
        "," ","ITI","","","","","","",""
"","","","","","html-keyboard-response","45","64496","0.0-4.0-1.8","5f418da10dab34340bd50d60","65576f040411c2a4be0341a4","65576f870665f7de6baa17e9","null","
        
        <div style=""text-align: center; position: fixed; top: 5vh; left: 40vw;"">
            <div style=""margin:0 auto; width: 20vw; top: 8vh; font-size: 2vw""> 
            <font color=""green""> Bonus : $0 </font>
            </div>
        </div>
    
        <img class=""stim"" src=./stimuli//pack_shapes_diff/cat_1/diff_2/ex_1_2_9.png></img>
    ","null","stimulus","","","","","","",""
"","","","","","html-keyboard-response","46","65506","0.0-4.0-2.8","5f418da10dab34340bd50d60","65576f040411c2a4be0341a4","65576f870665f7de6baa17e9","null","
        <div style=""text-align: center; position: fixed; top: 5vh; left: 40vw;"">
            <div style=""margin:0 auto; width: 20vw; top: 8vh; font-size: 2vw""> 
            <font color=""green""> Bonus : $0 </font>
            </div>
        </div>
    ","null","","","","","","","",""
"","","","","","html-keyboard-response","47","65721","0.0-4.0-3.8","5f418da10dab34340bd50d60","65576f040411c2a4be0341a4","65576f870665f7de6baa17e9","213","./stimuli//pack_shapes_diff/cat_1/diff_2/ex_1_2_9.png","arrowleft","response","ArrowLeft","9","1","2","train","true",""
"","","","","","html-keyboard-response","48","67235","0.0-4.0-4.8","5f418da10dab34340bd50d60","65576f040411c2a4be0341a4","65576f870665f7de6baa17e9","null","<p> <font color=""green"" size=""5vw""> Correct category! </font> </p>","null","feedback","","","","","","","0"
"","","","","","html-keyboard-response","49","67681","0.0-4.0-0.9","5f418da10dab34340bd50d60","65576f040411c2a4be0341a4","65576f870665f7de6baa17e9","445","
            
        <div style=""text-align: center; position: fixed; top: 5vh; left: 40vw;"">
            <div style=""margin:0 auto; width: 20vw; top: 8vh; font-size: 2vw""> 
            <font color=""green""> Bonus : $0 </font>
            </div>
        </div>
    
            <div> Please press any button to continue to the next trial.</div>
        "," ","ITI","","","","","","",""
"","","","","","html-keyboard-response","50","68284","0.0-4.0-1.9","5f418da10dab34340bd50d60","65576f040411c2a4be0341a4","65576f870665f7de6baa17e9","null","
        
        <div style=""text-align: center; position: fixed; top: 5vh; left: 40vw;"">
            <div style=""margin:0 auto; width: 20vw; top: 8vh; font-size: 2vw""> 
            <font color=""green""> Bonus : $0 </font>
            </div>
        </div>
    
        <img class=""stim"" src=./stimuli//pack_shapes_diff/cat_2/diff_1/ex_2_1_15.png></img>
    ","null","stimulus","","","","","","",""
"","","","","","html-keyboard-response","51","69294","0.0-4.0-2.9","5f418da10dab34340bd50d60","65576f040411c2a4be0341a4","65576f870665f7de6baa17e9","null","
        <div style=""text-align: center; position: fixed; top: 5vh; left: 40vw;"">
            <div style=""margin:0 auto; width: 20vw; top: 8vh; font-size: 2vw""> 
            <font color=""green""> Bonus : $0 </font>
            </div>
        </div>
    ","null","","","","","","","",""
"","","","","","html-keyboard-response","52","69511","0.0-4.0-3.9","5f418da10dab34340bd50d60","65576f040411c2a4be0341a4","65576f870665f7de6baa17e9","216","./stimuli//pack_shapes_diff/cat_2/diff_1/ex_2_1_15.png","arrowright","response","ArrowRight","15","2","1","train","true",""
"","","","","","html-keyboard-response","53","71020","0.0-4.0-4.9","5f418da10dab34340bd50d60","65576f040411c2a4be0341a4","65576f870665f7de6baa17e9","null","<p> <font color=""green"" size=""5vw""> Correct category! </font> </p>","null","feedback","","","","","","","0"
"","","","","","html-keyboard-response","54","73214","0.0-5.0","5f418da10dab34340bd50d60","65576f040411c2a4be0341a4","65576f870665f7de6baa17e9","2193","
            <b> <p> The practice round has finished.</p>
            <b> For the rest of the experiment you will receive a $0.05 bonus for each correct answer!</b>
            <p> Press any key to begin the test. </p>
            "," ","intermission","","","","","","",""
"","","","","","html-keyboard-response","55","74227","0.0-6.0-0.0","5f418da10dab34340bd50d60","65576f040411c2a4be0341a4","65576f870665f7de6baa17e9","1012","
            
        <div style=""text-align: center; position: fixed; top: 5vh; left: 40vw;"">
            <div style=""margin:0 auto; width: 20vw; top: 8vh; font-size: 2vw""> 
            <font color=""green""> Bonus : $0 </font>
            </div>
        </div>
    
            <div> Please press any button to continue to the next trial.</div>
        "," ","ITI","","","","","","",""
"","","","","","html-keyboard-response","56","74832","0.0-6.0-1.0","5f418da10dab34340bd50d60","65576f040411c2a4be0341a4","65576f870665f7de6baa17e9","null","
        
        <div style=""text-align: center; position: fixed; top: 5vh; left: 40vw;"">
            <div style=""margin:0 auto; width: 20vw; top: 8vh; font-size: 2vw""> 
            <font color=""green""> Bonus : $0 </font>
            </div>
        </div>
    
        <img class=""stim"" src=./stimuli//pack_shapes_diff/cat_1/diff_1/ex_1_1_11.png></img>
    ","null","stimulus","","","","","","",""
"","","","","","html-keyboard-response","57","75838","0.0-6.0-2.0","5f418da10dab34340bd50d60","65576f040411c2a4be0341a4","65576f870665f7de6baa17e9","null","
        <div style=""text-align: center; position: fixed; top: 5vh; left: 40vw;"">
            <div style=""margin:0 auto; width: 20vw; top: 8vh; font-size: 2vw""> 
            <font color=""green""> Bonus : $0 </font>
            </div>
        </div>
    ","null","","","","","","","",""
"","","","","","html-keyboard-response","58","76119","0.0-6.0-3.0","5f418da10dab34340bd50d60","65576f040411c2a4be0341a4","65576f870665f7de6baa17e9","281","./stimuli//pack_shapes_diff/cat_1/diff_1/ex_1_1_11.png","arrowleft","response","ArrowLeft","11","1","1","test","true",""
"","","","","","html-keyboard-response","59","77627","0.0-6.0-4.0","5f418da10dab34340bd50d60","65576f040411c2a4be0341a4","65576f870665f7de6baa17e9","null","<p> <font color=""green"" size=""5vw""> Correct category! </font> <br> <br> <font color=""green"" size=""8vw""> + $0.05 </font> </p>","null","feedback","","","","","","","0.05"
"","","","","","html-keyboard-response","60","78002","0.0-6.1-0.1","5f418da10dab34340bd50d60","65576f040411c2a4be0341a4","65576f870665f7de6baa17e9","373","
            
        <div style=""text-align: center; position: fixed; top: 5vh; left: 40vw;"">
            <div style=""margin:0 auto; width: 20vw; top: 8vh; font-size: 2vw""> 
            <font color=""green""> Bonus : $0.05 </font>
            </div>
        </div>
    
            <div> Please press any button to continue to the next trial.</div>
        "," ","ITI","","","","","","",""
"","","","","","html-keyboard-response","61","78615","0.0-6.1-1.1","5f418da10dab34340bd50d60","65576f040411c2a4be0341a4","65576f870665f7de6baa17e9","null","
        
        <div style=""text-align: center; position: fixed; top: 5vh; left: 40vw;"">
            <div style=""margin:0 auto; width: 20vw; top: 8vh; font-size: 2vw""> 
            <font color=""green""> Bonus : $0.05 </font>
            </div>
        </div>
    
        <img class=""stim"" src=./stimuli//pack_shapes_diff/cat_2/diff_1/ex_2_1_13.png></img>
    ","null","stimulus","","","","","","",""
"","","","","","html-keyboard-response","62","79625","0.0-6.1-2.1","5f418da10dab34340bd50d60","65576f040411c2a4be0341a4","65576f870665f7de6baa17e9","null","
        <div style=""text-align: center; position: fixed; top: 5vh; left: 40vw;"">
            <div style=""margin:0 auto; width: 20vw; top: 8vh; font-size: 2vw""> 
            <font color=""green""> Bonus : $0.05 </font>
            </div>
        </div>
    ","null","","","","","","","",""
"","","","","","html-keyboard-response","63","79860","0.0-6.1-3.1","5f418da10dab34340bd50d60","65576f040411c2a4be0341a4","65576f870665f7de6baa17e9","234","./stimuli//pack_shapes_diff/cat_2/diff_1/ex_2_1_13.png","arrowright","response","ArrowRight","13","2","1","test","true",""
"","","","","","html-keyboard-response","64","81374","0.0-6.1-4.1","5f418da10dab34340bd50d60","65576f040411c2a4be0341a4","65576f870665f7de6baa17e9","null","<p> <font color=""green"" size=""5vw""> Correct category! </font> <br> <br> <font color=""green"" size=""8vw""> + $0.05 </font> </p>","null","feedback","","","","","","","0.1"
"","","","","","html-keyboard-response","65","81682","0.0-6.2-0.2","5f418da10dab34340bd50d60","65576f040411c2a4be0341a4","65576f870665f7de6baa17e9","307","
            
        <div style=""text-align: center; position: fixed; top: 5vh; left: 40vw;"">
            <div style=""margin:0 auto; width: 20vw; top: 8vh; font-size: 2vw""> 
            <font color=""green""> Bonus : $0.1 </font>
            </div>
        </div>
    
            <div> Please press any button to continue to the next trial.</div>
        "," ","ITI","","","","","","",""
"","","","","","html-keyboard-response","66","82296","0.0-6.2-1.2","5f418da10dab34340bd50d60","65576f040411c2a4be0341a4","65576f870665f7de6baa17e9","null","
        
        <div style=""text-align: center; position: fixed; top: 5vh; left: 40vw;"">
            <div style=""margin:0 auto; width: 20vw; top: 8vh; font-size: 2vw""> 
            <font color=""green""> Bonus : $0.1 </font>
            </div>
        </div>
    
        <img class=""stim"" src=./stimuli//pack_shapes_diff/cat_2/diff_1/ex_2_1_9.png></img>
    ","null","stimulus","","","","","","",""
"","","","","","html-keyboard-response","67","83304","0.0-6.2-2.2","5f418da10dab34340bd50d60","65576f040411c2a4be0341a4","65576f870665f7de6baa17e9","null","
        <div style=""text-align: center; position: fixed; top: 5vh; left: 40vw;"">
            <div style=""margin:0 auto; width: 20vw; top: 8vh; font-size: 2vw""> 
            <font color=""green""> Bonus : $0.1 </font>
            </div>
        </div>
    ","null","","","","","","","",""
"","","","","","html-keyboard-response","68","83694","0.0-6.2-3.2","5f418da10dab34340bd50d60","65576f040411c2a4be0341a4","65576f870665f7de6baa17e9","389","./stimuli//pack_shapes_diff/cat_2/diff_1/ex_2_1_9.png","arrowright","response","ArrowRight","9","2","1","test","true",""
"","","","","","html-keyboard-response","69","85207","0.0-6.2-4.2","5f418da10dab34340bd50d60","65576f040411c2a4be0341a4","65576f870665f7de6baa17e9","null","<p> <font color=""green"" size=""5vw""> Correct category! </font> <br> <br> <font color=""green"" size=""8vw""> + $0.05 </font> </p>","null","feedback","","","","","","","0.15"
"","","","","","html-keyboard-response","70","85654","0.0-6.3-0.3","5f418da10dab34340bd50d60","65576f040411c2a4be0341a4","65576f870665f7de6baa17e9","446","
            
        <div style=""text-align: center; position: fixed; top: 5vh; left: 40vw;"">
            <div style=""margin:0 auto; width: 20vw; top: 8vh; font-size: 2vw""> 
            <font color=""green""> Bonus : $0.15 </font>
            </div>
        </div>
    
            <div> Please press any button to continue to the next trial.</div>
        "," ","ITI","","","","","","",""
"","","","","","html-keyboard-response","71","86270","0.0-6.3-1.3","5f418da10dab34340bd50d60","65576f040411c2a4be0341a4","65576f870665f7de6baa17e9","null","
        
        <div style=""text-align: center; position: fixed; top: 5vh; left: 40vw;"">
            <div style=""margin:0 auto; width: 20vw; top: 8vh; font-size: 2vw""> 
            <font color=""green""> Bonus : $0.15 </font>
            </div>
        </div>
    
        <img class=""stim"" src=./stimuli//pack_shapes_diff/cat_2/diff_1/ex_2_1_1.png></img>
    ","null","stimulus","","","","","","",""
"","","","","","html-keyboard-response","72","87278","0.0-6.3-2.3","5f418da10dab34340bd50d60","65576f040411c2a4be0341a4","65576f870665f7de6baa17e9","null","
        <div style=""text-align: center; position: fixed; top: 5vh; left: 40vw;"">
            <div style=""margin:0 auto; width: 20vw; top: 8vh; font-size: 2vw""> 
            <font color=""green""> Bonus : $0.15 </font>
            </div>
        </div>
    ","null","","","","","","","",""
"","","","","","html-keyboard-response","73","87557","0.0-6.3-3.3","5f418da10dab34340bd50d60","65576f040411c2a4be0341a4","65576f870665f7de6baa17e9","279","./stimuli//pack_shapes_diff/cat_2/diff_1/ex_2_1_1.png","arrowright","response","ArrowRight","1","2","1","test","true",""
"","","","","","html-keyboard-response","74","89062","0.0-6.3-4.3","5f418da10dab34340bd50d60","65576f040411c2a4be0341a4","65576f870665f7de6baa17e9","null","<p> <font color=""green"" size=""5vw""> Correct category! </font> <br> <br> <font color=""green"" size=""8vw""> + $0.05 </font> </p>","null","feedback","","","","","","","0.2"
"","","","","","html-keyboard-response","75","89444","0.0-6.4-0.4","5f418da10dab34340bd50d60","65576f040411c2a4be0341a4","65576f870665f7de6baa17e9","381","
            
        <div style=""text-align: center; position: fixed; top: 5vh; left: 40vw;"">
            <div style=""margin:0 auto; width: 20vw; top: 8vh; font-size: 2vw""> 
            <font color=""green""> Bonus : $0.2 </font>
            </div>
        </div>
    
            <div> Please press any button to continue to the next trial.</div>
        "," ","ITI","","","","","","",""
"","","","","","html-keyboard-response","76","90047","0.0-6.4-1.4","5f418da10dab34340bd50d60","65576f040411c2a4be0341a4","65576f870665f7de6baa17e9","null","
        
        <div style=""text-align: center; position: fixed; top: 5vh; left: 40vw;"">
            <div style=""margin:0 auto; width: 20vw; top: 8vh; font-size: 2vw""> 
            <font color=""green""> Bonus : $0.2 </font>
            </div>
        </div>
    
        <img class=""stim"" src=./stimuli//pack_shapes_diff/cat_1/diff_1/ex_1_1_10.png></img>
    ","null","stimulus","","","","","","",""
"","","","","","html-keyboard-response","77","91059","0.0-6.4-2.4","5f418da10dab34340bd50d60","65576f040411c2a4be0341a4","65576f870665f7de6baa17e9","null","
        <div style=""text-align: center; position: fixed; top: 5vh; left: 40vw;"">
            <div style=""margin:0 auto; width: 20vw; top: 8vh; font-size: 2vw""> 
            <font color=""green""> Bonus : $0.2 </font>
            </div>
        </div>
    ","null","","","","","","","",""
"","","","","","html-keyboard-response","78","91325","0.0-6.4-3.4","5f418da10dab34340bd50d60","65576f040411c2a4be0341a4","65576f870665f7de6baa17e9","265","./stimuli//pack_shapes_diff/cat_1/diff_1/ex_1_1_10.png","arrowleft","response","ArrowLeft","10","1","1","test","true",""
"","","","","","html-keyboard-response","79","92827","0.0-6.4-4.4","5f418da10dab34340bd50d60","65576f040411c2a4be0341a4","65576f870665f7de6baa17e9","null","<p> <font color=""green"" size=""5vw""> Correct category! </font> <br> <br> <font color=""green"" size=""8vw""> + $0.05 </font> </p>","null","feedback","","","","","","","0.25"
"","","","","","html-keyboard-response","80","93336","0.0-6.5-0.5","5f418da10dab34340bd50d60","65576f040411c2a4be0341a4","65576f870665f7de6baa17e9","509","
            
        <div style=""text-align: center; position: fixed; top: 5vh; left: 40vw;"">
            <div style=""margin:0 auto; width: 20vw; top: 8vh; font-size: 2vw""> 
            <font color=""green""> Bonus : $0.25 </font>
            </div>
        </div>
    
            <div> Please press any button to continue to the next trial.</div>
        "," ","ITI","","","","","","",""
"","","","","","html-keyboard-response","81","93949","0.0-6.5-1.5","5f418da10dab34340bd50d60","65576f040411c2a4be0341a4","65576f870665f7de6baa17e9","null","
        
        <div style=""text-align: center; position: fixed; top: 5vh; left: 40vw;"">
            <div style=""margin:0 auto; width: 20vw; top: 8vh; font-size: 2vw""> 
            <font color=""green""> Bonus : $0.25 </font>
            </div>
        </div>
    
        <img class=""stim"" src=./stimuli//pack_shapes_diff/cat_2/diff_2/ex_2_2_4.png></img>
    ","null","stimulus","","","","","","",""
"","","","","","html-keyboard-response","82","94956","0.0-6.5-2.5","5f418da10dab34340bd50d60","65576f040411c2a4be0341a4","65576f870665f7de6baa17e9","null","
        <div style=""text-align: center; position: fixed; top: 5vh; left: 40vw;"">
            <div style=""margin:0 auto; width: 20vw; top: 8vh; font-size: 2vw""> 
            <font color=""green""> Bonus : $0.25 </font>
            </div>
        </div>
    ","null","","","","","","","",""
"","","","","","html-keyboard-response","83","95995","0.0-6.5-3.5","5f418da10dab34340bd50d60","65576f040411c2a4be0341a4","65576f870665f7de6baa17e9","1039","./stimuli//pack_shapes_diff/cat_2/diff_2/ex_2_2_4.png","arrowright","response","ArrowRight","4","2","2","test","true",""
"","","","","","html-keyboard-response","84","97501","0.0-6.5-4.5","5f418da10dab34340bd50d60","65576f040411c2a4be0341a4","65576f870665f7de6baa17e9","null","<p> <font color=""green"" size=""5vw""> Correct category! </font> <br> <br> <font color=""green"" size=""8vw""> + $0.05 </font> </p>","null","feedback","","","","","","","0.3"
"","","","","","html-keyboard-response","85","98274","0.0-6.6-0.6","5f418da10dab34340bd50d60","65576f040411c2a4be0341a4","65576f870665f7de6baa17e9","772","
            
        <div style=""text-align: center; position: fixed; top: 5vh; left: 40vw;"">
            <div style=""margin:0 auto; width: 20vw; top: 8vh; font-size: 2vw""> 
            <font color=""green""> Bonus : $0.3 </font>
            </div>
        </div>
    
            <div> Please press any button to continue to the next trial.</div>
        "," ","ITI","","","","","","",""
"","","","","","html-keyboard-response","86","98884","0.0-6.6-1.6","5f418da10dab34340bd50d60","65576f040411c2a4be0341a4","65576f870665f7de6baa17e9","null","
        
        <div style=""text-align: center; position: fixed; top: 5vh; left: 40vw;"">
            <div style=""margin:0 auto; width: 20vw; top: 8vh; font-size: 2vw""> 
            <font color=""green""> Bonus : $0.3 </font>
            </div>
        </div>
    
        <img class=""stim"" src=./stimuli//pack_shapes_diff/cat_1/diff_2/ex_1_2_15.png></img>
    ","null","stimulus","","","","","","",""
"","","","","","html-keyboard-response","87","99895","0.0-6.6-2.6","5f418da10dab34340bd50d60","65576f040411c2a4be0341a4","65576f870665f7de6baa17e9","null","
        <div style=""text-align: center; position: fixed; top: 5vh; left: 40vw;"">
            <div style=""margin:0 auto; width: 20vw; top: 8vh; font-size: 2vw""> 
            <font color=""green""> Bonus : $0.3 </font>
            </div>
        </div>
    ","null","","","","","","","",""
"","","","","","html-keyboard-response","88","100184","0.0-6.6-3.6","5f418da10dab34340bd50d60","65576f040411c2a4be0341a4","65576f870665f7de6baa17e9","288","./stimuli//pack_shapes_diff/cat_1/diff_2/ex_1_2_15.png","arrowleft","response","ArrowLeft","15","1","2","test","true",""
"","","","","","html-keyboard-response","89","101686","0.0-6.6-4.6","5f418da10dab34340bd50d60","65576f040411c2a4be0341a4","65576f870665f7de6baa17e9","null","<p> <font color=""green"" size=""5vw""> Correct category! </font> <br> <br> <font color=""green"" size=""8vw""> + $0.05 </font> </p>","null","feedback","","","","","","","0.35"
"","","","","","html-keyboard-response","90","102125","0.0-6.7-0.7","5f418da10dab34340bd50d60","65576f040411c2a4be0341a4","65576f870665f7de6baa17e9","438","
            
        <div style=""text-align: center; position: fixed; top: 5vh; left: 40vw;"">
            <div style=""margin:0 auto; width: 20vw; top: 8vh; font-size: 2vw""> 
            <font color=""green""> Bonus : $0.35 </font>
            </div>
        </div>
    
            <div> Please press any button to continue to the next trial.</div>
        "," ","ITI","","","","","","",""
"","","","","","html-keyboard-response","91","102726","0.0-6.7-1.7","5f418da10dab34340bd50d60","65576f040411c2a4be0341a4","65576f870665f7de6baa17e9","null","
        
        <div style=""text-align: center; position: fixed; top: 5vh; left: 40vw;"">
            <div style=""margin:0 auto; width: 20vw; top: 8vh; font-size: 2vw""> 
            <font color=""green""> Bonus : $0.35 </font>
            </div>
        </div>
    
        <img class=""stim"" src=./stimuli//pack_shapes_diff/cat_1/diff_2/ex_1_2_13.png></img>
    ","null","stimulus","","","","","","",""
"","","","","","html-keyboard-response","92","103733","0.0-6.7-2.7","5f418da10dab34340bd50d60","65576f040411c2a4be0341a4","65576f870665f7de6baa17e9","null","
        <div style=""text-align: center; position: fixed; top: 5vh; left: 40vw;"">
            <div style=""margin:0 auto; width: 20vw; top: 8vh; font-size: 2vw""> 
            <font color=""green""> Bonus : $0.35 </font>
            </div>
        </div>
    ","null","","","","","","","",""
"","","","","","html-keyboard-response","93","104018","0.0-6.7-3.7","5f418da10dab34340bd50d60","65576f040411c2a4be0341a4","65576f870665f7de6baa17e9","285","./stimuli//pack_shapes_diff/cat_1/diff_2/ex_1_2_13.png","arrowleft","response","ArrowLeft","13","1","2","test","true",""
"","","","","","html-keyboard-response","94","105531","0.0-6.7-4.7","5f418da10dab34340bd50d60","65576f040411c2a4be0341a4","65576f870665f7de6baa17e9","null","<p> <font color=""green"" size=""5vw""> Correct category! </font> <br> <br> <font color=""green"" size=""8vw""> + $0.05 </font> </p>","null","feedback","","","","","","","0.4"
"","","","","","html-keyboard-response","95","105788","0.0-6.8-0.8","5f418da10dab34340bd50d60","65576f040411c2a4be0341a4","65576f870665f7de6baa17e9","256","
            
        <div style=""text-align: center; position: fixed; top: 5vh; left: 40vw;"">
            <div style=""margin:0 auto; width: 20vw; top: 8vh; font-size: 2vw""> 
            <font color=""green""> Bonus : $0.4 </font>
            </div>
        </div>
    
            <div> Please press any button to continue to the next trial.</div>
        "," ","ITI","","","","","","",""
"","","","","","html-keyboard-response","96","106403","0.0-6.8-1.8","5f418da10dab34340bd50d60","65576f040411c2a4be0341a4","65576f870665f7de6baa17e9","null","
        
        <div style=""text-align: center; position: fixed; top: 5vh; left: 40vw;"">
            <div style=""margin:0 auto; width: 20vw; top: 8vh; font-size: 2vw""> 
            <font color=""green""> Bonus : $0.4 </font>
            </div>
        </div>
    
        <img class=""stim"" src=./stimuli//pack_shapes_diff/cat_2/diff_2/ex_2_2_7.png></img>
    ","null","stimulus","","","","","","",""
"","","","","","html-keyboard-response","97","107411","0.0-6.8-2.8","5f418da10dab34340bd50d60","65576f040411c2a4be0341a4","65576f870665f7de6baa17e9","null","
        <div style=""text-align: center; position: fixed; top: 5vh; left: 40vw;"">
            <div style=""margin:0 auto; width: 20vw; top: 8vh; font-size: 2vw""> 
            <font color=""green""> Bonus : $0.4 </font>
            </div>
        </div>
    ","null","","","","","","","",""
"","","","","","html-keyboard-response","98","107686","0.0-6.8-3.8","5f418da10dab34340bd50d60","65576f040411c2a4be0341a4","65576f870665f7de6baa17e9","274","./stimuli//pack_shapes_diff/cat_2/diff_2/ex_2_2_7.png","arrowright","response","ArrowRight","7","2","2","test","true",""
"","","","","","html-keyboard-response","99","109194","0.0-6.8-4.8","5f418da10dab34340bd50d60","65576f040411c2a4be0341a4","65576f870665f7de6baa17e9","null","<p> <font color=""green"" size=""5vw""> Correct category! </font> <br> <br> <font color=""green"" size=""8vw""> + $0.05 </font> </p>","null","feedback","","","","","","","0.45"
"","","","","","html-keyboard-response","100","109404","0.0-6.9-0.9","5f418da10dab34340bd50d60","65576f040411c2a4be0341a4","65576f870665f7de6baa17e9","210","
            
        <div style=""text-align: center; position: fixed; top: 5vh; left: 40vw;"">
            <div style=""margin:0 auto; width: 20vw; top: 8vh; font-size: 2vw""> 
            <font color=""green""> Bonus : $0.45 </font>
            </div>
        </div>
    
            <div> Please press any button to continue to the next trial.</div>
        "," ","ITI","","","","","","",""
"","","","","","html-keyboard-response","101","110011","0.0-6.9-1.9","5f418da10dab34340bd50d60","65576f040411c2a4be0341a4","65576f870665f7de6baa17e9","null","
        
        <div style=""text-align: center; position: fixed; top: 5vh; left: 40vw;"">
            <div style=""margin:0 auto; width: 20vw; top: 8vh; font-size: 2vw""> 
            <font color=""green""> Bonus : $0.45 </font>
            </div>
        </div>
    
        <img class=""stim"" src=./stimuli//pack_shapes_diff/cat_2/diff_2/ex_2_2_13.png></img>
    ","null","stimulus","","","","","","",""
"","","","","","html-keyboard-response","102","111023","0.0-6.9-2.9","5f418da10dab34340bd50d60","65576f040411c2a4be0341a4","65576f870665f7de6baa17e9","null","
        <div style=""text-align: center; position: fixed; top: 5vh; left: 40vw;"">
            <div style=""margin:0 auto; width: 20vw; top: 8vh; font-size: 2vw""> 
            <font color=""green""> Bonus : $0.45 </font>
            </div>
        </div>
    ","null","","","","","","","",""
"","","","","","html-keyboard-response","103","111259","0.0-6.9-3.9","5f418da10dab34340bd50d60","65576f040411c2a4be0341a4","65576f870665f7de6baa17e9","235","./stimuli//pack_shapes_diff/cat_2/diff_2/ex_2_2_13.png","arrowright","response","ArrowRight","13","2","2","test","true",""
"","","","","","html-keyboard-response","104","112771","0.0-6.9-4.9","5f418da10dab34340bd50d60","65576f040411c2a4be0341a4","65576f870665f7de6baa17e9","null","<p> <font color=""green"" size=""5vw""> Correct category! </font> <br> <br> <font color=""green"" size=""8vw""> + $0.05 </font> </p>","null","feedback","","","","","","","0.5"
"","","","","","html-keyboard-response","105","113173","0.0-6.10-0.10","5f418da10dab34340bd50d60","65576f040411c2a4be0341a4","65576f870665f7de6baa17e9","401","
            
        <div style=""text-align: center; position: fixed; top: 5vh; left: 40vw;"">
            <div style=""margin:0 auto; width: 20vw; top: 8vh; font-size: 2vw""> 
            <font color=""green""> Bonus : $0.5 </font>
            </div>
        </div>
    
            <div> Please press any button to continue to the next trial.</div>
        "," ","ITI","","","","","","",""
"","","","","","html-keyboard-response","106","113783","0.0-6.10-1.10","5f418da10dab34340bd50d60","65576f040411c2a4be0341a4","65576f870665f7de6baa17e9","null","
        
        <div style=""text-align: center; position: fixed; top: 5vh; left: 40vw;"">
            <div style=""margin:0 auto; width: 20vw; top: 8vh; font-size: 2vw""> 
            <font color=""green""> Bonus : $0.5 </font>
            </div>
        </div>
    
        <img class=""stim"" src=./stimuli//pack_shapes_diff/cat_1/diff_3/ex_1_3_1.png></img>
    ","null","stimulus","","","","","","",""
"","","","","","html-keyboard-response","107","114791","0.0-6.10-2.10","5f418da10dab34340bd50d60","65576f040411c2a4be0341a4","65576f870665f7de6baa17e9","null","
        <div style=""text-align: center; position: fixed; top: 5vh; left: 40vw;"">
            <div style=""margin:0 auto; width: 20vw; top: 8vh; font-size: 2vw""> 
            <font color=""green""> Bonus : $0.5 </font>
            </div>
        </div>
    ","null","","","","","","","",""
"","","","","","html-keyboard-response","108","115046","0.0-6.10-3.10","5f418da10dab34340bd50d60","65576f040411c2a4be0341a4","65576f870665f7de6baa17e9","255","./stimuli//pack_shapes_diff/cat_1/diff_3/ex_1_3_1.png","arrowleft","response","ArrowLeft","1","1","3","test","true",""
"","","","","","html-keyboard-response","109","116559","0.0-6.10-4.10","5f418da10dab34340bd50d60","65576f040411c2a4be0341a4","65576f870665f7de6baa17e9","null","<p> <font color=""green"" size=""5vw""> Correct category! </font> <br> <br> <font color=""green"" size=""8vw""> + $0.05 </font> </p>","null","feedback","","","","","","","0.55"
"","","","","","html-keyboard-response","110","116935","0.0-6.11-0.11","5f418da10dab34340bd50d60","65576f040411c2a4be0341a4","65576f870665f7de6baa17e9","376","
            
        <div style=""text-align: center; position: fixed; top: 5vh; left: 40vw;"">
            <div style=""margin:0 auto; width: 20vw; top: 8vh; font-size: 2vw""> 
            <font color=""green""> Bonus : $0.55 </font>
            </div>
        </div>
    
            <div> Please press any button to continue to the next trial.</div>
        "," ","ITI","","","","","","",""
"","","","","","html-keyboard-response","111","117542","0.0-6.11-1.11","5f418da10dab34340bd50d60","65576f040411c2a4be0341a4","65576f870665f7de6baa17e9","null","
        
        <div style=""text-align: center; position: fixed; top: 5vh; left: 40vw;"">
            <div style=""margin:0 auto; width: 20vw; top: 8vh; font-size: 2vw""> 
            <font color=""green""> Bonus : $0.55 </font>
            </div>
        </div>
    
        <img class=""stim"" src=./stimuli//pack_shapes_diff/cat_1/diff_3/ex_1_3_14.png></img>
    ","null","stimulus","","","","","","",""
"","","","","","html-keyboard-response","112","118553","0.0-6.11-2.11","5f418da10dab34340bd50d60","65576f040411c2a4be0341a4","65576f870665f7de6baa17e9","null","
        <div style=""text-align: center; position: fixed; top: 5vh; left: 40vw;"">
            <div style=""margin:0 auto; width: 20vw; top: 8vh; font-size: 2vw""> 
            <font color=""green""> Bonus : $0.55 </font>
            </div>
        </div>
    ","null","","","","","","","",""
"","","","","","html-keyboard-response","113","118798","0.0-6.11-3.11","5f418da10dab34340bd50d60","65576f040411c2a4be0341a4","65576f870665f7de6baa17e9","244","./stimuli//pack_shapes_diff/cat_1/diff_3/ex_1_3_14.png","arrowleft","response","ArrowLeft","14","1","3","test","true",""
"","","","","","html-keyboard-response","114","120303","0.0-6.11-4.11","5f418da10dab34340bd50d60","65576f040411c2a4be0341a4","65576f870665f7de6baa17e9","null","<p> <font color=""green"" size=""5vw""> Correct category! </font> <br> <br> <font color=""green"" size=""8vw""> + $0.05 </font> </p>","null","feedback","","","","","","","0.6"
"","","","","","html-keyboard-response","115","120735","0.0-6.12-0.12","5f418da10dab34340bd50d60","65576f040411c2a4be0341a4","65576f870665f7de6baa17e9","430","
            
        <div style=""text-align: center; position: fixed; top: 5vh; left: 40vw;"">
            <div style=""margin:0 auto; width: 20vw; top: 8vh; font-size: 2vw""> 
            <font color=""green""> Bonus : $0.6 </font>
            </div>
        </div>
    
            <div> Please press any button to continue to the next trial.</div>
        "," ","ITI","","","","","","",""
"","","","","","html-keyboard-response","116","121344","0.0-6.12-1.12","5f418da10dab34340bd50d60","65576f040411c2a4be0341a4","65576f870665f7de6baa17e9","null","
        
        <div style=""text-align: center; position: fixed; top: 5vh; left: 40vw;"">
            <div style=""margin:0 auto; width: 20vw; top: 8vh; font-size: 2vw""> 
            <font color=""green""> Bonus : $0.6 </font>
            </div>
        </div>
    
        <img class=""stim"" src=./stimuli//pack_shapes_diff/cat_1/diff_3/ex_1_3_5.png></img>
    ","null","stimulus","","","","","","",""
"","","","","","html-keyboard-response","117","122356","0.0-6.12-2.12","5f418da10dab34340bd50d60","65576f040411c2a4be0341a4","65576f870665f7de6baa17e9","null","
        <div style=""text-align: center; position: fixed; top: 5vh; left: 40vw;"">
            <div style=""margin:0 auto; width: 20vw; top: 8vh; font-size: 2vw""> 
            <font color=""green""> Bonus : $0.6 </font>
            </div>
        </div>
    ","null","","","","","","","",""
"","","","","","html-keyboard-response","118","122590","0.0-6.12-3.12","5f418da10dab34340bd50d60","65576f040411c2a4be0341a4","65576f870665f7de6baa17e9","234","./stimuli//pack_shapes_diff/cat_1/diff_3/ex_1_3_5.png","arrowleft","response","ArrowLeft","5","1","3","test","true",""
"","","","","","html-keyboard-response","119","124106","0.0-6.12-4.12","5f418da10dab34340bd50d60","65576f040411c2a4be0341a4","65576f870665f7de6baa17e9","null","<p> <font color=""green"" size=""5vw""> Correct category! </font> <br> <br> <font color=""green"" size=""8vw""> + $0.05 </font> </p>","null","feedback","","","","","","","0.65"
"","","","","","html-keyboard-response","120","124512","0.0-6.13-0.13","5f418da10dab34340bd50d60","65576f040411c2a4be0341a4","65576f870665f7de6baa17e9","405","
            
        <div style=""text-align: center; position: fixed; top: 5vh; left: 40vw;"">
            <div style=""margin:0 auto; width: 20vw; top: 8vh; font-size: 2vw""> 
            <font color=""green""> Bonus : $0.65 </font>
            </div>
        </div>
    
            <div> Please press any button to continue to the next trial.</div>
        "," ","ITI","","","","","","",""
"","","","","","html-keyboard-response","121","125121","0.0-6.13-1.13","5f418da10dab34340bd50d60","65576f040411c2a4be0341a4","65576f870665f7de6baa17e9","null","
        
        <div style=""text-align: center; position: fixed; top: 5vh; left: 40vw;"">
            <div style=""margin:0 auto; width: 20vw; top: 8vh; font-size: 2vw""> 
            <font color=""green""> Bonus : $0.65 </font>
            </div>
        </div>
    
        <img class=""stim"" src=./stimuli//pack_shapes_diff/cat_2/diff_3/ex_2_3_4.png></img>
    ","null","stimulus","","","","","","",""
"","","","","","html-keyboard-response","122","126129","0.0-6.13-2.13","5f418da10dab34340bd50d60","65576f040411c2a4be0341a4","65576f870665f7de6baa17e9","null","
        <div style=""text-align: center; position: fixed; top: 5vh; left: 40vw;"">
            <div style=""margin:0 auto; width: 20vw; top: 8vh; font-size: 2vw""> 
            <font color=""green""> Bonus : $0.65 </font>
            </div>
        </div>
    ","null","","","","","","","",""
"","","","","","html-keyboard-response","123","126399","0.0-6.13-3.13","5f418da10dab34340bd50d60","65576f040411c2a4be0341a4","65576f870665f7de6baa17e9","270","./stimuli//pack_shapes_diff/cat_2/diff_3/ex_2_3_4.png","arrowright","response","ArrowRight","4","2","3","test","true",""
"","","","","","html-keyboard-response","124","127903","0.0-6.13-4.13","5f418da10dab34340bd50d60","65576f040411c2a4be0341a4","65576f870665f7de6baa17e9","null","<p> <font color=""green"" size=""5vw""> Correct category! </font> <br> <br> <font color=""green"" size=""8vw""> + $0.05 </font> </p>","null","feedback","","","","","","","0.7"
"","","","","","html-keyboard-response","125","128280","0.0-6.14-0.14","5f418da10dab34340bd50d60","65576f040411c2a4be0341a4","65576f870665f7de6baa17e9","376","
            
        <div style=""text-align: center; position: fixed; top: 5vh; left: 40vw;"">
            <div style=""margin:0 auto; width: 20vw; top: 8vh; font-size: 2vw""> 
            <font color=""green""> Bonus : $0.7 </font>
            </div>
        </div>
    
            <div> Please press any button to continue to the next trial.</div>
        "," ","ITI","","","","","","",""
"","","","","","html-keyboard-response","126","128887","0.0-6.14-1.14","5f418da10dab34340bd50d60","65576f040411c2a4be0341a4","65576f870665f7de6baa17e9","null","
        
        <div style=""text-align: center; position: fixed; top: 5vh; left: 40vw;"">
            <div style=""margin:0 auto; width: 20vw; top: 8vh; font-size: 2vw""> 
            <font color=""green""> Bonus : $0.7 </font>
            </div>
        </div>
    
        <img class=""stim"" src=./stimuli//pack_shapes_diff/cat_1/diff_3/ex_1_3_12.png></img>
    ","null","stimulus","","","","","","",""
"","","","","","html-keyboard-response","127","129896","0.0-6.14-2.14","5f418da10dab34340bd50d60","65576f040411c2a4be0341a4","65576f870665f7de6baa17e9","null","
        <div style=""text-align: center; position: fixed; top: 5vh; left: 40vw;"">
            <div style=""margin:0 auto; width: 20vw; top: 8vh; font-size: 2vw""> 
            <font color=""green""> Bonus : $0.7 </font>
            </div>
        </div>
    ","null","","","","","","","",""
"","","","","","html-keyboard-response","128","130144","0.0-6.14-3.14","5f418da10dab34340bd50d60","65576f040411c2a4be0341a4","65576f870665f7de6baa17e9","248","./stimuli//pack_shapes_diff/cat_1/diff_3/ex_1_3_12.png","arrowleft","response","ArrowLeft","12","1","3","test","true",""
"","","","","","html-keyboard-response","129","131660","0.0-6.14-4.14","5f418da10dab34340bd50d60","65576f040411c2a4be0341a4","65576f870665f7de6baa17e9","null","<p> <font color=""green"" size=""5vw""> Correct category! </font> <br> <br> <font color=""green"" size=""8vw""> + $0.05 </font> </p>","null","feedback","","","","","","","0.75"
"","","","","","html-keyboard-response","130","131813","0.0-6.15-0.15","5f418da10dab34340bd50d60","65576f040411c2a4be0341a4","65576f870665f7de6baa17e9","153","
            
        <div style=""text-align: center; position: fixed; top: 5vh; left: 40vw;"">
            <div style=""margin:0 auto; width: 20vw; top: 8vh; font-size: 2vw""> 
            <font color=""green""> Bonus : $0.75 </font>
            </div>
        </div>
    
            <div> Please press any button to continue to the next trial.</div>
        "," ","ITI","","","","","","",""
"","","","","","html-keyboard-response","131","132423","0.0-6.15-1.15","5f418da10dab34340bd50d60","65576f040411c2a4be0341a4","65576f870665f7de6baa17e9","null","
        
        <div style=""text-align: center; position: fixed; top: 5vh; left: 40vw;"">
            <div style=""margin:0 auto; width: 20vw; top: 8vh; font-size: 2vw""> 
            <font color=""green""> Bonus : $0.75 </font>
            </div>
        </div>
    
        <img class=""stim"" src=./stimuli//pack_shapes_diff/cat_1/diff_4/ex_1_4_8.png></img>
    ","null","stimulus","","","","","","",""
"","","","","","html-keyboard-response","132","133433","0.0-6.15-2.15","5f418da10dab34340bd50d60","65576f040411c2a4be0341a4","65576f870665f7de6baa17e9","null","
        <div style=""text-align: center; position: fixed; top: 5vh; left: 40vw;"">
            <div style=""margin:0 auto; width: 20vw; top: 8vh; font-size: 2vw""> 
            <font color=""green""> Bonus : $0.75 </font>
            </div>
        </div>
    ","null","","","","","","","",""
"","","","","","html-keyboard-response","133","133624","0.0-6.15-3.15","5f418da10dab34340bd50d60","65576f040411c2a4be0341a4","65576f870665f7de6baa17e9","191","./stimuli//pack_shapes_diff/cat_1/diff_4/ex_1_4_8.png","arrowleft","response","ArrowLeft","8","1","4","test","true",""
"","","","","","html-keyboard-response","134","135128","0.0-6.15-4.15","5f418da10dab34340bd50d60","65576f040411c2a4be0341a4","65576f870665f7de6baa17e9","null","<p> <font color=""green"" size=""5vw""> Correct category! </font> <br> <br> <font color=""green"" size=""8vw""> + $0.05 </font> </p>","null","feedback","","","","","","","0.8"
"","","","","","html-keyboard-response","135","135453","0.0-6.16-0.16","5f418da10dab34340bd50d60","65576f040411c2a4be0341a4","65576f870665f7de6baa17e9","325","
            
        <div style=""text-align: center; position: fixed; top: 5vh; left: 40vw;"">
            <div style=""margin:0 auto; width: 20vw; top: 8vh; font-size: 2vw""> 
            <font color=""green""> Bonus : $0.8 </font>
            </div>
        </div>
    
            <div> Please press any button to continue to the next trial.</div>
        "," ","ITI","","","","","","",""
"","","","","","html-keyboard-response","136","136060","0.0-6.16-1.16","5f418da10dab34340bd50d60","65576f040411c2a4be0341a4","65576f870665f7de6baa17e9","null","
        
        <div style=""text-align: center; position: fixed; top: 5vh; left: 40vw;"">
            <div style=""margin:0 auto; width: 20vw; top: 8vh; font-size: 2vw""> 
            <font color=""green""> Bonus : $0.8 </font>
            </div>
        </div>
    
        <img class=""stim"" src=./stimuli//pack_shapes_diff/cat_1/diff_4/ex_1_4_13.png></img>
    ","null","stimulus","","","","","","",""
"","","","","","html-keyboard-response","137","137073","0.0-6.16-2.16","5f418da10dab34340bd50d60","65576f040411c2a4be0341a4","65576f870665f7de6baa17e9","null","
        <div style=""text-align: center; position: fixed; top: 5vh; left: 40vw;"">
            <div style=""margin:0 auto; width: 20vw; top: 8vh; font-size: 2vw""> 
            <font color=""green""> Bonus : $0.8 </font>
            </div>
        </div>
    ","null","","","","","","","",""
"","","","","","html-keyboard-response","138","137277","0.0-6.16-3.16","5f418da10dab34340bd50d60","65576f040411c2a4be0341a4","65576f870665f7de6baa17e9","203","./stimuli//pack_shapes_diff/cat_1/diff_4/ex_1_4_13.png","arrowleft","response","ArrowLeft","13","1","4","test","true",""
"","","","","","html-keyboard-response","139","138787","0.0-6.16-4.16","5f418da10dab34340bd50d60","65576f040411c2a4be0341a4","65576f870665f7de6baa17e9","null","<p> <font color=""green"" size=""5vw""> Correct category! </font> <br> <br> <font color=""green"" size=""8vw""> + $0.05 </font> </p>","null","feedback","","","","","","","0.85"
"","","","","","html-keyboard-response","140","139609","0.0-6.17-0.17","5f418da10dab34340bd50d60","65576f040411c2a4be0341a4","65576f870665f7de6baa17e9","822","
            
        <div style=""text-align: center; position: fixed; top: 5vh; left: 40vw;"">
            <div style=""margin:0 auto; width: 20vw; top: 8vh; font-size: 2vw""> 
            <font color=""green""> Bonus : $0.85 </font>
            </div>
        </div>
    
            <div> Please press any button to continue to the next trial.</div>
        "," ","ITI","","","","","","",""
"","","","","","html-keyboard-response","141","140222","0.0-6.17-1.17","5f418da10dab34340bd50d60","65576f040411c2a4be0341a4","65576f870665f7de6baa17e9","null","
        
        <div style=""text-align: center; position: fixed; top: 5vh; left: 40vw;"">
            <div style=""margin:0 auto; width: 20vw; top: 8vh; font-size: 2vw""> 
            <font color=""green""> Bonus : $0.85 </font>
            </div>
        </div>
    
        <img class=""stim"" src=./stimuli//pack_shapes_diff/cat_2/diff_4/ex_2_4_12.png></img>
    ","null","stimulus","","","","","","",""
"","","","","","html-keyboard-response","142","141235","0.0-6.17-2.17","5f418da10dab34340bd50d60","65576f040411c2a4be0341a4","65576f870665f7de6baa17e9","null","
        <div style=""text-align: center; position: fixed; top: 5vh; left: 40vw;"">
            <div style=""margin:0 auto; width: 20vw; top: 8vh; font-size: 2vw""> 
            <font color=""green""> Bonus : $0.85 </font>
            </div>
        </div>
    ","null","","","","","","","",""
"","","","","","html-keyboard-response","143","141578","0.0-6.17-3.17","5f418da10dab34340bd50d60","65576f040411c2a4be0341a4","65576f870665f7de6baa17e9","342","./stimuli//pack_shapes_diff/cat_2/diff_4/ex_2_4_12.png","arrowleft","response","ArrowRight","12","2","4","test","false",""
"","","","","","html-keyboard-response","144","143089","0.0-6.17-4.17","5f418da10dab34340bd50d60","65576f040411c2a4be0341a4","65576f870665f7de6baa17e9","null","<p> <font color=""red"" size=""5vw""> Wrong category! </font> </p>","null","feedback","","","","","","","0.85"
"","","","","","html-keyboard-response","145","143364","0.0-6.18-0.18","5f418da10dab34340bd50d60","65576f040411c2a4be0341a4","65576f870665f7de6baa17e9","274","
            
        <div style=""text-align: center; position: fixed; top: 5vh; left: 40vw;"">
            <div style=""margin:0 auto; width: 20vw; top: 8vh; font-size: 2vw""> 
            <font color=""green""> Bonus : $0.85 </font>
            </div>
        </div>
    
            <div> Please press any button to continue to the next trial.</div>
        "," ","ITI","","","","","","",""
"","","","","","html-keyboard-response","146","143976","0.0-6.18-1.18","5f418da10dab34340bd50d60","65576f040411c2a4be0341a4","65576f870665f7de6baa17e9","null","
        
        <div style=""text-align: center; position: fixed; top: 5vh; left: 40vw;"">
            <div style=""margin:0 auto; width: 20vw; top: 8vh; font-size: 2vw""> 
            <font color=""green""> Bonus : $0.85 </font>
            </div>
        </div>
    
        <img class=""stim"" src=./stimuli//pack_shapes_diff/cat_1/diff_4/ex_1_4_14.png></img>
    ","null","stimulus","","","","","","",""
"","","","","","html-keyboard-response","147","144986","0.0-6.18-2.18","5f418da10dab34340bd50d60","65576f040411c2a4be0341a4","65576f870665f7de6baa17e9","null","
        <div style=""text-align: center; position: fixed; top: 5vh; left: 40vw;"">
            <div style=""margin:0 auto; width: 20vw; top: 8vh; font-size: 2vw""> 
            <font color=""green""> Bonus : $0.85 </font>
            </div>
        </div>
    ","null","","","","","","","",""
"","","","","","html-keyboard-response","148","145215","0.0-6.18-3.18","5f418da10dab34340bd50d60","65576f040411c2a4be0341a4","65576f870665f7de6baa17e9","228","./stimuli//pack_shapes_diff/cat_1/diff_4/ex_1_4_14.png","arrowleft","response","ArrowLeft","14","1","4","test","true",""
"","","","","","html-keyboard-response","149","146716","0.0-6.18-4.18","5f418da10dab34340bd50d60","65576f040411c2a4be0341a4","65576f870665f7de6baa17e9","null","<p> <font color=""green"" size=""5vw""> Correct category! </font> <br> <br> <font color=""green"" size=""8vw""> + $0.05 </font> </p>","null","feedback","","","","","","","0.9"
"","","","","","html-keyboard-response","150","146984","0.0-6.19-0.19","5f418da10dab34340bd50d60","65576f040411c2a4be0341a4","65576f870665f7de6baa17e9","268","
            
        <div style=""text-align: center; position: fixed; top: 5vh; left: 40vw;"">
            <div style=""margin:0 auto; width: 20vw; top: 8vh; font-size: 2vw""> 
            <font color=""green""> Bonus : $0.9 </font>
            </div>
        </div>
    
            <div> Please press any button to continue to the next trial.</div>
        "," ","ITI","","","","","","",""
"","","","","","html-keyboard-response","151","147592","0.0-6.19-1.19","5f418da10dab34340bd50d60","65576f040411c2a4be0341a4","65576f870665f7de6baa17e9","null","
        
        <div style=""text-align: center; position: fixed; top: 5vh; left: 40vw;"">
            <div style=""margin:0 auto; width: 20vw; top: 8vh; font-size: 2vw""> 
            <font color=""green""> Bonus : $0.9 </font>
            </div>
        </div>
    
        <img class=""stim"" src=./stimuli//pack_shapes_diff/cat_1/diff_4/ex_1_4_7.png></img>
    ","null","stimulus","","","","","","",""
"","","","","","html-keyboard-response","152","148608","0.0-6.19-2.19","5f418da10dab34340bd50d60","65576f040411c2a4be0341a4","65576f870665f7de6baa17e9","null","
        <div style=""text-align: center; position: fixed; top: 5vh; left: 40vw;"">
            <div style=""margin:0 auto; width: 20vw; top: 8vh; font-size: 2vw""> 
            <font color=""green""> Bonus : $0.9 </font>
            </div>
        </div>
    ","null","","","","","","","",""
"","","","","","html-keyboard-response","153","148821","0.0-6.19-3.19","5f418da10dab34340bd50d60","65576f040411c2a4be0341a4","65576f870665f7de6baa17e9","212","./stimuli//pack_shapes_diff/cat_1/diff_4/ex_1_4_7.png","arrowleft","response","ArrowLeft","7","1","4","test","true",""
"","","","","","html-keyboard-response","154","150336","0.0-6.19-4.19","5f418da10dab34340bd50d60","65576f040411c2a4be0341a4","65576f870665f7de6baa17e9","null","<p> <font color=""green"" size=""5vw""> Correct category! </font> <br> <br> <font color=""green"" size=""8vw""> + $0.05 </font> </p>","null","feedback","","","","","","","0.95"
"","","","","","html-keyboard-response","155","150607","0.0-6.20-0.20","5f418da10dab34340bd50d60","65576f040411c2a4be0341a4","65576f870665f7de6baa17e9","270","
            
        <div style=""text-align: center; position: fixed; top: 5vh; left: 40vw;"">
            <div style=""margin:0 auto; width: 20vw; top: 8vh; font-size: 2vw""> 
            <font color=""green""> Bonus : $0.95 </font>
            </div>
        </div>
    
            <div> Please press any button to continue to the next trial.</div>
        "," ","ITI","","","","","","",""
"","","","","","html-keyboard-response","156","151219","0.0-6.20-1.20","5f418da10dab34340bd50d60","65576f040411c2a4be0341a4","65576f870665f7de6baa17e9","null","
        
        <div style=""text-align: center; position: fixed; top: 5vh; left: 40vw;"">
            <div style=""margin:0 auto; width: 20vw; top: 8vh; font-size: 2vw""> 
            <font color=""green""> Bonus : $0.95 </font>
            </div>
        </div>
    
        <img class=""stim"" src=./stimuli//pack_shapes_diff/cat_2/diff_5/ex_2_5_6.png></img>
    ","null","stimulus","","","","","","",""
"","","","","","html-keyboard-response","157","152229","0.0-6.20-2.20","5f418da10dab34340bd50d60","65576f040411c2a4be0341a4","65576f870665f7de6baa17e9","null","
        <div style=""text-align: center; position: fixed; top: 5vh; left: 40vw;"">
            <div style=""margin:0 auto; width: 20vw; top: 8vh; font-size: 2vw""> 
            <font color=""green""> Bonus : $0.95 </font>
            </div>
        </div>
    ","null","","","","","","","",""
"","","","","","html-keyboard-response","158","152497","0.0-6.20-3.20","5f418da10dab34340bd50d60","65576f040411c2a4be0341a4","65576f870665f7de6baa17e9","267","./stimuli//pack_shapes_diff/cat_2/diff_5/ex_2_5_6.png","arrowright","response","ArrowRight","6","2","5","test","true",""
"","","","","","html-keyboard-response","159","154007","0.0-6.20-4.20","5f418da10dab34340bd50d60","65576f040411c2a4be0341a4","65576f870665f7de6baa17e9","null","<p> <font color=""green"" size=""5vw""> Correct category! </font> <br> <br> <font color=""green"" size=""8vw""> + $0.05 </font> </p>","null","feedback","","","","","","","1"
"","","","","","html-keyboard-response","160","154276","0.0-6.21-0.21","5f418da10dab34340bd50d60","65576f040411c2a4be0341a4","65576f870665f7de6baa17e9","268","
            
        <div style=""text-align: center; position: fixed; top: 5vh; left: 40vw;"">
            <div style=""margin:0 auto; width: 20vw; top: 8vh; font-size: 2vw""> 
            <font color=""green""> Bonus : $1 </font>
            </div>
        </div>
    
            <div> Please press any button to continue to the next trial.</div>
        "," ","ITI","","","","","","",""
"","","","","","html-keyboard-response","161","154889","0.0-6.21-1.21","5f418da10dab34340bd50d60","65576f040411c2a4be0341a4","65576f870665f7de6baa17e9","null","
        
        <div style=""text-align: center; position: fixed; top: 5vh; left: 40vw;"">
            <div style=""margin:0 auto; width: 20vw; top: 8vh; font-size: 2vw""> 
            <font color=""green""> Bonus : $1 </font>
            </div>
        </div>
    
        <img class=""stim"" src=./stimuli//pack_shapes_diff/cat_1/diff_5/ex_1_5_4.png></img>
    ","null","stimulus","","","","","","",""
"","","","","","html-keyboard-response","162","155899","0.0-6.21-2.21","5f418da10dab34340bd50d60","65576f040411c2a4be0341a4","65576f870665f7de6baa17e9","null","
        <div style=""text-align: center; position: fixed; top: 5vh; left: 40vw;"">
            <div style=""margin:0 auto; width: 20vw; top: 8vh; font-size: 2vw""> 
            <font color=""green""> Bonus : $1 </font>
            </div>
        </div>
    ","null","","","","","","","",""
"","","","","","html-keyboard-response","163","156136","0.0-6.21-3.21","5f418da10dab34340bd50d60","65576f040411c2a4be0341a4","65576f870665f7de6baa17e9","236","./stimuli//pack_shapes_diff/cat_1/diff_5/ex_1_5_4.png","arrowleft","response","ArrowLeft","4","1","5","test","true",""
"","","","","","html-keyboard-response","164","157647","0.0-6.21-4.21","5f418da10dab34340bd50d60","65576f040411c2a4be0341a4","65576f870665f7de6baa17e9","null","<p> <font color=""green"" size=""5vw""> Correct category! </font> <br> <br> <font color=""green"" size=""8vw""> + $0.05 </font> </p>","null","feedback","","","","","","","1.05"
"","","","","","html-keyboard-response","165","157715","0.0-6.22-0.22","5f418da10dab34340bd50d60","65576f040411c2a4be0341a4","65576f870665f7de6baa17e9","67","
            
        <div style=""text-align: center; position: fixed; top: 5vh; left: 40vw;"">
            <div style=""margin:0 auto; width: 20vw; top: 8vh; font-size: 2vw""> 
            <font color=""green""> Bonus : $1.05 </font>
            </div>
        </div>
    
            <div> Please press any button to continue to the next trial.</div>
        "," ","ITI","","","","","","",""
"","","","","","html-keyboard-response","166","158321","0.0-6.22-1.22","5f418da10dab34340bd50d60","65576f040411c2a4be0341a4","65576f870665f7de6baa17e9","null","
        
        <div style=""text-align: center; position: fixed; top: 5vh; left: 40vw;"">
            <div style=""margin:0 auto; width: 20vw; top: 8vh; font-size: 2vw""> 
            <font color=""green""> Bonus : $1.05 </font>
            </div>
        </div>
    
        <img class=""stim"" src=./stimuli//pack_shapes_diff/cat_2/diff_5/ex_2_5_1.png></img>
    ","null","stimulus","","","","","","",""
"","","","","","html-keyboard-response","167","159329","0.0-6.22-2.22","5f418da10dab34340bd50d60","65576f040411c2a4be0341a4","65576f870665f7de6baa17e9","null","
        <div style=""text-align: center; position: fixed; top: 5vh; left: 40vw;"">
            <div style=""margin:0 auto; width: 20vw; top: 8vh; font-size: 2vw""> 
            <font color=""green""> Bonus : $1.05 </font>
            </div>
        </div>
    ","null","","","","","","","",""
"","","","","","html-keyboard-response","168","159594","0.0-6.22-3.22","5f418da10dab34340bd50d60","65576f040411c2a4be0341a4","65576f870665f7de6baa17e9","265","./stimuli//pack_shapes_diff/cat_2/diff_5/ex_2_5_1.png","arrowright","response","ArrowRight","1","2","5","test","true",""
"","","","","","html-keyboard-response","169","161100","0.0-6.22-4.22","5f418da10dab34340bd50d60","65576f040411c2a4be0341a4","65576f870665f7de6baa17e9","null","<p> <font color=""green"" size=""5vw""> Correct category! </font> <br> <br> <font color=""green"" size=""8vw""> + $0.05 </font> </p>","null","feedback","","","","","","","1.1"
"","","","","","html-keyboard-response","170","161354","0.0-6.23-0.23","5f418da10dab34340bd50d60","65576f040411c2a4be0341a4","65576f870665f7de6baa17e9","254","
            
        <div style=""text-align: center; position: fixed; top: 5vh; left: 40vw;"">
            <div style=""margin:0 auto; width: 20vw; top: 8vh; font-size: 2vw""> 
            <font color=""green""> Bonus : $1.1 </font>
            </div>
        </div>
    
            <div> Please press any button to continue to the next trial.</div>
        "," ","ITI","","","","","","",""
"","","","","","html-keyboard-response","171","161970","0.0-6.23-1.23","5f418da10dab34340bd50d60","65576f040411c2a4be0341a4","65576f870665f7de6baa17e9","null","
        
        <div style=""text-align: center; position: fixed; top: 5vh; left: 40vw;"">
            <div style=""margin:0 auto; width: 20vw; top: 8vh; font-size: 2vw""> 
            <font color=""green""> Bonus : $1.1 </font>
            </div>
        </div>
    
        <img class=""stim"" src=./stimuli//pack_shapes_diff/cat_1/diff_5/ex_1_5_11.png></img>
    ","null","stimulus","","","","","","",""
"","","","","","html-keyboard-response","172","162978","0.0-6.23-2.23","5f418da10dab34340bd50d60","65576f040411c2a4be0341a4","65576f870665f7de6baa17e9","null","
        <div style=""text-align: center; position: fixed; top: 5vh; left: 40vw;"">
            <div style=""margin:0 auto; width: 20vw; top: 8vh; font-size: 2vw""> 
            <font color=""green""> Bonus : $1.1 </font>
            </div>
        </div>
    ","null","","","","","","","",""
"","","","","","html-keyboard-response","173","163206","0.0-6.23-3.23","5f418da10dab34340bd50d60","65576f040411c2a4be0341a4","65576f870665f7de6baa17e9","226","./stimuli//pack_shapes_diff/cat_1/diff_5/ex_1_5_11.png","arrowleft","response","ArrowLeft","11","1","5","test","true",""
"","","","","","html-keyboard-response","174","164709","0.0-6.23-4.23","5f418da10dab34340bd50d60","65576f040411c2a4be0341a4","65576f870665f7de6baa17e9","null","<p> <font color=""green"" size=""5vw""> Correct category! </font> <br> <br> <font color=""green"" size=""8vw""> + $0.05 </font> </p>","null","feedback","","","","","","","1.15"
"","","","","","html-keyboard-response","175","165083","0.0-6.24-0.24","5f418da10dab34340bd50d60","65576f040411c2a4be0341a4","65576f870665f7de6baa17e9","373","
            
        <div style=""text-align: center; position: fixed; top: 5vh; left: 40vw;"">
            <div style=""margin:0 auto; width: 20vw; top: 8vh; font-size: 2vw""> 
            <font color=""green""> Bonus : $1.15 </font>
            </div>
        </div>
    
            <div> Please press any button to continue to the next trial.</div>
        "," ","ITI","","","","","","",""
"","","","","","html-keyboard-response","176","165687","0.0-6.24-1.24","5f418da10dab34340bd50d60","65576f040411c2a4be0341a4","65576f870665f7de6baa17e9","null","
        
        <div style=""text-align: center; position: fixed; top: 5vh; left: 40vw;"">
            <div style=""margin:0 auto; width: 20vw; top: 8vh; font-size: 2vw""> 
            <font color=""green""> Bonus : $1.15 </font>
            </div>
        </div>
    
        <img class=""stim"" src=./stimuli//pack_shapes_diff/cat_1/diff_5/ex_1_5_1.png></img>
    ","null","stimulus","","","","","","",""
"","","","","","html-keyboard-response","177","166702","0.0-6.24-2.24","5f418da10dab34340bd50d60","65576f040411c2a4be0341a4","65576f870665f7de6baa17e9","null","
        <div style=""text-align: center; position: fixed; top: 5vh; left: 40vw;"">
            <div style=""margin:0 auto; width: 20vw; top: 8vh; font-size: 2vw""> 
            <font color=""green""> Bonus : $1.15 </font>
            </div>
        </div>
    ","null","","","","","","","",""
"","","","","","html-keyboard-response","178","166928","0.0-6.24-3.24","5f418da10dab34340bd50d60","65576f040411c2a4be0341a4","65576f870665f7de6baa17e9","225","./stimuli//pack_shapes_diff/cat_1/diff_5/ex_1_5_1.png","arrowleft","response","ArrowLeft","1","1","5","test","true",""
"","","","","","html-keyboard-response","179","168444","0.0-6.24-4.24","5f418da10dab34340bd50d60","65576f040411c2a4be0341a4","65576f870665f7de6baa17e9","null","<p> <font color=""green"" size=""5vw""> Correct category! </font> <br> <br> <font color=""green"" size=""8vw""> + $0.05 </font> </p>","null","feedback","","","","","","","1.2"
"","","","","","html-keyboard-response","180","168799","0.0-6.25-0.25","5f418da10dab34340bd50d60","65576f040411c2a4be0341a4","65576f870665f7de6baa17e9","354","
            
        <div style=""text-align: center; position: fixed; top: 5vh; left: 40vw;"">
            <div style=""margin:0 auto; width: 20vw; top: 8vh; font-size: 2vw""> 
            <font color=""green""> Bonus : $1.2 </font>
            </div>
        </div>
    
            <div> Please press any button to continue to the next trial.</div>
        "," ","ITI","","","","","","",""
"","","","","","html-keyboard-response","181","169402","0.0-6.25-1.25","5f418da10dab34340bd50d60","65576f040411c2a4be0341a4","65576f870665f7de6baa17e9","null","
        
        <div style=""text-align: center; position: fixed; top: 5vh; left: 40vw;"">
            <div style=""margin:0 auto; width: 20vw; top: 8vh; font-size: 2vw""> 
            <font color=""green""> Bonus : $1.2 </font>
            </div>
        </div>
    
        <img class=""stim"" src=./stimuli//pack_shapes_diff/cat_2/diff_5/ex_2_5_17.png></img>
    ","null","stimulus","","","","","","",""
"","","","","","html-keyboard-response","182","170410","0.0-6.25-2.25","5f418da10dab34340bd50d60","65576f040411c2a4be0341a4","65576f870665f7de6baa17e9","null","
        <div style=""text-align: center; position: fixed; top: 5vh; left: 40vw;"">
            <div style=""margin:0 auto; width: 20vw; top: 8vh; font-size: 2vw""> 
            <font color=""green""> Bonus : $1.2 </font>
            </div>
        </div>
    ","null","","","","","","","",""
"","","","","","html-keyboard-response","183","170657","0.0-6.25-3.25","5f418da10dab34340bd50d60","65576f040411c2a4be0341a4","65576f870665f7de6baa17e9","246","./stimuli//pack_shapes_diff/cat_2/diff_5/ex_2_5_17.png","arrowleft","response","ArrowRight","17","2","5","test","false",""
"","","","","","html-keyboard-response","184","172173","0.0-6.25-4.25","5f418da10dab34340bd50d60","65576f040411c2a4be0341a4","65576f870665f7de6baa17e9","null","<p> <font color=""red"" size=""5vw""> Wrong category! </font> </p>","null","feedback","","","","","","","1.2"
"","","","","","html-keyboard-response","185","173060","0.0-6.26-0.26","5f418da10dab34340bd50d60","65576f040411c2a4be0341a4","65576f870665f7de6baa17e9","886","
            
        <div style=""text-align: center; position: fixed; top: 5vh; left: 40vw;"">
            <div style=""margin:0 auto; width: 20vw; top: 8vh; font-size: 2vw""> 
            <font color=""green""> Bonus : $1.2 </font>
            </div>
        </div>
    
            <div> Please press any button to continue to the next trial.</div>
        "," ","ITI","","","","","","",""
"","","","","","html-keyboard-response","186","173667","0.0-6.26-1.26","5f418da10dab34340bd50d60","65576f040411c2a4be0341a4","65576f870665f7de6baa17e9","null","
        
        <div style=""text-align: center; position: fixed; top: 5vh; left: 40vw;"">
            <div style=""margin:0 auto; width: 20vw; top: 8vh; font-size: 2vw""> 
            <font color=""green""> Bonus : $1.2 </font>
            </div>
        </div>
    
        <img class=""stim"" src=./stimuli//pack_shapes_diff/cat_2/diff_5/ex_2_5_11.png></img>
    ","null","stimulus","","","","","","",""
"","","","","","html-keyboard-response","187","174678","0.0-6.26-2.26","5f418da10dab34340bd50d60","65576f040411c2a4be0341a4","65576f870665f7de6baa17e9","null","
        <div style=""text-align: center; position: fixed; top: 5vh; left: 40vw;"">
            <div style=""margin:0 auto; width: 20vw; top: 8vh; font-size: 2vw""> 
            <font color=""green""> Bonus : $1.2 </font>
            </div>
        </div>
    ","null","","","","","","","",""
"","","","","","html-keyboard-response","188","174888","0.0-6.26-3.26","5f418da10dab34340bd50d60","65576f040411c2a4be0341a4","65576f870665f7de6baa17e9","209","./stimuli//pack_shapes_diff/cat_2/diff_5/ex_2_5_11.png","arrowright","response","ArrowRight","11","2","5","test","true",""
"","","","","","html-keyboard-response","189","176389","0.0-6.26-4.26","5f418da10dab34340bd50d60","65576f040411c2a4be0341a4","65576f870665f7de6baa17e9","null","<p> <font color=""green"" size=""5vw""> Correct category! </font> <br> <br> <font color=""green"" size=""8vw""> + $0.05 </font> </p>","null","feedback","","","","","","","1.25"
"","","","","","html-keyboard-response","190","177120","0.0-6.27-0.27","5f418da10dab34340bd50d60","65576f040411c2a4be0341a4","65576f870665f7de6baa17e9","730","
            
        <div style=""text-align: center; position: fixed; top: 5vh; left: 40vw;"">
            <div style=""margin:0 auto; width: 20vw; top: 8vh; font-size: 2vw""> 
            <font color=""green""> Bonus : $1.25 </font>
            </div>
        </div>
    
            <div> Please press any button to continue to the next trial.</div>
        "," ","ITI","","","","","","",""
"","","","","","html-keyboard-response","191","177728","0.0-6.27-1.27","5f418da10dab34340bd50d60","65576f040411c2a4be0341a4","65576f870665f7de6baa17e9","null","
        
        <div style=""text-align: center; position: fixed; top: 5vh; left: 40vw;"">
            <div style=""margin:0 auto; width: 20vw; top: 8vh; font-size: 2vw""> 
            <font color=""green""> Bonus : $1.25 </font>
            </div>
        </div>
    
        <img class=""stim"" src=./stimuli//pack_shapes_diff/cat_1/diff_5/ex_1_5_16.png></img>
    ","null","stimulus","","","","","","",""
"","","","","","html-keyboard-response","192","178731","0.0-6.27-2.27","5f418da10dab34340bd50d60","65576f040411c2a4be0341a4","65576f870665f7de6baa17e9","null","
        <div style=""text-align: center; position: fixed; top: 5vh; left: 40vw;"">
            <div style=""margin:0 auto; width: 20vw; top: 8vh; font-size: 2vw""> 
            <font color=""green""> Bonus : $1.25 </font>
            </div>
        </div>
    ","null","","","","","","","",""
"","","","","","html-keyboard-response","193","178985","0.0-6.27-3.27","5f418da10dab34340bd50d60","65576f040411c2a4be0341a4","65576f870665f7de6baa17e9","253","./stimuli//pack_shapes_diff/cat_1/diff_5/ex_1_5_16.png","arrowright","response","ArrowLeft","16","1","5","test","false",""
"","","","","","html-keyboard-response","194","180486","0.0-6.27-4.27","5f418da10dab34340bd50d60","65576f040411c2a4be0341a4","65576f870665f7de6baa17e9","null","<p> <font color=""red"" size=""5vw""> Wrong category! </font> </p>","null","feedback","","","","","","","1.25"
"","","","","","html-keyboard-response","195","181175","0.0-6.28-0.28","5f418da10dab34340bd50d60","65576f040411c2a4be0341a4","65576f870665f7de6baa17e9","688","
            
        <div style=""text-align: center; position: fixed; top: 5vh; left: 40vw;"">
            <div style=""margin:0 auto; width: 20vw; top: 8vh; font-size: 2vw""> 
            <font color=""green""> Bonus : $1.25 </font>
            </div>
        </div>
    
            <div> Please press any button to continue to the next trial.</div>
        "," ","ITI","","","","","","",""
"","","","","","html-keyboard-response","196","181787","0.0-6.28-1.28","5f418da10dab34340bd50d60","65576f040411c2a4be0341a4","65576f870665f7de6baa17e9","null","
        
        <div style=""text-align: center; position: fixed; top: 5vh; left: 40vw;"">
            <div style=""margin:0 auto; width: 20vw; top: 8vh; font-size: 2vw""> 
            <font color=""green""> Bonus : $1.25 </font>
            </div>
        </div>
    
        <img class=""stim"" src=./stimuli//pack_shapes_diff/cat_1/diff_4/ex_1_4_6.png></img>
    ","null","stimulus","","","","","","",""
"","","","","","html-keyboard-response","197","182796","0.0-6.28-2.28","5f418da10dab34340bd50d60","65576f040411c2a4be0341a4","65576f870665f7de6baa17e9","null","
        <div style=""text-align: center; position: fixed; top: 5vh; left: 40vw;"">
            <div style=""margin:0 auto; width: 20vw; top: 8vh; font-size: 2vw""> 
            <font color=""green""> Bonus : $1.25 </font>
            </div>
        </div>
    ","null","","","","","","","",""
"","","","","","html-keyboard-response","198","183054","0.0-6.28-3.28","5f418da10dab34340bd50d60","65576f040411c2a4be0341a4","65576f870665f7de6baa17e9","257","./stimuli//pack_shapes_diff/cat_1/diff_4/ex_1_4_6.png","arrowleft","response","ArrowLeft","6","1","4","test","true",""
"","","","","","html-keyboard-response","199","184569","0.0-6.28-4.28","5f418da10dab34340bd50d60","65576f040411c2a4be0341a4","65576f870665f7de6baa17e9","null","<p> <font color=""green"" size=""5vw""> Correct category! </font> <br> <br> <font color=""green"" size=""8vw""> + $0.05 </font> </p>","null","feedback","","","","","","","1.3"
"","","","","","html-keyboard-response","200","184941","0.0-6.29-0.29","5f418da10dab34340bd50d60","65576f040411c2a4be0341a4","65576f870665f7de6baa17e9","371","
            
        <div style=""text-align: center; position: fixed; top: 5vh; left: 40vw;"">
            <div style=""margin:0 auto; width: 20vw; top: 8vh; font-size: 2vw""> 
            <font color=""green""> Bonus : $1.3 </font>
            </div>
        </div>
    
            <div> Please press any button to continue to the next trial.</div>
        "," ","ITI","","","","","","",""
"","","","","","html-keyboard-response","201","185546","0.0-6.29-1.29","5f418da10dab34340bd50d60","65576f040411c2a4be0341a4","65576f870665f7de6baa17e9","null","
        
        <div style=""text-align: center; position: fixed; top: 5vh; left: 40vw;"">
            <div style=""margin:0 auto; width: 20vw; top: 8vh; font-size: 2vw""> 
            <font color=""green""> Bonus : $1.3 </font>
            </div>
        </div>
    
        <img class=""stim"" src=./stimuli//pack_shapes_diff/cat_2/diff_4/ex_2_4_10.png></img>
    ","null","stimulus","","","","","","",""
"","","","","","html-keyboard-response","202","186558","0.0-6.29-2.29","5f418da10dab34340bd50d60","65576f040411c2a4be0341a4","65576f870665f7de6baa17e9","null","
        <div style=""text-align: center; position: fixed; top: 5vh; left: 40vw;"">
            <div style=""margin:0 auto; width: 20vw; top: 8vh; font-size: 2vw""> 
            <font color=""green""> Bonus : $1.3 </font>
            </div>
        </div>
    ","null","","","","","","","",""
"","","","","","html-keyboard-response","203","186926","0.0-6.29-3.29","5f418da10dab34340bd50d60","65576f040411c2a4be0341a4","65576f870665f7de6baa17e9","368","./stimuli//pack_shapes_diff/cat_2/diff_4/ex_2_4_10.png","arrowright","response","ArrowRight","10","2","4","test","true",""
"","","","","","html-keyboard-response","204","188440","0.0-6.29-4.29","5f418da10dab34340bd50d60","65576f040411c2a4be0341a4","65576f870665f7de6baa17e9","null","<p> <font color=""green"" size=""5vw""> Correct category! </font> <br> <br> <font color=""green"" size=""8vw""> + $0.05 </font> </p>","null","feedback","","","","","","","1.35"
"","","","","","html-keyboard-response","205","188838","0.0-6.30-0.30","5f418da10dab34340bd50d60","65576f040411c2a4be0341a4","65576f870665f7de6baa17e9","397","
            
        <div style=""text-align: center; position: fixed; top: 5vh; left: 40vw;"">
            <div style=""margin:0 auto; width: 20vw; top: 8vh; font-size: 2vw""> 
            <font color=""green""> Bonus : $1.35 </font>
            </div>
        </div>
    
            <div> Please press any button to continue to the next trial.</div>
        "," ","ITI","","","","","","",""
"","","","","","html-keyboard-response","206","189441","0.0-6.30-1.30","5f418da10dab34340bd50d60","65576f040411c2a4be0341a4","65576f870665f7de6baa17e9","null","
        
        <div style=""text-align: center; position: fixed; top: 5vh; left: 40vw;"">
            <div style=""margin:0 auto; width: 20vw; top: 8vh; font-size: 2vw""> 
            <font color=""green""> Bonus : $1.35 </font>
            </div>
        </div>
    
        <img class=""stim"" src=./stimuli//pack_shapes_diff/cat_2/diff_4/ex_2_4_12.png></img>
    ","null","stimulus","","","","","","",""
"","","","","","html-keyboard-response","207","190454","0.0-6.30-2.30","5f418da10dab34340bd50d60","65576f040411c2a4be0341a4","65576f870665f7de6baa17e9","null","
        <div style=""text-align: center; position: fixed; top: 5vh; left: 40vw;"">
            <div style=""margin:0 auto; width: 20vw; top: 8vh; font-size: 2vw""> 
            <font color=""green""> Bonus : $1.35 </font>
            </div>
        </div>
    ","null","","","","","","","",""
"","","","","","html-keyboard-response","208","190737","0.0-6.30-3.30","5f418da10dab34340bd50d60","65576f040411c2a4be0341a4","65576f870665f7de6baa17e9","282","./stimuli//pack_shapes_diff/cat_2/diff_4/ex_2_4_12.png","arrowright","response","ArrowRight","12","2","4","test","true",""
"","","","","","html-keyboard-response","209","192249","0.0-6.30-4.30","5f418da10dab34340bd50d60","65576f040411c2a4be0341a4","65576f870665f7de6baa17e9","null","<p> <font color=""green"" size=""5vw""> Correct category! </font> <br> <br> <font color=""green"" size=""8vw""> + $0.05 </font> </p>","null","feedback","","","","","","","1.4"
"","","","","","html-keyboard-response","210","192606","0.0-6.31-0.31","5f418da10dab34340bd50d60","65576f040411c2a4be0341a4","65576f870665f7de6baa17e9","356","
            
        <div style=""text-align: center; position: fixed; top: 5vh; left: 40vw;"">
            <div style=""margin:0 auto; width: 20vw; top: 8vh; font-size: 2vw""> 
            <font color=""green""> Bonus : $1.4 </font>
            </div>
        </div>
    
            <div> Please press any button to continue to the next trial.</div>
        "," ","ITI","","","","","","",""
"","","","","","html-keyboard-response","211","193211","0.0-6.31-1.31","5f418da10dab34340bd50d60","65576f040411c2a4be0341a4","65576f870665f7de6baa17e9","null","
        
        <div style=""text-align: center; position: fixed; top: 5vh; left: 40vw;"">
            <div style=""margin:0 auto; width: 20vw; top: 8vh; font-size: 2vw""> 
            <font color=""green""> Bonus : $1.4 </font>
            </div>
        </div>
    
        <img class=""stim"" src=./stimuli//pack_shapes_diff/cat_2/diff_4/ex_2_4_5.png></img>
    ","null","stimulus","","","","","","",""
"","","","","","html-keyboard-response","212","194223","0.0-6.31-2.31","5f418da10dab34340bd50d60","65576f040411c2a4be0341a4","65576f870665f7de6baa17e9","null","
        <div style=""text-align: center; position: fixed; top: 5vh; left: 40vw;"">
            <div style=""margin:0 auto; width: 20vw; top: 8vh; font-size: 2vw""> 
            <font color=""green""> Bonus : $1.4 </font>
            </div>
        </div>
    ","null","","","","","","","",""
"","","","","","html-keyboard-response","213","194484","0.0-6.31-3.31","5f418da10dab34340bd50d60","65576f040411c2a4be0341a4","65576f870665f7de6baa17e9","261","./stimuli//pack_shapes_diff/cat_2/diff_4/ex_2_4_5.png","arrowright","response","ArrowRight","5","2","4","test","true",""
"","","","","","html-keyboard-response","214","195994","0.0-6.31-4.31","5f418da10dab34340bd50d60","65576f040411c2a4be0341a4","65576f870665f7de6baa17e9","null","<p> <font color=""green"" size=""5vw""> Correct category! </font> <br> <br> <font color=""green"" size=""8vw""> + $0.05 </font> </p>","null","feedback","","","","","","","1.45"
"","","","","","html-keyboard-response","215","196224","0.0-6.32-0.32","5f418da10dab34340bd50d60","65576f040411c2a4be0341a4","65576f870665f7de6baa17e9","229","
            
        <div style=""text-align: center; position: fixed; top: 5vh; left: 40vw;"">
            <div style=""margin:0 auto; width: 20vw; top: 8vh; font-size: 2vw""> 
            <font color=""green""> Bonus : $1.45 </font>
            </div>
        </div>
    
            <div> Please press any button to continue to the next trial.</div>
        "," ","ITI","","","","","","",""
"","","","","","html-keyboard-response","216","196836","0.0-6.32-1.32","5f418da10dab34340bd50d60","65576f040411c2a4be0341a4","65576f870665f7de6baa17e9","null","
        
        <div style=""text-align: center; position: fixed; top: 5vh; left: 40vw;"">
            <div style=""margin:0 auto; width: 20vw; top: 8vh; font-size: 2vw""> 
            <font color=""green""> Bonus : $1.45 </font>
            </div>
        </div>
    
        <img class=""stim"" src=./stimuli//pack_shapes_diff/cat_2/diff_4/ex_2_4_3.png></img>
    ","null","stimulus","","","","","","",""
"","","","","","html-keyboard-response","217","197848","0.0-6.32-2.32","5f418da10dab34340bd50d60","65576f040411c2a4be0341a4","65576f870665f7de6baa17e9","null","
        <div style=""text-align: center; position: fixed; top: 5vh; left: 40vw;"">
            <div style=""margin:0 auto; width: 20vw; top: 8vh; font-size: 2vw""> 
            <font color=""green""> Bonus : $1.45 </font>
            </div>
        </div>
    ","null","","","","","","","",""
"","","","","","html-keyboard-response","218","198153","0.0-6.32-3.32","5f418da10dab34340bd50d60","65576f040411c2a4be0341a4","65576f870665f7de6baa17e9","305","./stimuli//pack_shapes_diff/cat_2/diff_4/ex_2_4_3.png","arrowright","response","ArrowRight","3","2","4","test","true",""
"","","","","","html-keyboard-response","219","199668","0.0-6.32-4.32","5f418da10dab34340bd50d60","65576f040411c2a4be0341a4","65576f870665f7de6baa17e9","null","<p> <font color=""green"" size=""5vw""> Correct category! </font> <br> <br> <font color=""green"" size=""8vw""> + $0.05 </font> </p>","null","feedback","","","","","","","1.5"
"","","","","","html-keyboard-response","220","200068","0.0-6.33-0.33","5f418da10dab34340bd50d60","65576f040411c2a4be0341a4","65576f870665f7de6baa17e9","399","
            
        <div style=""text-align: center; position: fixed; top: 5vh; left: 40vw;"">
            <div style=""margin:0 auto; width: 20vw; top: 8vh; font-size: 2vw""> 
            <font color=""green""> Bonus : $1.5 </font>
            </div>
        </div>
    
            <div> Please press any button to continue to the next trial.</div>
        "," ","ITI","","","","","","",""
"","","","","","html-keyboard-response","221","200678","0.0-6.33-1.33","5f418da10dab34340bd50d60","65576f040411c2a4be0341a4","65576f870665f7de6baa17e9","null","
        
        <div style=""text-align: center; position: fixed; top: 5vh; left: 40vw;"">
            <div style=""margin:0 auto; width: 20vw; top: 8vh; font-size: 2vw""> 
            <font color=""green""> Bonus : $1.5 </font>
            </div>
        </div>
    
        <img class=""stim"" src=./stimuli//pack_shapes_diff/cat_2/diff_5/ex_2_5_17.png></img>
    ","null","stimulus","","","","","","",""
"","","","","","html-keyboard-response","222","201687","0.0-6.33-2.33","5f418da10dab34340bd50d60","65576f040411c2a4be0341a4","65576f870665f7de6baa17e9","null","
        <div style=""text-align: center; position: fixed; top: 5vh; left: 40vw;"">
            <div style=""margin:0 auto; width: 20vw; top: 8vh; font-size: 2vw""> 
            <font color=""green""> Bonus : $1.5 </font>
            </div>
        </div>
    ","null","","","","","","","",""
"","","","","","html-keyboard-response","223","201941","0.0-6.33-3.33","5f418da10dab34340bd50d60","65576f040411c2a4be0341a4","65576f870665f7de6baa17e9","252","./stimuli//pack_shapes_diff/cat_2/diff_5/ex_2_5_17.png","arrowright","response","ArrowRight","17","2","5","test","true",""
"","","","","","html-keyboard-response","224","203445","0.0-6.33-4.33","5f418da10dab34340bd50d60","65576f040411c2a4be0341a4","65576f870665f7de6baa17e9","null","<p> <font color=""green"" size=""5vw""> Correct category! </font> <br> <br> <font color=""green"" size=""8vw""> + $0.05 </font> </p>","null","feedback","","","","","","","1.55"
"","","","","","html-keyboard-response","225","203882","0.0-6.34-0.34","5f418da10dab34340bd50d60","65576f040411c2a4be0341a4","65576f870665f7de6baa17e9","437","
            
        <div style=""text-align: center; position: fixed; top: 5vh; left: 40vw;"">
            <div style=""margin:0 auto; width: 20vw; top: 8vh; font-size: 2vw""> 
            <font color=""green""> Bonus : $1.55 </font>
            </div>
        </div>
    
            <div> Please press any button to continue to the next trial.</div>
        "," ","ITI","","","","","","",""
"","","","","","html-keyboard-response","226","204491","0.0-6.34-1.34","5f418da10dab34340bd50d60","65576f040411c2a4be0341a4","65576f870665f7de6baa17e9","null","
        
        <div style=""text-align: center; position: fixed; top: 5vh; left: 40vw;"">
            <div style=""margin:0 auto; width: 20vw; top: 8vh; font-size: 2vw""> 
            <font color=""green""> Bonus : $1.55 </font>
            </div>
        </div>
    
        <img class=""stim"" src=./stimuli//pack_shapes_diff/cat_2/diff_5/ex_2_5_2.png></img>
    ","null","stimulus","","","","","","",""
"","","","","","html-keyboard-response","227","205503","0.0-6.34-2.34","5f418da10dab34340bd50d60","65576f040411c2a4be0341a4","65576f870665f7de6baa17e9","null","
        <div style=""text-align: center; position: fixed; top: 5vh; left: 40vw;"">
            <div style=""margin:0 auto; width: 20vw; top: 8vh; font-size: 2vw""> 
            <font color=""green""> Bonus : $1.55 </font>
            </div>
        </div>
    ","null","","","","","","","",""
"","","","","","html-keyboard-response","228","205733","0.0-6.34-3.34","5f418da10dab34340bd50d60","65576f040411c2a4be0341a4","65576f870665f7de6baa17e9","229","./stimuli//pack_shapes_diff/cat_2/diff_5/ex_2_5_2.png","arrowright","response","ArrowRight","2","2","5","test","true",""
"","","","","","html-keyboard-response","229","207236","0.0-6.34-4.34","5f418da10dab34340bd50d60","65576f040411c2a4be0341a4","65576f870665f7de6baa17e9","null","<p> <font color=""green"" size=""5vw""> Correct category! </font> <br> <br> <font color=""green"" size=""8vw""> + $0.05 </font> </p>","null","feedback","","","","","","","1.6"
