"success","timeout","failed_images","failed_audio","failed_video","trial_type","trial_index","time_elapsed","internal_node_id","subject_id","study_id","session_id","rt","stimulus","response","task","correct_response","exemplar_ID","category","difficulty","phase","correct","bonus"
"true","false","[]","[]","[]","preload","0","1","0.0-0.0","613024a95f48b6ceaeee8ad5","65576f040411c2a4be0341a4","65576f2ceb81814197f0f8c0","","","","","","","","","","",""
"","","","","","html-keyboard-response","1","41445","0.0-1.0","613024a95f48b6ceaeee8ad5","65576f040411c2a4be0341a4","65576f2ceb81814197f0f8c0","41443","Welcome to the Category Learning experiment! Press any key to continue.","h","welcome","","","","","","",""
"","","","","","html-keyboard-response","2","80807","0.0-2.0","613024a95f48b6ceaeee8ad5","65576f040411c2a4be0341a4","65576f2ceb81814197f0f8c0","39360","
            <p>You will be shown images of black shapes. Some are category A, some are category B.
            <br>You will not know in advance which category a specific shape belongs to.</p>
            <p>After you see an image, you will be asked to guess its category <b>(left arrow for category A, right arrow for category B)</b></p>
            <p>After you choose, the screen will show you whether you were correct or not.</p>
            <p><b>You will receive a bonus payment of $0.05 for each correct answer!</b></p>
            <p> So you can increase your bonus by guessing correctly, and by guessing as quickly as possible so you move on to the next image sooner.</p>
            <p>Press any key to continue.</p>
            ","l","introduction_1","","","","","","",""
"","","","","","html-keyboard-response","3","91119","0.0-3.0","613024a95f48b6ceaeee8ad5","65576f040411c2a4be0341a4","65576f2ceb81814197f0f8c0","10310","
            <p> <b>The first 10 trials are a practice round that will not count towards your bonus payment.</b></p>
            <p> You will be notified when practice finishes and the test begins. </p>
            <p> Press any key to begin the practice round.</p>
            ","l","introduction_2","","","","","","",""
"","","","","","html-keyboard-response","4","98029","0.0-4.0-0.0","613024a95f48b6ceaeee8ad5","65576f040411c2a4be0341a4","65576f2ceb81814197f0f8c0","6908","
            
        <div style=""text-align: center; position: fixed; top: 5vh; left: 40vw;"">
            <div style=""margin:0 auto; width: 20vw; top: 8vh; font-size: 2vw""> 
            <font color=""green""> Bonus : $0 </font>
            </div>
        </div>
    
            <div> Please press any button to continue to the next trial.</div>
        ","h","ITI","","","","","","",""
"","","","","","html-keyboard-response","5","98636","0.0-4.0-1.0","613024a95f48b6ceaeee8ad5","65576f040411c2a4be0341a4","65576f2ceb81814197f0f8c0","null","
        
        <div style=""text-align: center; position: fixed; top: 5vh; left: 40vw;"">
            <div style=""margin:0 auto; width: 20vw; top: 8vh; font-size: 2vw""> 
            <font color=""green""> Bonus : $0 </font>
            </div>
        </div>
    
        <img class=""stim"" src=./stimuli//pack_shapes_diff/cat_1/diff_1/ex_1_1_4.png></img>
    ","null","stimulus","","","","","","",""
"","","","","","html-keyboard-response","6","99648","0.0-4.0-2.0","613024a95f48b6ceaeee8ad5","65576f040411c2a4be0341a4","65576f2ceb81814197f0f8c0","null","
        <div style=""text-align: center; position: fixed; top: 5vh; left: 40vw;"">
            <div style=""margin:0 auto; width: 20vw; top: 8vh; font-size: 2vw""> 
            <font color=""green""> Bonus : $0 </font>
            </div>
        </div>
    ","null","","","","","","","",""
"","","","","","html-keyboard-response","7","101931","0.0-4.0-3.0","613024a95f48b6ceaeee8ad5","65576f040411c2a4be0341a4","65576f2ceb81814197f0f8c0","2283","./stimuli//pack_shapes_diff/cat_1/diff_1/ex_1_1_4.png","arrowleft","response","ArrowLeft","4","1","1","train","true",""
"","","","","","html-keyboard-response","8","103439","0.0-4.0-4.0","613024a95f48b6ceaeee8ad5","65576f040411c2a4be0341a4","65576f2ceb81814197f0f8c0","null","<p> <font color=""green"" size=""5vw""> Correct category! </font> </p>","null","feedback","","","","","","","0"
"","","","","","html-keyboard-response","9","108860","0.0-4.0-0.1","613024a95f48b6ceaeee8ad5","65576f040411c2a4be0341a4","65576f2ceb81814197f0f8c0","5421","
            
        <div style=""text-align: center; position: fixed; top: 5vh; left: 40vw;"">
            <div style=""margin:0 auto; width: 20vw; top: 8vh; font-size: 2vw""> 
            <font color=""green""> Bonus : $0 </font>
            </div>
        </div>
    
            <div> Please press any button to continue to the next trial.</div>
        ",",","ITI","","","","","","",""
"","","","","","html-keyboard-response","10","109475","0.0-4.0-1.1","613024a95f48b6ceaeee8ad5","65576f040411c2a4be0341a4","65576f2ceb81814197f0f8c0","null","
        
        <div style=""text-align: center; position: fixed; top: 5vh; left: 40vw;"">
            <div style=""margin:0 auto; width: 20vw; top: 8vh; font-size: 2vw""> 
            <font color=""green""> Bonus : $0 </font>
            </div>
        </div>
    
        <img class=""stim"" src=./stimuli//pack_shapes_diff/cat_1/diff_1/ex_1_1_15.png></img>
    ","null","stimulus","","","","","","",""
"","","","","","html-keyboard-response","11","110481","0.0-4.0-2.1","613024a95f48b6ceaeee8ad5","65576f040411c2a4be0341a4","65576f2ceb81814197f0f8c0","null","
        <div style=""text-align: center; position: fixed; top: 5vh; left: 40vw;"">
            <div style=""margin:0 auto; width: 20vw; top: 8vh; font-size: 2vw""> 
            <font color=""green""> Bonus : $0 </font>
            </div>
        </div>
    ","null","","","","","","","",""
"","","","","","html-keyboard-response","12","111130","0.0-4.0-3.1","613024a95f48b6ceaeee8ad5","65576f040411c2a4be0341a4","65576f2ceb81814197f0f8c0","648","./stimuli//pack_shapes_diff/cat_1/diff_1/ex_1_1_15.png","arrowleft","response","ArrowLeft","15","1","1","train","true",""
"","","","","","html-keyboard-response","13","112643","0.0-4.0-4.1","613024a95f48b6ceaeee8ad5","65576f040411c2a4be0341a4","65576f2ceb81814197f0f8c0","null","<p> <font color=""green"" size=""5vw""> Correct category! </font> </p>","null","feedback","","","","","","","0"
"","","","","","html-keyboard-response","14","116895","0.0-4.0-0.2","613024a95f48b6ceaeee8ad5","65576f040411c2a4be0341a4","65576f2ceb81814197f0f8c0","4250","
            
        <div style=""text-align: center; position: fixed; top: 5vh; left: 40vw;"">
            <div style=""margin:0 auto; width: 20vw; top: 8vh; font-size: 2vw""> 
            <font color=""green""> Bonus : $0 </font>
            </div>
        </div>
    
            <div> Please press any button to continue to the next trial.</div>
        ","m","ITI","","","","","","",""
"","","","","","html-keyboard-response","15","117509","0.0-4.0-1.2","613024a95f48b6ceaeee8ad5","65576f040411c2a4be0341a4","65576f2ceb81814197f0f8c0","null","
        
        <div style=""text-align: center; position: fixed; top: 5vh; left: 40vw;"">
            <div style=""margin:0 auto; width: 20vw; top: 8vh; font-size: 2vw""> 
            <font color=""green""> Bonus : $0 </font>
            </div>
        </div>
    
        <img class=""stim"" src=./stimuli//pack_shapes_diff/cat_2/diff_2/ex_2_2_13.png></img>
    ","null","stimulus","","","","","","",""
"","","","","","html-keyboard-response","16","118518","0.0-4.0-2.2","613024a95f48b6ceaeee8ad5","65576f040411c2a4be0341a4","65576f2ceb81814197f0f8c0","null","
        <div style=""text-align: center; position: fixed; top: 5vh; left: 40vw;"">
            <div style=""margin:0 auto; width: 20vw; top: 8vh; font-size: 2vw""> 
            <font color=""green""> Bonus : $0 </font>
            </div>
        </div>
    ","null","","","","","","","",""
"","","","","","html-keyboard-response","17","118697","0.0-4.0-3.2","613024a95f48b6ceaeee8ad5","65576f040411c2a4be0341a4","65576f2ceb81814197f0f8c0","178","./stimuli//pack_shapes_diff/cat_2/diff_2/ex_2_2_13.png","arrowright","response","ArrowRight","13","2","2","train","true",""
"","","","","","html-keyboard-response","18","120214","0.0-4.0-4.2","613024a95f48b6ceaeee8ad5","65576f040411c2a4be0341a4","65576f2ceb81814197f0f8c0","null","<p> <font color=""green"" size=""5vw""> Correct category! </font> </p>","null","feedback","","","","","","","0"
"","","","","","html-keyboard-response","19","122812","0.0-4.0-0.3","613024a95f48b6ceaeee8ad5","65576f040411c2a4be0341a4","65576f2ceb81814197f0f8c0","2597","
            
        <div style=""text-align: center; position: fixed; top: 5vh; left: 40vw;"">
            <div style=""margin:0 auto; width: 20vw; top: 8vh; font-size: 2vw""> 
            <font color=""green""> Bonus : $0 </font>
            </div>
        </div>
    
            <div> Please press any button to continue to the next trial.</div>
        ","m","ITI","","","","","","",""
"","","","","","html-keyboard-response","20","123420","0.0-4.0-1.3","613024a95f48b6ceaeee8ad5","65576f040411c2a4be0341a4","65576f2ceb81814197f0f8c0","null","
        
        <div style=""text-align: center; position: fixed; top: 5vh; left: 40vw;"">
            <div style=""margin:0 auto; width: 20vw; top: 8vh; font-size: 2vw""> 
            <font color=""green""> Bonus : $0 </font>
            </div>
        </div>
    
        <img class=""stim"" src=./stimuli//pack_shapes_diff/cat_2/diff_2/ex_2_2_7.png></img>
    ","null","stimulus","","","","","","",""
"","","","","","html-keyboard-response","21","124436","0.0-4.0-2.3","613024a95f48b6ceaeee8ad5","65576f040411c2a4be0341a4","65576f2ceb81814197f0f8c0","null","
        <div style=""text-align: center; position: fixed; top: 5vh; left: 40vw;"">
            <div style=""margin:0 auto; width: 20vw; top: 8vh; font-size: 2vw""> 
            <font color=""green""> Bonus : $0 </font>
            </div>
        </div>
    ","null","","","","","","","",""
"","","","","","html-keyboard-response","22","126406","0.0-4.0-3.3","613024a95f48b6ceaeee8ad5","65576f040411c2a4be0341a4","65576f2ceb81814197f0f8c0","1970","./stimuli//pack_shapes_diff/cat_2/diff_2/ex_2_2_7.png","arrowright","response","ArrowRight","7","2","2","train","true",""
"","","","","","html-keyboard-response","23","127922","0.0-4.0-4.3","613024a95f48b6ceaeee8ad5","65576f040411c2a4be0341a4","65576f2ceb81814197f0f8c0","null","<p> <font color=""green"" size=""5vw""> Correct category! </font> </p>","null","feedback","","","","","","","0"
"","","","","","html-keyboard-response","24","130483","0.0-4.0-0.4","613024a95f48b6ceaeee8ad5","65576f040411c2a4be0341a4","65576f2ceb81814197f0f8c0","2561","
            
        <div style=""text-align: center; position: fixed; top: 5vh; left: 40vw;"">
            <div style=""margin:0 auto; width: 20vw; top: 8vh; font-size: 2vw""> 
            <font color=""green""> Bonus : $0 </font>
            </div>
        </div>
    
            <div> Please press any button to continue to the next trial.</div>
        ","j","ITI","","","","","","",""
"","","","","","html-keyboard-response","25","131097","0.0-4.0-1.4","613024a95f48b6ceaeee8ad5","65576f040411c2a4be0341a4","65576f2ceb81814197f0f8c0","null","
        
        <div style=""text-align: center; position: fixed; top: 5vh; left: 40vw;"">
            <div style=""margin:0 auto; width: 20vw; top: 8vh; font-size: 2vw""> 
            <font color=""green""> Bonus : $0 </font>
            </div>
        </div>
    
        <img class=""stim"" src=./stimuli//pack_shapes_diff/cat_2/diff_1/ex_2_1_6.png></img>
    ","null","stimulus","","","","","","",""
"","","","","","html-keyboard-response","26","132111","0.0-4.0-2.4","613024a95f48b6ceaeee8ad5","65576f040411c2a4be0341a4","65576f2ceb81814197f0f8c0","null","
        <div style=""text-align: center; position: fixed; top: 5vh; left: 40vw;"">
            <div style=""margin:0 auto; width: 20vw; top: 8vh; font-size: 2vw""> 
            <font color=""green""> Bonus : $0 </font>
            </div>
        </div>
    ","null","","","","","","","",""
"","","","","","html-keyboard-response","27","132553","0.0-4.0-3.4","613024a95f48b6ceaeee8ad5","65576f040411c2a4be0341a4","65576f2ceb81814197f0f8c0","442","./stimuli//pack_shapes_diff/cat_2/diff_1/ex_2_1_6.png","arrowleft","response","ArrowRight","6","2","1","train","false",""
"","","","","","html-keyboard-response","28","134124","0.0-4.0-4.4","613024a95f48b6ceaeee8ad5","65576f040411c2a4be0341a4","65576f2ceb81814197f0f8c0","null","<p> <font color=""red"" size=""5vw""> Wrong category! </font> </p>","null","feedback","","","","","","","0"
"","","","","","html-keyboard-response","29","137427","0.0-4.0-0.5","613024a95f48b6ceaeee8ad5","65576f040411c2a4be0341a4","65576f2ceb81814197f0f8c0","3301","
            
        <div style=""text-align: center; position: fixed; top: 5vh; left: 40vw;"">
            <div style=""margin:0 auto; width: 20vw; top: 8vh; font-size: 2vw""> 
            <font color=""green""> Bonus : $0 </font>
            </div>
        </div>
    
            <div> Please press any button to continue to the next trial.</div>
        ","k","ITI","","","","","","",""
"","","","","","html-keyboard-response","30","138032","0.0-4.0-1.5","613024a95f48b6ceaeee8ad5","65576f040411c2a4be0341a4","65576f2ceb81814197f0f8c0","null","
        
        <div style=""text-align: center; position: fixed; top: 5vh; left: 40vw;"">
            <div style=""margin:0 auto; width: 20vw; top: 8vh; font-size: 2vw""> 
            <font color=""green""> Bonus : $0 </font>
            </div>
        </div>
    
        <img class=""stim"" src=./stimuli//pack_shapes_diff/cat_2/diff_1/ex_2_1_2.png></img>
    ","null","stimulus","","","","","","",""
"","","","","","html-keyboard-response","31","139033","0.0-4.0-2.5","613024a95f48b6ceaeee8ad5","65576f040411c2a4be0341a4","65576f2ceb81814197f0f8c0","null","
        <div style=""text-align: center; position: fixed; top: 5vh; left: 40vw;"">
            <div style=""margin:0 auto; width: 20vw; top: 8vh; font-size: 2vw""> 
            <font color=""green""> Bonus : $0 </font>
            </div>
        </div>
    ","null","","","","","","","",""
"","","","","","html-keyboard-response","32","139567","0.0-4.0-3.5","613024a95f48b6ceaeee8ad5","65576f040411c2a4be0341a4","65576f2ceb81814197f0f8c0","533","./stimuli//pack_shapes_diff/cat_2/diff_1/ex_2_1_2.png","arrowleft","response","ArrowRight","2","2","1","train","false",""
"","","","","","html-keyboard-response","33","141080","0.0-4.0-4.5","613024a95f48b6ceaeee8ad5","65576f040411c2a4be0341a4","65576f2ceb81814197f0f8c0","null","<p> <font color=""red"" size=""5vw""> Wrong category! </font> </p>","null","feedback","","","","","","","0"
"","","","","","html-keyboard-response","34","144074","0.0-4.0-0.6","613024a95f48b6ceaeee8ad5","65576f040411c2a4be0341a4","65576f2ceb81814197f0f8c0","2995","
            
        <div style=""text-align: center; position: fixed; top: 5vh; left: 40vw;"">
            <div style=""margin:0 auto; width: 20vw; top: 8vh; font-size: 2vw""> 
            <font color=""green""> Bonus : $0 </font>
            </div>
        </div>
    
            <div> Please press any button to continue to the next trial.</div>
        ","k","ITI","","","","","","",""
"","","","","","html-keyboard-response","35","144684","0.0-4.0-1.6","613024a95f48b6ceaeee8ad5","65576f040411c2a4be0341a4","65576f2ceb81814197f0f8c0","null","
        
        <div style=""text-align: center; position: fixed; top: 5vh; left: 40vw;"">
            <div style=""margin:0 auto; width: 20vw; top: 8vh; font-size: 2vw""> 
            <font color=""green""> Bonus : $0 </font>
            </div>
        </div>
    
        <img class=""stim"" src=./stimuli//pack_shapes_diff/cat_1/diff_1/ex_1_1_1.png></img>
    ","null","stimulus","","","","","","",""
"","","","","","html-keyboard-response","36","145690","0.0-4.0-2.6","613024a95f48b6ceaeee8ad5","65576f040411c2a4be0341a4","65576f2ceb81814197f0f8c0","null","
        <div style=""text-align: center; position: fixed; top: 5vh; left: 40vw;"">
            <div style=""margin:0 auto; width: 20vw; top: 8vh; font-size: 2vw""> 
            <font color=""green""> Bonus : $0 </font>
            </div>
        </div>
    ","null","","","","","","","",""
"","","","","","html-keyboard-response","37","148805","0.0-4.0-3.6","613024a95f48b6ceaeee8ad5","65576f040411c2a4be0341a4","65576f2ceb81814197f0f8c0","3115","./stimuli//pack_shapes_diff/cat_1/diff_1/ex_1_1_1.png","arrowleft","response","ArrowLeft","1","1","1","train","true",""
"","","","","","html-keyboard-response","38","150321","0.0-4.0-4.6","613024a95f48b6ceaeee8ad5","65576f040411c2a4be0341a4","65576f2ceb81814197f0f8c0","null","<p> <font color=""green"" size=""5vw""> Correct category! </font> </p>","null","feedback","","","","","","","0"
"","","","","","html-keyboard-response","39","153562","0.0-4.0-0.7","613024a95f48b6ceaeee8ad5","65576f040411c2a4be0341a4","65576f2ceb81814197f0f8c0","3240","
            
        <div style=""text-align: center; position: fixed; top: 5vh; left: 40vw;"">
            <div style=""margin:0 auto; width: 20vw; top: 8vh; font-size: 2vw""> 
            <font color=""green""> Bonus : $0 </font>
            </div>
        </div>
    
            <div> Please press any button to continue to the next trial.</div>
        ","k","ITI","","","","","","",""
"","","","","","html-keyboard-response","40","154166","0.0-4.0-1.7","613024a95f48b6ceaeee8ad5","65576f040411c2a4be0341a4","65576f2ceb81814197f0f8c0","null","
        
        <div style=""text-align: center; position: fixed; top: 5vh; left: 40vw;"">
            <div style=""margin:0 auto; width: 20vw; top: 8vh; font-size: 2vw""> 
            <font color=""green""> Bonus : $0 </font>
            </div>
        </div>
    
        <img class=""stim"" src=./stimuli//pack_shapes_diff/cat_1/diff_2/ex_1_2_8.png></img>
    ","null","stimulus","","","","","","",""
"","","","","","html-keyboard-response","41","155173","0.0-4.0-2.7","613024a95f48b6ceaeee8ad5","65576f040411c2a4be0341a4","65576f2ceb81814197f0f8c0","null","
        <div style=""text-align: center; position: fixed; top: 5vh; left: 40vw;"">
            <div style=""margin:0 auto; width: 20vw; top: 8vh; font-size: 2vw""> 
            <font color=""green""> Bonus : $0 </font>
            </div>
        </div>
    ","null","","","","","","","",""
"","","","","","html-keyboard-response","42","156208","0.0-4.0-3.7","613024a95f48b6ceaeee8ad5","65576f040411c2a4be0341a4","65576f2ceb81814197f0f8c0","1034","./stimuli//pack_shapes_diff/cat_1/diff_2/ex_1_2_8.png","arrowright","response","ArrowLeft","8","1","2","train","false",""
"","","","","","html-keyboard-response","43","157716","0.0-4.0-4.7","613024a95f48b6ceaeee8ad5","65576f040411c2a4be0341a4","65576f2ceb81814197f0f8c0","null","<p> <font color=""red"" size=""5vw""> Wrong category! </font> </p>","null","feedback","","","","","","","0"
"","","","","","html-keyboard-response","44","166182","0.0-4.0-0.8","613024a95f48b6ceaeee8ad5","65576f040411c2a4be0341a4","65576f2ceb81814197f0f8c0","8465","
            
        <div style=""text-align: center; position: fixed; top: 5vh; left: 40vw;"">
            <div style=""margin:0 auto; width: 20vw; top: 8vh; font-size: 2vw""> 
            <font color=""green""> Bonus : $0 </font>
            </div>
        </div>
    
            <div> Please press any button to continue to the next trial.</div>
        ","arrowleft","ITI","","","","","","",""
"","","","","","html-keyboard-response","45","166788","0.0-4.0-1.8","613024a95f48b6ceaeee8ad5","65576f040411c2a4be0341a4","65576f2ceb81814197f0f8c0","null","
        
        <div style=""text-align: center; position: fixed; top: 5vh; left: 40vw;"">
            <div style=""margin:0 auto; width: 20vw; top: 8vh; font-size: 2vw""> 
            <font color=""green""> Bonus : $0 </font>
            </div>
        </div>
    
        <img class=""stim"" src=./stimuli//pack_shapes_diff/cat_2/diff_1/ex_2_1_7.png></img>
    ","null","stimulus","","","","","","",""
"","","","","","html-keyboard-response","46","167799","0.0-4.0-2.8","613024a95f48b6ceaeee8ad5","65576f040411c2a4be0341a4","65576f2ceb81814197f0f8c0","null","
        <div style=""text-align: center; position: fixed; top: 5vh; left: 40vw;"">
            <div style=""margin:0 auto; width: 20vw; top: 8vh; font-size: 2vw""> 
            <font color=""green""> Bonus : $0 </font>
            </div>
        </div>
    ","null","","","","","","","",""
"","","","","","html-keyboard-response","47","168245","0.0-4.0-3.8","613024a95f48b6ceaeee8ad5","65576f040411c2a4be0341a4","65576f2ceb81814197f0f8c0","445","./stimuli//pack_shapes_diff/cat_2/diff_1/ex_2_1_7.png","arrowright","response","ArrowRight","7","2","1","train","true",""
"","","","","","html-keyboard-response","48","169756","0.0-4.0-4.8","613024a95f48b6ceaeee8ad5","65576f040411c2a4be0341a4","65576f2ceb81814197f0f8c0","null","<p> <font color=""green"" size=""5vw""> Correct category! </font> </p>","null","feedback","","","","","","","0"
"","","","","","html-keyboard-response","49","170586","0.0-4.0-0.9","613024a95f48b6ceaeee8ad5","65576f040411c2a4be0341a4","65576f2ceb81814197f0f8c0","828","
            
        <div style=""text-align: center; position: fixed; top: 5vh; left: 40vw;"">
            <div style=""margin:0 auto; width: 20vw; top: 8vh; font-size: 2vw""> 
            <font color=""green""> Bonus : $0 </font>
            </div>
        </div>
    
            <div> Please press any button to continue to the next trial.</div>
        ","k","ITI","","","","","","",""
"","","","","","html-keyboard-response","50","171200","0.0-4.0-1.9","613024a95f48b6ceaeee8ad5","65576f040411c2a4be0341a4","65576f2ceb81814197f0f8c0","null","
        
        <div style=""text-align: center; position: fixed; top: 5vh; left: 40vw;"">
            <div style=""margin:0 auto; width: 20vw; top: 8vh; font-size: 2vw""> 
            <font color=""green""> Bonus : $0 </font>
            </div>
        </div>
    
        <img class=""stim"" src=./stimuli//pack_shapes_diff/cat_1/diff_2/ex_1_2_13.png></img>
    ","null","stimulus","","","","","","",""
"","","","","","html-keyboard-response","51","172204","0.0-4.0-2.9","613024a95f48b6ceaeee8ad5","65576f040411c2a4be0341a4","65576f2ceb81814197f0f8c0","null","
        <div style=""text-align: center; position: fixed; top: 5vh; left: 40vw;"">
            <div style=""margin:0 auto; width: 20vw; top: 8vh; font-size: 2vw""> 
            <font color=""green""> Bonus : $0 </font>
            </div>
        </div>
    ","null","","","","","","","",""
"","","","","","html-keyboard-response","52","172667","0.0-4.0-3.9","613024a95f48b6ceaeee8ad5","65576f040411c2a4be0341a4","65576f2ceb81814197f0f8c0","462","./stimuli//pack_shapes_diff/cat_1/diff_2/ex_1_2_13.png","arrowleft","response","ArrowLeft","13","1","2","train","true",""
"","","","","","html-keyboard-response","53","174171","0.0-4.0-4.9","613024a95f48b6ceaeee8ad5","65576f040411c2a4be0341a4","65576f2ceb81814197f0f8c0","null","<p> <font color=""green"" size=""5vw""> Correct category! </font> </p>","null","feedback","","","","","","","0"
"","","","","","html-keyboard-response","54","179153","0.0-5.0","613024a95f48b6ceaeee8ad5","65576f040411c2a4be0341a4","65576f2ceb81814197f0f8c0","4981","
            <b> <p> The practice round has finished.</p>
            <b> For the rest of the experiment you will receive a $0.05 bonus for each correct answer!</b>
            <p> Press any key to begin the test. </p>
            ","k","intermission","","","","","","",""
"","","","","","html-keyboard-response","55","182019","0.0-6.0-0.0","613024a95f48b6ceaeee8ad5","65576f040411c2a4be0341a4","65576f2ceb81814197f0f8c0","2865","
            
        <div style=""text-align: center; position: fixed; top: 5vh; left: 40vw;"">
            <div style=""margin:0 auto; width: 20vw; top: 8vh; font-size: 2vw""> 
            <font color=""green""> Bonus : $0 </font>
            </div>
        </div>
    
            <div> Please press any button to continue to the next trial.</div>
        ","k","ITI","","","","","","",""
"","","","","","html-keyboard-response","56","182622","0.0-6.0-1.0","613024a95f48b6ceaeee8ad5","65576f040411c2a4be0341a4","65576f2ceb81814197f0f8c0","null","
        
        <div style=""text-align: center; position: fixed; top: 5vh; left: 40vw;"">
            <div style=""margin:0 auto; width: 20vw; top: 8vh; font-size: 2vw""> 
            <font color=""green""> Bonus : $0 </font>
            </div>
        </div>
    
        <img class=""stim"" src=./stimuli//pack_shapes_diff/cat_2/diff_1/ex_2_1_16.png></img>
    ","null","stimulus","","","","","","",""
"","","","","","html-keyboard-response","57","183624","0.0-6.0-2.0","613024a95f48b6ceaeee8ad5","65576f040411c2a4be0341a4","65576f2ceb81814197f0f8c0","null","
        <div style=""text-align: center; position: fixed; top: 5vh; left: 40vw;"">
            <div style=""margin:0 auto; width: 20vw; top: 8vh; font-size: 2vw""> 
            <font color=""green""> Bonus : $0 </font>
            </div>
        </div>
    ","null","","","","","","","",""
"","","","","","html-keyboard-response","58","183787","0.0-6.0-3.0","613024a95f48b6ceaeee8ad5","65576f040411c2a4be0341a4","65576f2ceb81814197f0f8c0","163","./stimuli//pack_shapes_diff/cat_2/diff_1/ex_2_1_16.png","arrowright","response","ArrowRight","16","2","1","test","true",""
"","","","","","html-keyboard-response","59","185298","0.0-6.0-4.0","613024a95f48b6ceaeee8ad5","65576f040411c2a4be0341a4","65576f2ceb81814197f0f8c0","null","<p> <font color=""green"" size=""5vw""> Correct category! </font> <br> <br> <font color=""green"" size=""8vw""> + $0.05 </font> </p>","null","feedback","","","","","","","0.05"
"","","","","","html-keyboard-response","60","187309","0.0-6.1-0.1","613024a95f48b6ceaeee8ad5","65576f040411c2a4be0341a4","65576f2ceb81814197f0f8c0","2009","
            
        <div style=""text-align: center; position: fixed; top: 5vh; left: 40vw;"">
            <div style=""margin:0 auto; width: 20vw; top: 8vh; font-size: 2vw""> 
            <font color=""green""> Bonus : $0.05 </font>
            </div>
        </div>
    
            <div> Please press any button to continue to the next trial.</div>
        ","k","ITI","","","","","","",""
"","","","","","html-keyboard-response","61","187923","0.0-6.1-1.1","613024a95f48b6ceaeee8ad5","65576f040411c2a4be0341a4","65576f2ceb81814197f0f8c0","null","
        
        <div style=""text-align: center; position: fixed; top: 5vh; left: 40vw;"">
            <div style=""margin:0 auto; width: 20vw; top: 8vh; font-size: 2vw""> 
            <font color=""green""> Bonus : $0.05 </font>
            </div>
        </div>
    
        <img class=""stim"" src=./stimuli//pack_shapes_diff/cat_1/diff_1/ex_1_1_12.png></img>
    ","null","stimulus","","","","","","",""
"","","","","","html-keyboard-response","62","188938","0.0-6.1-2.1","613024a95f48b6ceaeee8ad5","65576f040411c2a4be0341a4","65576f2ceb81814197f0f8c0","null","
        <div style=""text-align: center; position: fixed; top: 5vh; left: 40vw;"">
            <div style=""margin:0 auto; width: 20vw; top: 8vh; font-size: 2vw""> 
            <font color=""green""> Bonus : $0.05 </font>
            </div>
        </div>
    ","null","","","","","","","",""
"","","","","","html-keyboard-response","63","189086","0.0-6.1-3.1","613024a95f48b6ceaeee8ad5","65576f040411c2a4be0341a4","65576f2ceb81814197f0f8c0","147","./stimuli//pack_shapes_diff/cat_1/diff_1/ex_1_1_12.png","arrowleft","response","ArrowLeft","12","1","1","test","true",""
"","","","","","html-keyboard-response","64","190590","0.0-6.1-4.1","613024a95f48b6ceaeee8ad5","65576f040411c2a4be0341a4","65576f2ceb81814197f0f8c0","null","<p> <font color=""green"" size=""5vw""> Correct category! </font> <br> <br> <font color=""green"" size=""8vw""> + $0.05 </font> </p>","null","feedback","","","","","","","0.1"
"","","","","","html-keyboard-response","65","191525","0.0-6.2-0.2","613024a95f48b6ceaeee8ad5","65576f040411c2a4be0341a4","65576f2ceb81814197f0f8c0","933","
            
        <div style=""text-align: center; position: fixed; top: 5vh; left: 40vw;"">
            <div style=""margin:0 auto; width: 20vw; top: 8vh; font-size: 2vw""> 
            <font color=""green""> Bonus : $0.1 </font>
            </div>
        </div>
    
            <div> Please press any button to continue to the next trial.</div>
        ","k","ITI","","","","","","",""
"","","","","","html-keyboard-response","66","192138","0.0-6.2-1.2","613024a95f48b6ceaeee8ad5","65576f040411c2a4be0341a4","65576f2ceb81814197f0f8c0","null","
        
        <div style=""text-align: center; position: fixed; top: 5vh; left: 40vw;"">
            <div style=""margin:0 auto; width: 20vw; top: 8vh; font-size: 2vw""> 
            <font color=""green""> Bonus : $0.1 </font>
            </div>
        </div>
    
        <img class=""stim"" src=./stimuli//pack_shapes_diff/cat_1/diff_1/ex_1_1_13.png></img>
    ","null","stimulus","","","","","","",""
"","","","","","html-keyboard-response","67","193146","0.0-6.2-2.2","613024a95f48b6ceaeee8ad5","65576f040411c2a4be0341a4","65576f2ceb81814197f0f8c0","null","
        <div style=""text-align: center; position: fixed; top: 5vh; left: 40vw;"">
            <div style=""margin:0 auto; width: 20vw; top: 8vh; font-size: 2vw""> 
            <font color=""green""> Bonus : $0.1 </font>
            </div>
        </div>
    ","null","","","","","","","",""
"","","","","","html-keyboard-response","68","193420","0.0-6.2-3.2","613024a95f48b6ceaeee8ad5","65576f040411c2a4be0341a4","65576f2ceb81814197f0f8c0","274","./stimuli//pack_shapes_diff/cat_1/diff_1/ex_1_1_13.png","arrowleft","response","ArrowLeft","13","1","1","test","true",""
"","","","","","html-keyboard-response","69","194921","0.0-6.2-4.2","613024a95f48b6ceaeee8ad5","65576f040411c2a4be0341a4","65576f2ceb81814197f0f8c0","null","<p> <font color=""green"" size=""5vw""> Correct category! </font> <br> <br> <font color=""green"" size=""8vw""> + $0.05 </font> </p>","null","feedback","","","","","","","0.15"
"","","","","","html-keyboard-response","70","196396","0.0-6.3-0.3","613024a95f48b6ceaeee8ad5","65576f040411c2a4be0341a4","65576f2ceb81814197f0f8c0","1474","
            
        <div style=""text-align: center; position: fixed; top: 5vh; left: 40vw;"">
            <div style=""margin:0 auto; width: 20vw; top: 8vh; font-size: 2vw""> 
            <font color=""green""> Bonus : $0.15 </font>
            </div>
        </div>
    
            <div> Please press any button to continue to the next trial.</div>
        ","k","ITI","","","","","","",""
"","","","","","html-keyboard-response","71","197012","0.0-6.3-1.3","613024a95f48b6ceaeee8ad5","65576f040411c2a4be0341a4","65576f2ceb81814197f0f8c0","null","
        
        <div style=""text-align: center; position: fixed; top: 5vh; left: 40vw;"">
            <div style=""margin:0 auto; width: 20vw; top: 8vh; font-size: 2vw""> 
            <font color=""green""> Bonus : $0.15 </font>
            </div>
        </div>
    
        <img class=""stim"" src=./stimuli//pack_shapes_diff/cat_1/diff_1/ex_1_1_10.png></img>
    ","null","stimulus","","","","","","",""
"","","","","","html-keyboard-response","72","198024","0.0-6.3-2.3","613024a95f48b6ceaeee8ad5","65576f040411c2a4be0341a4","65576f2ceb81814197f0f8c0","null","
        <div style=""text-align: center; position: fixed; top: 5vh; left: 40vw;"">
            <div style=""margin:0 auto; width: 20vw; top: 8vh; font-size: 2vw""> 
            <font color=""green""> Bonus : $0.15 </font>
            </div>
        </div>
    ","null","","","","","","","",""
"","","","","","html-keyboard-response","73","198626","0.0-6.3-3.3","613024a95f48b6ceaeee8ad5","65576f040411c2a4be0341a4","65576f2ceb81814197f0f8c0","600","./stimuli//pack_shapes_diff/cat_1/diff_1/ex_1_1_10.png","arrowright","response","ArrowLeft","10","1","1","test","false",""
"","","","","","html-keyboard-response","74","200133","0.0-6.3-4.3","613024a95f48b6ceaeee8ad5","65576f040411c2a4be0341a4","65576f2ceb81814197f0f8c0","null","<p> <font color=""red"" size=""5vw""> Wrong category! </font> </p>","null","feedback","","","","","","","0.15"
"","","","","","html-keyboard-response","75","202186","0.0-6.4-0.4","613024a95f48b6ceaeee8ad5","65576f040411c2a4be0341a4","65576f2ceb81814197f0f8c0","2053","
            
        <div style=""text-align: center; position: fixed; top: 5vh; left: 40vw;"">
            <div style=""margin:0 auto; width: 20vw; top: 8vh; font-size: 2vw""> 
            <font color=""green""> Bonus : $0.15 </font>
            </div>
        </div>
    
            <div> Please press any button to continue to the next trial.</div>
        ","k","ITI","","","","","","",""
"","","","","","html-keyboard-response","76","202792","0.0-6.4-1.4","613024a95f48b6ceaeee8ad5","65576f040411c2a4be0341a4","65576f2ceb81814197f0f8c0","null","
        
        <div style=""text-align: center; position: fixed; top: 5vh; left: 40vw;"">
            <div style=""margin:0 auto; width: 20vw; top: 8vh; font-size: 2vw""> 
            <font color=""green""> Bonus : $0.15 </font>
            </div>
        </div>
    
        <img class=""stim"" src=./stimuli//pack_shapes_diff/cat_1/diff_1/ex_1_1_10.png></img>
    ","null","stimulus","","","","","","",""
"","","","","","html-keyboard-response","77","203796","0.0-6.4-2.4","613024a95f48b6ceaeee8ad5","65576f040411c2a4be0341a4","65576f2ceb81814197f0f8c0","null","
        <div style=""text-align: center; position: fixed; top: 5vh; left: 40vw;"">
            <div style=""margin:0 auto; width: 20vw; top: 8vh; font-size: 2vw""> 
            <font color=""green""> Bonus : $0.15 </font>
            </div>
        </div>
    ","null","","","","","","","",""
"","","","","","html-keyboard-response","78","204298","0.0-6.4-3.4","613024a95f48b6ceaeee8ad5","65576f040411c2a4be0341a4","65576f2ceb81814197f0f8c0","501","./stimuli//pack_shapes_diff/cat_1/diff_1/ex_1_1_10.png","arrowleft","response","ArrowLeft","10","1","1","test","true",""
"","","","","","html-keyboard-response","79","205807","0.0-6.4-4.4","613024a95f48b6ceaeee8ad5","65576f040411c2a4be0341a4","65576f2ceb81814197f0f8c0","null","<p> <font color=""green"" size=""5vw""> Correct category! </font> <br> <br> <font color=""green"" size=""8vw""> + $0.05 </font> </p>","null","feedback","","","","","","","0.2"
"","","","","","html-keyboard-response","80","207626","0.0-6.5-0.5","613024a95f48b6ceaeee8ad5","65576f040411c2a4be0341a4","65576f2ceb81814197f0f8c0","1818","
            
        <div style=""text-align: center; position: fixed; top: 5vh; left: 40vw;"">
            <div style=""margin:0 auto; width: 20vw; top: 8vh; font-size: 2vw""> 
            <font color=""green""> Bonus : $0.2 </font>
            </div>
        </div>
    
            <div> Please press any button to continue to the next trial.</div>
        ","k","ITI","","","","","","",""
"","","","","","html-keyboard-response","81","208229","0.0-6.5-1.5","613024a95f48b6ceaeee8ad5","65576f040411c2a4be0341a4","65576f2ceb81814197f0f8c0","null","
        
        <div style=""text-align: center; position: fixed; top: 5vh; left: 40vw;"">
            <div style=""margin:0 auto; width: 20vw; top: 8vh; font-size: 2vw""> 
            <font color=""green""> Bonus : $0.2 </font>
            </div>
        </div>
    
        <img class=""stim"" src=./stimuli//pack_shapes_diff/cat_2/diff_2/ex_2_2_2.png></img>
    ","null","stimulus","","","","","","",""
"","","","","","html-keyboard-response","82","209245","0.0-6.5-2.5","613024a95f48b6ceaeee8ad5","65576f040411c2a4be0341a4","65576f2ceb81814197f0f8c0","null","
        <div style=""text-align: center; position: fixed; top: 5vh; left: 40vw;"">
            <div style=""margin:0 auto; width: 20vw; top: 8vh; font-size: 2vw""> 
            <font color=""green""> Bonus : $0.2 </font>
            </div>
        </div>
    ","null","","","","","","","",""
"","","","","","html-keyboard-response","83","209737","0.0-6.5-3.5","613024a95f48b6ceaeee8ad5","65576f040411c2a4be0341a4","65576f2ceb81814197f0f8c0","491","./stimuli//pack_shapes_diff/cat_2/diff_2/ex_2_2_2.png","arrowright","response","ArrowRight","2","2","2","test","true",""
"","","","","","html-keyboard-response","84","211256","0.0-6.5-4.5","613024a95f48b6ceaeee8ad5","65576f040411c2a4be0341a4","65576f2ceb81814197f0f8c0","null","<p> <font color=""green"" size=""5vw""> Correct category! </font> <br> <br> <font color=""green"" size=""8vw""> + $0.05 </font> </p>","null","feedback","","","","","","","0.25"
"","","","","","html-keyboard-response","85","212104","0.0-6.6-0.6","613024a95f48b6ceaeee8ad5","65576f040411c2a4be0341a4","65576f2ceb81814197f0f8c0","847","
            
        <div style=""text-align: center; position: fixed; top: 5vh; left: 40vw;"">
            <div style=""margin:0 auto; width: 20vw; top: 8vh; font-size: 2vw""> 
            <font color=""green""> Bonus : $0.25 </font>
            </div>
        </div>
    
            <div> Please press any button to continue to the next trial.</div>
        ","k","ITI","","","","","","",""
"","","","","","html-keyboard-response","86","212711","0.0-6.6-1.6","613024a95f48b6ceaeee8ad5","65576f040411c2a4be0341a4","65576f2ceb81814197f0f8c0","null","
        
        <div style=""text-align: center; position: fixed; top: 5vh; left: 40vw;"">
            <div style=""margin:0 auto; width: 20vw; top: 8vh; font-size: 2vw""> 
            <font color=""green""> Bonus : $0.25 </font>
            </div>
        </div>
    
        <img class=""stim"" src=./stimuli//pack_shapes_diff/cat_2/diff_2/ex_2_2_5.png></img>
    ","null","stimulus","","","","","","",""
"","","","","","html-keyboard-response","87","213718","0.0-6.6-2.6","613024a95f48b6ceaeee8ad5","65576f040411c2a4be0341a4","65576f2ceb81814197f0f8c0","null","
        <div style=""text-align: center; position: fixed; top: 5vh; left: 40vw;"">
            <div style=""margin:0 auto; width: 20vw; top: 8vh; font-size: 2vw""> 
            <font color=""green""> Bonus : $0.25 </font>
            </div>
        </div>
    ","null","","","","","","","",""
"","","","","","html-keyboard-response","88","213769","0.0-6.6-3.6","613024a95f48b6ceaeee8ad5","65576f040411c2a4be0341a4","65576f2ceb81814197f0f8c0","52","./stimuli//pack_shapes_diff/cat_2/diff_2/ex_2_2_5.png","arrowright","response","ArrowRight","5","2","2","test","true",""
"","","","","","html-keyboard-response","89","215277","0.0-6.6-4.6","613024a95f48b6ceaeee8ad5","65576f040411c2a4be0341a4","65576f2ceb81814197f0f8c0","null","<p> <font color=""green"" size=""5vw""> Correct category! </font> <br> <br> <font color=""green"" size=""8vw""> + $0.05 </font> </p>","null","feedback","","","","","","","0.3"
"","","","","","html-keyboard-response","90","216037","0.0-6.7-0.7","613024a95f48b6ceaeee8ad5","65576f040411c2a4be0341a4","65576f2ceb81814197f0f8c0","758","
            
        <div style=""text-align: center; position: fixed; top: 5vh; left: 40vw;"">
            <div style=""margin:0 auto; width: 20vw; top: 8vh; font-size: 2vw""> 
            <font color=""green""> Bonus : $0.3 </font>
            </div>
        </div>
    
            <div> Please press any button to continue to the next trial.</div>
        ","k","ITI","","","","","","",""
"","","","","","html-keyboard-response","91","216652","0.0-6.7-1.7","613024a95f48b6ceaeee8ad5","65576f040411c2a4be0341a4","65576f2ceb81814197f0f8c0","null","
        
        <div style=""text-align: center; position: fixed; top: 5vh; left: 40vw;"">
            <div style=""margin:0 auto; width: 20vw; top: 8vh; font-size: 2vw""> 
            <font color=""green""> Bonus : $0.3 </font>
            </div>
        </div>
    
        <img class=""stim"" src=./stimuli//pack_shapes_diff/cat_2/diff_2/ex_2_2_11.png></img>
    ","null","stimulus","","","","","","",""
"","","","","","html-keyboard-response","92","217660","0.0-6.7-2.7","613024a95f48b6ceaeee8ad5","65576f040411c2a4be0341a4","65576f2ceb81814197f0f8c0","null","
        <div style=""text-align: center; position: fixed; top: 5vh; left: 40vw;"">
            <div style=""margin:0 auto; width: 20vw; top: 8vh; font-size: 2vw""> 
            <font color=""green""> Bonus : $0.3 </font>
            </div>
        </div>
    ","null","","","","","","","",""
"","","","","","html-keyboard-response","93","218091","0.0-6.7-3.7","613024a95f48b6ceaeee8ad5","65576f040411c2a4be0341a4","65576f2ceb81814197f0f8c0","429","./stimuli//pack_shapes_diff/cat_2/diff_2/ex_2_2_11.png","arrowright","response","ArrowRight","11","2","2","test","true",""
"","","","","","html-keyboard-response","94","219599","0.0-6.7-4.7","613024a95f48b6ceaeee8ad5","65576f040411c2a4be0341a4","65576f2ceb81814197f0f8c0","null","<p> <font color=""green"" size=""5vw""> Correct category! </font> <br> <br> <font color=""green"" size=""8vw""> + $0.05 </font> </p>","null","feedback","","","","","","","0.35"
"","","","","","html-keyboard-response","95","220249","0.0-6.8-0.8","613024a95f48b6ceaeee8ad5","65576f040411c2a4be0341a4","65576f2ceb81814197f0f8c0","649","
            
        <div style=""text-align: center; position: fixed; top: 5vh; left: 40vw;"">
            <div style=""margin:0 auto; width: 20vw; top: 8vh; font-size: 2vw""> 
            <font color=""green""> Bonus : $0.35 </font>
            </div>
        </div>
    
            <div> Please press any button to continue to the next trial.</div>
        ","k","ITI","","","","","","",""
"","","","","","html-keyboard-response","96","220863","0.0-6.8-1.8","613024a95f48b6ceaeee8ad5","65576f040411c2a4be0341a4","65576f2ceb81814197f0f8c0","null","
        
        <div style=""text-align: center; position: fixed; top: 5vh; left: 40vw;"">
            <div style=""margin:0 auto; width: 20vw; top: 8vh; font-size: 2vw""> 
            <font color=""green""> Bonus : $0.35 </font>
            </div>
        </div>
    
        <img class=""stim"" src=./stimuli//pack_shapes_diff/cat_1/diff_2/ex_1_2_15.png></img>
    ","null","stimulus","","","","","","",""
"","","","","","html-keyboard-response","97","221875","0.0-6.8-2.8","613024a95f48b6ceaeee8ad5","65576f040411c2a4be0341a4","65576f2ceb81814197f0f8c0","null","
        <div style=""text-align: center; position: fixed; top: 5vh; left: 40vw;"">
            <div style=""margin:0 auto; width: 20vw; top: 8vh; font-size: 2vw""> 
            <font color=""green""> Bonus : $0.35 </font>
            </div>
        </div>
    ","null","","","","","","","",""
"","","","","","html-keyboard-response","98","222420","0.0-6.8-3.8","613024a95f48b6ceaeee8ad5","65576f040411c2a4be0341a4","65576f2ceb81814197f0f8c0","544","./stimuli//pack_shapes_diff/cat_1/diff_2/ex_1_2_15.png","arrowright","response","ArrowLeft","15","1","2","test","false",""
"","","","","","html-keyboard-response","99","223924","0.0-6.8-4.8","613024a95f48b6ceaeee8ad5","65576f040411c2a4be0341a4","65576f2ceb81814197f0f8c0","null","<p> <font color=""red"" size=""5vw""> Wrong category! </font> </p>","null","feedback","","","","","","","0.35"
"","","","","","html-keyboard-response","100","224662","0.0-6.9-0.9","613024a95f48b6ceaeee8ad5","65576f040411c2a4be0341a4","65576f2ceb81814197f0f8c0","737","
            
        <div style=""text-align: center; position: fixed; top: 5vh; left: 40vw;"">
            <div style=""margin:0 auto; width: 20vw; top: 8vh; font-size: 2vw""> 
            <font color=""green""> Bonus : $0.35 </font>
            </div>
        </div>
    
            <div> Please press any button to continue to the next trial.</div>
        ","k","ITI","","","","","","",""
"","","","","","html-keyboard-response","101","225270","0.0-6.9-1.9","613024a95f48b6ceaeee8ad5","65576f040411c2a4be0341a4","65576f2ceb81814197f0f8c0","null","
        
        <div style=""text-align: center; position: fixed; top: 5vh; left: 40vw;"">
            <div style=""margin:0 auto; width: 20vw; top: 8vh; font-size: 2vw""> 
            <font color=""green""> Bonus : $0.35 </font>
            </div>
        </div>
    
        <img class=""stim"" src=./stimuli//pack_shapes_diff/cat_2/diff_2/ex_2_2_8.png></img>
    ","null","stimulus","","","","","","",""
"","","","","","html-keyboard-response","102","226283","0.0-6.9-2.9","613024a95f48b6ceaeee8ad5","65576f040411c2a4be0341a4","65576f2ceb81814197f0f8c0","null","
        <div style=""text-align: center; position: fixed; top: 5vh; left: 40vw;"">
            <div style=""margin:0 auto; width: 20vw; top: 8vh; font-size: 2vw""> 
            <font color=""green""> Bonus : $0.35 </font>
            </div>
        </div>
    ","null","","","","","","","",""
"","","","","","html-keyboard-response","103","226734","0.0-6.9-3.9","613024a95f48b6ceaeee8ad5","65576f040411c2a4be0341a4","65576f2ceb81814197f0f8c0","451","./stimuli//pack_shapes_diff/cat_2/diff_2/ex_2_2_8.png","arrowright","response","ArrowRight","8","2","2","test","true",""
"","","","","","html-keyboard-response","104","228248","0.0-6.9-4.9","613024a95f48b6ceaeee8ad5","65576f040411c2a4be0341a4","65576f2ceb81814197f0f8c0","null","<p> <font color=""green"" size=""5vw""> Correct category! </font> <br> <br> <font color=""green"" size=""8vw""> + $0.05 </font> </p>","null","feedback","","","","","","","0.4"
"","","","","","html-keyboard-response","105","229008","0.0-6.10-0.10","613024a95f48b6ceaeee8ad5","65576f040411c2a4be0341a4","65576f2ceb81814197f0f8c0","758","
            
        <div style=""text-align: center; position: fixed; top: 5vh; left: 40vw;"">
            <div style=""margin:0 auto; width: 20vw; top: 8vh; font-size: 2vw""> 
            <font color=""green""> Bonus : $0.4 </font>
            </div>
        </div>
    
            <div> Please press any button to continue to the next trial.</div>
        ","k","ITI","","","","","","",""
"","","","","","html-keyboard-response","106","229612","0.0-6.10-1.10","613024a95f48b6ceaeee8ad5","65576f040411c2a4be0341a4","65576f2ceb81814197f0f8c0","null","
        
        <div style=""text-align: center; position: fixed; top: 5vh; left: 40vw;"">
            <div style=""margin:0 auto; width: 20vw; top: 8vh; font-size: 2vw""> 
            <font color=""green""> Bonus : $0.4 </font>
            </div>
        </div>
    
        <img class=""stim"" src=./stimuli//pack_shapes_diff/cat_1/diff_3/ex_1_3_1.png></img>
    ","null","stimulus","","","","","","",""
"","","","","","html-keyboard-response","107","230625","0.0-6.10-2.10","613024a95f48b6ceaeee8ad5","65576f040411c2a4be0341a4","65576f2ceb81814197f0f8c0","null","
        <div style=""text-align: center; position: fixed; top: 5vh; left: 40vw;"">
            <div style=""margin:0 auto; width: 20vw; top: 8vh; font-size: 2vw""> 
            <font color=""green""> Bonus : $0.4 </font>
            </div>
        </div>
    ","null","","","","","","","",""
"","","","","","html-keyboard-response","108","231126","0.0-6.10-3.10","613024a95f48b6ceaeee8ad5","65576f040411c2a4be0341a4","65576f2ceb81814197f0f8c0","501","./stimuli//pack_shapes_diff/cat_1/diff_3/ex_1_3_1.png","arrowright","response","ArrowLeft","1","1","3","test","false",""
"","","","","","html-keyboard-response","109","232628","0.0-6.10-4.10","613024a95f48b6ceaeee8ad5","65576f040411c2a4be0341a4","65576f2ceb81814197f0f8c0","null","<p> <font color=""red"" size=""5vw""> Wrong category! </font> </p>","null","feedback","","","","","","","0.4"
"","","","","","html-keyboard-response","110","233586","0.0-6.11-0.11","613024a95f48b6ceaeee8ad5","65576f040411c2a4be0341a4","65576f2ceb81814197f0f8c0","956","
            
        <div style=""text-align: center; position: fixed; top: 5vh; left: 40vw;"">
            <div style=""margin:0 auto; width: 20vw; top: 8vh; font-size: 2vw""> 
            <font color=""green""> Bonus : $0.4 </font>
            </div>
        </div>
    
            <div> Please press any button to continue to the next trial.</div>
        ","k","ITI","","","","","","",""
"","","","","","html-keyboard-response","111","234199","0.0-6.11-1.11","613024a95f48b6ceaeee8ad5","65576f040411c2a4be0341a4","65576f2ceb81814197f0f8c0","null","
        
        <div style=""text-align: center; position: fixed; top: 5vh; left: 40vw;"">
            <div style=""margin:0 auto; width: 20vw; top: 8vh; font-size: 2vw""> 
            <font color=""green""> Bonus : $0.4 </font>
            </div>
        </div>
    
        <img class=""stim"" src=./stimuli//pack_shapes_diff/cat_1/diff_3/ex_1_3_11.png></img>
    ","null","stimulus","","","","","","",""
"","","","","","html-keyboard-response","112","235203","0.0-6.11-2.11","613024a95f48b6ceaeee8ad5","65576f040411c2a4be0341a4","65576f2ceb81814197f0f8c0","null","
        <div style=""text-align: center; position: fixed; top: 5vh; left: 40vw;"">
            <div style=""margin:0 auto; width: 20vw; top: 8vh; font-size: 2vw""> 
            <font color=""green""> Bonus : $0.4 </font>
            </div>
        </div>
    ","null","","","","","","","",""
"","","","","","html-keyboard-response","113","235671","0.0-6.11-3.11","613024a95f48b6ceaeee8ad5","65576f040411c2a4be0341a4","65576f2ceb81814197f0f8c0","467","./stimuli//pack_shapes_diff/cat_1/diff_3/ex_1_3_11.png","arrowright","response","ArrowLeft","11","1","3","test","false",""
"","","","","","html-keyboard-response","114","237218","0.0-6.11-4.11","613024a95f48b6ceaeee8ad5","65576f040411c2a4be0341a4","65576f2ceb81814197f0f8c0","null","<p> <font color=""red"" size=""5vw""> Wrong category! </font> </p>","null","feedback","","","","","","","0.4"
"","","","","","html-keyboard-response","115","238658","0.0-6.12-0.12","613024a95f48b6ceaeee8ad5","65576f040411c2a4be0341a4","65576f2ceb81814197f0f8c0","1440","
            
        <div style=""text-align: center; position: fixed; top: 5vh; left: 40vw;"">
            <div style=""margin:0 auto; width: 20vw; top: 8vh; font-size: 2vw""> 
            <font color=""green""> Bonus : $0.4 </font>
            </div>
        </div>
    
            <div> Please press any button to continue to the next trial.</div>
        ","k","ITI","","","","","","",""
"","","","","","html-keyboard-response","116","239269","0.0-6.12-1.12","613024a95f48b6ceaeee8ad5","65576f040411c2a4be0341a4","65576f2ceb81814197f0f8c0","null","
        
        <div style=""text-align: center; position: fixed; top: 5vh; left: 40vw;"">
            <div style=""margin:0 auto; width: 20vw; top: 8vh; font-size: 2vw""> 
            <font color=""green""> Bonus : $0.4 </font>
            </div>
        </div>
    
        <img class=""stim"" src=./stimuli//pack_shapes_diff/cat_2/diff_3/ex_2_3_12.png></img>
    ","null","stimulus","","","","","","",""
"","","","","","html-keyboard-response","117","240270","0.0-6.12-2.12","613024a95f48b6ceaeee8ad5","65576f040411c2a4be0341a4","65576f2ceb81814197f0f8c0","null","
        <div style=""text-align: center; position: fixed; top: 5vh; left: 40vw;"">
            <div style=""margin:0 auto; width: 20vw; top: 8vh; font-size: 2vw""> 
            <font color=""green""> Bonus : $0.4 </font>
            </div>
        </div>
    ","null","","","","","","","",""
"","","","","","html-keyboard-response","118","240619","0.0-6.12-3.12","613024a95f48b6ceaeee8ad5","65576f040411c2a4be0341a4","65576f2ceb81814197f0f8c0","348","./stimuli//pack_shapes_diff/cat_2/diff_3/ex_2_3_12.png","arrowright","response","ArrowRight","12","2","3","test","true",""
"","","","","","html-keyboard-response","119","242126","0.0-6.12-4.12","613024a95f48b6ceaeee8ad5","65576f040411c2a4be0341a4","65576f2ceb81814197f0f8c0","null","<p> <font color=""green"" size=""5vw""> Correct category! </font> <br> <br> <font color=""green"" size=""8vw""> + $0.05 </font> </p>","null","feedback","","","","","","","0.45"
"","","","","","html-keyboard-response","120","242926","0.0-6.13-0.13","613024a95f48b6ceaeee8ad5","65576f040411c2a4be0341a4","65576f2ceb81814197f0f8c0","799","
            
        <div style=""text-align: center; position: fixed; top: 5vh; left: 40vw;"">
            <div style=""margin:0 auto; width: 20vw; top: 8vh; font-size: 2vw""> 
            <font color=""green""> Bonus : $0.45 </font>
            </div>
        </div>
    
            <div> Please press any button to continue to the next trial.</div>
        ","k","ITI","","","","","","",""
"","","","","","html-keyboard-response","121","243590","0.0-6.13-1.13","613024a95f48b6ceaeee8ad5","65576f040411c2a4be0341a4","65576f2ceb81814197f0f8c0","null","
        
        <div style=""text-align: center; position: fixed; top: 5vh; left: 40vw;"">
            <div style=""margin:0 auto; width: 20vw; top: 8vh; font-size: 2vw""> 
            <font color=""green""> Bonus : $0.45 </font>
            </div>
        </div>
    
        <img class=""stim"" src=./stimuli//pack_shapes_diff/cat_2/diff_3/ex_2_3_7.png></img>
    ","null","stimulus","","","","","","",""
"","","","","","html-keyboard-response","122","244596","0.0-6.13-2.13","613024a95f48b6ceaeee8ad5","65576f040411c2a4be0341a4","65576f2ceb81814197f0f8c0","null","
        <div style=""text-align: center; position: fixed; top: 5vh; left: 40vw;"">
            <div style=""margin:0 auto; width: 20vw; top: 8vh; font-size: 2vw""> 
            <font color=""green""> Bonus : $0.45 </font>
            </div>
        </div>
    ","null","","","","","","","",""
"","","","","","html-keyboard-response","123","245164","0.0-6.13-3.13","613024a95f48b6ceaeee8ad5","65576f040411c2a4be0341a4","65576f2ceb81814197f0f8c0","567","./stimuli//pack_shapes_diff/cat_2/diff_3/ex_2_3_7.png","arrowright","response","ArrowRight","7","2","3","test","true",""
"","","","","","html-keyboard-response","124","246820","0.0-6.13-4.13","613024a95f48b6ceaeee8ad5","65576f040411c2a4be0341a4","65576f2ceb81814197f0f8c0","null","<p> <font color=""green"" size=""5vw""> Correct category! </font> <br> <br> <font color=""green"" size=""8vw""> + $0.05 </font> </p>","null","feedback","","","","","","","0.5"
"","","","","","html-keyboard-response","125","247509","0.0-6.14-0.14","613024a95f48b6ceaeee8ad5","65576f040411c2a4be0341a4","65576f2ceb81814197f0f8c0","688","
            
        <div style=""text-align: center; position: fixed; top: 5vh; left: 40vw;"">
            <div style=""margin:0 auto; width: 20vw; top: 8vh; font-size: 2vw""> 
            <font color=""green""> Bonus : $0.5 </font>
            </div>
        </div>
    
            <div> Please press any button to continue to the next trial.</div>
        ","k","ITI","","","","","","",""
"","","","","","html-keyboard-response","126","248117","0.0-6.14-1.14","613024a95f48b6ceaeee8ad5","65576f040411c2a4be0341a4","65576f2ceb81814197f0f8c0","null","
        
        <div style=""text-align: center; position: fixed; top: 5vh; left: 40vw;"">
            <div style=""margin:0 auto; width: 20vw; top: 8vh; font-size: 2vw""> 
            <font color=""green""> Bonus : $0.5 </font>
            </div>
        </div>
    
        <img class=""stim"" src=./stimuli//pack_shapes_diff/cat_2/diff_3/ex_2_3_4.png></img>
    ","null","stimulus","","","","","","",""
"","","","","","html-keyboard-response","127","249133","0.0-6.14-2.14","613024a95f48b6ceaeee8ad5","65576f040411c2a4be0341a4","65576f2ceb81814197f0f8c0","null","
        <div style=""text-align: center; position: fixed; top: 5vh; left: 40vw;"">
            <div style=""margin:0 auto; width: 20vw; top: 8vh; font-size: 2vw""> 
            <font color=""green""> Bonus : $0.5 </font>
            </div>
        </div>
    ","null","","","","","","","",""
"","","","","","html-keyboard-response","128","249813","0.0-6.14-3.14","613024a95f48b6ceaeee8ad5","65576f040411c2a4be0341a4","65576f2ceb81814197f0f8c0","678","./stimuli//pack_shapes_diff/cat_2/diff_3/ex_2_3_4.png","arrowright","response","ArrowRight","4","2","3","test","true",""
"","","","","","html-keyboard-response","129","251318","0.0-6.14-4.14","613024a95f48b6ceaeee8ad5","65576f040411c2a4be0341a4","65576f2ceb81814197f0f8c0","null","<p> <font color=""green"" size=""5vw""> Correct category! </font> <br> <br> <font color=""green"" size=""8vw""> + $0.05 </font> </p>","null","feedback","","","","","","","0.55"
"","","","","","html-keyboard-response","130","251863","0.0-6.15-0.15","613024a95f48b6ceaeee8ad5","65576f040411c2a4be0341a4","65576f2ceb81814197f0f8c0","544","
            
        <div style=""text-align: center; position: fixed; top: 5vh; left: 40vw;"">
            <div style=""margin:0 auto; width: 20vw; top: 8vh; font-size: 2vw""> 
            <font color=""green""> Bonus : $0.55 </font>
            </div>
        </div>
    
            <div> Please press any button to continue to the next trial.</div>
        ","k","ITI","","","","","","",""
"","","","","","html-keyboard-response","131","252473","0.0-6.15-1.15","613024a95f48b6ceaeee8ad5","65576f040411c2a4be0341a4","65576f2ceb81814197f0f8c0","null","
        
        <div style=""text-align: center; position: fixed; top: 5vh; left: 40vw;"">
            <div style=""margin:0 auto; width: 20vw; top: 8vh; font-size: 2vw""> 
            <font color=""green""> Bonus : $0.55 </font>
            </div>
        </div>
    
        <img class=""stim"" src=./stimuli//pack_shapes_diff/cat_2/diff_2/ex_2_2_9.png></img>
    ","null","stimulus","","","","","","",""
"","","","","","html-keyboard-response","132","253476","0.0-6.15-2.15","613024a95f48b6ceaeee8ad5","65576f040411c2a4be0341a4","65576f2ceb81814197f0f8c0","null","
        <div style=""text-align: center; position: fixed; top: 5vh; left: 40vw;"">
            <div style=""margin:0 auto; width: 20vw; top: 8vh; font-size: 2vw""> 
            <font color=""green""> Bonus : $0.55 </font>
            </div>
        </div>
    ","null","","","","","","","",""
"","","","","","html-keyboard-response","133","253937","0.0-6.15-3.15","613024a95f48b6ceaeee8ad5","65576f040411c2a4be0341a4","65576f2ceb81814197f0f8c0","461","./stimuli//pack_shapes_diff/cat_2/diff_2/ex_2_2_9.png","arrowright","response","ArrowRight","9","2","2","test","true",""
"","","","","","html-keyboard-response","134","255486","0.0-6.15-4.15","613024a95f48b6ceaeee8ad5","65576f040411c2a4be0341a4","65576f2ceb81814197f0f8c0","null","<p> <font color=""green"" size=""5vw""> Correct category! </font> <br> <br> <font color=""green"" size=""8vw""> + $0.05 </font> </p>","null","feedback","","","","","","","0.6"
"","","","","","html-keyboard-response","135","256566","0.0-6.16-0.16","613024a95f48b6ceaeee8ad5","65576f040411c2a4be0341a4","65576f2ceb81814197f0f8c0","1078","
            
        <div style=""text-align: center; position: fixed; top: 5vh; left: 40vw;"">
            <div style=""margin:0 auto; width: 20vw; top: 8vh; font-size: 2vw""> 
            <font color=""green""> Bonus : $0.6 </font>
            </div>
        </div>
    
            <div> Please press any button to continue to the next trial.</div>
        ","k","ITI","","","","","","",""
"","","","","","html-keyboard-response","136","257178","0.0-6.16-1.16","613024a95f48b6ceaeee8ad5","65576f040411c2a4be0341a4","65576f2ceb81814197f0f8c0","null","
        
        <div style=""text-align: center; position: fixed; top: 5vh; left: 40vw;"">
            <div style=""margin:0 auto; width: 20vw; top: 8vh; font-size: 2vw""> 
            <font color=""green""> Bonus : $0.6 </font>
            </div>
        </div>
    
        <img class=""stim"" src=./stimuli//pack_shapes_diff/cat_2/diff_2/ex_2_2_12.png></img>
    ","null","stimulus","","","","","","",""
"","","","","","html-keyboard-response","137","258191","0.0-6.16-2.16","613024a95f48b6ceaeee8ad5","65576f040411c2a4be0341a4","65576f2ceb81814197f0f8c0","null","
        <div style=""text-align: center; position: fixed; top: 5vh; left: 40vw;"">
            <div style=""margin:0 auto; width: 20vw; top: 8vh; font-size: 2vw""> 
            <font color=""green""> Bonus : $0.6 </font>
            </div>
        </div>
    ","null","","","","","","","",""
"","","","","","html-keyboard-response","138","258714","0.0-6.16-3.16","613024a95f48b6ceaeee8ad5","65576f040411c2a4be0341a4","65576f2ceb81814197f0f8c0","522","./stimuli//pack_shapes_diff/cat_2/diff_2/ex_2_2_12.png","arrowright","response","ArrowRight","12","2","2","test","true",""
"","","","","","html-keyboard-response","139","260224","0.0-6.16-4.16","613024a95f48b6ceaeee8ad5","65576f040411c2a4be0341a4","65576f2ceb81814197f0f8c0","null","<p> <font color=""green"" size=""5vw""> Correct category! </font> <br> <br> <font color=""green"" size=""8vw""> + $0.05 </font> </p>","null","feedback","","","","","","","0.65"
"","","","","","html-keyboard-response","140","261136","0.0-6.17-0.17","613024a95f48b6ceaeee8ad5","65576f040411c2a4be0341a4","65576f2ceb81814197f0f8c0","911","
            
        <div style=""text-align: center; position: fixed; top: 5vh; left: 40vw;"">
            <div style=""margin:0 auto; width: 20vw; top: 8vh; font-size: 2vw""> 
            <font color=""green""> Bonus : $0.65 </font>
            </div>
        </div>
    
            <div> Please press any button to continue to the next trial.</div>
        ","k","ITI","","","","","","",""
"","","","","","html-keyboard-response","141","261754","0.0-6.17-1.17","613024a95f48b6ceaeee8ad5","65576f040411c2a4be0341a4","65576f2ceb81814197f0f8c0","null","
        
        <div style=""text-align: center; position: fixed; top: 5vh; left: 40vw;"">
            <div style=""margin:0 auto; width: 20vw; top: 8vh; font-size: 2vw""> 
            <font color=""green""> Bonus : $0.65 </font>
            </div>
        </div>
    
        <img class=""stim"" src=./stimuli//pack_shapes_diff/cat_1/diff_2/ex_1_2_11.png></img>
    ","null","stimulus","","","","","","",""
"","","","","","html-keyboard-response","142","262759","0.0-6.17-2.17","613024a95f48b6ceaeee8ad5","65576f040411c2a4be0341a4","65576f2ceb81814197f0f8c0","null","
        <div style=""text-align: center; position: fixed; top: 5vh; left: 40vw;"">
            <div style=""margin:0 auto; width: 20vw; top: 8vh; font-size: 2vw""> 
            <font color=""green""> Bonus : $0.65 </font>
            </div>
        </div>
    ","null","","","","","","","",""
"","","","","","html-keyboard-response","143","263396","0.0-6.17-3.17","613024a95f48b6ceaeee8ad5","65576f040411c2a4be0341a4","65576f2ceb81814197f0f8c0","636","./stimuli//pack_shapes_diff/cat_1/diff_2/ex_1_2_11.png","arrowleft","response","ArrowLeft","11","1","2","test","true",""
"","","","","","html-keyboard-response","144","264959","0.0-6.17-4.17","613024a95f48b6ceaeee8ad5","65576f040411c2a4be0341a4","65576f2ceb81814197f0f8c0","null","<p> <font color=""green"" size=""5vw""> Correct category! </font> <br> <br> <font color=""green"" size=""8vw""> + $0.05 </font> </p>","null","feedback","","","","","","","0.7"
"","","","","","html-keyboard-response","145","265730","0.0-6.18-0.18","613024a95f48b6ceaeee8ad5","65576f040411c2a4be0341a4","65576f2ceb81814197f0f8c0","769","
            
        <div style=""text-align: center; position: fixed; top: 5vh; left: 40vw;"">
            <div style=""margin:0 auto; width: 20vw; top: 8vh; font-size: 2vw""> 
            <font color=""green""> Bonus : $0.7 </font>
            </div>
        </div>
    
            <div> Please press any button to continue to the next trial.</div>
        ","k","ITI","","","","","","",""
"","","","","","html-keyboard-response","146","266335","0.0-6.18-1.18","613024a95f48b6ceaeee8ad5","65576f040411c2a4be0341a4","65576f2ceb81814197f0f8c0","null","
        
        <div style=""text-align: center; position: fixed; top: 5vh; left: 40vw;"">
            <div style=""margin:0 auto; width: 20vw; top: 8vh; font-size: 2vw""> 
            <font color=""green""> Bonus : $0.7 </font>
            </div>
        </div>
    
        <img class=""stim"" src=./stimuli//pack_shapes_diff/cat_1/diff_2/ex_1_2_4.png></img>
    ","null","stimulus","","","","","","",""
"","","","","","html-keyboard-response","147","267341","0.0-6.18-2.18","613024a95f48b6ceaeee8ad5","65576f040411c2a4be0341a4","65576f2ceb81814197f0f8c0","null","
        <div style=""text-align: center; position: fixed; top: 5vh; left: 40vw;"">
            <div style=""margin:0 auto; width: 20vw; top: 8vh; font-size: 2vw""> 
            <font color=""green""> Bonus : $0.7 </font>
            </div>
        </div>
    ","null","","","","","","","",""
"","","","","","html-keyboard-response","148","267794","0.0-6.18-3.18","613024a95f48b6ceaeee8ad5","65576f040411c2a4be0341a4","65576f2ceb81814197f0f8c0","451","./stimuli//pack_shapes_diff/cat_1/diff_2/ex_1_2_4.png","arrowleft","response","ArrowLeft","4","1","2","test","true",""
"","","","","","html-keyboard-response","149","269304","0.0-6.18-4.18","613024a95f48b6ceaeee8ad5","65576f040411c2a4be0341a4","65576f2ceb81814197f0f8c0","null","<p> <font color=""green"" size=""5vw""> Correct category! </font> <br> <br> <font color=""green"" size=""8vw""> + $0.05 </font> </p>","null","feedback","","","","","","","0.75"
"","","","","","html-keyboard-response","150","270651","0.0-6.19-0.19","613024a95f48b6ceaeee8ad5","65576f040411c2a4be0341a4","65576f2ceb81814197f0f8c0","1345","
            
        <div style=""text-align: center; position: fixed; top: 5vh; left: 40vw;"">
            <div style=""margin:0 auto; width: 20vw; top: 8vh; font-size: 2vw""> 
            <font color=""green""> Bonus : $0.75 </font>
            </div>
        </div>
    
            <div> Please press any button to continue to the next trial.</div>
        ","k","ITI","","","","","","",""
"","","","","","html-keyboard-response","151","271256","0.0-6.19-1.19","613024a95f48b6ceaeee8ad5","65576f040411c2a4be0341a4","65576f2ceb81814197f0f8c0","null","
        
        <div style=""text-align: center; position: fixed; top: 5vh; left: 40vw;"">
            <div style=""margin:0 auto; width: 20vw; top: 8vh; font-size: 2vw""> 
            <font color=""green""> Bonus : $0.75 </font>
            </div>
        </div>
    
        <img class=""stim"" src=./stimuli//pack_shapes_diff/cat_1/diff_2/ex_1_2_17.png></img>
    ","null","stimulus","","","","","","",""
"","","","","","html-keyboard-response","152","272269","0.0-6.19-2.19","613024a95f48b6ceaeee8ad5","65576f040411c2a4be0341a4","65576f2ceb81814197f0f8c0","null","
        <div style=""text-align: center; position: fixed; top: 5vh; left: 40vw;"">
            <div style=""margin:0 auto; width: 20vw; top: 8vh; font-size: 2vw""> 
            <font color=""green""> Bonus : $0.75 </font>
            </div>
        </div>
    ","null","","","","","","","",""
"","","","","","html-keyboard-response","153","272634","0.0-6.19-3.19","613024a95f48b6ceaeee8ad5","65576f040411c2a4be0341a4","65576f2ceb81814197f0f8c0","363","./stimuli//pack_shapes_diff/cat_1/diff_2/ex_1_2_17.png","arrowright","response","ArrowLeft","17","1","2","test","false",""
"","","","","","html-keyboard-response","154","274135","0.0-6.19-4.19","613024a95f48b6ceaeee8ad5","65576f040411c2a4be0341a4","65576f2ceb81814197f0f8c0","null","<p> <font color=""red"" size=""5vw""> Wrong category! </font> </p>","null","feedback","","","","","","","0.75"
"","","","","","html-keyboard-response","155","274847","0.0-6.20-0.20","613024a95f48b6ceaeee8ad5","65576f040411c2a4be0341a4","65576f2ceb81814197f0f8c0","711","
            
        <div style=""text-align: center; position: fixed; top: 5vh; left: 40vw;"">
            <div style=""margin:0 auto; width: 20vw; top: 8vh; font-size: 2vw""> 
            <font color=""green""> Bonus : $0.75 </font>
            </div>
        </div>
    
            <div> Please press any button to continue to the next trial.</div>
        ","k","ITI","","","","","","",""
"","","","","","html-keyboard-response","156","275461","0.0-6.20-1.20","613024a95f48b6ceaeee8ad5","65576f040411c2a4be0341a4","65576f2ceb81814197f0f8c0","null","
        
        <div style=""text-align: center; position: fixed; top: 5vh; left: 40vw;"">
            <div style=""margin:0 auto; width: 20vw; top: 8vh; font-size: 2vw""> 
            <font color=""green""> Bonus : $0.75 </font>
            </div>
        </div>
    
        <img class=""stim"" src=./stimuli//pack_shapes_diff/cat_1/diff_3/ex_1_3_5.png></img>
    ","null","stimulus","","","","","","",""
"","","","","","html-keyboard-response","157","276473","0.0-6.20-2.20","613024a95f48b6ceaeee8ad5","65576f040411c2a4be0341a4","65576f2ceb81814197f0f8c0","null","
        <div style=""text-align: center; position: fixed; top: 5vh; left: 40vw;"">
            <div style=""margin:0 auto; width: 20vw; top: 8vh; font-size: 2vw""> 
            <font color=""green""> Bonus : $0.75 </font>
            </div>
        </div>
    ","null","","","","","","","",""
"","","","","","html-keyboard-response","158","276825","0.0-6.20-3.20","613024a95f48b6ceaeee8ad5","65576f040411c2a4be0341a4","65576f2ceb81814197f0f8c0","351","./stimuli//pack_shapes_diff/cat_1/diff_3/ex_1_3_5.png","arrowleft","response","ArrowLeft","5","1","3","test","true",""
"","","","","","html-keyboard-response","159","278482","0.0-6.20-4.20","613024a95f48b6ceaeee8ad5","65576f040411c2a4be0341a4","65576f2ceb81814197f0f8c0","null","<p> <font color=""green"" size=""5vw""> Correct category! </font> <br> <br> <font color=""green"" size=""8vw""> + $0.05 </font> </p>","null","feedback","","","","","","","0.8"
"","","","","","html-keyboard-response","160","279863","0.0-6.21-0.21","613024a95f48b6ceaeee8ad5","65576f040411c2a4be0341a4","65576f2ceb81814197f0f8c0","1379","
            
        <div style=""text-align: center; position: fixed; top: 5vh; left: 40vw;"">
            <div style=""margin:0 auto; width: 20vw; top: 8vh; font-size: 2vw""> 
            <font color=""green""> Bonus : $0.8 </font>
            </div>
        </div>
    
            <div> Please press any button to continue to the next trial.</div>
        ","k","ITI","","","","","","",""
"","","","","","html-keyboard-response","161","280476","0.0-6.21-1.21","613024a95f48b6ceaeee8ad5","65576f040411c2a4be0341a4","65576f2ceb81814197f0f8c0","null","
        
        <div style=""text-align: center; position: fixed; top: 5vh; left: 40vw;"">
            <div style=""margin:0 auto; width: 20vw; top: 8vh; font-size: 2vw""> 
            <font color=""green""> Bonus : $0.8 </font>
            </div>
        </div>
    
        <img class=""stim"" src=./stimuli//pack_shapes_diff/cat_1/diff_3/ex_1_3_12.png></img>
    ","null","stimulus","","","","","","",""
"","","","","","html-keyboard-response","162","281482","0.0-6.21-2.21","613024a95f48b6ceaeee8ad5","65576f040411c2a4be0341a4","65576f2ceb81814197f0f8c0","null","
        <div style=""text-align: center; position: fixed; top: 5vh; left: 40vw;"">
            <div style=""margin:0 auto; width: 20vw; top: 8vh; font-size: 2vw""> 
            <font color=""green""> Bonus : $0.8 </font>
            </div>
        </div>
    ","null","","","","","","","",""
"","","","","","html-keyboard-response","163","281859","0.0-6.21-3.21","613024a95f48b6ceaeee8ad5","65576f040411c2a4be0341a4","65576f2ceb81814197f0f8c0","377","./stimuli//pack_shapes_diff/cat_1/diff_3/ex_1_3_12.png","arrowleft","response","ArrowLeft","12","1","3","test","true",""
"","","","","","html-keyboard-response","164","283363","0.0-6.21-4.21","613024a95f48b6ceaeee8ad5","65576f040411c2a4be0341a4","65576f2ceb81814197f0f8c0","null","<p> <font color=""green"" size=""5vw""> Correct category! </font> <br> <br> <font color=""green"" size=""8vw""> + $0.05 </font> </p>","null","feedback","","","","","","","0.85"
"","","","","","html-keyboard-response","165","284008","0.0-6.22-0.22","613024a95f48b6ceaeee8ad5","65576f040411c2a4be0341a4","65576f2ceb81814197f0f8c0","644","
            
        <div style=""text-align: center; position: fixed; top: 5vh; left: 40vw;"">
            <div style=""margin:0 auto; width: 20vw; top: 8vh; font-size: 2vw""> 
            <font color=""green""> Bonus : $0.85 </font>
            </div>
        </div>
    
            <div> Please press any button to continue to the next trial.</div>
        ","k","ITI","","","","","","",""
"","","","","","html-keyboard-response","166","284611","0.0-6.22-1.22","613024a95f48b6ceaeee8ad5","65576f040411c2a4be0341a4","65576f2ceb81814197f0f8c0","null","
        
        <div style=""text-align: center; position: fixed; top: 5vh; left: 40vw;"">
            <div style=""margin:0 auto; width: 20vw; top: 8vh; font-size: 2vw""> 
            <font color=""green""> Bonus : $0.85 </font>
            </div>
        </div>
    
        <img class=""stim"" src=./stimuli//pack_shapes_diff/cat_2/diff_3/ex_2_3_5.png></img>
    ","null","stimulus","","","","","","",""
"","","","","","html-keyboard-response","167","285621","0.0-6.22-2.22","613024a95f48b6ceaeee8ad5","65576f040411c2a4be0341a4","65576f2ceb81814197f0f8c0","null","
        <div style=""text-align: center; position: fixed; top: 5vh; left: 40vw;"">
            <div style=""margin:0 auto; width: 20vw; top: 8vh; font-size: 2vw""> 
            <font color=""green""> Bonus : $0.85 </font>
            </div>
        </div>
    ","null","","","","","","","",""
"","","","","","html-keyboard-response","168","286526","0.0-6.22-3.22","613024a95f48b6ceaeee8ad5","65576f040411c2a4be0341a4","65576f2ceb81814197f0f8c0","905","./stimuli//pack_shapes_diff/cat_2/diff_3/ex_2_3_5.png","arrowright","response","ArrowRight","5","2","3","test","true",""
"","","","","","html-keyboard-response","169","288032","0.0-6.22-4.22","613024a95f48b6ceaeee8ad5","65576f040411c2a4be0341a4","65576f2ceb81814197f0f8c0","null","<p> <font color=""green"" size=""5vw""> Correct category! </font> <br> <br> <font color=""green"" size=""8vw""> + $0.05 </font> </p>","null","feedback","","","","","","","0.9"
"","","","","","html-keyboard-response","170","289059","0.0-6.23-0.23","613024a95f48b6ceaeee8ad5","65576f040411c2a4be0341a4","65576f2ceb81814197f0f8c0","1026","
            
        <div style=""text-align: center; position: fixed; top: 5vh; left: 40vw;"">
            <div style=""margin:0 auto; width: 20vw; top: 8vh; font-size: 2vw""> 
            <font color=""green""> Bonus : $0.9 </font>
            </div>
        </div>
    
            <div> Please press any button to continue to the next trial.</div>
        ","k","ITI","","","","","","",""
"","","","","","html-keyboard-response","171","289666","0.0-6.23-1.23","613024a95f48b6ceaeee8ad5","65576f040411c2a4be0341a4","65576f2ceb81814197f0f8c0","null","
        
        <div style=""text-align: center; position: fixed; top: 5vh; left: 40vw;"">
            <div style=""margin:0 auto; width: 20vw; top: 8vh; font-size: 2vw""> 
            <font color=""green""> Bonus : $0.9 </font>
            </div>
        </div>
    
        <img class=""stim"" src=./stimuli//pack_shapes_diff/cat_1/diff_3/ex_1_3_3.png></img>
    ","null","stimulus","","","","","","",""
"","","","","","html-keyboard-response","172","290671","0.0-6.23-2.23","613024a95f48b6ceaeee8ad5","65576f040411c2a4be0341a4","65576f2ceb81814197f0f8c0","null","
        <div style=""text-align: center; position: fixed; top: 5vh; left: 40vw;"">
            <div style=""margin:0 auto; width: 20vw; top: 8vh; font-size: 2vw""> 
            <font color=""green""> Bonus : $0.9 </font>
            </div>
        </div>
    ","null","","","","","","","",""
"","","","","","html-keyboard-response","173","291381","0.0-6.23-3.23","613024a95f48b6ceaeee8ad5","65576f040411c2a4be0341a4","65576f2ceb81814197f0f8c0","708","./stimuli//pack_shapes_diff/cat_1/diff_3/ex_1_3_3.png","arrowright","response","ArrowLeft","3","1","3","test","false",""
"","","","","","html-keyboard-response","174","292895","0.0-6.23-4.23","613024a95f48b6ceaeee8ad5","65576f040411c2a4be0341a4","65576f2ceb81814197f0f8c0","null","<p> <font color=""red"" size=""5vw""> Wrong category! </font> </p>","null","feedback","","","","","","","0.9"
"","","","","","html-keyboard-response","175","293905","0.0-6.24-0.24","613024a95f48b6ceaeee8ad5","65576f040411c2a4be0341a4","65576f2ceb81814197f0f8c0","1009","
            
        <div style=""text-align: center; position: fixed; top: 5vh; left: 40vw;"">
            <div style=""margin:0 auto; width: 20vw; top: 8vh; font-size: 2vw""> 
            <font color=""green""> Bonus : $0.9 </font>
            </div>
        </div>
    
            <div> Please press any button to continue to the next trial.</div>
        ","k","ITI","","","","","","",""
"","","","","","html-keyboard-response","176","294516","0.0-6.24-1.24","613024a95f48b6ceaeee8ad5","65576f040411c2a4be0341a4","65576f2ceb81814197f0f8c0","null","
        
        <div style=""text-align: center; position: fixed; top: 5vh; left: 40vw;"">
            <div style=""margin:0 auto; width: 20vw; top: 8vh; font-size: 2vw""> 
            <font color=""green""> Bonus : $0.9 </font>
            </div>
        </div>
    
        <img class=""stim"" src=./stimuli//pack_shapes_diff/cat_2/diff_3/ex_2_3_13.png></img>
    ","null","stimulus","","","","","","",""
"","","","","","html-keyboard-response","177","295529","0.0-6.24-2.24","613024a95f48b6ceaeee8ad5","65576f040411c2a4be0341a4","65576f2ceb81814197f0f8c0","null","
        <div style=""text-align: center; position: fixed; top: 5vh; left: 40vw;"">
            <div style=""margin:0 auto; width: 20vw; top: 8vh; font-size: 2vw""> 
            <font color=""green""> Bonus : $0.9 </font>
            </div>
        </div>
    ","null","","","","","","","",""
"","","","","","html-keyboard-response","178","295895","0.0-6.24-3.24","613024a95f48b6ceaeee8ad5","65576f040411c2a4be0341a4","65576f2ceb81814197f0f8c0","365","./stimuli//pack_shapes_diff/cat_2/diff_3/ex_2_3_13.png","arrowright","response","ArrowRight","13","2","3","test","true",""
"","","","","","html-keyboard-response","179","297407","0.0-6.24-4.24","613024a95f48b6ceaeee8ad5","65576f040411c2a4be0341a4","65576f2ceb81814197f0f8c0","null","<p> <font color=""green"" size=""5vw""> Correct category! </font> <br> <br> <font color=""green"" size=""8vw""> + $0.05 </font> </p>","null","feedback","","","","","","","0.95"
"","","","","","html-keyboard-response","180","299176","0.0-6.25-0.25","613024a95f48b6ceaeee8ad5","65576f040411c2a4be0341a4","65576f2ceb81814197f0f8c0","1770","
            
        <div style=""text-align: center; position: fixed; top: 5vh; left: 40vw;"">
            <div style=""margin:0 auto; width: 20vw; top: 8vh; font-size: 2vw""> 
            <font color=""green""> Bonus : $0.95 </font>
            </div>
        </div>
    
            <div> Please press any button to continue to the next trial.</div>
        ","k","ITI","","","","","","",""
"","","","","","html-keyboard-response","181","299789","0.0-6.25-1.25","613024a95f48b6ceaeee8ad5","65576f040411c2a4be0341a4","65576f2ceb81814197f0f8c0","null","
        
        <div style=""text-align: center; position: fixed; top: 5vh; left: 40vw;"">
            <div style=""margin:0 auto; width: 20vw; top: 8vh; font-size: 2vw""> 
            <font color=""green""> Bonus : $0.95 </font>
            </div>
        </div>
    
        <img class=""stim"" src=./stimuli//pack_shapes_diff/cat_2/diff_4/ex_2_4_9.png></img>
    ","null","stimulus","","","","","","",""
"","","","","","html-keyboard-response","182","300801","0.0-6.25-2.25","613024a95f48b6ceaeee8ad5","65576f040411c2a4be0341a4","65576f2ceb81814197f0f8c0","null","
        <div style=""text-align: center; position: fixed; top: 5vh; left: 40vw;"">
            <div style=""margin:0 auto; width: 20vw; top: 8vh; font-size: 2vw""> 
            <font color=""green""> Bonus : $0.95 </font>
            </div>
        </div>
    ","null","","","","","","","",""
"","","","","","html-keyboard-response","183","301342","0.0-6.25-3.25","613024a95f48b6ceaeee8ad5","65576f040411c2a4be0341a4","65576f2ceb81814197f0f8c0","541","./stimuli//pack_shapes_diff/cat_2/diff_4/ex_2_4_9.png","arrowright","response","ArrowRight","9","2","4","test","true",""
"","","","","","html-keyboard-response","184","302856","0.0-6.25-4.25","613024a95f48b6ceaeee8ad5","65576f040411c2a4be0341a4","65576f2ceb81814197f0f8c0","null","<p> <font color=""green"" size=""5vw""> Correct category! </font> <br> <br> <font color=""green"" size=""8vw""> + $0.05 </font> </p>","null","feedback","","","","","","","1"
"","","","","","html-keyboard-response","185","303673","0.0-6.26-0.26","613024a95f48b6ceaeee8ad5","65576f040411c2a4be0341a4","65576f2ceb81814197f0f8c0","816","
            
        <div style=""text-align: center; position: fixed; top: 5vh; left: 40vw;"">
            <div style=""margin:0 auto; width: 20vw; top: 8vh; font-size: 2vw""> 
            <font color=""green""> Bonus : $1 </font>
            </div>
        </div>
    
            <div> Please press any button to continue to the next trial.</div>
        ","k","ITI","","","","","","",""
"","","","","","html-keyboard-response","186","304285","0.0-6.26-1.26","613024a95f48b6ceaeee8ad5","65576f040411c2a4be0341a4","65576f2ceb81814197f0f8c0","null","
        
        <div style=""text-align: center; position: fixed; top: 5vh; left: 40vw;"">
            <div style=""margin:0 auto; width: 20vw; top: 8vh; font-size: 2vw""> 
            <font color=""green""> Bonus : $1 </font>
            </div>
        </div>
    
        <img class=""stim"" src=./stimuli//pack_shapes_diff/cat_2/diff_4/ex_2_4_13.png></img>
    ","null","stimulus","","","","","","",""
"","","","","","html-keyboard-response","187","305298","0.0-6.26-2.26","613024a95f48b6ceaeee8ad5","65576f040411c2a4be0341a4","65576f2ceb81814197f0f8c0","null","
        <div style=""text-align: center; position: fixed; top: 5vh; left: 40vw;"">
            <div style=""margin:0 auto; width: 20vw; top: 8vh; font-size: 2vw""> 
            <font color=""green""> Bonus : $1 </font>
            </div>
        </div>
    ","null","","","","","","","",""
"","","","","","html-keyboard-response","188","305948","0.0-6.26-3.26","613024a95f48b6ceaeee8ad5","65576f040411c2a4be0341a4","65576f2ceb81814197f0f8c0","649","./stimuli//pack_shapes_diff/cat_2/diff_4/ex_2_4_13.png","arrowright","response","ArrowRight","13","2","4","test","true",""
"","","","","","html-keyboard-response","189","307463","0.0-6.26-4.26","613024a95f48b6ceaeee8ad5","65576f040411c2a4be0341a4","65576f2ceb81814197f0f8c0","null","<p> <font color=""green"" size=""5vw""> Correct category! </font> <br> <br> <font color=""green"" size=""8vw""> + $0.05 </font> </p>","null","feedback","","","","","","","1.05"
"","","","","","html-keyboard-response","190","308839","0.0-6.27-0.27","613024a95f48b6ceaeee8ad5","65576f040411c2a4be0341a4","65576f2ceb81814197f0f8c0","1375","
            
        <div style=""text-align: center; position: fixed; top: 5vh; left: 40vw;"">
            <div style=""margin:0 auto; width: 20vw; top: 8vh; font-size: 2vw""> 
            <font color=""green""> Bonus : $1.05 </font>
            </div>
        </div>
    
            <div> Please press any button to continue to the next trial.</div>
        ","k","ITI","","","","","","",""
"","","","","","html-keyboard-response","191","309443","0.0-6.27-1.27","613024a95f48b6ceaeee8ad5","65576f040411c2a4be0341a4","65576f2ceb81814197f0f8c0","null","
        
        <div style=""text-align: center; position: fixed; top: 5vh; left: 40vw;"">
            <div style=""margin:0 auto; width: 20vw; top: 8vh; font-size: 2vw""> 
            <font color=""green""> Bonus : $1.05 </font>
            </div>
        </div>
    
        <img class=""stim"" src=./stimuli//pack_shapes_diff/cat_2/diff_4/ex_2_4_16.png></img>
    ","null","stimulus","","","","","","",""
"","","","","","html-keyboard-response","192","310445","0.0-6.27-2.27","613024a95f48b6ceaeee8ad5","65576f040411c2a4be0341a4","65576f2ceb81814197f0f8c0","null","
        <div style=""text-align: center; position: fixed; top: 5vh; left: 40vw;"">
            <div style=""margin:0 auto; width: 20vw; top: 8vh; font-size: 2vw""> 
            <font color=""green""> Bonus : $1.05 </font>
            </div>
        </div>
    ","null","","","","","","","",""
"","","","","","html-keyboard-response","193","311698","0.0-6.27-3.27","613024a95f48b6ceaeee8ad5","65576f040411c2a4be0341a4","65576f2ceb81814197f0f8c0","1252","./stimuli//pack_shapes_diff/cat_2/diff_4/ex_2_4_16.png","arrowleft","response","ArrowRight","16","2","4","test","false",""
"","","","","","html-keyboard-response","194","313207","0.0-6.27-4.27","613024a95f48b6ceaeee8ad5","65576f040411c2a4be0341a4","65576f2ceb81814197f0f8c0","null","<p> <font color=""red"" size=""5vw""> Wrong category! </font> </p>","null","feedback","","","","","","","1.05"
"","","","","","html-keyboard-response","195","314265","0.0-6.28-0.28","613024a95f48b6ceaeee8ad5","65576f040411c2a4be0341a4","65576f2ceb81814197f0f8c0","1057","
            
        <div style=""text-align: center; position: fixed; top: 5vh; left: 40vw;"">
            <div style=""margin:0 auto; width: 20vw; top: 8vh; font-size: 2vw""> 
            <font color=""green""> Bonus : $1.05 </font>
            </div>
        </div>
    
            <div> Please press any button to continue to the next trial.</div>
        ","k","ITI","","","","","","",""
"","","","","","html-keyboard-response","196","314874","0.0-6.28-1.28","613024a95f48b6ceaeee8ad5","65576f040411c2a4be0341a4","65576f2ceb81814197f0f8c0","null","
        
        <div style=""text-align: center; position: fixed; top: 5vh; left: 40vw;"">
            <div style=""margin:0 auto; width: 20vw; top: 8vh; font-size: 2vw""> 
            <font color=""green""> Bonus : $1.05 </font>
            </div>
        </div>
    
        <img class=""stim"" src=./stimuli//pack_shapes_diff/cat_1/diff_4/ex_1_4_13.png></img>
    ","null","stimulus","","","","","","",""
"","","","","","html-keyboard-response","197","315879","0.0-6.28-2.28","613024a95f48b6ceaeee8ad5","65576f040411c2a4be0341a4","65576f2ceb81814197f0f8c0","null","
        <div style=""text-align: center; position: fixed; top: 5vh; left: 40vw;"">
            <div style=""margin:0 auto; width: 20vw; top: 8vh; font-size: 2vw""> 
            <font color=""green""> Bonus : $1.05 </font>
            </div>
        </div>
    ","null","","","","","","","",""
"","","","","","html-keyboard-response","198","316323","0.0-6.28-3.28","613024a95f48b6ceaeee8ad5","65576f040411c2a4be0341a4","65576f2ceb81814197f0f8c0","444","./stimuli//pack_shapes_diff/cat_1/diff_4/ex_1_4_13.png","arrowleft","response","ArrowLeft","13","1","4","test","true",""
"","","","","","html-keyboard-response","199","317839","0.0-6.28-4.28","613024a95f48b6ceaeee8ad5","65576f040411c2a4be0341a4","65576f2ceb81814197f0f8c0","null","<p> <font color=""green"" size=""5vw""> Correct category! </font> <br> <br> <font color=""green"" size=""8vw""> + $0.05 </font> </p>","null","feedback","","","","","","","1.1"
"","","","","","html-keyboard-response","200","318422","0.0-6.29-0.29","613024a95f48b6ceaeee8ad5","65576f040411c2a4be0341a4","65576f2ceb81814197f0f8c0","581","
            
        <div style=""text-align: center; position: fixed; top: 5vh; left: 40vw;"">
            <div style=""margin:0 auto; width: 20vw; top: 8vh; font-size: 2vw""> 
            <font color=""green""> Bonus : $1.1 </font>
            </div>
        </div>
    
            <div> Please press any button to continue to the next trial.</div>
        ","k","ITI","","","","","","",""
"","","","","","html-keyboard-response","201","319029","0.0-6.29-1.29","613024a95f48b6ceaeee8ad5","65576f040411c2a4be0341a4","65576f2ceb81814197f0f8c0","null","
        
        <div style=""text-align: center; position: fixed; top: 5vh; left: 40vw;"">
            <div style=""margin:0 auto; width: 20vw; top: 8vh; font-size: 2vw""> 
            <font color=""green""> Bonus : $1.1 </font>
            </div>
        </div>
    
        <img class=""stim"" src=./stimuli//pack_shapes_diff/cat_1/diff_4/ex_1_4_9.png></img>
    ","null","stimulus","","","","","","",""
"","","","","","html-keyboard-response","202","320042","0.0-6.29-2.29","613024a95f48b6ceaeee8ad5","65576f040411c2a4be0341a4","65576f2ceb81814197f0f8c0","null","
        <div style=""text-align: center; position: fixed; top: 5vh; left: 40vw;"">
            <div style=""margin:0 auto; width: 20vw; top: 8vh; font-size: 2vw""> 
            <font color=""green""> Bonus : $1.1 </font>
            </div>
        </div>
    ","null","","","","","","","",""
"","","","","","html-keyboard-response","203","320320","0.0-6.29-3.29","613024a95f48b6ceaeee8ad5","65576f040411c2a4be0341a4","65576f2ceb81814197f0f8c0","277","./stimuli//pack_shapes_diff/cat_1/diff_4/ex_1_4_9.png","arrowleft","response","ArrowLeft","9","1","4","test","true",""
"","","","","","html-keyboard-response","204","321834","0.0-6.29-4.29","613024a95f48b6ceaeee8ad5","65576f040411c2a4be0341a4","65576f2ceb81814197f0f8c0","null","<p> <font color=""green"" size=""5vw""> Correct category! </font> <br> <br> <font color=""green"" size=""8vw""> + $0.05 </font> </p>","null","feedback","","","","","","","1.15"
"","","","","","html-keyboard-response","205","322748","0.0-6.30-0.30","613024a95f48b6ceaeee8ad5","65576f040411c2a4be0341a4","65576f2ceb81814197f0f8c0","913","
            
        <div style=""text-align: center; position: fixed; top: 5vh; left: 40vw;"">
            <div style=""margin:0 auto; width: 20vw; top: 8vh; font-size: 2vw""> 
            <font color=""green""> Bonus : $1.15 </font>
            </div>
        </div>
    
            <div> Please press any button to continue to the next trial.</div>
        ","k","ITI","","","","","","",""
"","","","","","html-keyboard-response","206","323360","0.0-6.30-1.30","613024a95f48b6ceaeee8ad5","65576f040411c2a4be0341a4","65576f2ceb81814197f0f8c0","null","
        
        <div style=""text-align: center; position: fixed; top: 5vh; left: 40vw;"">
            <div style=""margin:0 auto; width: 20vw; top: 8vh; font-size: 2vw""> 
            <font color=""green""> Bonus : $1.15 </font>
            </div>
        </div>
    
        <img class=""stim"" src=./stimuli//pack_shapes_diff/cat_1/diff_5/ex_1_5_6.png></img>
    ","null","stimulus","","","","","","",""
"","","","","","html-keyboard-response","207","324367","0.0-6.30-2.30","613024a95f48b6ceaeee8ad5","65576f040411c2a4be0341a4","65576f2ceb81814197f0f8c0","null","
        <div style=""text-align: center; position: fixed; top: 5vh; left: 40vw;"">
            <div style=""margin:0 auto; width: 20vw; top: 8vh; font-size: 2vw""> 
            <font color=""green""> Bonus : $1.15 </font>
            </div>
        </div>
    ","null","","","","","","","",""
"","","","","","html-keyboard-response","208","325679","0.0-6.30-3.30","613024a95f48b6ceaeee8ad5","65576f040411c2a4be0341a4","65576f2ceb81814197f0f8c0","1311","./stimuli//pack_shapes_diff/cat_1/diff_5/ex_1_5_6.png","arrowleft","response","ArrowLeft","6","1","5","test","true",""
"","","","","","html-keyboard-response","209","327360","0.0-6.30-4.30","613024a95f48b6ceaeee8ad5","65576f040411c2a4be0341a4","65576f2ceb81814197f0f8c0","null","<p> <font color=""green"" size=""5vw""> Correct category! </font> <br> <br> <font color=""green"" size=""8vw""> + $0.05 </font> </p>","null","feedback","","","","","","","1.2"
"","","","","","html-keyboard-response","210","328281","0.0-6.31-0.31","613024a95f48b6ceaeee8ad5","65576f040411c2a4be0341a4","65576f2ceb81814197f0f8c0","920","
            
        <div style=""text-align: center; position: fixed; top: 5vh; left: 40vw;"">
            <div style=""margin:0 auto; width: 20vw; top: 8vh; font-size: 2vw""> 
            <font color=""green""> Bonus : $1.2 </font>
            </div>
        </div>
    
            <div> Please press any button to continue to the next trial.</div>
        ","k","ITI","","","","","","",""
"","","","","","html-keyboard-response","211","328888","0.0-6.31-1.31","613024a95f48b6ceaeee8ad5","65576f040411c2a4be0341a4","65576f2ceb81814197f0f8c0","null","
        
        <div style=""text-align: center; position: fixed; top: 5vh; left: 40vw;"">
            <div style=""margin:0 auto; width: 20vw; top: 8vh; font-size: 2vw""> 
            <font color=""green""> Bonus : $1.2 </font>
            </div>
        </div>
    
        <img class=""stim"" src=./stimuli//pack_shapes_diff/cat_1/diff_5/ex_1_5_10.png></img>
    ","null","stimulus","","","","","","",""
"","","","","","html-keyboard-response","212","329893","0.0-6.31-2.31","613024a95f48b6ceaeee8ad5","65576f040411c2a4be0341a4","65576f2ceb81814197f0f8c0","null","
        <div style=""text-align: center; position: fixed; top: 5vh; left: 40vw;"">
            <div style=""margin:0 auto; width: 20vw; top: 8vh; font-size: 2vw""> 
            <font color=""green""> Bonus : $1.2 </font>
            </div>
        </div>
    ","null","","","","","","","",""
"","","","","","html-keyboard-response","213","330166","0.0-6.31-3.31","613024a95f48b6ceaeee8ad5","65576f040411c2a4be0341a4","65576f2ceb81814197f0f8c0","273","./stimuli//pack_shapes_diff/cat_1/diff_5/ex_1_5_10.png","arrowleft","response","ArrowLeft","10","1","5","test","true",""
"","","","","","html-keyboard-response","214","331672","0.0-6.31-4.31","613024a95f48b6ceaeee8ad5","65576f040411c2a4be0341a4","65576f2ceb81814197f0f8c0","null","<p> <font color=""green"" size=""5vw""> Correct category! </font> <br> <br> <font color=""green"" size=""8vw""> + $0.05 </font> </p>","null","feedback","","","","","","","1.25"
"","","","","","html-keyboard-response","215","332197","0.0-6.32-0.32","613024a95f48b6ceaeee8ad5","65576f040411c2a4be0341a4","65576f2ceb81814197f0f8c0","525","
            
        <div style=""text-align: center; position: fixed; top: 5vh; left: 40vw;"">
            <div style=""margin:0 auto; width: 20vw; top: 8vh; font-size: 2vw""> 
            <font color=""green""> Bonus : $1.25 </font>
            </div>
        </div>
    
            <div> Please press any button to continue to the next trial.</div>
        ","k","ITI","","","","","","",""
"","","","","","html-keyboard-response","216","332878","0.0-6.32-1.32","613024a95f48b6ceaeee8ad5","65576f040411c2a4be0341a4","65576f2ceb81814197f0f8c0","null","
        
        <div style=""text-align: center; position: fixed; top: 5vh; left: 40vw;"">
            <div style=""margin:0 auto; width: 20vw; top: 8vh; font-size: 2vw""> 
            <font color=""green""> Bonus : $1.25 </font>
            </div>
        </div>
    
        <img class=""stim"" src=./stimuli//pack_shapes_diff/cat_1/diff_5/ex_1_5_9.png></img>
    ","null","stimulus","","","","","","",""
"","","","","","html-keyboard-response","217","333894","0.0-6.32-2.32","613024a95f48b6ceaeee8ad5","65576f040411c2a4be0341a4","65576f2ceb81814197f0f8c0","null","
        <div style=""text-align: center; position: fixed; top: 5vh; left: 40vw;"">
            <div style=""margin:0 auto; width: 20vw; top: 8vh; font-size: 2vw""> 
            <font color=""green""> Bonus : $1.25 </font>
            </div>
        </div>
    ","null","","","","","","","",""
"","","","","","html-keyboard-response","218","334310","0.0-6.32-3.32","613024a95f48b6ceaeee8ad5","65576f040411c2a4be0341a4","65576f2ceb81814197f0f8c0","416","./stimuli//pack_shapes_diff/cat_1/diff_5/ex_1_5_9.png","arrowright","response","ArrowLeft","9","1","5","test","false",""
"","","","","","html-keyboard-response","219","335818","0.0-6.32-4.32","613024a95f48b6ceaeee8ad5","65576f040411c2a4be0341a4","65576f2ceb81814197f0f8c0","null","<p> <font color=""red"" size=""5vw""> Wrong category! </font> </p>","null","feedback","","","","","","","1.25"
"","","","","","html-keyboard-response","220","336904","0.0-6.33-0.33","613024a95f48b6ceaeee8ad5","65576f040411c2a4be0341a4","65576f2ceb81814197f0f8c0","1085","
            
        <div style=""text-align: center; position: fixed; top: 5vh; left: 40vw;"">
            <div style=""margin:0 auto; width: 20vw; top: 8vh; font-size: 2vw""> 
            <font color=""green""> Bonus : $1.25 </font>
            </div>
        </div>
    
            <div> Please press any button to continue to the next trial.</div>
        ","k","ITI","","","","","","",""
"","","","","","html-keyboard-response","221","337514","0.0-6.33-1.33","613024a95f48b6ceaeee8ad5","65576f040411c2a4be0341a4","65576f2ceb81814197f0f8c0","null","
        
        <div style=""text-align: center; position: fixed; top: 5vh; left: 40vw;"">
            <div style=""margin:0 auto; width: 20vw; top: 8vh; font-size: 2vw""> 
            <font color=""green""> Bonus : $1.25 </font>
            </div>
        </div>
    
        <img class=""stim"" src=./stimuli//pack_shapes_diff/cat_2/diff_5/ex_2_5_6.png></img>
    ","null","stimulus","","","","","","",""
"","","","","","html-keyboard-response","222","338523","0.0-6.33-2.33","613024a95f48b6ceaeee8ad5","65576f040411c2a4be0341a4","65576f2ceb81814197f0f8c0","null","
        <div style=""text-align: center; position: fixed; top: 5vh; left: 40vw;"">
            <div style=""margin:0 auto; width: 20vw; top: 8vh; font-size: 2vw""> 
            <font color=""green""> Bonus : $1.25 </font>
            </div>
        </div>
    ","null","","","","","","","",""
"","","","","","html-keyboard-response","223","338774","0.0-6.33-3.33","613024a95f48b6ceaeee8ad5","65576f040411c2a4be0341a4","65576f2ceb81814197f0f8c0","251","./stimuli//pack_shapes_diff/cat_2/diff_5/ex_2_5_6.png","arrowleft","response","ArrowRight","6","2","5","test","false",""
"","","","","","html-keyboard-response","224","340264","0.0-6.33-4.33","613024a95f48b6ceaeee8ad5","65576f040411c2a4be0341a4","65576f2ceb81814197f0f8c0","1489","<p> <font color=""red"" size=""5vw""> Wrong category! </font> </p>","k","feedback","","","","","","","1.25"
"","","","","","html-keyboard-response","225","341151","0.0-6.34-0.34","613024a95f48b6ceaeee8ad5","65576f040411c2a4be0341a4","65576f2ceb81814197f0f8c0","886","
            
        <div style=""text-align: center; position: fixed; top: 5vh; left: 40vw;"">
            <div style=""margin:0 auto; width: 20vw; top: 8vh; font-size: 2vw""> 
            <font color=""green""> Bonus : $1.25 </font>
            </div>
        </div>
    
            <div> Please press any button to continue to the next trial.</div>
        ","k","ITI","","","","","","",""
"","","","","","html-keyboard-response","226","341766","0.0-6.34-1.34","613024a95f48b6ceaeee8ad5","65576f040411c2a4be0341a4","65576f2ceb81814197f0f8c0","null","
        
        <div style=""text-align: center; position: fixed; top: 5vh; left: 40vw;"">
            <div style=""margin:0 auto; width: 20vw; top: 8vh; font-size: 2vw""> 
            <font color=""green""> Bonus : $1.25 </font>
            </div>
        </div>
    
        <img class=""stim"" src=./stimuli//pack_shapes_diff/cat_1/diff_5/ex_1_5_5.png></img>
    ","null","stimulus","","","","","","",""
"","","","","","html-keyboard-response","227","342770","0.0-6.34-2.34","613024a95f48b6ceaeee8ad5","65576f040411c2a4be0341a4","65576f2ceb81814197f0f8c0","null","
        <div style=""text-align: center; position: fixed; top: 5vh; left: 40vw;"">
            <div style=""margin:0 auto; width: 20vw; top: 8vh; font-size: 2vw""> 
            <font color=""green""> Bonus : $1.25 </font>
            </div>
        </div>
    ","null","","","","","","","",""
"","","","","","html-keyboard-response","228","343210","0.0-6.34-3.34","613024a95f48b6ceaeee8ad5","65576f040411c2a4be0341a4","65576f2ceb81814197f0f8c0","439","./stimuli//pack_shapes_diff/cat_1/diff_5/ex_1_5_5.png","arrowright","response","ArrowLeft","5","1","5","test","false",""
"","","","","","html-keyboard-response","229","344712","0.0-6.34-4.34","613024a95f48b6ceaeee8ad5","65576f040411c2a4be0341a4","65576f2ceb81814197f0f8c0","null","<p> <font color=""red"" size=""5vw""> Wrong category! </font> </p>","null","feedback","","","","","","","1.25"
"","","","","","html-keyboard-response","230","345854","0.0-6.35-0.35","613024a95f48b6ceaeee8ad5","65576f040411c2a4be0341a4","65576f2ceb81814197f0f8c0","1142","
            
        <div style=""text-align: center; position: fixed; top: 5vh; left: 40vw;"">
            <div style=""margin:0 auto; width: 20vw; top: 8vh; font-size: 2vw""> 
            <font color=""green""> Bonus : $1.25 </font>
            </div>
        </div>
    
