"success","timeout","failed_images","failed_audio","failed_video","trial_type","trial_index","time_elapsed","internal_node_id","subject_id","study_id","session_id","rt","stimulus","response","task","correct_response","exemplar_ID","category","difficulty","phase","correct","bonus"
"true","false","[]","[]","[]","preload","0","1","0.0-0.0","604390883c34df361e484f51","65576f040411c2a4be0341a4","65576f58dd30b283419317e2","","","","","","","","","","",""
"","","","","","html-keyboard-response","1","8133","0.0-1.0","604390883c34df361e484f51","65576f040411c2a4be0341a4","65576f58dd30b283419317e2","8132","Welcome to the Category Learning experiment! Press any key to continue."," ","welcome","","","","","","",""
"","","","","","html-keyboard-response","2","51133","0.0-2.0","604390883c34df361e484f51","65576f040411c2a4be0341a4","65576f58dd30b283419317e2","42999","
            <p>You will be shown images of black shapes. Some are category A, some are category B.
            <br>You will not know in advance which category a specific shape belongs to.</p>
            <p>After you see an image, you will be asked to guess its category <b>(left arrow for category A, right arrow for category B)</b></p>
            <p>After you choose, the screen will show you whether you were correct or not.</p>
            <p><b>You will receive a bonus payment of $0.05 for each correct answer!</b></p>
            <p> So you can increase your bonus by guessing correctly, and by guessing as quickly as possible so you move on to the next image sooner.</p>
            <p>Press any key to continue.</p>
            "," ","introduction_1","","","","","","",""
"","","","","","html-keyboard-response","3","58597","0.0-3.0","604390883c34df361e484f51","65576f040411c2a4be0341a4","65576f58dd30b283419317e2","7464","
            <p> <b>The first 10 trials are a practice round that will not count towards your bonus payment.</b></p>
            <p> You will be notified when practice finishes and the test begins. </p>
            <p> Press any key to begin the practice round.</p>
            "," ","introduction_2","","","","","","",""
"","","","","","html-keyboard-response","4","61021","0.0-4.0-0.0","604390883c34df361e484f51","65576f040411c2a4be0341a4","65576f58dd30b283419317e2","2424","
            
        <div style=""text-align: center; position: fixed; top: 5vh; left: 40vw;"">
            <div style=""margin:0 auto; width: 20vw; top: 8vh; font-size: 2vw""> 
            <font color=""green""> Bonus : $0 </font>
            </div>
        </div>
    
            <div> Please press any button to continue to the next trial.</div>
        "," ","ITI","","","","","","",""
"","","","","","html-keyboard-response","5","61628","0.0-4.0-1.0","604390883c34df361e484f51","65576f040411c2a4be0341a4","65576f58dd30b283419317e2","null","
        
        <div style=""text-align: center; position: fixed; top: 5vh; left: 40vw;"">
            <div style=""margin:0 auto; width: 20vw; top: 8vh; font-size: 2vw""> 
            <font color=""green""> Bonus : $0 </font>
            </div>
        </div>
    
        <img class=""stim"" src=./stimuli//pack_shapes_diff/cat_1/diff_2/ex_1_2_2.png></img>
    ","null","stimulus","","","","","","",""
"","","","","","html-keyboard-response","6","62632","0.0-4.0-2.0","604390883c34df361e484f51","65576f040411c2a4be0341a4","65576f58dd30b283419317e2","null","
        <div style=""text-align: center; position: fixed; top: 5vh; left: 40vw;"">
            <div style=""margin:0 auto; width: 20vw; top: 8vh; font-size: 2vw""> 
            <font color=""green""> Bonus : $0 </font>
            </div>
        </div>
    ","null","","","","","","","",""
"","","","","","html-keyboard-response","7","63357","0.0-4.0-3.0","604390883c34df361e484f51","65576f040411c2a4be0341a4","65576f58dd30b283419317e2","724","./stimuli//pack_shapes_diff/cat_1/diff_2/ex_1_2_2.png","arrowleft","response","ArrowLeft","2","1","2","train","true",""
"","","","","","html-keyboard-response","8","64866","0.0-4.0-4.0","604390883c34df361e484f51","65576f040411c2a4be0341a4","65576f58dd30b283419317e2","null","<p> <font color=""green"" size=""5vw""> Correct category! </font> </p>","null","feedback","","","","","","","0"
"","","","","","html-keyboard-response","9","66045","0.0-4.0-0.1","604390883c34df361e484f51","65576f040411c2a4be0341a4","65576f58dd30b283419317e2","1178","
            
        <div style=""text-align: center; position: fixed; top: 5vh; left: 40vw;"">
            <div style=""margin:0 auto; width: 20vw; top: 8vh; font-size: 2vw""> 
            <font color=""green""> Bonus : $0 </font>
            </div>
        </div>
    
            <div> Please press any button to continue to the next trial.</div>
        "," ","ITI","","","","","","",""
"","","","","","html-keyboard-response","10","66655","0.0-4.0-1.1","604390883c34df361e484f51","65576f040411c2a4be0341a4","65576f58dd30b283419317e2","null","
        
        <div style=""text-align: center; position: fixed; top: 5vh; left: 40vw;"">
            <div style=""margin:0 auto; width: 20vw; top: 8vh; font-size: 2vw""> 
            <font color=""green""> Bonus : $0 </font>
            </div>
        </div>
    
        <img class=""stim"" src=./stimuli//pack_shapes_diff/cat_2/diff_1/ex_2_1_15.png></img>
    ","null","stimulus","","","","","","",""
"","","","","","html-keyboard-response","11","67661","0.0-4.0-2.1","604390883c34df361e484f51","65576f040411c2a4be0341a4","65576f58dd30b283419317e2","null","
        <div style=""text-align: center; position: fixed; top: 5vh; left: 40vw;"">
            <div style=""margin:0 auto; width: 20vw; top: 8vh; font-size: 2vw""> 
            <font color=""green""> Bonus : $0 </font>
            </div>
        </div>
    ","null","","","","","","","",""
"","","","","","html-keyboard-response","12","67669","0.0-4.0-3.1","604390883c34df361e484f51","65576f040411c2a4be0341a4","65576f58dd30b283419317e2","7","./stimuli//pack_shapes_diff/cat_2/diff_1/ex_2_1_15.png","arrowleft","response","ArrowRight","15","2","1","train","false",""
"","","","","","html-keyboard-response","13","69171","0.0-4.0-4.1","604390883c34df361e484f51","65576f040411c2a4be0341a4","65576f58dd30b283419317e2","null","<p> <font color=""red"" size=""5vw""> Wrong category! </font> </p>","null","feedback","","","","","","","0"
"","","","","","html-keyboard-response","14","70029","0.0-4.0-0.2","604390883c34df361e484f51","65576f040411c2a4be0341a4","65576f58dd30b283419317e2","857","
            
        <div style=""text-align: center; position: fixed; top: 5vh; left: 40vw;"">
            <div style=""margin:0 auto; width: 20vw; top: 8vh; font-size: 2vw""> 
            <font color=""green""> Bonus : $0 </font>
            </div>
        </div>
    
            <div> Please press any button to continue to the next trial.</div>
        "," ","ITI","","","","","","",""
"","","","","","html-keyboard-response","15","70635","0.0-4.0-1.2","604390883c34df361e484f51","65576f040411c2a4be0341a4","65576f58dd30b283419317e2","null","
        
        <div style=""text-align: center; position: fixed; top: 5vh; left: 40vw;"">
            <div style=""margin:0 auto; width: 20vw; top: 8vh; font-size: 2vw""> 
            <font color=""green""> Bonus : $0 </font>
            </div>
        </div>
    
        <img class=""stim"" src=./stimuli//pack_shapes_diff/cat_2/diff_1/ex_2_1_11.png></img>
    ","null","stimulus","","","","","","",""
"","","","","","html-keyboard-response","16","71645","0.0-4.0-2.2","604390883c34df361e484f51","65576f040411c2a4be0341a4","65576f58dd30b283419317e2","null","
        <div style=""text-align: center; position: fixed; top: 5vh; left: 40vw;"">
            <div style=""margin:0 auto; width: 20vw; top: 8vh; font-size: 2vw""> 
            <font color=""green""> Bonus : $0 </font>
            </div>
        </div>
    ","null","","","","","","","",""
"","","","","","html-keyboard-response","17","71941","0.0-4.0-3.2","604390883c34df361e484f51","65576f040411c2a4be0341a4","65576f58dd30b283419317e2","296","./stimuli//pack_shapes_diff/cat_2/diff_1/ex_2_1_11.png","arrowright","response","ArrowRight","11","2","1","train","true",""
"","","","","","html-keyboard-response","18","73450","0.0-4.0-4.2","604390883c34df361e484f51","65576f040411c2a4be0341a4","65576f58dd30b283419317e2","null","<p> <font color=""green"" size=""5vw""> Correct category! </font> </p>","null","feedback","","","","","","","0"
"","","","","","html-keyboard-response","19","74237","0.0-4.0-0.3","604390883c34df361e484f51","65576f040411c2a4be0341a4","65576f58dd30b283419317e2","786","
            
        <div style=""text-align: center; position: fixed; top: 5vh; left: 40vw;"">
            <div style=""margin:0 auto; width: 20vw; top: 8vh; font-size: 2vw""> 
            <font color=""green""> Bonus : $0 </font>
            </div>
        </div>
    
            <div> Please press any button to continue to the next trial.</div>
        "," ","ITI","","","","","","",""
"","","","","","html-keyboard-response","20","74842","0.0-4.0-1.3","604390883c34df361e484f51","65576f040411c2a4be0341a4","65576f58dd30b283419317e2","null","
        
        <div style=""text-align: center; position: fixed; top: 5vh; left: 40vw;"">
            <div style=""margin:0 auto; width: 20vw; top: 8vh; font-size: 2vw""> 
            <font color=""green""> Bonus : $0 </font>
            </div>
        </div>
    
        <img class=""stim"" src=./stimuli//pack_shapes_diff/cat_1/diff_1/ex_1_1_3.png></img>
    ","null","stimulus","","","","","","",""
"","","","","","html-keyboard-response","21","75847","0.0-4.0-2.3","604390883c34df361e484f51","65576f040411c2a4be0341a4","65576f58dd30b283419317e2","null","
        <div style=""text-align: center; position: fixed; top: 5vh; left: 40vw;"">
            <div style=""margin:0 auto; width: 20vw; top: 8vh; font-size: 2vw""> 
            <font color=""green""> Bonus : $0 </font>
            </div>
        </div>
    ","null","","","","","","","",""
"","","","","","html-keyboard-response","22","76093","0.0-4.0-3.3","604390883c34df361e484f51","65576f040411c2a4be0341a4","65576f58dd30b283419317e2","245","./stimuli//pack_shapes_diff/cat_1/diff_1/ex_1_1_3.png","arrowleft","response","ArrowLeft","3","1","1","train","true",""
"","","","","","html-keyboard-response","23","77603","0.0-4.0-4.3","604390883c34df361e484f51","65576f040411c2a4be0341a4","65576f58dd30b283419317e2","null","<p> <font color=""green"" size=""5vw""> Correct category! </font> </p>","null","feedback","","","","","","","0"
"","","","","","html-keyboard-response","24","78293","0.0-4.0-0.4","604390883c34df361e484f51","65576f040411c2a4be0341a4","65576f58dd30b283419317e2","689","
            
        <div style=""text-align: center; position: fixed; top: 5vh; left: 40vw;"">
            <div style=""margin:0 auto; width: 20vw; top: 8vh; font-size: 2vw""> 
            <font color=""green""> Bonus : $0 </font>
            </div>
        </div>
    
            <div> Please press any button to continue to the next trial.</div>
        "," ","ITI","","","","","","",""
"","","","","","html-keyboard-response","25","78902","0.0-4.0-1.4","604390883c34df361e484f51","65576f040411c2a4be0341a4","65576f58dd30b283419317e2","null","
        
        <div style=""text-align: center; position: fixed; top: 5vh; left: 40vw;"">
            <div style=""margin:0 auto; width: 20vw; top: 8vh; font-size: 2vw""> 
            <font color=""green""> Bonus : $0 </font>
            </div>
        </div>
    
        <img class=""stim"" src=./stimuli//pack_shapes_diff/cat_2/diff_1/ex_2_1_13.png></img>
    ","null","stimulus","","","","","","",""
"","","","","","html-keyboard-response","26","79905","0.0-4.0-2.4","604390883c34df361e484f51","65576f040411c2a4be0341a4","65576f58dd30b283419317e2","null","
        <div style=""text-align: center; position: fixed; top: 5vh; left: 40vw;"">
            <div style=""margin:0 auto; width: 20vw; top: 8vh; font-size: 2vw""> 
            <font color=""green""> Bonus : $0 </font>
            </div>
        </div>
    ","null","","","","","","","",""
"","","","","","html-keyboard-response","27","80141","0.0-4.0-3.4","604390883c34df361e484f51","65576f040411c2a4be0341a4","65576f58dd30b283419317e2","236","./stimuli//pack_shapes_diff/cat_2/diff_1/ex_2_1_13.png","arrowright","response","ArrowRight","13","2","1","train","true",""
"","","","","","html-keyboard-response","28","81645","0.0-4.0-4.4","604390883c34df361e484f51","65576f040411c2a4be0341a4","65576f58dd30b283419317e2","null","<p> <font color=""green"" size=""5vw""> Correct category! </font> </p>","null","feedback","","","","","","","0"
"","","","","","html-keyboard-response","29","82253","0.0-4.0-0.5","604390883c34df361e484f51","65576f040411c2a4be0341a4","65576f58dd30b283419317e2","608","
            
        <div style=""text-align: center; position: fixed; top: 5vh; left: 40vw;"">
            <div style=""margin:0 auto; width: 20vw; top: 8vh; font-size: 2vw""> 
            <font color=""green""> Bonus : $0 </font>
            </div>
        </div>
    
            <div> Please press any button to continue to the next trial.</div>
        "," ","ITI","","","","","","",""
"","","","","","html-keyboard-response","30","82861","0.0-4.0-1.5","604390883c34df361e484f51","65576f040411c2a4be0341a4","65576f58dd30b283419317e2","null","
        
        <div style=""text-align: center; position: fixed; top: 5vh; left: 40vw;"">
            <div style=""margin:0 auto; width: 20vw; top: 8vh; font-size: 2vw""> 
            <font color=""green""> Bonus : $0 </font>
            </div>
        </div>
    
        <img class=""stim"" src=./stimuli//pack_shapes_diff/cat_1/diff_1/ex_1_1_9.png></img>
    ","null","stimulus","","","","","","",""
"","","","","","html-keyboard-response","31","83877","0.0-4.0-2.5","604390883c34df361e484f51","65576f040411c2a4be0341a4","65576f58dd30b283419317e2","null","
        <div style=""text-align: center; position: fixed; top: 5vh; left: 40vw;"">
            <div style=""margin:0 auto; width: 20vw; top: 8vh; font-size: 2vw""> 
            <font color=""green""> Bonus : $0 </font>
            </div>
        </div>
    ","null","","","","","","","",""
"","","","","","html-keyboard-response","32","84085","0.0-4.0-3.5","604390883c34df361e484f51","65576f040411c2a4be0341a4","65576f58dd30b283419317e2","207","./stimuli//pack_shapes_diff/cat_1/diff_1/ex_1_1_9.png","arrowleft","response","ArrowLeft","9","1","1","train","true",""
"","","","","","html-keyboard-response","33","85591","0.0-4.0-4.5","604390883c34df361e484f51","65576f040411c2a4be0341a4","65576f58dd30b283419317e2","null","<p> <font color=""green"" size=""5vw""> Correct category! </font> </p>","null","feedback","","","","","","","0"
"","","","","","html-keyboard-response","34","86565","0.0-4.0-0.6","604390883c34df361e484f51","65576f040411c2a4be0341a4","65576f58dd30b283419317e2","974","
            
        <div style=""text-align: center; position: fixed; top: 5vh; left: 40vw;"">
            <div style=""margin:0 auto; width: 20vw; top: 8vh; font-size: 2vw""> 
            <font color=""green""> Bonus : $0 </font>
            </div>
        </div>
    
            <div> Please press any button to continue to the next trial.</div>
        "," ","ITI","","","","","","",""
"","","","","","html-keyboard-response","35","87175","0.0-4.0-1.6","604390883c34df361e484f51","65576f040411c2a4be0341a4","65576f58dd30b283419317e2","null","
        
        <div style=""text-align: center; position: fixed; top: 5vh; left: 40vw;"">
            <div style=""margin:0 auto; width: 20vw; top: 8vh; font-size: 2vw""> 
            <font color=""green""> Bonus : $0 </font>
            </div>
        </div>
    
        <img class=""stim"" src=./stimuli//pack_shapes_diff/cat_2/diff_2/ex_2_2_2.png></img>
    ","null","stimulus","","","","","","",""
"","","","","","html-keyboard-response","36","88191","0.0-4.0-2.6","604390883c34df361e484f51","65576f040411c2a4be0341a4","65576f58dd30b283419317e2","null","
        <div style=""text-align: center; position: fixed; top: 5vh; left: 40vw;"">
            <div style=""margin:0 auto; width: 20vw; top: 8vh; font-size: 2vw""> 
            <font color=""green""> Bonus : $0 </font>
            </div>
        </div>
    ","null","","","","","","","",""
"","","","","","html-keyboard-response","37","88477","0.0-4.0-3.6","604390883c34df361e484f51","65576f040411c2a4be0341a4","65576f58dd30b283419317e2","285","./stimuli//pack_shapes_diff/cat_2/diff_2/ex_2_2_2.png","arrowright","response","ArrowRight","2","2","2","train","true",""
"","","","","","html-keyboard-response","38","89988","0.0-4.0-4.6","604390883c34df361e484f51","65576f040411c2a4be0341a4","65576f58dd30b283419317e2","null","<p> <font color=""green"" size=""5vw""> Correct category! </font> </p>","null","feedback","","","","","","","0"
"","","","","","html-keyboard-response","39","90653","0.0-4.0-0.7","604390883c34df361e484f51","65576f040411c2a4be0341a4","65576f58dd30b283419317e2","664","
            
        <div style=""text-align: center; position: fixed; top: 5vh; left: 40vw;"">
            <div style=""margin:0 auto; width: 20vw; top: 8vh; font-size: 2vw""> 
            <font color=""green""> Bonus : $0 </font>
            </div>
        </div>
    
            <div> Please press any button to continue to the next trial.</div>
        "," ","ITI","","","","","","",""
"","","","","","html-keyboard-response","40","91254","0.0-4.0-1.7","604390883c34df361e484f51","65576f040411c2a4be0341a4","65576f58dd30b283419317e2","null","
        
        <div style=""text-align: center; position: fixed; top: 5vh; left: 40vw;"">
            <div style=""margin:0 auto; width: 20vw; top: 8vh; font-size: 2vw""> 
            <font color=""green""> Bonus : $0 </font>
            </div>
        </div>
    
        <img class=""stim"" src=./stimuli//pack_shapes_diff/cat_1/diff_2/ex_1_2_5.png></img>
    ","null","stimulus","","","","","","",""
"","","","","","html-keyboard-response","41","92264","0.0-4.0-2.7","604390883c34df361e484f51","65576f040411c2a4be0341a4","65576f58dd30b283419317e2","null","
        <div style=""text-align: center; position: fixed; top: 5vh; left: 40vw;"">
            <div style=""margin:0 auto; width: 20vw; top: 8vh; font-size: 2vw""> 
            <font color=""green""> Bonus : $0 </font>
            </div>
        </div>
    ","null","","","","","","","",""
"","","","","","html-keyboard-response","42","92317","0.0-4.0-3.7","604390883c34df361e484f51","65576f040411c2a4be0341a4","65576f58dd30b283419317e2","53","./stimuli//pack_shapes_diff/cat_1/diff_2/ex_1_2_5.png","arrowleft","response","ArrowLeft","5","1","2","train","true",""
"","","","","","html-keyboard-response","43","92461","0.0-4.0-4.7","604390883c34df361e484f51","65576f040411c2a4be0341a4","65576f58dd30b283419317e2","144","<p> <font color=""green"" size=""5vw""> Correct category! </font> </p>","arrowleft","feedback","","","","","","","0"
"","","","","","html-keyboard-response","44","93901","0.0-4.0-0.8","604390883c34df361e484f51","65576f040411c2a4be0341a4","65576f58dd30b283419317e2","1440","
            
        <div style=""text-align: center; position: fixed; top: 5vh; left: 40vw;"">
            <div style=""margin:0 auto; width: 20vw; top: 8vh; font-size: 2vw""> 
            <font color=""green""> Bonus : $0 </font>
            </div>
        </div>
    
            <div> Please press any button to continue to the next trial.</div>
        ","arrowleft","ITI","","","","","","",""
"","","","","","html-keyboard-response","45","94511","0.0-4.0-1.8","604390883c34df361e484f51","65576f040411c2a4be0341a4","65576f58dd30b283419317e2","null","
        
        <div style=""text-align: center; position: fixed; top: 5vh; left: 40vw;"">
            <div style=""margin:0 auto; width: 20vw; top: 8vh; font-size: 2vw""> 
            <font color=""green""> Bonus : $0 </font>
            </div>
        </div>
    
        <img class=""stim"" src=./stimuli//pack_shapes_diff/cat_1/diff_1/ex_1_1_7.png></img>
    ","null","stimulus","","","","","","",""
"","","","","","html-keyboard-response","46","95517","0.0-4.0-2.8","604390883c34df361e484f51","65576f040411c2a4be0341a4","65576f58dd30b283419317e2","null","
        <div style=""text-align: center; position: fixed; top: 5vh; left: 40vw;"">
            <div style=""margin:0 auto; width: 20vw; top: 8vh; font-size: 2vw""> 
            <font color=""green""> Bonus : $0 </font>
            </div>
        </div>
    ","null","","","","","","","",""
"","","","","","html-keyboard-response","47","95589","0.0-4.0-3.8","604390883c34df361e484f51","65576f040411c2a4be0341a4","65576f58dd30b283419317e2","71","./stimuli//pack_shapes_diff/cat_1/diff_1/ex_1_1_7.png","arrowleft","response","ArrowLeft","7","1","1","train","true",""
"","","","","","html-keyboard-response","48","97102","0.0-4.0-4.8","604390883c34df361e484f51","65576f040411c2a4be0341a4","65576f58dd30b283419317e2","null","<p> <font color=""green"" size=""5vw""> Correct category! </font> </p>","null","feedback","","","","","","","0"
"","","","","","html-keyboard-response","49","97613","0.0-4.0-0.9","604390883c34df361e484f51","65576f040411c2a4be0341a4","65576f58dd30b283419317e2","510","
            
        <div style=""text-align: center; position: fixed; top: 5vh; left: 40vw;"">
            <div style=""margin:0 auto; width: 20vw; top: 8vh; font-size: 2vw""> 
            <font color=""green""> Bonus : $0 </font>
            </div>
        </div>
    
            <div> Please press any button to continue to the next trial.</div>
        ","arrowleft","ITI","","","","","","",""
"","","","","","html-keyboard-response","50","98226","0.0-4.0-1.9","604390883c34df361e484f51","65576f040411c2a4be0341a4","65576f58dd30b283419317e2","null","
        
        <div style=""text-align: center; position: fixed; top: 5vh; left: 40vw;"">
            <div style=""margin:0 auto; width: 20vw; top: 8vh; font-size: 2vw""> 
            <font color=""green""> Bonus : $0 </font>
            </div>
        </div>
    
        <img class=""stim"" src=./stimuli//pack_shapes_diff/cat_2/diff_2/ex_2_2_12.png></img>
    ","null","stimulus","","","","","","",""
"","","","","","html-keyboard-response","51","99239","0.0-4.0-2.9","604390883c34df361e484f51","65576f040411c2a4be0341a4","65576f58dd30b283419317e2","null","
        <div style=""text-align: center; position: fixed; top: 5vh; left: 40vw;"">
            <div style=""margin:0 auto; width: 20vw; top: 8vh; font-size: 2vw""> 
            <font color=""green""> Bonus : $0 </font>
            </div>
        </div>
    ","null","","","","","","","",""
"","","","","","html-keyboard-response","52","99389","0.0-4.0-3.9","604390883c34df361e484f51","65576f040411c2a4be0341a4","65576f58dd30b283419317e2","149","./stimuli//pack_shapes_diff/cat_2/diff_2/ex_2_2_12.png","arrowright","response","ArrowRight","12","2","2","train","true",""
"","","","","","html-keyboard-response","53","100903","0.0-4.0-4.9","604390883c34df361e484f51","65576f040411c2a4be0341a4","65576f58dd30b283419317e2","null","<p> <font color=""green"" size=""5vw""> Correct category! </font> </p>","null","feedback","","","","","","","0"
"","","","","","html-keyboard-response","54","102237","0.0-5.0","604390883c34df361e484f51","65576f040411c2a4be0341a4","65576f58dd30b283419317e2","1333","
            <b> <p> The practice round has finished.</p>
            <b> For the rest of the experiment you will receive a $0.05 bonus for each correct answer!</b>
            <p> Press any key to begin the test. </p>
            "," ","intermission","","","","","","",""
"","","","","","html-keyboard-response","55","103165","0.0-6.0-0.0","604390883c34df361e484f51","65576f040411c2a4be0341a4","65576f58dd30b283419317e2","928","
            
        <div style=""text-align: center; position: fixed; top: 5vh; left: 40vw;"">
            <div style=""margin:0 auto; width: 20vw; top: 8vh; font-size: 2vw""> 
            <font color=""green""> Bonus : $0 </font>
            </div>
        </div>
    
            <div> Please press any button to continue to the next trial.</div>
        "," ","ITI","","","","","","",""
"","","","","","html-keyboard-response","56","103778","0.0-6.0-1.0","604390883c34df361e484f51","65576f040411c2a4be0341a4","65576f58dd30b283419317e2","null","
        
        <div style=""text-align: center; position: fixed; top: 5vh; left: 40vw;"">
            <div style=""margin:0 auto; width: 20vw; top: 8vh; font-size: 2vw""> 
            <font color=""green""> Bonus : $0 </font>
            </div>
        </div>
    
        <img class=""stim"" src=./stimuli//pack_shapes_diff/cat_1/diff_1/ex_1_1_14.png></img>
    ","null","stimulus","","","","","","",""
"","","","","","html-keyboard-response","57","104781","0.0-6.0-2.0","604390883c34df361e484f51","65576f040411c2a4be0341a4","65576f58dd30b283419317e2","null","
        <div style=""text-align: center; position: fixed; top: 5vh; left: 40vw;"">
            <div style=""margin:0 auto; width: 20vw; top: 8vh; font-size: 2vw""> 
            <font color=""green""> Bonus : $0 </font>
            </div>
        </div>
    ","null","","","","","","","",""
"","","","","","html-keyboard-response","58","105197","0.0-6.0-3.0","604390883c34df361e484f51","65576f040411c2a4be0341a4","65576f58dd30b283419317e2","415","./stimuli//pack_shapes_diff/cat_1/diff_1/ex_1_1_14.png","arrowleft","response","ArrowLeft","14","1","1","test","true",""
"","","","","","html-keyboard-response","59","106713","0.0-6.0-4.0","604390883c34df361e484f51","65576f040411c2a4be0341a4","65576f58dd30b283419317e2","null","<p> <font color=""green"" size=""5vw""> Correct category! </font> <br> <br> <font color=""green"" size=""8vw""> + $0.05 </font> </p>","null","feedback","","","","","","","0.05"
"","","","","","html-keyboard-response","60","107605","0.0-6.1-0.1","604390883c34df361e484f51","65576f040411c2a4be0341a4","65576f58dd30b283419317e2","891","
            
        <div style=""text-align: center; position: fixed; top: 5vh; left: 40vw;"">
            <div style=""margin:0 auto; width: 20vw; top: 8vh; font-size: 2vw""> 
            <font color=""green""> Bonus : $0.05 </font>
            </div>
        </div>
    
            <div> Please press any button to continue to the next trial.</div>
        ","arrowleft","ITI","","","","","","",""
"","","","","","html-keyboard-response","61","108213","0.0-6.1-1.1","604390883c34df361e484f51","65576f040411c2a4be0341a4","65576f58dd30b283419317e2","null","
        
        <div style=""text-align: center; position: fixed; top: 5vh; left: 40vw;"">
            <div style=""margin:0 auto; width: 20vw; top: 8vh; font-size: 2vw""> 
            <font color=""green""> Bonus : $0.05 </font>
            </div>
        </div>
    
        <img class=""stim"" src=./stimuli//pack_shapes_diff/cat_1/diff_1/ex_1_1_4.png></img>
    ","null","stimulus","","","","","","",""
"","","","","","html-keyboard-response","62","109217","0.0-6.1-2.1","604390883c34df361e484f51","65576f040411c2a4be0341a4","65576f58dd30b283419317e2","null","
        <div style=""text-align: center; position: fixed; top: 5vh; left: 40vw;"">
            <div style=""margin:0 auto; width: 20vw; top: 8vh; font-size: 2vw""> 
            <font color=""green""> Bonus : $0.05 </font>
            </div>
        </div>
    ","null","","","","","","","",""
"","","","","","html-keyboard-response","63","109733","0.0-6.1-3.1","604390883c34df361e484f51","65576f040411c2a4be0341a4","65576f58dd30b283419317e2","515","./stimuli//pack_shapes_diff/cat_1/diff_1/ex_1_1_4.png","arrowleft","response","ArrowLeft","4","1","1","test","true",""
"","","","","","html-keyboard-response","64","111237","0.0-6.1-4.1","604390883c34df361e484f51","65576f040411c2a4be0341a4","65576f58dd30b283419317e2","null","<p> <font color=""green"" size=""5vw""> Correct category! </font> <br> <br> <font color=""green"" size=""8vw""> + $0.05 </font> </p>","null","feedback","","","","","","","0.1"
"","","","","","html-keyboard-response","65","111597","0.0-6.2-0.2","604390883c34df361e484f51","65576f040411c2a4be0341a4","65576f58dd30b283419317e2","359","
            
        <div style=""text-align: center; position: fixed; top: 5vh; left: 40vw;"">
            <div style=""margin:0 auto; width: 20vw; top: 8vh; font-size: 2vw""> 
            <font color=""green""> Bonus : $0.1 </font>
            </div>
        </div>
    
            <div> Please press any button to continue to the next trial.</div>
        ","arrowleft","ITI","","","","","","",""
"","","","","","html-keyboard-response","66","112207","0.0-6.2-1.2","604390883c34df361e484f51","65576f040411c2a4be0341a4","65576f58dd30b283419317e2","null","
        
        <div style=""text-align: center; position: fixed; top: 5vh; left: 40vw;"">
            <div style=""margin:0 auto; width: 20vw; top: 8vh; font-size: 2vw""> 
            <font color=""green""> Bonus : $0.1 </font>
            </div>
        </div>
    
        <img class=""stim"" src=./stimuli//pack_shapes_diff/cat_2/diff_1/ex_2_1_7.png></img>
    ","null","stimulus","","","","","","",""
"","","","","","html-keyboard-response","67","113210","0.0-6.2-2.2","604390883c34df361e484f51","65576f040411c2a4be0341a4","65576f58dd30b283419317e2","null","
        <div style=""text-align: center; position: fixed; top: 5vh; left: 40vw;"">
            <div style=""margin:0 auto; width: 20vw; top: 8vh; font-size: 2vw""> 
            <font color=""green""> Bonus : $0.1 </font>
            </div>
        </div>
    ","null","","","","","","","",""
"","","","","","html-keyboard-response","68","113229","0.0-6.2-3.2","604390883c34df361e484f51","65576f040411c2a4be0341a4","65576f58dd30b283419317e2","18","./stimuli//pack_shapes_diff/cat_2/diff_1/ex_2_1_7.png","arrowright","response","ArrowRight","7","2","1","test","true",""
"","","","","","html-keyboard-response","69","113381","0.0-6.2-4.2","604390883c34df361e484f51","65576f040411c2a4be0341a4","65576f58dd30b283419317e2","152","<p> <font color=""green"" size=""5vw""> Correct category! </font> <br> <br> <font color=""green"" size=""8vw""> + $0.05 </font> </p>","arrowright","feedback","","","","","","","0.15"
"","","","","","html-keyboard-response","70","114885","0.0-6.3-0.3","604390883c34df361e484f51","65576f040411c2a4be0341a4","65576f58dd30b283419317e2","1504","
            
        <div style=""text-align: center; position: fixed; top: 5vh; left: 40vw;"">
            <div style=""margin:0 auto; width: 20vw; top: 8vh; font-size: 2vw""> 
            <font color=""green""> Bonus : $0.15 </font>
            </div>
        </div>
    
            <div> Please press any button to continue to the next trial.</div>
        "," ","ITI","","","","","","",""
"","","","","","html-keyboard-response","71","115494","0.0-6.3-1.3","604390883c34df361e484f51","65576f040411c2a4be0341a4","65576f58dd30b283419317e2","null","
        
        <div style=""text-align: center; position: fixed; top: 5vh; left: 40vw;"">
            <div style=""margin:0 auto; width: 20vw; top: 8vh; font-size: 2vw""> 
            <font color=""green""> Bonus : $0.15 </font>
            </div>
        </div>
    
        <img class=""stim"" src=./stimuli//pack_shapes_diff/cat_2/diff_1/ex_2_1_14.png></img>
    ","null","stimulus","","","","","","",""
"","","","","","html-keyboard-response","72","116495","0.0-6.3-2.3","604390883c34df361e484f51","65576f040411c2a4be0341a4","65576f58dd30b283419317e2","null","
        <div style=""text-align: center; position: fixed; top: 5vh; left: 40vw;"">
            <div style=""margin:0 auto; width: 20vw; top: 8vh; font-size: 2vw""> 
            <font color=""green""> Bonus : $0.15 </font>
            </div>
        </div>
    ","null","","","","","","","",""
"","","","","","html-keyboard-response","73","116741","0.0-6.3-3.3","604390883c34df361e484f51","65576f040411c2a4be0341a4","65576f58dd30b283419317e2","245","./stimuli//pack_shapes_diff/cat_2/diff_1/ex_2_1_14.png","arrowright","response","ArrowRight","14","2","1","test","true",""
"","","","","","html-keyboard-response","74","118245","0.0-6.3-4.3","604390883c34df361e484f51","65576f040411c2a4be0341a4","65576f58dd30b283419317e2","null","<p> <font color=""green"" size=""5vw""> Correct category! </font> <br> <br> <font color=""green"" size=""8vw""> + $0.05 </font> </p>","null","feedback","","","","","","","0.2"
"","","","","","html-keyboard-response","75","118701","0.0-6.4-0.4","604390883c34df361e484f51","65576f040411c2a4be0341a4","65576f58dd30b283419317e2","455","
            
        <div style=""text-align: center; position: fixed; top: 5vh; left: 40vw;"">
            <div style=""margin:0 auto; width: 20vw; top: 8vh; font-size: 2vw""> 
            <font color=""green""> Bonus : $0.2 </font>
            </div>
        </div>
    
            <div> Please press any button to continue to the next trial.</div>
        "," ","ITI","","","","","","",""
"","","","","","html-keyboard-response","76","119312","0.0-6.4-1.4","604390883c34df361e484f51","65576f040411c2a4be0341a4","65576f58dd30b283419317e2","null","
        
        <div style=""text-align: center; position: fixed; top: 5vh; left: 40vw;"">
            <div style=""margin:0 auto; width: 20vw; top: 8vh; font-size: 2vw""> 
            <font color=""green""> Bonus : $0.2 </font>
            </div>
        </div>
    
        <img class=""stim"" src=./stimuli//pack_shapes_diff/cat_2/diff_1/ex_2_1_9.png></img>
    ","null","stimulus","","","","","","",""
"","","","","","html-keyboard-response","77","120320","0.0-6.4-2.4","604390883c34df361e484f51","65576f040411c2a4be0341a4","65576f58dd30b283419317e2","null","
        <div style=""text-align: center; position: fixed; top: 5vh; left: 40vw;"">
            <div style=""margin:0 auto; width: 20vw; top: 8vh; font-size: 2vw""> 
            <font color=""green""> Bonus : $0.2 </font>
            </div>
        </div>
    ","null","","","","","","","",""
"","","","","","html-keyboard-response","78","120429","0.0-6.4-3.4","604390883c34df361e484f51","65576f040411c2a4be0341a4","65576f58dd30b283419317e2","108","./stimuli//pack_shapes_diff/cat_2/diff_1/ex_2_1_9.png","arrowright","response","ArrowRight","9","2","1","test","true",""
"","","","","","html-keyboard-response","79","120605","0.0-6.4-4.4","604390883c34df361e484f51","65576f040411c2a4be0341a4","65576f58dd30b283419317e2","176","<p> <font color=""green"" size=""5vw""> Correct category! </font> <br> <br> <font color=""green"" size=""8vw""> + $0.05 </font> </p>","arrowright","feedback","","","","","","","0.25"
"","","","","","html-keyboard-response","80","121525","0.0-6.5-0.5","604390883c34df361e484f51","65576f040411c2a4be0341a4","65576f58dd30b283419317e2","920","
            
        <div style=""text-align: center; position: fixed; top: 5vh; left: 40vw;"">
            <div style=""margin:0 auto; width: 20vw; top: 8vh; font-size: 2vw""> 
            <font color=""green""> Bonus : $0.25 </font>
            </div>
        </div>
    
            <div> Please press any button to continue to the next trial.</div>
        ","arrowright","ITI","","","","","","",""
"","","","","","html-keyboard-response","81","122138","0.0-6.5-1.5","604390883c34df361e484f51","65576f040411c2a4be0341a4","65576f58dd30b283419317e2","null","
        
        <div style=""text-align: center; position: fixed; top: 5vh; left: 40vw;"">
            <div style=""margin:0 auto; width: 20vw; top: 8vh; font-size: 2vw""> 
            <font color=""green""> Bonus : $0.25 </font>
            </div>
        </div>
    
        <img class=""stim"" src=./stimuli//pack_shapes_diff/cat_2/diff_2/ex_2_2_10.png></img>
    ","null","stimulus","","","","","","",""
"","","","","","html-keyboard-response","82","123141","0.0-6.5-2.5","604390883c34df361e484f51","65576f040411c2a4be0341a4","65576f58dd30b283419317e2","null","
        <div style=""text-align: center; position: fixed; top: 5vh; left: 40vw;"">
            <div style=""margin:0 auto; width: 20vw; top: 8vh; font-size: 2vw""> 
            <font color=""green""> Bonus : $0.25 </font>
            </div>
        </div>
    ","null","","","","","","","",""
"","","","","","html-keyboard-response","83","123149","0.0-6.5-3.5","604390883c34df361e484f51","65576f040411c2a4be0341a4","65576f58dd30b283419317e2","7","./stimuli//pack_shapes_diff/cat_2/diff_2/ex_2_2_10.png","arrowright","response","ArrowRight","10","2","2","test","true",""
"","","","","","html-keyboard-response","84","124654","0.0-6.5-4.5","604390883c34df361e484f51","65576f040411c2a4be0341a4","65576f58dd30b283419317e2","null","<p> <font color=""green"" size=""5vw""> Correct category! </font> <br> <br> <font color=""green"" size=""8vw""> + $0.05 </font> </p>","null","feedback","","","","","","","0.3"
"","","","","","html-keyboard-response","85","124981","0.0-6.6-0.6","604390883c34df361e484f51","65576f040411c2a4be0341a4","65576f58dd30b283419317e2","326","
            
        <div style=""text-align: center; position: fixed; top: 5vh; left: 40vw;"">
            <div style=""margin:0 auto; width: 20vw; top: 8vh; font-size: 2vw""> 
            <font color=""green""> Bonus : $0.3 </font>
            </div>
        </div>
    
            <div> Please press any button to continue to the next trial.</div>
        ","arrowright","ITI","","","","","","",""
"","","","","","html-keyboard-response","86","125583","0.0-6.6-1.6","604390883c34df361e484f51","65576f040411c2a4be0341a4","65576f58dd30b283419317e2","null","
        
        <div style=""text-align: center; position: fixed; top: 5vh; left: 40vw;"">
            <div style=""margin:0 auto; width: 20vw; top: 8vh; font-size: 2vw""> 
            <font color=""green""> Bonus : $0.3 </font>
            </div>
        </div>
    
        <img class=""stim"" src=./stimuli//pack_shapes_diff/cat_2/diff_2/ex_2_2_3.png></img>
    ","null","stimulus","","","","","","",""
"","","","","","html-keyboard-response","87","126590","0.0-6.6-2.6","604390883c34df361e484f51","65576f040411c2a4be0341a4","65576f58dd30b283419317e2","null","
        <div style=""text-align: center; position: fixed; top: 5vh; left: 40vw;"">
            <div style=""margin:0 auto; width: 20vw; top: 8vh; font-size: 2vw""> 
            <font color=""green""> Bonus : $0.3 </font>
            </div>
        </div>
    ","null","","","","","","","",""
"","","","","","html-keyboard-response","88","126789","0.0-6.6-3.6","604390883c34df361e484f51","65576f040411c2a4be0341a4","65576f58dd30b283419317e2","198","./stimuli//pack_shapes_diff/cat_2/diff_2/ex_2_2_3.png","arrowright","response","ArrowRight","3","2","2","test","true",""
"","","","","","html-keyboard-response","89","128304","0.0-6.6-4.6","604390883c34df361e484f51","65576f040411c2a4be0341a4","65576f58dd30b283419317e2","null","<p> <font color=""green"" size=""5vw""> Correct category! </font> <br> <br> <font color=""green"" size=""8vw""> + $0.05 </font> </p>","null","feedback","","","","","","","0.35"
"","","","","","html-keyboard-response","90","129245","0.0-6.7-0.7","604390883c34df361e484f51","65576f040411c2a4be0341a4","65576f58dd30b283419317e2","940","
            
        <div style=""text-align: center; position: fixed; top: 5vh; left: 40vw;"">
            <div style=""margin:0 auto; width: 20vw; top: 8vh; font-size: 2vw""> 
            <font color=""green""> Bonus : $0.35 </font>
            </div>
        </div>
    
            <div> Please press any button to continue to the next trial.</div>
        ","arrowright","ITI","","","","","","",""
"","","","","","html-keyboard-response","91","129851","0.0-6.7-1.7","604390883c34df361e484f51","65576f040411c2a4be0341a4","65576f58dd30b283419317e2","null","
        
        <div style=""text-align: center; position: fixed; top: 5vh; left: 40vw;"">
            <div style=""margin:0 auto; width: 20vw; top: 8vh; font-size: 2vw""> 
            <font color=""green""> Bonus : $0.35 </font>
            </div>
        </div>
    
        <img class=""stim"" src=./stimuli//pack_shapes_diff/cat_1/diff_2/ex_1_2_10.png></img>
    ","null","stimulus","","","","","","",""
"","","","","","html-keyboard-response","92","130866","0.0-6.7-2.7","604390883c34df361e484f51","65576f040411c2a4be0341a4","65576f58dd30b283419317e2","null","
        <div style=""text-align: center; position: fixed; top: 5vh; left: 40vw;"">
            <div style=""margin:0 auto; width: 20vw; top: 8vh; font-size: 2vw""> 
            <font color=""green""> Bonus : $0.35 </font>
            </div>
        </div>
    ","null","","","","","","","",""
"","","","","","html-keyboard-response","93","131045","0.0-6.7-3.7","604390883c34df361e484f51","65576f040411c2a4be0341a4","65576f58dd30b283419317e2","179","./stimuli//pack_shapes_diff/cat_1/diff_2/ex_1_2_10.png","arrowleft","response","ArrowLeft","10","1","2","test","true",""
"","","","","","html-keyboard-response","94","132549","0.0-6.7-4.7","604390883c34df361e484f51","65576f040411c2a4be0341a4","65576f58dd30b283419317e2","null","<p> <font color=""green"" size=""5vw""> Correct category! </font> <br> <br> <font color=""green"" size=""8vw""> + $0.05 </font> </p>","null","feedback","","","","","","","0.4"
"","","","","","html-keyboard-response","95","133149","0.0-6.8-0.8","604390883c34df361e484f51","65576f040411c2a4be0341a4","65576f58dd30b283419317e2","599","
            
        <div style=""text-align: center; position: fixed; top: 5vh; left: 40vw;"">
            <div style=""margin:0 auto; width: 20vw; top: 8vh; font-size: 2vw""> 
            <font color=""green""> Bonus : $0.4 </font>
            </div>
        </div>
    
            <div> Please press any button to continue to the next trial.</div>
        "," ","ITI","","","","","","",""
"","","","","","html-keyboard-response","96","133758","0.0-6.8-1.8","604390883c34df361e484f51","65576f040411c2a4be0341a4","65576f58dd30b283419317e2","null","
        
        <div style=""text-align: center; position: fixed; top: 5vh; left: 40vw;"">
            <div style=""margin:0 auto; width: 20vw; top: 8vh; font-size: 2vw""> 
            <font color=""green""> Bonus : $0.4 </font>
            </div>
        </div>
    
        <img class=""stim"" src=./stimuli//pack_shapes_diff/cat_1/diff_2/ex_1_2_1.png></img>
    ","null","stimulus","","","","","","",""
"","","","","","html-keyboard-response","97","134763","0.0-6.8-2.8","604390883c34df361e484f51","65576f040411c2a4be0341a4","65576f58dd30b283419317e2","null","
        <div style=""text-align: center; position: fixed; top: 5vh; left: 40vw;"">
            <div style=""margin:0 auto; width: 20vw; top: 8vh; font-size: 2vw""> 
            <font color=""green""> Bonus : $0.4 </font>
            </div>
        </div>
    ","null","","","","","","","",""
"","","","","","html-keyboard-response","98","134813","0.0-6.8-3.8","604390883c34df361e484f51","65576f040411c2a4be0341a4","65576f58dd30b283419317e2","49","./stimuli//pack_shapes_diff/cat_1/diff_2/ex_1_2_1.png","arrowleft","response","ArrowLeft","1","1","2","test","true",""
"","","","","","html-keyboard-response","99","135021","0.0-6.8-4.8","604390883c34df361e484f51","65576f040411c2a4be0341a4","65576f58dd30b283419317e2","208","<p> <font color=""green"" size=""5vw""> Correct category! </font> <br> <br> <font color=""green"" size=""8vw""> + $0.05 </font> </p>","arrowleft","feedback","","","","","","","0.45"
"","","","","","html-keyboard-response","100","135757","0.0-6.9-0.9","604390883c34df361e484f51","65576f040411c2a4be0341a4","65576f58dd30b283419317e2","736","
            
        <div style=""text-align: center; position: fixed; top: 5vh; left: 40vw;"">
            <div style=""margin:0 auto; width: 20vw; top: 8vh; font-size: 2vw""> 
            <font color=""green""> Bonus : $0.45 </font>
            </div>
        </div>
    
            <div> Please press any button to continue to the next trial.</div>
        ","arrowleft","ITI","","","","","","",""
"","","","","","html-keyboard-response","101","136358","0.0-6.9-1.9","604390883c34df361e484f51","65576f040411c2a4be0341a4","65576f58dd30b283419317e2","null","
        
        <div style=""text-align: center; position: fixed; top: 5vh; left: 40vw;"">
            <div style=""margin:0 auto; width: 20vw; top: 8vh; font-size: 2vw""> 
            <font color=""green""> Bonus : $0.45 </font>
            </div>
        </div>
    
        <img class=""stim"" src=./stimuli//pack_shapes_diff/cat_1/diff_2/ex_1_2_9.png></img>
    ","null","stimulus","","","","","","",""
"","","","","","html-keyboard-response","102","137371","0.0-6.9-2.9","604390883c34df361e484f51","65576f040411c2a4be0341a4","65576f58dd30b283419317e2","null","
        <div style=""text-align: center; position: fixed; top: 5vh; left: 40vw;"">
            <div style=""margin:0 auto; width: 20vw; top: 8vh; font-size: 2vw""> 
            <font color=""green""> Bonus : $0.45 </font>
            </div>
        </div>
    ","null","","","","","","","",""
"","","","","","html-keyboard-response","103","137477","0.0-6.9-3.9","604390883c34df361e484f51","65576f040411c2a4be0341a4","65576f58dd30b283419317e2","106","./stimuli//pack_shapes_diff/cat_1/diff_2/ex_1_2_9.png","arrowleft","response","ArrowLeft","9","1","2","test","true",""
"","","","","","html-keyboard-response","104","137653","0.0-6.9-4.9","604390883c34df361e484f51","65576f040411c2a4be0341a4","65576f58dd30b283419317e2","176","<p> <font color=""green"" size=""5vw""> Correct category! </font> <br> <br> <font color=""green"" size=""8vw""> + $0.05 </font> </p>","arrowleft","feedback","","","","","","","0.5"
"","","","","","html-keyboard-response","105","138101","0.0-6.10-0.10","604390883c34df361e484f51","65576f040411c2a4be0341a4","65576f58dd30b283419317e2","448","
            
        <div style=""text-align: center; position: fixed; top: 5vh; left: 40vw;"">
            <div style=""margin:0 auto; width: 20vw; top: 8vh; font-size: 2vw""> 
            <font color=""green""> Bonus : $0.5 </font>
            </div>
        </div>
    
            <div> Please press any button to continue to the next trial.</div>
        ","arrowleft","ITI","","","","","","",""
"","","","","","html-keyboard-response","106","138706","0.0-6.10-1.10","604390883c34df361e484f51","65576f040411c2a4be0341a4","65576f58dd30b283419317e2","null","
        
        <div style=""text-align: center; position: fixed; top: 5vh; left: 40vw;"">
            <div style=""margin:0 auto; width: 20vw; top: 8vh; font-size: 2vw""> 
            <font color=""green""> Bonus : $0.5 </font>
            </div>
        </div>
    
        <img class=""stim"" src=./stimuli//pack_shapes_diff/cat_1/diff_3/ex_1_3_7.png></img>
    ","null","stimulus","","","","","","",""
"","","","","","html-keyboard-response","107","139714","0.0-6.10-2.10","604390883c34df361e484f51","65576f040411c2a4be0341a4","65576f58dd30b283419317e2","null","
        <div style=""text-align: center; position: fixed; top: 5vh; left: 40vw;"">
            <div style=""margin:0 auto; width: 20vw; top: 8vh; font-size: 2vw""> 
            <font color=""green""> Bonus : $0.5 </font>
            </div>
        </div>
    ","null","","","","","","","",""
"","","","","","html-keyboard-response","108","139733","0.0-6.10-3.10","604390883c34df361e484f51","65576f040411c2a4be0341a4","65576f58dd30b283419317e2","18","./stimuli//pack_shapes_diff/cat_1/diff_3/ex_1_3_7.png","arrowleft","response","ArrowLeft","7","1","3","test","true",""
"","","","","","html-keyboard-response","109","139901","0.0-6.10-4.10","604390883c34df361e484f51","65576f040411c2a4be0341a4","65576f58dd30b283419317e2","168","<p> <font color=""green"" size=""5vw""> Correct category! </font> <br> <br> <font color=""green"" size=""8vw""> + $0.05 </font> </p>","arrowleft","feedback","","","","","","","0.55"
"","","","","","html-keyboard-response","110","140333","0.0-6.11-0.11","604390883c34df361e484f51","65576f040411c2a4be0341a4","65576f58dd30b283419317e2","432","
            
        <div style=""text-align: center; position: fixed; top: 5vh; left: 40vw;"">
            <div style=""margin:0 auto; width: 20vw; top: 8vh; font-size: 2vw""> 
            <font color=""green""> Bonus : $0.55 </font>
            </div>
        </div>
    
            <div> Please press any button to continue to the next trial.</div>
        ","arrowleft","ITI","","","","","","",""
"","","","","","html-keyboard-response","111","140936","0.0-6.11-1.11","604390883c34df361e484f51","65576f040411c2a4be0341a4","65576f58dd30b283419317e2","null","
        
        <div style=""text-align: center; position: fixed; top: 5vh; left: 40vw;"">
            <div style=""margin:0 auto; width: 20vw; top: 8vh; font-size: 2vw""> 
            <font color=""green""> Bonus : $0.55 </font>
            </div>
        </div>
    
        <img class=""stim"" src=./stimuli//pack_shapes_diff/cat_1/diff_3/ex_1_3_8.png></img>
    ","null","stimulus","","","","","","",""
"","","","","","html-keyboard-response","112","141950","0.0-6.11-2.11","604390883c34df361e484f51","65576f040411c2a4be0341a4","65576f58dd30b283419317e2","null","
        <div style=""text-align: center; position: fixed; top: 5vh; left: 40vw;"">
            <div style=""margin:0 auto; width: 20vw; top: 8vh; font-size: 2vw""> 
            <font color=""green""> Bonus : $0.55 </font>
            </div>
        </div>
    ","null","","","","","","","",""
"","","","","","html-keyboard-response","113","142045","0.0-6.11-3.11","604390883c34df361e484f51","65576f040411c2a4be0341a4","65576f58dd30b283419317e2","94","./stimuli//pack_shapes_diff/cat_1/diff_3/ex_1_3_8.png","arrowleft","response","ArrowLeft","8","1","3","test","true",""
"","","","","","html-keyboard-response","114","142213","0.0-6.11-4.11","604390883c34df361e484f51","65576f040411c2a4be0341a4","65576f58dd30b283419317e2","168","<p> <font color=""green"" size=""5vw""> Correct category! </font> <br> <br> <font color=""green"" size=""8vw""> + $0.05 </font> </p>","arrowleft","feedback","","","","","","","0.6"
"","","","","","html-keyboard-response","115","142981","0.0-6.12-0.12","604390883c34df361e484f51","65576f040411c2a4be0341a4","65576f58dd30b283419317e2","768","
            
        <div style=""text-align: center; position: fixed; top: 5vh; left: 40vw;"">
            <div style=""margin:0 auto; width: 20vw; top: 8vh; font-size: 2vw""> 
            <font color=""green""> Bonus : $0.6 </font>
            </div>
        </div>
    
            <div> Please press any button to continue to the next trial.</div>
        ","arrowleft","ITI","","","","","","",""
"","","","","","html-keyboard-response","116","143592","0.0-6.12-1.12","604390883c34df361e484f51","65576f040411c2a4be0341a4","65576f58dd30b283419317e2","null","
        
        <div style=""text-align: center; position: fixed; top: 5vh; left: 40vw;"">
            <div style=""margin:0 auto; width: 20vw; top: 8vh; font-size: 2vw""> 
            <font color=""green""> Bonus : $0.6 </font>
            </div>
        </div>
    
        <img class=""stim"" src=./stimuli//pack_shapes_diff/cat_2/diff_3/ex_2_3_2.png></img>
    ","null","stimulus","","","","","","",""
"","","","","","html-keyboard-response","117","144600","0.0-6.12-2.12","604390883c34df361e484f51","65576f040411c2a4be0341a4","65576f58dd30b283419317e2","null","
        <div style=""text-align: center; position: fixed; top: 5vh; left: 40vw;"">
            <div style=""margin:0 auto; width: 20vw; top: 8vh; font-size: 2vw""> 
            <font color=""green""> Bonus : $0.6 </font>
            </div>
        </div>
    ","null","","","","","","","",""
"","","","","","html-keyboard-response","118","144733","0.0-6.12-3.12","604390883c34df361e484f51","65576f040411c2a4be0341a4","65576f58dd30b283419317e2","133","./stimuli//pack_shapes_diff/cat_2/diff_3/ex_2_3_2.png","arrowright","response","ArrowRight","2","2","3","test","true",""
"","","","","","html-keyboard-response","119","145085","0.0-6.12-4.12","604390883c34df361e484f51","65576f040411c2a4be0341a4","65576f58dd30b283419317e2","352","<p> <font color=""green"" size=""5vw""> Correct category! </font> <br> <br> <font color=""green"" size=""8vw""> + $0.05 </font> </p>","arrowright","feedback","","","","","","","0.65"
"","","","","","html-keyboard-response","120","145541","0.0-6.13-0.13","604390883c34df361e484f51","65576f040411c2a4be0341a4","65576f58dd30b283419317e2","456","
            
        <div style=""text-align: center; position: fixed; top: 5vh; left: 40vw;"">
            <div style=""margin:0 auto; width: 20vw; top: 8vh; font-size: 2vw""> 
            <font color=""green""> Bonus : $0.65 </font>
            </div>
        </div>
    
            <div> Please press any button to continue to the next trial.</div>
        ","arrowright","ITI","","","","","","",""
"","","","","","html-keyboard-response","121","146152","0.0-6.13-1.13","604390883c34df361e484f51","65576f040411c2a4be0341a4","65576f58dd30b283419317e2","null","
        
        <div style=""text-align: center; position: fixed; top: 5vh; left: 40vw;"">
            <div style=""margin:0 auto; width: 20vw; top: 8vh; font-size: 2vw""> 
            <font color=""green""> Bonus : $0.65 </font>
            </div>
        </div>
    
        <img class=""stim"" src=./stimuli//pack_shapes_diff/cat_2/diff_3/ex_2_3_15.png></img>
    ","null","stimulus","","","","","","",""
"","","","","","html-keyboard-response","122","147157","0.0-6.13-2.13","604390883c34df361e484f51","65576f040411c2a4be0341a4","65576f58dd30b283419317e2","null","
        <div style=""text-align: center; position: fixed; top: 5vh; left: 40vw;"">
            <div style=""margin:0 auto; width: 20vw; top: 8vh; font-size: 2vw""> 
            <font color=""green""> Bonus : $0.65 </font>
            </div>
        </div>
    ","null","","","","","","","",""
"","","","","","html-keyboard-response","123","147293","0.0-6.13-3.13","604390883c34df361e484f51","65576f040411c2a4be0341a4","65576f58dd30b283419317e2","135","./stimuli//pack_shapes_diff/cat_2/diff_3/ex_2_3_15.png","arrowright","response","ArrowRight","15","2","3","test","true",""
"","","","","","html-keyboard-response","124","148795","0.0-6.13-4.13","604390883c34df361e484f51","65576f040411c2a4be0341a4","65576f58dd30b283419317e2","null","<p> <font color=""green"" size=""5vw""> Correct category! </font> <br> <br> <font color=""green"" size=""8vw""> + $0.05 </font> </p>","null","feedback","","","","","","","0.7"
"","","","","","html-keyboard-response","125","149285","0.0-6.14-0.14","604390883c34df361e484f51","65576f040411c2a4be0341a4","65576f58dd30b283419317e2","489","
            
        <div style=""text-align: center; position: fixed; top: 5vh; left: 40vw;"">
            <div style=""margin:0 auto; width: 20vw; top: 8vh; font-size: 2vw""> 
            <font color=""green""> Bonus : $0.7 </font>
            </div>
        </div>
    
            <div> Please press any button to continue to the next trial.</div>
        "," ","ITI","","","","","","",""
"","","","","","html-keyboard-response","126","149890","0.0-6.14-1.14","604390883c34df361e484f51","65576f040411c2a4be0341a4","65576f58dd30b283419317e2","null","
        
        <div style=""text-align: center; position: fixed; top: 5vh; left: 40vw;"">
            <div style=""margin:0 auto; width: 20vw; top: 8vh; font-size: 2vw""> 
            <font color=""green""> Bonus : $0.7 </font>
            </div>
        </div>
    
        <img class=""stim"" src=./stimuli//pack_shapes_diff/cat_2/diff_3/ex_2_3_1.png></img>
    ","null","stimulus","","","","","","",""
"","","","","","html-keyboard-response","127","150894","0.0-6.14-2.14","604390883c34df361e484f51","65576f040411c2a4be0341a4","65576f58dd30b283419317e2","null","
        <div style=""text-align: center; position: fixed; top: 5vh; left: 40vw;"">
            <div style=""margin:0 auto; width: 20vw; top: 8vh; font-size: 2vw""> 
            <font color=""green""> Bonus : $0.7 </font>
            </div>
        </div>
    ","null","","","","","","","",""
"","","","","","html-keyboard-response","128","151061","0.0-6.14-3.14","604390883c34df361e484f51","65576f040411c2a4be0341a4","65576f58dd30b283419317e2","166","./stimuli//pack_shapes_diff/cat_2/diff_3/ex_2_3_1.png","arrowright","response","ArrowRight","1","2","3","test","true",""
"","","","","","html-keyboard-response","129","152570","0.0-6.14-4.14","604390883c34df361e484f51","65576f040411c2a4be0341a4","65576f58dd30b283419317e2","null","<p> <font color=""green"" size=""5vw""> Correct category! </font> <br> <br> <font color=""green"" size=""8vw""> + $0.05 </font> </p>","null","feedback","","","","","","","0.75"
"","","","","","html-keyboard-response","130","153061","0.0-6.15-0.15","604390883c34df361e484f51","65576f040411c2a4be0341a4","65576f58dd30b283419317e2","490","
            
        <div style=""text-align: center; position: fixed; top: 5vh; left: 40vw;"">
            <div style=""margin:0 auto; width: 20vw; top: 8vh; font-size: 2vw""> 
            <font color=""green""> Bonus : $0.75 </font>
            </div>
        </div>
    
            <div> Please press any button to continue to the next trial.</div>
        "," ","ITI","","","","","","",""
"","","","","","html-keyboard-response","131","153671","0.0-6.15-1.15","604390883c34df361e484f51","65576f040411c2a4be0341a4","65576f58dd30b283419317e2","null","
        
        <div style=""text-align: center; position: fixed; top: 5vh; left: 40vw;"">
            <div style=""margin:0 auto; width: 20vw; top: 8vh; font-size: 2vw""> 
            <font color=""green""> Bonus : $0.75 </font>
            </div>
        </div>
    
        <img class=""stim"" src=./stimuli//pack_shapes_diff/cat_1/diff_4/ex_1_4_8.png></img>
    ","null","stimulus","","","","","","",""
"","","","","","html-keyboard-response","132","154686","0.0-6.15-2.15","604390883c34df361e484f51","65576f040411c2a4be0341a4","65576f58dd30b283419317e2","null","
        <div style=""text-align: center; position: fixed; top: 5vh; left: 40vw;"">
            <div style=""margin:0 auto; width: 20vw; top: 8vh; font-size: 2vw""> 
            <font color=""green""> Bonus : $0.75 </font>
            </div>
        </div>
    ","null","","","","","","","",""
"","","","","","html-keyboard-response","133","154725","0.0-6.15-3.15","604390883c34df361e484f51","65576f040411c2a4be0341a4","65576f58dd30b283419317e2","38","./stimuli//pack_shapes_diff/cat_1/diff_4/ex_1_4_8.png","arrowleft","response","ArrowLeft","8","1","4","test","true",""
"","","","","","html-keyboard-response","134","154885","0.0-6.15-4.15","604390883c34df361e484f51","65576f040411c2a4be0341a4","65576f58dd30b283419317e2","160","<p> <font color=""green"" size=""5vw""> Correct category! </font> <br> <br> <font color=""green"" size=""8vw""> + $0.05 </font> </p>","arrowleft","feedback","","","","","","","0.8"
"","","","","","html-keyboard-response","135","155821","0.0-6.16-0.16","604390883c34df361e484f51","65576f040411c2a4be0341a4","65576f58dd30b283419317e2","936","
            
        <div style=""text-align: center; position: fixed; top: 5vh; left: 40vw;"">
            <div style=""margin:0 auto; width: 20vw; top: 8vh; font-size: 2vw""> 
            <font color=""green""> Bonus : $0.8 </font>
            </div>
        </div>
    
            <div> Please press any button to continue to the next trial.</div>
        "," ","ITI","","","","","","",""
"","","","","","html-keyboard-response","136","156433","0.0-6.16-1.16","604390883c34df361e484f51","65576f040411c2a4be0341a4","65576f58dd30b283419317e2","null","
        
        <div style=""text-align: center; position: fixed; top: 5vh; left: 40vw;"">
            <div style=""margin:0 auto; width: 20vw; top: 8vh; font-size: 2vw""> 
            <font color=""green""> Bonus : $0.8 </font>
            </div>
        </div>
    
        <img class=""stim"" src=./stimuli//pack_shapes_diff/cat_2/diff_4/ex_2_4_12.png></img>
    ","null","stimulus","","","","","","",""
"","","","","","html-keyboard-response","137","157437","0.0-6.16-2.16","604390883c34df361e484f51","65576f040411c2a4be0341a4","65576f58dd30b283419317e2","null","
        <div style=""text-align: center; position: fixed; top: 5vh; left: 40vw;"">
            <div style=""margin:0 auto; width: 20vw; top: 8vh; font-size: 2vw""> 
            <font color=""green""> Bonus : $0.8 </font>
            </div>
        </div>
    ","null","","","","","","","",""
"","","","","","html-keyboard-response","138","157629","0.0-6.16-3.16","604390883c34df361e484f51","65576f040411c2a4be0341a4","65576f58dd30b283419317e2","192","./stimuli//pack_shapes_diff/cat_2/diff_4/ex_2_4_12.png","arrowright","response","ArrowRight","12","2","4","test","true",""
"","","","","","html-keyboard-response","139","159135","0.0-6.16-4.16","604390883c34df361e484f51","65576f040411c2a4be0341a4","65576f58dd30b283419317e2","null","<p> <font color=""green"" size=""5vw""> Correct category! </font> <br> <br> <font color=""green"" size=""8vw""> + $0.05 </font> </p>","null","feedback","","","","","","","0.85"
"","","","","","html-keyboard-response","140","159285","0.0-6.17-0.17","604390883c34df361e484f51","65576f040411c2a4be0341a4","65576f58dd30b283419317e2","150","
            
        <div style=""text-align: center; position: fixed; top: 5vh; left: 40vw;"">
            <div style=""margin:0 auto; width: 20vw; top: 8vh; font-size: 2vw""> 
            <font color=""green""> Bonus : $0.85 </font>
            </div>
        </div>
    
            <div> Please press any button to continue to the next trial.</div>
        "," ","ITI","","","","","","",""
"","","","","","html-keyboard-response","141","159885","0.0-6.17-1.17","604390883c34df361e484f51","65576f040411c2a4be0341a4","65576f58dd30b283419317e2","null","
        
        <div style=""text-align: center; position: fixed; top: 5vh; left: 40vw;"">
            <div style=""margin:0 auto; width: 20vw; top: 8vh; font-size: 2vw""> 
            <font color=""green""> Bonus : $0.85 </font>
            </div>
        </div>
    
        <img class=""stim"" src=./stimuli//pack_shapes_diff/cat_2/diff_4/ex_2_4_8.png></img>
    ","null","stimulus","","","","","","",""
"","","","","","html-keyboard-response","142","160890","0.0-6.17-2.17","604390883c34df361e484f51","65576f040411c2a4be0341a4","65576f58dd30b283419317e2","null","
        <div style=""text-align: center; position: fixed; top: 5vh; left: 40vw;"">
            <div style=""margin:0 auto; width: 20vw; top: 8vh; font-size: 2vw""> 
            <font color=""green""> Bonus : $0.85 </font>
            </div>
        </div>
    ","null","","","","","","","",""
"","","","","","html-keyboard-response","143","160901","0.0-6.17-3.17","604390883c34df361e484f51","65576f040411c2a4be0341a4","65576f58dd30b283419317e2","10","./stimuli//pack_shapes_diff/cat_2/diff_4/ex_2_4_8.png","arrowright","response","ArrowRight","8","2","4","test","true",""
"","","","","","html-keyboard-response","144","161085","0.0-6.17-4.17","604390883c34df361e484f51","65576f040411c2a4be0341a4","65576f58dd30b283419317e2","184","<p> <font color=""green"" size=""5vw""> Correct category! </font> <br> <br> <font color=""green"" size=""8vw""> + $0.05 </font> </p>","arrowright","feedback","","","","","","","0.9"
"","","","","","html-keyboard-response","145","161789","0.0-6.18-0.18","604390883c34df361e484f51","65576f040411c2a4be0341a4","65576f58dd30b283419317e2","704","
            
        <div style=""text-align: center; position: fixed; top: 5vh; left: 40vw;"">
            <div style=""margin:0 auto; width: 20vw; top: 8vh; font-size: 2vw""> 
            <font color=""green""> Bonus : $0.9 </font>
            </div>
        </div>
    
            <div> Please press any button to continue to the next trial.</div>
        ","arrowright","ITI","","","","","","",""
"","","","","","html-keyboard-response","146","162402","0.0-6.18-1.18","604390883c34df361e484f51","65576f040411c2a4be0341a4","65576f58dd30b283419317e2","null","
        
        <div style=""text-align: center; position: fixed; top: 5vh; left: 40vw;"">
            <div style=""margin:0 auto; width: 20vw; top: 8vh; font-size: 2vw""> 
            <font color=""green""> Bonus : $0.9 </font>
            </div>
        </div>
    
        <img class=""stim"" src=./stimuli//pack_shapes_diff/cat_1/diff_4/ex_1_4_17.png></img>
    ","null","stimulus","","","","","","",""
"","","","","","html-keyboard-response","147","163403","0.0-6.18-2.18","604390883c34df361e484f51","65576f040411c2a4be0341a4","65576f58dd30b283419317e2","null","
        <div style=""text-align: center; position: fixed; top: 5vh; left: 40vw;"">
            <div style=""margin:0 auto; width: 20vw; top: 8vh; font-size: 2vw""> 
            <font color=""green""> Bonus : $0.9 </font>
            </div>
        </div>
    ","null","","","","","","","",""
"","","","","","html-keyboard-response","148","163437","0.0-6.18-3.18","604390883c34df361e484f51","65576f040411c2a4be0341a4","65576f58dd30b283419317e2","34","./stimuli//pack_shapes_diff/cat_1/diff_4/ex_1_4_17.png","arrowleft","response","ArrowLeft","17","1","4","test","true",""
"","","","","","html-keyboard-response","149","164939","0.0-6.18-4.18","604390883c34df361e484f51","65576f040411c2a4be0341a4","65576f58dd30b283419317e2","null","<p> <font color=""green"" size=""5vw""> Correct category! </font> <br> <br> <font color=""green"" size=""8vw""> + $0.05 </font> </p>","null","feedback","","","","","","","0.95"
"","","","","","html-keyboard-response","150","165261","0.0-6.19-0.19","604390883c34df361e484f51","65576f040411c2a4be0341a4","65576f58dd30b283419317e2","322","
            
        <div style=""text-align: center; position: fixed; top: 5vh; left: 40vw;"">
            <div style=""margin:0 auto; width: 20vw; top: 8vh; font-size: 2vw""> 
            <font color=""green""> Bonus : $0.95 </font>
            </div>
        </div>
    
            <div> Please press any button to continue to the next trial.</div>
        "," ","ITI","","","","","","",""
"","","","","","html-keyboard-response","151","165871","0.0-6.19-1.19","604390883c34df361e484f51","65576f040411c2a4be0341a4","65576f58dd30b283419317e2","null","
        
        <div style=""text-align: center; position: fixed; top: 5vh; left: 40vw;"">
            <div style=""margin:0 auto; width: 20vw; top: 8vh; font-size: 2vw""> 
            <font color=""green""> Bonus : $0.95 </font>
            </div>
        </div>
    
        <img class=""stim"" src=./stimuli//pack_shapes_diff/cat_2/diff_4/ex_2_4_4.png></img>
    ","null","stimulus","","","","","","",""
"","","","","","html-keyboard-response","152","166872","0.0-6.19-2.19","604390883c34df361e484f51","65576f040411c2a4be0341a4","65576f58dd30b283419317e2","null","
        <div style=""text-align: center; position: fixed; top: 5vh; left: 40vw;"">
            <div style=""margin:0 auto; width: 20vw; top: 8vh; font-size: 2vw""> 
            <font color=""green""> Bonus : $0.95 </font>
            </div>
        </div>
    ","null","","","","","","","",""
"","","","","","html-keyboard-response","153","167005","0.0-6.19-3.19","604390883c34df361e484f51","65576f040411c2a4be0341a4","65576f58dd30b283419317e2","133","./stimuli//pack_shapes_diff/cat_2/diff_4/ex_2_4_4.png","arrowright","response","ArrowRight","4","2","4","test","true",""
"","","","","","html-keyboard-response","154","168514","0.0-6.19-4.19","604390883c34df361e484f51","65576f040411c2a4be0341a4","65576f58dd30b283419317e2","null","<p> <font color=""green"" size=""5vw""> Correct category! </font> <br> <br> <font color=""green"" size=""8vw""> + $0.05 </font> </p>","null","feedback","","","","","","","1"
"","","","","","html-keyboard-response","155","168973","0.0-6.20-0.20","604390883c34df361e484f51","65576f040411c2a4be0341a4","65576f58dd30b283419317e2","458","
            
        <div style=""text-align: center; position: fixed; top: 5vh; left: 40vw;"">
            <div style=""margin:0 auto; width: 20vw; top: 8vh; font-size: 2vw""> 
            <font color=""green""> Bonus : $1 </font>
            </div>
        </div>
    
            <div> Please press any button to continue to the next trial.</div>
        "," ","ITI","","","","","","",""
"","","","","","html-keyboard-response","156","169578","0.0-6.20-1.20","604390883c34df361e484f51","65576f040411c2a4be0341a4","65576f58dd30b283419317e2","null","
        
        <div style=""text-align: center; position: fixed; top: 5vh; left: 40vw;"">
            <div style=""margin:0 auto; width: 20vw; top: 8vh; font-size: 2vw""> 
            <font color=""green""> Bonus : $1 </font>
            </div>
        </div>
    
        <img class=""stim"" src=./stimuli//pack_shapes_diff/cat_2/diff_5/ex_2_5_4.png></img>
    ","null","stimulus","","","","","","",""
"","","","","","html-keyboard-response","157","170579","0.0-6.20-2.20","604390883c34df361e484f51","65576f040411c2a4be0341a4","65576f58dd30b283419317e2","null","
        <div style=""text-align: center; position: fixed; top: 5vh; left: 40vw;"">
            <div style=""margin:0 auto; width: 20vw; top: 8vh; font-size: 2vw""> 
            <font color=""green""> Bonus : $1 </font>
            </div>
        </div>
    ","null","","","","","","","",""
"","","","","","html-keyboard-response","158","170765","0.0-6.20-3.20","604390883c34df361e484f51","65576f040411c2a4be0341a4","65576f58dd30b283419317e2","185","./stimuli//pack_shapes_diff/cat_2/diff_5/ex_2_5_4.png","arrowright","response","ArrowRight","4","2","5","test","true",""
"","","","","","html-keyboard-response","159","172278","0.0-6.20-4.20","604390883c34df361e484f51","65576f040411c2a4be0341a4","65576f58dd30b283419317e2","null","<p> <font color=""green"" size=""5vw""> Correct category! </font> <br> <br> <font color=""green"" size=""8vw""> + $0.05 </font> </p>","null","feedback","","","","","","","1.05"
"","","","","","html-keyboard-response","160","173213","0.0-6.21-0.21","604390883c34df361e484f51","65576f040411c2a4be0341a4","65576f58dd30b283419317e2","934","
            
        <div style=""text-align: center; position: fixed; top: 5vh; left: 40vw;"">
            <div style=""margin:0 auto; width: 20vw; top: 8vh; font-size: 2vw""> 
            <font color=""green""> Bonus : $1.05 </font>
            </div>
        </div>
    
            <div> Please press any button to continue to the next trial.</div>
        "," ","ITI","","","","","","",""
"","","","","","html-keyboard-response","161","173826","0.0-6.21-1.21","604390883c34df361e484f51","65576f040411c2a4be0341a4","65576f58dd30b283419317e2","null","
        
        <div style=""text-align: center; position: fixed; top: 5vh; left: 40vw;"">
            <div style=""margin:0 auto; width: 20vw; top: 8vh; font-size: 2vw""> 
            <font color=""green""> Bonus : $1.05 </font>
            </div>
        </div>
    
        <img class=""stim"" src=./stimuli//pack_shapes_diff/cat_2/diff_5/ex_2_5_15.png></img>
    ","null","stimulus","","","","","","",""
"","","","","","html-keyboard-response","162","174830","0.0-6.21-2.21","604390883c34df361e484f51","65576f040411c2a4be0341a4","65576f58dd30b283419317e2","null","
        <div style=""text-align: center; position: fixed; top: 5vh; left: 40vw;"">
            <div style=""margin:0 auto; width: 20vw; top: 8vh; font-size: 2vw""> 
            <font color=""green""> Bonus : $1.05 </font>
            </div>
        </div>
    ","null","","","","","","","",""
"","","","","","html-keyboard-response","163","175557","0.0-6.21-3.21","604390883c34df361e484f51","65576f040411c2a4be0341a4","65576f58dd30b283419317e2","726","./stimuli//pack_shapes_diff/cat_2/diff_5/ex_2_5_15.png","arrowleft","response","ArrowRight","15","2","5","test","false",""
"","","","","","html-keyboard-response","164","177062","0.0-6.21-4.21","604390883c34df361e484f51","65576f040411c2a4be0341a4","65576f58dd30b283419317e2","null","<p> <font color=""red"" size=""5vw""> Wrong category! </font> </p>","null","feedback","","","","","","","1.05"
"","","","","","html-keyboard-response","165","178093","0.0-6.22-0.22","604390883c34df361e484f51","65576f040411c2a4be0341a4","65576f58dd30b283419317e2","1030","
            
        <div style=""text-align: center; position: fixed; top: 5vh; left: 40vw;"">
            <div style=""margin:0 auto; width: 20vw; top: 8vh; font-size: 2vw""> 
            <font color=""green""> Bonus : $1.05 </font>
            </div>
        </div>
    
            <div> Please press any button to continue to the next trial.</div>
        "," ","ITI","","","","","","",""
"","","","","","html-keyboard-response","166","178708","0.0-6.22-1.22","604390883c34df361e484f51","65576f040411c2a4be0341a4","65576f58dd30b283419317e2","null","
        
        <div style=""text-align: center; position: fixed; top: 5vh; left: 40vw;"">
            <div style=""margin:0 auto; width: 20vw; top: 8vh; font-size: 2vw""> 
            <font color=""green""> Bonus : $1.05 </font>
            </div>
        </div>
    
        <img class=""stim"" src=./stimuli//pack_shapes_diff/cat_1/diff_5/ex_1_5_2.png></img>
    ","null","stimulus","","","","","","",""
"","","","","","html-keyboard-response","167","179716","0.0-6.22-2.22","604390883c34df361e484f51","65576f040411c2a4be0341a4","65576f58dd30b283419317e2","null","
        <div style=""text-align: center; position: fixed; top: 5vh; left: 40vw;"">
            <div style=""margin:0 auto; width: 20vw; top: 8vh; font-size: 2vw""> 
            <font color=""green""> Bonus : $1.05 </font>
            </div>
        </div>
    ","null","","","","","","","",""
"","","","","","html-keyboard-response","168","179821","0.0-6.22-3.22","604390883c34df361e484f51","65576f040411c2a4be0341a4","65576f58dd30b283419317e2","105","./stimuli//pack_shapes_diff/cat_1/diff_5/ex_1_5_2.png","arrowleft","response","ArrowLeft","2","1","5","test","true",""
"","","","","","html-keyboard-response","169","181328","0.0-6.22-4.22","604390883c34df361e484f51","65576f040411c2a4be0341a4","65576f58dd30b283419317e2","null","<p> <font color=""green"" size=""5vw""> Correct category! </font> <br> <br> <font color=""green"" size=""8vw""> + $0.05 </font> </p>","null","feedback","","","","","","","1.1"
"","","","","","html-keyboard-response","170","181741","0.0-6.23-0.23","604390883c34df361e484f51","65576f040411c2a4be0341a4","65576f58dd30b283419317e2","413","
            
        <div style=""text-align: center; position: fixed; top: 5vh; left: 40vw;"">
            <div style=""margin:0 auto; width: 20vw; top: 8vh; font-size: 2vw""> 
            <font color=""green""> Bonus : $1.1 </font>
            </div>
        </div>
    
            <div> Please press any button to continue to the next trial.</div>
        "," ","ITI","","","","","","",""
"","","","","","html-keyboard-response","171","182342","0.0-6.23-1.23","604390883c34df361e484f51","65576f040411c2a4be0341a4","65576f58dd30b283419317e2","null","
        
        <div style=""text-align: center; position: fixed; top: 5vh; left: 40vw;"">
            <div style=""margin:0 auto; width: 20vw; top: 8vh; font-size: 2vw""> 
            <font color=""green""> Bonus : $1.1 </font>
            </div>
        </div>
    
        <img class=""stim"" src=./stimuli//pack_shapes_diff/cat_2/diff_5/ex_2_5_2.png></img>
    ","null","stimulus","","","","","","",""
"","","","","","html-keyboard-response","172","183348","0.0-6.23-2.23","604390883c34df361e484f51","65576f040411c2a4be0341a4","65576f58dd30b283419317e2","null","
        <div style=""text-align: center; position: fixed; top: 5vh; left: 40vw;"">
            <div style=""margin:0 auto; width: 20vw; top: 8vh; font-size: 2vw""> 
            <font color=""green""> Bonus : $1.1 </font>
            </div>
        </div>
    ","null","","","","","","","",""
"","","","","","html-keyboard-response","173","183405","0.0-6.23-3.23","604390883c34df361e484f51","65576f040411c2a4be0341a4","65576f58dd30b283419317e2","56","./stimuli//pack_shapes_diff/cat_2/diff_5/ex_2_5_2.png","arrowright","response","ArrowRight","2","2","5","test","true",""
"","","","","","html-keyboard-response","174","184910","0.0-6.23-4.23","604390883c34df361e484f51","65576f040411c2a4be0341a4","65576f58dd30b283419317e2","null","<p> <font color=""green"" size=""5vw""> Correct category! </font> <br> <br> <font color=""green"" size=""8vw""> + $0.05 </font> </p>","null","feedback","","","","","","","1.15"
"","","","","","html-keyboard-response","175","185477","0.0-6.24-0.24","604390883c34df361e484f51","65576f040411c2a4be0341a4","65576f58dd30b283419317e2","567","
            
        <div style=""text-align: center; position: fixed; top: 5vh; left: 40vw;"">
            <div style=""margin:0 auto; width: 20vw; top: 8vh; font-size: 2vw""> 
            <font color=""green""> Bonus : $1.15 </font>
            </div>
        </div>
    
            <div> Please press any button to continue to the next trial.</div>
        "," ","ITI","","","","","","",""
"","","","","","html-keyboard-response","176","186085","0.0-6.24-1.24","604390883c34df361e484f51","65576f040411c2a4be0341a4","65576f58dd30b283419317e2","null","
        
        <div style=""text-align: center; position: fixed; top: 5vh; left: 40vw;"">
            <div style=""margin:0 auto; width: 20vw; top: 8vh; font-size: 2vw""> 
            <font color=""green""> Bonus : $1.15 </font>
            </div>
        </div>
    
        <img class=""stim"" src=./stimuli//pack_shapes_diff/cat_1/diff_5/ex_1_5_8.png></img>
    ","null","stimulus","","","","","","",""
"","","","","","html-keyboard-response","177","187086","0.0-6.24-2.24","604390883c34df361e484f51","65576f040411c2a4be0341a4","65576f58dd30b283419317e2","null","
        <div style=""text-align: center; position: fixed; top: 5vh; left: 40vw;"">
            <div style=""margin:0 auto; width: 20vw; top: 8vh; font-size: 2vw""> 
            <font color=""green""> Bonus : $1.15 </font>
            </div>
        </div>
    ","null","","","","","","","",""
"","","","","","html-keyboard-response","178","187349","0.0-6.24-3.24","604390883c34df361e484f51","65576f040411c2a4be0341a4","65576f58dd30b283419317e2","262","./stimuli//pack_shapes_diff/cat_1/diff_5/ex_1_5_8.png","arrowright","response","ArrowLeft","8","1","5","test","false",""
"","","","","","html-keyboard-response","179","188856","0.0-6.24-4.24","604390883c34df361e484f51","65576f040411c2a4be0341a4","65576f58dd30b283419317e2","null","<p> <font color=""red"" size=""5vw""> Wrong category! </font> </p>","null","feedback","","","","","","","1.15"
"","","","","","html-keyboard-response","180","189421","0.0-6.25-0.25","604390883c34df361e484f51","65576f040411c2a4be0341a4","65576f58dd30b283419317e2","565","
            
        <div style=""text-align: center; position: fixed; top: 5vh; left: 40vw;"">
            <div style=""margin:0 auto; width: 20vw; top: 8vh; font-size: 2vw""> 
            <font color=""green""> Bonus : $1.15 </font>
            </div>
        </div>
    
            <div> Please press any button to continue to the next trial.</div>
        "," ","ITI","","","","","","",""
"","","","","","html-keyboard-response","181","190031","0.0-6.25-1.25","604390883c34df361e484f51","65576f040411c2a4be0341a4","65576f58dd30b283419317e2","null","
        
        <div style=""text-align: center; position: fixed; top: 5vh; left: 40vw;"">
            <div style=""margin:0 auto; width: 20vw; top: 8vh; font-size: 2vw""> 
            <font color=""green""> Bonus : $1.15 </font>
            </div>
        </div>
    
        <img class=""stim"" src=./stimuli//pack_shapes_diff/cat_1/diff_4/ex_1_4_1.png></img>
    ","null","stimulus","","","","","","",""
"","","","","","html-keyboard-response","182","191032","0.0-6.25-2.25","604390883c34df361e484f51","65576f040411c2a4be0341a4","65576f58dd30b283419317e2","null","
        <div style=""text-align: center; position: fixed; top: 5vh; left: 40vw;"">
            <div style=""margin:0 auto; width: 20vw; top: 8vh; font-size: 2vw""> 
            <font color=""green""> Bonus : $1.15 </font>
            </div>
        </div>
    ","null","","","","","","","",""
"","","","","","html-keyboard-response","183","191309","0.0-6.25-3.25","604390883c34df361e484f51","65576f040411c2a4be0341a4","65576f58dd30b283419317e2","276","./stimuli//pack_shapes_diff/cat_1/diff_4/ex_1_4_1.png","arrowleft","response","ArrowLeft","1","1","4","test","true",""
"","","","","","html-keyboard-response","184","192811","0.0-6.25-4.25","604390883c34df361e484f51","65576f040411c2a4be0341a4","65576f58dd30b283419317e2","null","<p> <font color=""green"" size=""5vw""> Correct category! </font> <br> <br> <font color=""green"" size=""8vw""> + $0.05 </font> </p>","null","feedback","","","","","","","1.2"
"","","","","","html-keyboard-response","185","193349","0.0-6.26-0.26","604390883c34df361e484f51","65576f040411c2a4be0341a4","65576f58dd30b283419317e2","537","
            
        <div style=""text-align: center; position: fixed; top: 5vh; left: 40vw;"">
            <div style=""margin:0 auto; width: 20vw; top: 8vh; font-size: 2vw""> 
            <font color=""green""> Bonus : $1.2 </font>
            </div>
        </div>
    
            <div> Please press any button to continue to the next trial.</div>
        "," ","ITI","","","","","","",""
"","","","","","html-keyboard-response","186","193964","0.0-6.26-1.26","604390883c34df361e484f51","65576f040411c2a4be0341a4","65576f58dd30b283419317e2","null","
        
        <div style=""text-align: center; position: fixed; top: 5vh; left: 40vw;"">
            <div style=""margin:0 auto; width: 20vw; top: 8vh; font-size: 2vw""> 
            <font color=""green""> Bonus : $1.2 </font>
            </div>
        </div>
    
        <img class=""stim"" src=./stimuli//pack_shapes_diff/cat_1/diff_4/ex_1_4_11.png></img>
    ","null","stimulus","","","","","","",""
"","","","","","html-keyboard-response","187","194973","0.0-6.26-2.26","604390883c34df361e484f51","65576f040411c2a4be0341a4","65576f58dd30b283419317e2","null","
        <div style=""text-align: center; position: fixed; top: 5vh; left: 40vw;"">
            <div style=""margin:0 auto; width: 20vw; top: 8vh; font-size: 2vw""> 
            <font color=""green""> Bonus : $1.2 </font>
            </div>
        </div>
    ","null","","","","","","","",""
"","","","","","html-keyboard-response","188","195189","0.0-6.26-3.26","604390883c34df361e484f51","65576f040411c2a4be0341a4","65576f58dd30b283419317e2","216","./stimuli//pack_shapes_diff/cat_1/diff_4/ex_1_4_11.png","arrowleft","response","ArrowLeft","11","1","4","test","true",""
"","","","","","html-keyboard-response","189","196692","0.0-6.26-4.26","604390883c34df361e484f51","65576f040411c2a4be0341a4","65576f58dd30b283419317e2","null","<p> <font color=""green"" size=""5vw""> Correct category! </font> <br> <br> <font color=""green"" size=""8vw""> + $0.05 </font> </p>","null","feedback","","","","","","","1.25"
"","","","","","html-keyboard-response","190","197261","0.0-6.27-0.27","604390883c34df361e484f51","65576f040411c2a4be0341a4","65576f58dd30b283419317e2","568","
            
        <div style=""text-align: center; position: fixed; top: 5vh; left: 40vw;"">
            <div style=""margin:0 auto; width: 20vw; top: 8vh; font-size: 2vw""> 
            <font color=""green""> Bonus : $1.25 </font>
            </div>
        </div>
    
            <div> Please press any button to continue to the next trial.</div>
        "," ","ITI","","","","","","",""
"","","","","","html-keyboard-response","191","197871","0.0-6.27-1.27","604390883c34df361e484f51","65576f040411c2a4be0341a4","65576f58dd30b283419317e2","null","
        
        <div style=""text-align: center; position: fixed; top: 5vh; left: 40vw;"">
            <div style=""margin:0 auto; width: 20vw; top: 8vh; font-size: 2vw""> 
            <font color=""green""> Bonus : $1.25 </font>
            </div>
        </div>
    
        <img class=""stim"" src=./stimuli//pack_shapes_diff/cat_1/diff_4/ex_1_4_10.png></img>
    ","null","stimulus","","","","","","",""
"","","","","","html-keyboard-response","192","198873","0.0-6.27-2.27","604390883c34df361e484f51","65576f040411c2a4be0341a4","65576f58dd30b283419317e2","null","
        <div style=""text-align: center; position: fixed; top: 5vh; left: 40vw;"">
            <div style=""margin:0 auto; width: 20vw; top: 8vh; font-size: 2vw""> 
            <font color=""green""> Bonus : $1.25 </font>
            </div>
        </div>
    ","null","","","","","","","",""
"","","","","","html-keyboard-response","193","199117","0.0-6.27-3.27","604390883c34df361e484f51","65576f040411c2a4be0341a4","65576f58dd30b283419317e2","244","./stimuli//pack_shapes_diff/cat_1/diff_4/ex_1_4_10.png","arrowleft","response","ArrowLeft","10","1","4","test","true",""
"","","","","","html-keyboard-response","194","200626","0.0-6.27-4.27","604390883c34df361e484f51","65576f040411c2a4be0341a4","65576f58dd30b283419317e2","null","<p> <font color=""green"" size=""5vw""> Correct category! </font> <br> <br> <font color=""green"" size=""8vw""> + $0.05 </font> </p>","null","feedback","","","","","","","1.3"
"","","","","","html-keyboard-response","195","201285","0.0-6.28-0.28","604390883c34df361e484f51","65576f040411c2a4be0341a4","65576f58dd30b283419317e2","659","
            
        <div style=""text-align: center; position: fixed; top: 5vh; left: 40vw;"">
            <div style=""margin:0 auto; width: 20vw; top: 8vh; font-size: 2vw""> 
            <font color=""green""> Bonus : $1.3 </font>
            </div>
        </div>
    
            <div> Please press any button to continue to the next trial.</div>
        "," ","ITI","","","","","","",""
"","","","","","html-keyboard-response","196","201897","0.0-6.28-1.28","604390883c34df361e484f51","65576f040411c2a4be0341a4","65576f58dd30b283419317e2","null","
        
        <div style=""text-align: center; position: fixed; top: 5vh; left: 40vw;"">
            <div style=""margin:0 auto; width: 20vw; top: 8vh; font-size: 2vw""> 
            <font color=""green""> Bonus : $1.3 </font>
            </div>
        </div>
    
        <img class=""stim"" src=./stimuli//pack_shapes_diff/cat_2/diff_4/ex_2_4_4.png></img>
    ","null","stimulus","","","","","","",""
"","","","","","html-keyboard-response","197","202898","0.0-6.28-2.28","604390883c34df361e484f51","65576f040411c2a4be0341a4","65576f58dd30b283419317e2","null","
        <div style=""text-align: center; position: fixed; top: 5vh; left: 40vw;"">
            <div style=""margin:0 auto; width: 20vw; top: 8vh; font-size: 2vw""> 
            <font color=""green""> Bonus : $1.3 </font>
            </div>
        </div>
    ","null","","","","","","","",""
"","","","","","html-keyboard-response","198","202965","0.0-6.28-3.28","604390883c34df361e484f51","65576f040411c2a4be0341a4","65576f58dd30b283419317e2","67","./stimuli//pack_shapes_diff/cat_2/diff_4/ex_2_4_4.png","arrowleft","response","ArrowRight","4","2","4","test","false",""
"","","","","","html-keyboard-response","199","204468","0.0-6.28-4.28","604390883c34df361e484f51","65576f040411c2a4be0341a4","65576f58dd30b283419317e2","null","<p> <font color=""red"" size=""5vw""> Wrong category! </font> </p>","null","feedback","","","","","","","1.3"
"","","","","","html-keyboard-response","200","204933","0.0-6.29-0.29","604390883c34df361e484f51","65576f040411c2a4be0341a4","65576f58dd30b283419317e2","465","
            
        <div style=""text-align: center; position: fixed; top: 5vh; left: 40vw;"">
            <div style=""margin:0 auto; width: 20vw; top: 8vh; font-size: 2vw""> 
            <font color=""green""> Bonus : $1.3 </font>
            </div>
        </div>
    
            <div> Please press any button to continue to the next trial.</div>
        "," ","ITI","","","","","","",""
"","","","","","html-keyboard-response","201","205542","0.0-6.29-1.29","604390883c34df361e484f51","65576f040411c2a4be0341a4","65576f58dd30b283419317e2","null","
        
        <div style=""text-align: center; position: fixed; top: 5vh; left: 40vw;"">
            <div style=""margin:0 auto; width: 20vw; top: 8vh; font-size: 2vw""> 
            <font color=""green""> Bonus : $1.3 </font>
            </div>
        </div>
    
        <img class=""stim"" src=./stimuli//pack_shapes_diff/cat_2/diff_4/ex_2_4_9.png></img>
    ","null","stimulus","","","","","","",""
"","","","","","html-keyboard-response","202","206556","0.0-6.29-2.29","604390883c34df361e484f51","65576f040411c2a4be0341a4","65576f58dd30b283419317e2","null","
        <div style=""text-align: center; position: fixed; top: 5vh; left: 40vw;"">
            <div style=""margin:0 auto; width: 20vw; top: 8vh; font-size: 2vw""> 
            <font color=""green""> Bonus : $1.3 </font>
            </div>
        </div>
    ","null","","","","","","","",""
"","","","","","html-keyboard-response","203","206789","0.0-6.29-3.29","604390883c34df361e484f51","65576f040411c2a4be0341a4","65576f58dd30b283419317e2","233","./stimuli//pack_shapes_diff/cat_2/diff_4/ex_2_4_9.png","arrowright","response","ArrowRight","9","2","4","test","true",""
"","","","","","html-keyboard-response","204","208303","0.0-6.29-4.29","604390883c34df361e484f51","65576f040411c2a4be0341a4","65576f58dd30b283419317e2","null","<p> <font color=""green"" size=""5vw""> Correct category! </font> <br> <br> <font color=""green"" size=""8vw""> + $0.05 </font> </p>","null","feedback","","","","","","","1.35"
"","","","","","html-keyboard-response","205","208749","0.0-6.30-0.30","604390883c34df361e484f51","65576f040411c2a4be0341a4","65576f58dd30b283419317e2","445","
            
        <div style=""text-align: center; position: fixed; top: 5vh; left: 40vw;"">
            <div style=""margin:0 auto; width: 20vw; top: 8vh; font-size: 2vw""> 
            <font color=""green""> Bonus : $1.35 </font>
            </div>
        </div>
    
            <div> Please press any button to continue to the next trial.</div>
        "," ","ITI","","","","","","",""
"","","","","","html-keyboard-response","206","209352","0.0-6.30-1.30","604390883c34df361e484f51","65576f040411c2a4be0341a4","65576f58dd30b283419317e2","null","
        
        <div style=""text-align: center; position: fixed; top: 5vh; left: 40vw;"">
            <div style=""margin:0 auto; width: 20vw; top: 8vh; font-size: 2vw""> 
            <font color=""green""> Bonus : $1.35 </font>
            </div>
        </div>
    
        <img class=""stim"" src=./stimuli//pack_shapes_diff/cat_1/diff_5/ex_1_5_9.png></img>
    ","null","stimulus","","","","","","",""
"","","","","","html-keyboard-response","207","210366","0.0-6.30-2.30","604390883c34df361e484f51","65576f040411c2a4be0341a4","65576f58dd30b283419317e2","null","
        <div style=""text-align: center; position: fixed; top: 5vh; left: 40vw;"">
            <div style=""margin:0 auto; width: 20vw; top: 8vh; font-size: 2vw""> 
            <font color=""green""> Bonus : $1.35 </font>
            </div>
        </div>
    ","null","","","","","","","",""
"","","","","","html-keyboard-response","208","210485","0.0-6.30-3.30","604390883c34df361e484f51","65576f040411c2a4be0341a4","65576f58dd30b283419317e2","118","./stimuli//pack_shapes_diff/cat_1/diff_5/ex_1_5_9.png","arrowleft","response","ArrowLeft","9","1","5","test","true",""
"","","","","","html-keyboard-response","209","211991","0.0-6.30-4.30","604390883c34df361e484f51","65576f040411c2a4be0341a4","65576f58dd30b283419317e2","null","<p> <font color=""green"" size=""5vw""> Correct category! </font> <br> <br> <font color=""green"" size=""8vw""> + $0.05 </font> </p>","null","feedback","","","","","","","1.4"
"","","","","","html-keyboard-response","210","212525","0.0-6.31-0.31","604390883c34df361e484f51","65576f040411c2a4be0341a4","65576f58dd30b283419317e2","534","
            
        <div style=""text-align: center; position: fixed; top: 5vh; left: 40vw;"">
            <div style=""margin:0 auto; width: 20vw; top: 8vh; font-size: 2vw""> 
            <font color=""green""> Bonus : $1.4 </font>
            </div>
        </div>
    
            <div> Please press any button to continue to the next trial.</div>
        "," ","ITI","","","","","","",""
"","","","","","html-keyboard-response","211","213139","0.0-6.31-1.31","604390883c34df361e484f51","65576f040411c2a4be0341a4","65576f58dd30b283419317e2","null","
        
        <div style=""text-align: center; position: fixed; top: 5vh; left: 40vw;"">
            <div style=""margin:0 auto; width: 20vw; top: 8vh; font-size: 2vw""> 
            <font color=""green""> Bonus : $1.4 </font>
            </div>
        </div>
    
        <img class=""stim"" src=./stimuli//pack_shapes_diff/cat_1/diff_5/ex_1_5_8.png></img>
    ","null","stimulus","","","","","","",""
"","","","","","html-keyboard-response","212","214148","0.0-6.31-2.31","604390883c34df361e484f51","65576f040411c2a4be0341a4","65576f58dd30b283419317e2","null","
        <div style=""text-align: center; position: fixed; top: 5vh; left: 40vw;"">
            <div style=""margin:0 auto; width: 20vw; top: 8vh; font-size: 2vw""> 
            <font color=""green""> Bonus : $1.4 </font>
            </div>
        </div>
    ","null","","","","","","","",""
"","","","","","html-keyboard-response","213","214277","0.0-6.31-3.31","604390883c34df361e484f51","65576f040411c2a4be0341a4","65576f58dd30b283419317e2","128","./stimuli//pack_shapes_diff/cat_1/diff_5/ex_1_5_8.png","arrowleft","response","ArrowLeft","8","1","5","test","true",""
"","","","","","html-keyboard-response","214","215783","0.0-6.31-4.31","604390883c34df361e484f51","65576f040411c2a4be0341a4","65576f58dd30b283419317e2","null","<p> <font color=""green"" size=""5vw""> Correct category! </font> <br> <br> <font color=""green"" size=""8vw""> + $0.05 </font> </p>","null","feedback","","","","","","","1.45"
"","","","","","html-keyboard-response","215","216269","0.0-6.32-0.32","604390883c34df361e484f51","65576f040411c2a4be0341a4","65576f58dd30b283419317e2","486","
            
        <div style=""text-align: center; position: fixed; top: 5vh; left: 40vw;"">
            <div style=""margin:0 auto; width: 20vw; top: 8vh; font-size: 2vw""> 
            <font color=""green""> Bonus : $1.45 </font>
            </div>
        </div>
    
            <div> Please press any button to continue to the next trial.</div>
        "," ","ITI","","","","","","",""
"","","","","","html-keyboard-response","216","216873","0.0-6.32-1.32","604390883c34df361e484f51","65576f040411c2a4be0341a4","65576f58dd30b283419317e2","null","
        
        <div style=""text-align: center; position: fixed; top: 5vh; left: 40vw;"">
            <div style=""margin:0 auto; width: 20vw; top: 8vh; font-size: 2vw""> 
            <font color=""green""> Bonus : $1.45 </font>
            </div>
        </div>
    
        <img class=""stim"" src=./stimuli//pack_shapes_diff/cat_1/diff_5/ex_1_5_16.png></img>
    ","null","stimulus","","","","","","",""
"","","","","","html-keyboard-response","217","217880","0.0-6.32-2.32","604390883c34df361e484f51","65576f040411c2a4be0341a4","65576f58dd30b283419317e2","null","
        <div style=""text-align: center; position: fixed; top: 5vh; left: 40vw;"">
            <div style=""margin:0 auto; width: 20vw; top: 8vh; font-size: 2vw""> 
            <font color=""green""> Bonus : $1.45 </font>
            </div>
        </div>
    ","null","","","","","","","",""
"","","","","","html-keyboard-response","218","218261","0.0-6.32-3.32","604390883c34df361e484f51","65576f040411c2a4be0341a4","65576f58dd30b283419317e2","381","./stimuli//pack_shapes_diff/cat_1/diff_5/ex_1_5_16.png","arrowleft","response","ArrowLeft","16","1","5","test","true",""
"","","","","","html-keyboard-response","219","219764","0.0-6.32-4.32","604390883c34df361e484f51","65576f040411c2a4be0341a4","65576f58dd30b283419317e2","null","<p> <font color=""green"" size=""5vw""> Correct category! </font> <br> <br> <font color=""green"" size=""8vw""> + $0.05 </font> </p>","null","feedback","","","","","","","1.5"
"","","","","","html-keyboard-response","220","220221","0.0-6.33-0.33","604390883c34df361e484f51","65576f040411c2a4be0341a4","65576f58dd30b283419317e2","456","
            
        <div style=""text-align: center; position: fixed; top: 5vh; left: 40vw;"">
            <div style=""margin:0 auto; width: 20vw; top: 8vh; font-size: 2vw""> 
            <font color=""green""> Bonus : $1.5 </font>
            </div>
        </div>
    
            <div> Please press any button to continue to the next trial.</div>
        "," ","ITI","","","","","","",""
"","","","","","html-keyboard-response","221","220826","0.0-6.33-1.33","604390883c34df361e484f51","65576f040411c2a4be0341a4","65576f58dd30b283419317e2","null","
        
        <div style=""text-align: center; position: fixed; top: 5vh; left: 40vw;"">
            <div style=""margin:0 auto; width: 20vw; top: 8vh; font-size: 2vw""> 
            <font color=""green""> Bonus : $1.5 </font>
            </div>
        </div>
    
        <img class=""stim"" src=./stimuli//pack_shapes_diff/cat_1/diff_5/ex_1_5_14.png></img>
    ","null","stimulus","","","","","","",""
"","","","","","html-keyboard-response","222","221833","0.0-6.33-2.33","604390883c34df361e484f51","65576f040411c2a4be0341a4","65576f58dd30b283419317e2","null","
        <div style=""text-align: center; position: fixed; top: 5vh; left: 40vw;"">
            <div style=""margin:0 auto; width: 20vw; top: 8vh; font-size: 2vw""> 
            <font color=""green""> Bonus : $1.5 </font>
            </div>
        </div>
    ","null","","","","","","","",""
"","","","","","html-keyboard-response","223","222037","0.0-6.33-3.33","604390883c34df361e484f51","65576f040411c2a4be0341a4","65576f58dd30b283419317e2","204","./stimuli//pack_shapes_diff/cat_1/diff_5/ex_1_5_14.png","arrowleft","response","ArrowLeft","14","1","5","test","true",""
"","","","","","html-keyboard-response","224","223544","0.0-6.33-4.33","604390883c34df361e484f51","65576f040411c2a4be0341a4","65576f58dd30b283419317e2","null","<p> <font color=""green"" size=""5vw""> Correct category! </font> <br> <br> <font color=""green"" size=""8vw""> + $0.05 </font> </p>","null","feedback","","","","","","","1.55"
"","","","","","html-keyboard-response","225","224333","0.0-6.34-0.34","604390883c34df361e484f51","65576f040411c2a4be0341a4","65576f58dd30b283419317e2","789","
            
        <div style=""text-align: center; position: fixed; top: 5vh; left: 40vw;"">
            <div style=""margin:0 auto; width: 20vw; top: 8vh; font-size: 2vw""> 
            <font color=""green""> Bonus : $1.55 </font>
            </div>
        </div>
    
            <div> Please press any button to continue to the next trial.</div>
        "," ","ITI","","","","","","",""
"","","","","","html-keyboard-response","226","224935","0.0-6.34-1.34","604390883c34df361e484f51","65576f040411c2a4be0341a4","65576f58dd30b283419317e2","null","
        
        <div style=""text-align: center; position: fixed; top: 5vh; left: 40vw;"">
            <div style=""margin:0 auto; width: 20vw; top: 8vh; font-size: 2vw""> 
            <font color=""green""> Bonus : $1.55 </font>
            </div>
        </div>
    
        <img class=""stim"" src=./stimuli//pack_shapes_diff/cat_2/diff_5/ex_2_5_9.png></img>
    ","null","stimulus","","","","","","",""
"","","","","","html-keyboard-response","227","225936","0.0-6.34-2.34","604390883c34df361e484f51","65576f040411c2a4be0341a4","65576f58dd30b283419317e2","null","
        <div style=""text-align: center; position: fixed; top: 5vh; left: 40vw;"">
            <div style=""margin:0 auto; width: 20vw; top: 8vh; font-size: 2vw""> 
            <font color=""green""> Bonus : $1.55 </font>
            </div>
        </div>
    ","null","","","","","","","",""
"","","","","","html-keyboard-response","228","226061","0.0-6.34-3.34","604390883c34df361e484f51","65576f040411c2a4be0341a4","65576f58dd30b283419317e2","125","./stimuli//pack_shapes_diff/cat_2/diff_5/ex_2_5_9.png","arrowleft","response","ArrowRight","9","2","5","test","false",""
"","","","","","html-keyboard-response","229","227565","0.0-6.34-4.34","604390883c34df361e484f51","65576f040411c2a4be0341a4","65576f58dd30b283419317e2","null","<p> <font color=""red"" size=""5vw""> Wrong category! </font> </p>","null","feedback","","","","","","","1.55"
