"success","timeout","failed_images","failed_audio","failed_video","trial_type","trial_index","time_elapsed","internal_node_id","subject_id","study_id","session_id","rt","stimulus","response","task","correct_response","exemplar_ID","category","difficulty","phase","correct","bonus"
"true","false","[]","[]","[]","preload","0","7","0.0-0.0","6069f9a16164d8e1747bb021","65576f040411c2a4be0341a4","65576f60ef693c11c08803a8","","","","","","","","","","",""
"","","","","","html-keyboard-response","1","4996","0.0-1.0","6069f9a16164d8e1747bb021","65576f040411c2a4be0341a4","65576f60ef693c11c08803a8","4987","Welcome to the Category Learning experiment! Press any key to continue."," ","welcome","","","","","","",""
"","","","","","html-keyboard-response","2","27415","0.0-2.0","6069f9a16164d8e1747bb021","65576f040411c2a4be0341a4","65576f60ef693c11c08803a8","22417","
            <p>You will be shown images of black shapes. Some are category A, some are category B.
            <br>You will not know in advance which category a specific shape belongs to.</p>
            <p>After you see an image, you will be asked to guess its category <b>(left arrow for category A, right arrow for category B)</b></p>
            <p>After you choose, the screen will show you whether you were correct or not.</p>
            <p><b>You will receive a bonus payment of $0.05 for each correct answer!</b></p>
            <p> So you can increase your bonus by guessing correctly, and by guessing as quickly as possible so you move on to the next image sooner.</p>
            <p>Press any key to continue.</p>
            "," ","introduction_1","","","","","","",""
"","","","","","html-keyboard-response","3","33637","0.0-3.0","6069f9a16164d8e1747bb021","65576f040411c2a4be0341a4","65576f60ef693c11c08803a8","6222","
            <p> <b>The first 10 trials are a practice round that will not count towards your bonus payment.</b></p>
            <p> You will be notified when practice finishes and the test begins. </p>
            <p> Press any key to begin the practice round.</p>
            "," ","introduction_2","","","","","","",""
"","","","","","html-keyboard-response","4","35313","0.0-4.0-0.0","6069f9a16164d8e1747bb021","65576f040411c2a4be0341a4","65576f60ef693c11c08803a8","1677","
            
        <div style=""text-align: center; position: fixed; top: 5vh; left: 40vw;"">
            <div style=""margin:0 auto; width: 20vw; top: 8vh; font-size: 2vw""> 
            <font color=""green""> Bonus : $0 </font>
            </div>
        </div>
    
            <div> Please press any button to continue to the next trial.</div>
        "," ","ITI","","","","","","",""
"","","","","","html-keyboard-response","5","35926","0.0-4.0-1.0","6069f9a16164d8e1747bb021","65576f040411c2a4be0341a4","65576f60ef693c11c08803a8","null","
        
        <div style=""text-align: center; position: fixed; top: 5vh; left: 40vw;"">
            <div style=""margin:0 auto; width: 20vw; top: 8vh; font-size: 2vw""> 
            <font color=""green""> Bonus : $0 </font>
            </div>
        </div>
    
        <img class=""stim"" src=./stimuli//pack_shapes_diff/cat_2/diff_1/ex_2_1_7.png></img>
    ","null","stimulus","","","","","","",""
"","","","","","html-keyboard-response","6","36943","0.0-4.0-2.0","6069f9a16164d8e1747bb021","65576f040411c2a4be0341a4","65576f60ef693c11c08803a8","null","
        <div style=""text-align: center; position: fixed; top: 5vh; left: 40vw;"">
            <div style=""margin:0 auto; width: 20vw; top: 8vh; font-size: 2vw""> 
            <font color=""green""> Bonus : $0 </font>
            </div>
        </div>
    ","null","","","","","","","",""
"","","","","","html-keyboard-response","7","37801","0.0-4.0-3.0","6069f9a16164d8e1747bb021","65576f040411c2a4be0341a4","65576f60ef693c11c08803a8","855","./stimuli//pack_shapes_diff/cat_2/diff_1/ex_2_1_7.png","arrowleft","response","ArrowRight","7","2","1","train","false",""
"","","","","","html-keyboard-response","8","39315","0.0-4.0-4.0","6069f9a16164d8e1747bb021","65576f040411c2a4be0341a4","65576f60ef693c11c08803a8","null","<p> <font color=""red"" size=""5vw""> Wrong category! </font> </p>","null","feedback","","","","","","","0"
"","","","","","html-keyboard-response","9","40309","0.0-4.0-0.1","6069f9a16164d8e1747bb021","65576f040411c2a4be0341a4","65576f60ef693c11c08803a8","993","
            
        <div style=""text-align: center; position: fixed; top: 5vh; left: 40vw;"">
            <div style=""margin:0 auto; width: 20vw; top: 8vh; font-size: 2vw""> 
            <font color=""green""> Bonus : $0 </font>
            </div>
        </div>
    
            <div> Please press any button to continue to the next trial.</div>
        "," ","ITI","","","","","","",""
"","","","","","html-keyboard-response","10","40925","0.0-4.0-1.1","6069f9a16164d8e1747bb021","65576f040411c2a4be0341a4","65576f60ef693c11c08803a8","null","
        
        <div style=""text-align: center; position: fixed; top: 5vh; left: 40vw;"">
            <div style=""margin:0 auto; width: 20vw; top: 8vh; font-size: 2vw""> 
            <font color=""green""> Bonus : $0 </font>
            </div>
        </div>
    
        <img class=""stim"" src=./stimuli//pack_shapes_diff/cat_1/diff_2/ex_1_2_10.png></img>
    ","null","stimulus","","","","","","",""
"","","","","","html-keyboard-response","11","41936","0.0-4.0-2.1","6069f9a16164d8e1747bb021","65576f040411c2a4be0341a4","65576f60ef693c11c08803a8","null","
        <div style=""text-align: center; position: fixed; top: 5vh; left: 40vw;"">
            <div style=""margin:0 auto; width: 20vw; top: 8vh; font-size: 2vw""> 
            <font color=""green""> Bonus : $0 </font>
            </div>
        </div>
    ","null","","","","","","","",""
"","","","","","html-keyboard-response","12","42216","0.0-4.0-3.1","6069f9a16164d8e1747bb021","65576f040411c2a4be0341a4","65576f60ef693c11c08803a8","279","./stimuli//pack_shapes_diff/cat_1/diff_2/ex_1_2_10.png","arrowright","response","ArrowLeft","10","1","2","train","false",""
"","","","","","html-keyboard-response","13","43724","0.0-4.0-4.1","6069f9a16164d8e1747bb021","65576f040411c2a4be0341a4","65576f60ef693c11c08803a8","null","<p> <font color=""red"" size=""5vw""> Wrong category! </font> </p>","null","feedback","","","","","","","0"
"","","","","","html-keyboard-response","14","44227","0.0-4.0-0.2","6069f9a16164d8e1747bb021","65576f040411c2a4be0341a4","65576f60ef693c11c08803a8","501","
            
        <div style=""text-align: center; position: fixed; top: 5vh; left: 40vw;"">
            <div style=""margin:0 auto; width: 20vw; top: 8vh; font-size: 2vw""> 
            <font color=""green""> Bonus : $0 </font>
            </div>
        </div>
    
            <div> Please press any button to continue to the next trial.</div>
        "," ","ITI","","","","","","",""
"","","","","","html-keyboard-response","15","44837","0.0-4.0-1.2","6069f9a16164d8e1747bb021","65576f040411c2a4be0341a4","65576f60ef693c11c08803a8","null","
        
        <div style=""text-align: center; position: fixed; top: 5vh; left: 40vw;"">
            <div style=""margin:0 auto; width: 20vw; top: 8vh; font-size: 2vw""> 
            <font color=""green""> Bonus : $0 </font>
            </div>
        </div>
    
        <img class=""stim"" src=./stimuli//pack_shapes_diff/cat_1/diff_1/ex_1_1_6.png></img>
    ","null","stimulus","","","","","","",""
"","","","","","html-keyboard-response","16","45844","0.0-4.0-2.2","6069f9a16164d8e1747bb021","65576f040411c2a4be0341a4","65576f60ef693c11c08803a8","null","
        <div style=""text-align: center; position: fixed; top: 5vh; left: 40vw;"">
            <div style=""margin:0 auto; width: 20vw; top: 8vh; font-size: 2vw""> 
            <font color=""green""> Bonus : $0 </font>
            </div>
        </div>
    ","null","","","","","","","",""
"","","","","","html-keyboard-response","17","46397","0.0-4.0-3.2","6069f9a16164d8e1747bb021","65576f040411c2a4be0341a4","65576f60ef693c11c08803a8","552","./stimuli//pack_shapes_diff/cat_1/diff_1/ex_1_1_6.png","arrowright","response","ArrowLeft","6","1","1","train","false",""
"","","","","","html-keyboard-response","18","47902","0.0-4.0-4.2","6069f9a16164d8e1747bb021","65576f040411c2a4be0341a4","65576f60ef693c11c08803a8","null","<p> <font color=""red"" size=""5vw""> Wrong category! </font> </p>","null","feedback","","","","","","","0"
"","","","","","html-keyboard-response","19","50218","0.0-4.0-0.3","6069f9a16164d8e1747bb021","65576f040411c2a4be0341a4","65576f60ef693c11c08803a8","2315","
            
        <div style=""text-align: center; position: fixed; top: 5vh; left: 40vw;"">
            <div style=""margin:0 auto; width: 20vw; top: 8vh; font-size: 2vw""> 
            <font color=""green""> Bonus : $0 </font>
            </div>
        </div>
    
            <div> Please press any button to continue to the next trial.</div>
        "," ","ITI","","","","","","",""
"","","","","","html-keyboard-response","20","50827","0.0-4.0-1.3","6069f9a16164d8e1747bb021","65576f040411c2a4be0341a4","65576f60ef693c11c08803a8","null","
        
        <div style=""text-align: center; position: fixed; top: 5vh; left: 40vw;"">
            <div style=""margin:0 auto; width: 20vw; top: 8vh; font-size: 2vw""> 
            <font color=""green""> Bonus : $0 </font>
            </div>
        </div>
    
        <img class=""stim"" src=./stimuli//pack_shapes_diff/cat_2/diff_1/ex_2_1_16.png></img>
    ","null","stimulus","","","","","","",""
"","","","","","html-keyboard-response","21","51832","0.0-4.0-2.3","6069f9a16164d8e1747bb021","65576f040411c2a4be0341a4","65576f60ef693c11c08803a8","null","
        <div style=""text-align: center; position: fixed; top: 5vh; left: 40vw;"">
            <div style=""margin:0 auto; width: 20vw; top: 8vh; font-size: 2vw""> 
            <font color=""green""> Bonus : $0 </font>
            </div>
        </div>
    ","null","","","","","","","",""
"","","","","","html-keyboard-response","22","51918","0.0-4.0-3.3","6069f9a16164d8e1747bb021","65576f040411c2a4be0341a4","65576f60ef693c11c08803a8","85","./stimuli//pack_shapes_diff/cat_2/diff_1/ex_2_1_16.png","arrowleft","response","ArrowRight","16","2","1","train","false",""
"","","","","","html-keyboard-response","23","53428","0.0-4.0-4.3","6069f9a16164d8e1747bb021","65576f040411c2a4be0341a4","65576f60ef693c11c08803a8","null","<p> <font color=""red"" size=""5vw""> Wrong category! </font> </p>","null","feedback","","","","","","","0"
"","","","","","html-keyboard-response","24","54392","0.0-4.0-0.4","6069f9a16164d8e1747bb021","65576f040411c2a4be0341a4","65576f60ef693c11c08803a8","963","
            
        <div style=""text-align: center; position: fixed; top: 5vh; left: 40vw;"">
            <div style=""margin:0 auto; width: 20vw; top: 8vh; font-size: 2vw""> 
            <font color=""green""> Bonus : $0 </font>
            </div>
        </div>
    
            <div> Please press any button to continue to the next trial.</div>
        "," ","ITI","","","","","","",""
"","","","","","html-keyboard-response","25","55002","0.0-4.0-1.4","6069f9a16164d8e1747bb021","65576f040411c2a4be0341a4","65576f60ef693c11c08803a8","null","
        
        <div style=""text-align: center; position: fixed; top: 5vh; left: 40vw;"">
            <div style=""margin:0 auto; width: 20vw; top: 8vh; font-size: 2vw""> 
            <font color=""green""> Bonus : $0 </font>
            </div>
        </div>
    
        <img class=""stim"" src=./stimuli//pack_shapes_diff/cat_1/diff_2/ex_1_2_7.png></img>
    ","null","stimulus","","","","","","",""
"","","","","","html-keyboard-response","26","56010","0.0-4.0-2.4","6069f9a16164d8e1747bb021","65576f040411c2a4be0341a4","65576f60ef693c11c08803a8","null","
        <div style=""text-align: center; position: fixed; top: 5vh; left: 40vw;"">
            <div style=""margin:0 auto; width: 20vw; top: 8vh; font-size: 2vw""> 
            <font color=""green""> Bonus : $0 </font>
            </div>
        </div>
    ","null","","","","","","","",""
"","","","","","html-keyboard-response","27","56304","0.0-4.0-3.4","6069f9a16164d8e1747bb021","65576f040411c2a4be0341a4","65576f60ef693c11c08803a8","293","./stimuli//pack_shapes_diff/cat_1/diff_2/ex_1_2_7.png","arrowleft","response","ArrowLeft","7","1","2","train","true",""
"","","","","","html-keyboard-response","28","57812","0.0-4.0-4.4","6069f9a16164d8e1747bb021","65576f040411c2a4be0341a4","65576f60ef693c11c08803a8","null","<p> <font color=""green"" size=""5vw""> Correct category! </font> </p>","null","feedback","","","","","","","0"
"","","","","","html-keyboard-response","29","58414","0.0-4.0-0.5","6069f9a16164d8e1747bb021","65576f040411c2a4be0341a4","65576f60ef693c11c08803a8","601","
            
        <div style=""text-align: center; position: fixed; top: 5vh; left: 40vw;"">
            <div style=""margin:0 auto; width: 20vw; top: 8vh; font-size: 2vw""> 
            <font color=""green""> Bonus : $0 </font>
            </div>
        </div>
    
            <div> Please press any button to continue to the next trial.</div>
        "," ","ITI","","","","","","",""
"","","","","","html-keyboard-response","30","59019","0.0-4.0-1.5","6069f9a16164d8e1747bb021","65576f040411c2a4be0341a4","65576f60ef693c11c08803a8","null","
        
        <div style=""text-align: center; position: fixed; top: 5vh; left: 40vw;"">
            <div style=""margin:0 auto; width: 20vw; top: 8vh; font-size: 2vw""> 
            <font color=""green""> Bonus : $0 </font>
            </div>
        </div>
    
        <img class=""stim"" src=./stimuli//pack_shapes_diff/cat_2/diff_2/ex_2_2_17.png></img>
    ","null","stimulus","","","","","","",""
"","","","","","html-keyboard-response","31","60036","0.0-4.0-2.5","6069f9a16164d8e1747bb021","65576f040411c2a4be0341a4","65576f60ef693c11c08803a8","null","
        <div style=""text-align: center; position: fixed; top: 5vh; left: 40vw;"">
            <div style=""margin:0 auto; width: 20vw; top: 8vh; font-size: 2vw""> 
            <font color=""green""> Bonus : $0 </font>
            </div>
        </div>
    ","null","","","","","","","",""
"","","","","","html-keyboard-response","32","60288","0.0-4.0-3.5","6069f9a16164d8e1747bb021","65576f040411c2a4be0341a4","65576f60ef693c11c08803a8","251","./stimuli//pack_shapes_diff/cat_2/diff_2/ex_2_2_17.png","arrowright","response","ArrowRight","17","2","2","train","true",""
"","","","","","html-keyboard-response","33","61801","0.0-4.0-4.5","6069f9a16164d8e1747bb021","65576f040411c2a4be0341a4","65576f60ef693c11c08803a8","null","<p> <font color=""green"" size=""5vw""> Correct category! </font> </p>","null","feedback","","","","","","","0"
"","","","","","html-keyboard-response","34","62272","0.0-4.0-0.6","6069f9a16164d8e1747bb021","65576f040411c2a4be0341a4","65576f60ef693c11c08803a8","470","
            
        <div style=""text-align: center; position: fixed; top: 5vh; left: 40vw;"">
            <div style=""margin:0 auto; width: 20vw; top: 8vh; font-size: 2vw""> 
            <font color=""green""> Bonus : $0 </font>
            </div>
        </div>
    
            <div> Please press any button to continue to the next trial.</div>
        "," ","ITI","","","","","","",""
"","","","","","html-keyboard-response","35","62885","0.0-4.0-1.6","6069f9a16164d8e1747bb021","65576f040411c2a4be0341a4","65576f60ef693c11c08803a8","null","
        
        <div style=""text-align: center; position: fixed; top: 5vh; left: 40vw;"">
            <div style=""margin:0 auto; width: 20vw; top: 8vh; font-size: 2vw""> 
            <font color=""green""> Bonus : $0 </font>
            </div>
        </div>
    
        <img class=""stim"" src=./stimuli//pack_shapes_diff/cat_2/diff_2/ex_2_2_2.png></img>
    ","null","stimulus","","","","","","",""
"","","","","","html-keyboard-response","36","63894","0.0-4.0-2.6","6069f9a16164d8e1747bb021","65576f040411c2a4be0341a4","65576f60ef693c11c08803a8","null","
        <div style=""text-align: center; position: fixed; top: 5vh; left: 40vw;"">
            <div style=""margin:0 auto; width: 20vw; top: 8vh; font-size: 2vw""> 
            <font color=""green""> Bonus : $0 </font>
            </div>
        </div>
    ","null","","","","","","","",""
"","","","","","html-keyboard-response","37","64038","0.0-4.0-3.6","6069f9a16164d8e1747bb021","65576f040411c2a4be0341a4","65576f60ef693c11c08803a8","143","./stimuli//pack_shapes_diff/cat_2/diff_2/ex_2_2_2.png","arrowright","response","ArrowRight","2","2","2","train","true",""
"","","","","","html-keyboard-response","38","65555","0.0-4.0-4.6","6069f9a16164d8e1747bb021","65576f040411c2a4be0341a4","65576f60ef693c11c08803a8","null","<p> <font color=""green"" size=""5vw""> Correct category! </font> </p>","null","feedback","","","","","","","0"
"","","","","","html-keyboard-response","39","66018","0.0-4.0-0.7","6069f9a16164d8e1747bb021","65576f040411c2a4be0341a4","65576f60ef693c11c08803a8","462","
            
        <div style=""text-align: center; position: fixed; top: 5vh; left: 40vw;"">
            <div style=""margin:0 auto; width: 20vw; top: 8vh; font-size: 2vw""> 
            <font color=""green""> Bonus : $0 </font>
            </div>
        </div>
    
            <div> Please press any button to continue to the next trial.</div>
        "," ","ITI","","","","","","",""
"","","","","","html-keyboard-response","40","66627","0.0-4.0-1.7","6069f9a16164d8e1747bb021","65576f040411c2a4be0341a4","65576f60ef693c11c08803a8","null","
        
        <div style=""text-align: center; position: fixed; top: 5vh; left: 40vw;"">
            <div style=""margin:0 auto; width: 20vw; top: 8vh; font-size: 2vw""> 
            <font color=""green""> Bonus : $0 </font>
            </div>
        </div>
    
        <img class=""stim"" src=./stimuli//pack_shapes_diff/cat_1/diff_1/ex_1_1_2.png></img>
    ","null","stimulus","","","","","","",""
"","","","","","html-keyboard-response","41","67641","0.0-4.0-2.7","6069f9a16164d8e1747bb021","65576f040411c2a4be0341a4","65576f60ef693c11c08803a8","null","
        <div style=""text-align: center; position: fixed; top: 5vh; left: 40vw;"">
            <div style=""margin:0 auto; width: 20vw; top: 8vh; font-size: 2vw""> 
            <font color=""green""> Bonus : $0 </font>
            </div>
        </div>
    ","null","","","","","","","",""
"","","","","","html-keyboard-response","42","67921","0.0-4.0-3.7","6069f9a16164d8e1747bb021","65576f040411c2a4be0341a4","65576f60ef693c11c08803a8","278","./stimuli//pack_shapes_diff/cat_1/diff_1/ex_1_1_2.png","arrowleft","response","ArrowLeft","2","1","1","train","true",""
"","","","","","html-keyboard-response","43","69437","0.0-4.0-4.7","6069f9a16164d8e1747bb021","65576f040411c2a4be0341a4","65576f60ef693c11c08803a8","null","<p> <font color=""green"" size=""5vw""> Correct category! </font> </p>","null","feedback","","","","","","","0"
"","","","","","html-keyboard-response","44","69776","0.0-4.0-0.8","6069f9a16164d8e1747bb021","65576f040411c2a4be0341a4","65576f60ef693c11c08803a8","338","
            
        <div style=""text-align: center; position: fixed; top: 5vh; left: 40vw;"">
            <div style=""margin:0 auto; width: 20vw; top: 8vh; font-size: 2vw""> 
            <font color=""green""> Bonus : $0 </font>
            </div>
        </div>
    
            <div> Please press any button to continue to the next trial.</div>
        "," ","ITI","","","","","","",""
"","","","","","html-keyboard-response","45","70389","0.0-4.0-1.8","6069f9a16164d8e1747bb021","65576f040411c2a4be0341a4","65576f60ef693c11c08803a8","null","
        
        <div style=""text-align: center; position: fixed; top: 5vh; left: 40vw;"">
            <div style=""margin:0 auto; width: 20vw; top: 8vh; font-size: 2vw""> 
            <font color=""green""> Bonus : $0 </font>
            </div>
        </div>
    
        <img class=""stim"" src=./stimuli//pack_shapes_diff/cat_2/diff_1/ex_2_1_4.png></img>
    ","null","stimulus","","","","","","",""
"","","","","","html-keyboard-response","46","71392","0.0-4.0-2.8","6069f9a16164d8e1747bb021","65576f040411c2a4be0341a4","65576f60ef693c11c08803a8","null","
        <div style=""text-align: center; position: fixed; top: 5vh; left: 40vw;"">
            <div style=""margin:0 auto; width: 20vw; top: 8vh; font-size: 2vw""> 
            <font color=""green""> Bonus : $0 </font>
            </div>
        </div>
    ","null","","","","","","","",""
"","","","","","html-keyboard-response","47","71757","0.0-4.0-3.8","6069f9a16164d8e1747bb021","65576f040411c2a4be0341a4","65576f60ef693c11c08803a8","363","./stimuli//pack_shapes_diff/cat_2/diff_1/ex_2_1_4.png","arrowright","response","ArrowRight","4","2","1","train","true",""
"","","","","","html-keyboard-response","48","73283","0.0-4.0-4.8","6069f9a16164d8e1747bb021","65576f040411c2a4be0341a4","65576f60ef693c11c08803a8","null","<p> <font color=""green"" size=""5vw""> Correct category! </font> </p>","null","feedback","","","","","","","0"
"","","","","","html-keyboard-response","49","73698","0.0-4.0-0.9","6069f9a16164d8e1747bb021","65576f040411c2a4be0341a4","65576f60ef693c11c08803a8","413","
            
        <div style=""text-align: center; position: fixed; top: 5vh; left: 40vw;"">
            <div style=""margin:0 auto; width: 20vw; top: 8vh; font-size: 2vw""> 
            <font color=""green""> Bonus : $0 </font>
            </div>
        </div>
    
            <div> Please press any button to continue to the next trial.</div>
        "," ","ITI","","","","","","",""
"","","","","","html-keyboard-response","50","74301","0.0-4.0-1.9","6069f9a16164d8e1747bb021","65576f040411c2a4be0341a4","65576f60ef693c11c08803a8","null","
        
        <div style=""text-align: center; position: fixed; top: 5vh; left: 40vw;"">
            <div style=""margin:0 auto; width: 20vw; top: 8vh; font-size: 2vw""> 
            <font color=""green""> Bonus : $0 </font>
            </div>
        </div>
    
        <img class=""stim"" src=./stimuli//pack_shapes_diff/cat_1/diff_1/ex_1_1_7.png></img>
    ","null","stimulus","","","","","","",""
"","","","","","html-keyboard-response","51","75306","0.0-4.0-2.9","6069f9a16164d8e1747bb021","65576f040411c2a4be0341a4","65576f60ef693c11c08803a8","null","
        <div style=""text-align: center; position: fixed; top: 5vh; left: 40vw;"">
            <div style=""margin:0 auto; width: 20vw; top: 8vh; font-size: 2vw""> 
            <font color=""green""> Bonus : $0 </font>
            </div>
        </div>
    ","null","","","","","","","",""
"","","","","","html-keyboard-response","52","75583","0.0-4.0-3.9","6069f9a16164d8e1747bb021","65576f040411c2a4be0341a4","65576f60ef693c11c08803a8","276","./stimuli//pack_shapes_diff/cat_1/diff_1/ex_1_1_7.png","arrowleft","response","ArrowLeft","7","1","1","train","true",""
"","","","","","html-keyboard-response","53","77085","0.0-4.0-4.9","6069f9a16164d8e1747bb021","65576f040411c2a4be0341a4","65576f60ef693c11c08803a8","null","<p> <font color=""green"" size=""5vw""> Correct category! </font> </p>","null","feedback","","","","","","","0"
"","","","","","html-keyboard-response","54","80256","0.0-5.0","6069f9a16164d8e1747bb021","65576f040411c2a4be0341a4","65576f60ef693c11c08803a8","3169","
            <b> <p> The practice round has finished.</p>
            <b> For the rest of the experiment you will receive a $0.05 bonus for each correct answer!</b>
            <p> Press any key to begin the test. </p>
            "," ","intermission","","","","","","",""
"","","","","","html-keyboard-response","55","81647","0.0-6.0-0.0","6069f9a16164d8e1747bb021","65576f040411c2a4be0341a4","65576f60ef693c11c08803a8","1390","
            
        <div style=""text-align: center; position: fixed; top: 5vh; left: 40vw;"">
            <div style=""margin:0 auto; width: 20vw; top: 8vh; font-size: 2vw""> 
            <font color=""green""> Bonus : $0 </font>
            </div>
        </div>
    
            <div> Please press any button to continue to the next trial.</div>
        "," ","ITI","","","","","","",""
"","","","","","html-keyboard-response","56","82262","0.0-6.0-1.0","6069f9a16164d8e1747bb021","65576f040411c2a4be0341a4","65576f60ef693c11c08803a8","null","
        
        <div style=""text-align: center; position: fixed; top: 5vh; left: 40vw;"">
            <div style=""margin:0 auto; width: 20vw; top: 8vh; font-size: 2vw""> 
            <font color=""green""> Bonus : $0 </font>
            </div>
        </div>
    
        <img class=""stim"" src=./stimuli//pack_shapes_diff/cat_2/diff_1/ex_2_1_17.png></img>
    ","null","stimulus","","","","","","",""
"","","","","","html-keyboard-response","57","83277","0.0-6.0-2.0","6069f9a16164d8e1747bb021","65576f040411c2a4be0341a4","65576f60ef693c11c08803a8","null","
        <div style=""text-align: center; position: fixed; top: 5vh; left: 40vw;"">
            <div style=""margin:0 auto; width: 20vw; top: 8vh; font-size: 2vw""> 
            <font color=""green""> Bonus : $0 </font>
            </div>
        </div>
    ","null","","","","","","","",""
"","","","","","html-keyboard-response","58","83606","0.0-6.0-3.0","6069f9a16164d8e1747bb021","65576f040411c2a4be0341a4","65576f60ef693c11c08803a8","328","./stimuli//pack_shapes_diff/cat_2/diff_1/ex_2_1_17.png","arrowright","response","ArrowRight","17","2","1","test","true",""
"","","","","","html-keyboard-response","59","85123","0.0-6.0-4.0","6069f9a16164d8e1747bb021","65576f040411c2a4be0341a4","65576f60ef693c11c08803a8","null","<p> <font color=""green"" size=""5vw""> Correct category! </font> <br> <br> <font color=""green"" size=""8vw""> + $0.05 </font> </p>","null","feedback","","","","","","","0.05"
"","","","","","html-keyboard-response","60","85455","0.0-6.1-0.1","6069f9a16164d8e1747bb021","65576f040411c2a4be0341a4","65576f60ef693c11c08803a8","330","
            
        <div style=""text-align: center; position: fixed; top: 5vh; left: 40vw;"">
            <div style=""margin:0 auto; width: 20vw; top: 8vh; font-size: 2vw""> 
            <font color=""green""> Bonus : $0.05 </font>
            </div>
        </div>
    
            <div> Please press any button to continue to the next trial.</div>
        "," ","ITI","","","","","","",""
"","","","","","html-keyboard-response","61","86064","0.0-6.1-1.1","6069f9a16164d8e1747bb021","65576f040411c2a4be0341a4","65576f60ef693c11c08803a8","null","
        
        <div style=""text-align: center; position: fixed; top: 5vh; left: 40vw;"">
            <div style=""margin:0 auto; width: 20vw; top: 8vh; font-size: 2vw""> 
            <font color=""green""> Bonus : $0.05 </font>
            </div>
        </div>
    
        <img class=""stim"" src=./stimuli//pack_shapes_diff/cat_1/diff_1/ex_1_1_11.png></img>
    ","null","stimulus","","","","","","",""
"","","","","","html-keyboard-response","62","87074","0.0-6.1-2.1","6069f9a16164d8e1747bb021","65576f040411c2a4be0341a4","65576f60ef693c11c08803a8","null","
        <div style=""text-align: center; position: fixed; top: 5vh; left: 40vw;"">
            <div style=""margin:0 auto; width: 20vw; top: 8vh; font-size: 2vw""> 
            <font color=""green""> Bonus : $0.05 </font>
            </div>
        </div>
    ","null","","","","","","","",""
"","","","","","html-keyboard-response","63","87354","0.0-6.1-3.1","6069f9a16164d8e1747bb021","65576f040411c2a4be0341a4","65576f60ef693c11c08803a8","279","./stimuli//pack_shapes_diff/cat_1/diff_1/ex_1_1_11.png","arrowleft","response","ArrowLeft","11","1","1","test","true",""
"","","","","","html-keyboard-response","64","88867","0.0-6.1-4.1","6069f9a16164d8e1747bb021","65576f040411c2a4be0341a4","65576f60ef693c11c08803a8","null","<p> <font color=""green"" size=""5vw""> Correct category! </font> <br> <br> <font color=""green"" size=""8vw""> + $0.05 </font> </p>","null","feedback","","","","","","","0.1"
"","","","","","html-keyboard-response","65","89201","0.0-6.2-0.2","6069f9a16164d8e1747bb021","65576f040411c2a4be0341a4","65576f60ef693c11c08803a8","333","
            
        <div style=""text-align: center; position: fixed; top: 5vh; left: 40vw;"">
            <div style=""margin:0 auto; width: 20vw; top: 8vh; font-size: 2vw""> 
            <font color=""green""> Bonus : $0.1 </font>
            </div>
        </div>
    
            <div> Please press any button to continue to the next trial.</div>
        "," ","ITI","","","","","","",""
"","","","","","html-keyboard-response","66","89805","0.0-6.2-1.2","6069f9a16164d8e1747bb021","65576f040411c2a4be0341a4","65576f60ef693c11c08803a8","null","
        
        <div style=""text-align: center; position: fixed; top: 5vh; left: 40vw;"">
            <div style=""margin:0 auto; width: 20vw; top: 8vh; font-size: 2vw""> 
            <font color=""green""> Bonus : $0.1 </font>
            </div>
        </div>
    
        <img class=""stim"" src=./stimuli//pack_shapes_diff/cat_1/diff_1/ex_1_1_9.png></img>
    ","null","stimulus","","","","","","",""
"","","","","","html-keyboard-response","67","90821","0.0-6.2-2.2","6069f9a16164d8e1747bb021","65576f040411c2a4be0341a4","65576f60ef693c11c08803a8","null","
        <div style=""text-align: center; position: fixed; top: 5vh; left: 40vw;"">
            <div style=""margin:0 auto; width: 20vw; top: 8vh; font-size: 2vw""> 
            <font color=""green""> Bonus : $0.1 </font>
            </div>
        </div>
    ","null","","","","","","","",""
"","","","","","html-keyboard-response","68","91102","0.0-6.2-3.2","6069f9a16164d8e1747bb021","65576f040411c2a4be0341a4","65576f60ef693c11c08803a8","280","./stimuli//pack_shapes_diff/cat_1/diff_1/ex_1_1_9.png","arrowleft","response","ArrowLeft","9","1","1","test","true",""
"","","","","","html-keyboard-response","69","92603","0.0-6.2-4.2","6069f9a16164d8e1747bb021","65576f040411c2a4be0341a4","65576f60ef693c11c08803a8","null","<p> <font color=""green"" size=""5vw""> Correct category! </font> <br> <br> <font color=""green"" size=""8vw""> + $0.05 </font> </p>","null","feedback","","","","","","","0.15"
"","","","","","html-keyboard-response","70","93029","0.0-6.3-0.3","6069f9a16164d8e1747bb021","65576f040411c2a4be0341a4","65576f60ef693c11c08803a8","425","
            
        <div style=""text-align: center; position: fixed; top: 5vh; left: 40vw;"">
            <div style=""margin:0 auto; width: 20vw; top: 8vh; font-size: 2vw""> 
            <font color=""green""> Bonus : $0.15 </font>
            </div>
        </div>
    
            <div> Please press any button to continue to the next trial.</div>
        "," ","ITI","","","","","","",""
"","","","","","html-keyboard-response","71","93640","0.0-6.3-1.3","6069f9a16164d8e1747bb021","65576f040411c2a4be0341a4","65576f60ef693c11c08803a8","null","
        
        <div style=""text-align: center; position: fixed; top: 5vh; left: 40vw;"">
            <div style=""margin:0 auto; width: 20vw; top: 8vh; font-size: 2vw""> 
            <font color=""green""> Bonus : $0.15 </font>
            </div>
        </div>
    
        <img class=""stim"" src=./stimuli//pack_shapes_diff/cat_1/diff_1/ex_1_1_15.png></img>
    ","null","stimulus","","","","","","",""
"","","","","","html-keyboard-response","72","94653","0.0-6.3-2.3","6069f9a16164d8e1747bb021","65576f040411c2a4be0341a4","65576f60ef693c11c08803a8","null","
        <div style=""text-align: center; position: fixed; top: 5vh; left: 40vw;"">
            <div style=""margin:0 auto; width: 20vw; top: 8vh; font-size: 2vw""> 
            <font color=""green""> Bonus : $0.15 </font>
            </div>
        </div>
    ","null","","","","","","","",""
"","","","","","html-keyboard-response","73","94973","0.0-6.3-3.3","6069f9a16164d8e1747bb021","65576f040411c2a4be0341a4","65576f60ef693c11c08803a8","319","./stimuli//pack_shapes_diff/cat_1/diff_1/ex_1_1_15.png","arrowleft","response","ArrowLeft","15","1","1","test","true",""
"","","","","","html-keyboard-response","74","96486","0.0-6.3-4.3","6069f9a16164d8e1747bb021","65576f040411c2a4be0341a4","65576f60ef693c11c08803a8","null","<p> <font color=""green"" size=""5vw""> Correct category! </font> <br> <br> <font color=""green"" size=""8vw""> + $0.05 </font> </p>","null","feedback","","","","","","","0.2"
"","","","","","html-keyboard-response","75","96863","0.0-6.4-0.4","6069f9a16164d8e1747bb021","65576f040411c2a4be0341a4","65576f60ef693c11c08803a8","377","
            
        <div style=""text-align: center; position: fixed; top: 5vh; left: 40vw;"">
            <div style=""margin:0 auto; width: 20vw; top: 8vh; font-size: 2vw""> 
            <font color=""green""> Bonus : $0.2 </font>
            </div>
        </div>
    
            <div> Please press any button to continue to the next trial.</div>
        "," ","ITI","","","","","","",""
"","","","","","html-keyboard-response","76","97470","0.0-6.4-1.4","6069f9a16164d8e1747bb021","65576f040411c2a4be0341a4","65576f60ef693c11c08803a8","null","
        
        <div style=""text-align: center; position: fixed; top: 5vh; left: 40vw;"">
            <div style=""margin:0 auto; width: 20vw; top: 8vh; font-size: 2vw""> 
            <font color=""green""> Bonus : $0.2 </font>
            </div>
        </div>
    
        <img class=""stim"" src=./stimuli//pack_shapes_diff/cat_1/diff_1/ex_1_1_4.png></img>
    ","null","stimulus","","","","","","",""
"","","","","","html-keyboard-response","77","98474","0.0-6.4-2.4","6069f9a16164d8e1747bb021","65576f040411c2a4be0341a4","65576f60ef693c11c08803a8","null","
        <div style=""text-align: center; position: fixed; top: 5vh; left: 40vw;"">
            <div style=""margin:0 auto; width: 20vw; top: 8vh; font-size: 2vw""> 
            <font color=""green""> Bonus : $0.2 </font>
            </div>
        </div>
    ","null","","","","","","","",""
"","","","","","html-keyboard-response","78","98737","0.0-6.4-3.4","6069f9a16164d8e1747bb021","65576f040411c2a4be0341a4","65576f60ef693c11c08803a8","262","./stimuli//pack_shapes_diff/cat_1/diff_1/ex_1_1_4.png","arrowleft","response","ArrowLeft","4","1","1","test","true",""
"","","","","","html-keyboard-response","79","100243","0.0-6.4-4.4","6069f9a16164d8e1747bb021","65576f040411c2a4be0341a4","65576f60ef693c11c08803a8","null","<p> <font color=""green"" size=""5vw""> Correct category! </font> <br> <br> <font color=""green"" size=""8vw""> + $0.05 </font> </p>","null","feedback","","","","","","","0.25"
"","","","","","html-keyboard-response","80","100596","0.0-6.5-0.5","6069f9a16164d8e1747bb021","65576f040411c2a4be0341a4","65576f60ef693c11c08803a8","352","
            
        <div style=""text-align: center; position: fixed; top: 5vh; left: 40vw;"">
            <div style=""margin:0 auto; width: 20vw; top: 8vh; font-size: 2vw""> 
            <font color=""green""> Bonus : $0.25 </font>
            </div>
        </div>
    
            <div> Please press any button to continue to the next trial.</div>
        "," ","ITI","","","","","","",""
"","","","","","html-keyboard-response","81","101207","0.0-6.5-1.5","6069f9a16164d8e1747bb021","65576f040411c2a4be0341a4","65576f60ef693c11c08803a8","null","
        
        <div style=""text-align: center; position: fixed; top: 5vh; left: 40vw;"">
            <div style=""margin:0 auto; width: 20vw; top: 8vh; font-size: 2vw""> 
            <font color=""green""> Bonus : $0.25 </font>
            </div>
        </div>
    
        <img class=""stim"" src=./stimuli//pack_shapes_diff/cat_2/diff_2/ex_2_2_12.png></img>
    ","null","stimulus","","","","","","",""
"","","","","","html-keyboard-response","82","102217","0.0-6.5-2.5","6069f9a16164d8e1747bb021","65576f040411c2a4be0341a4","65576f60ef693c11c08803a8","null","
        <div style=""text-align: center; position: fixed; top: 5vh; left: 40vw;"">
            <div style=""margin:0 auto; width: 20vw; top: 8vh; font-size: 2vw""> 
            <font color=""green""> Bonus : $0.25 </font>
            </div>
        </div>
    ","null","","","","","","","",""
"","","","","","html-keyboard-response","83","102503","0.0-6.5-3.5","6069f9a16164d8e1747bb021","65576f040411c2a4be0341a4","65576f60ef693c11c08803a8","285","./stimuli//pack_shapes_diff/cat_2/diff_2/ex_2_2_12.png","arrowright","response","ArrowRight","12","2","2","test","true",""
"","","","","","html-keyboard-response","84","104011","0.0-6.5-4.5","6069f9a16164d8e1747bb021","65576f040411c2a4be0341a4","65576f60ef693c11c08803a8","null","<p> <font color=""green"" size=""5vw""> Correct category! </font> <br> <br> <font color=""green"" size=""8vw""> + $0.05 </font> </p>","null","feedback","","","","","","","0.3"
"","","","","","html-keyboard-response","85","104300","0.0-6.6-0.6","6069f9a16164d8e1747bb021","65576f040411c2a4be0341a4","65576f60ef693c11c08803a8","288","
            
        <div style=""text-align: center; position: fixed; top: 5vh; left: 40vw;"">
            <div style=""margin:0 auto; width: 20vw; top: 8vh; font-size: 2vw""> 
            <font color=""green""> Bonus : $0.3 </font>
            </div>
        </div>
    
            <div> Please press any button to continue to the next trial.</div>
        "," ","ITI","","","","","","",""
"","","","","","html-keyboard-response","86","104918","0.0-6.6-1.6","6069f9a16164d8e1747bb021","65576f040411c2a4be0341a4","65576f60ef693c11c08803a8","null","
        
        <div style=""text-align: center; position: fixed; top: 5vh; left: 40vw;"">
            <div style=""margin:0 auto; width: 20vw; top: 8vh; font-size: 2vw""> 
            <font color=""green""> Bonus : $0.3 </font>
            </div>
        </div>
    
        <img class=""stim"" src=./stimuli//pack_shapes_diff/cat_1/diff_2/ex_1_2_2.png></img>
    ","null","stimulus","","","","","","",""
"","","","","","html-keyboard-response","87","105931","0.0-6.6-2.6","6069f9a16164d8e1747bb021","65576f040411c2a4be0341a4","65576f60ef693c11c08803a8","null","
        <div style=""text-align: center; position: fixed; top: 5vh; left: 40vw;"">
            <div style=""margin:0 auto; width: 20vw; top: 8vh; font-size: 2vw""> 
            <font color=""green""> Bonus : $0.3 </font>
            </div>
        </div>
    ","null","","","","","","","",""
"","","","","","html-keyboard-response","88","106244","0.0-6.6-3.6","6069f9a16164d8e1747bb021","65576f040411c2a4be0341a4","65576f60ef693c11c08803a8","312","./stimuli//pack_shapes_diff/cat_1/diff_2/ex_1_2_2.png","arrowleft","response","ArrowLeft","2","1","2","test","true",""
"","","","","","html-keyboard-response","89","107759","0.0-6.6-4.6","6069f9a16164d8e1747bb021","65576f040411c2a4be0341a4","65576f60ef693c11c08803a8","null","<p> <font color=""green"" size=""5vw""> Correct category! </font> <br> <br> <font color=""green"" size=""8vw""> + $0.05 </font> </p>","null","feedback","","","","","","","0.35"
"","","","","","html-keyboard-response","90","108218","0.0-6.7-0.7","6069f9a16164d8e1747bb021","65576f040411c2a4be0341a4","65576f60ef693c11c08803a8","457","
            
        <div style=""text-align: center; position: fixed; top: 5vh; left: 40vw;"">
            <div style=""margin:0 auto; width: 20vw; top: 8vh; font-size: 2vw""> 
            <font color=""green""> Bonus : $0.35 </font>
            </div>
        </div>
    
            <div> Please press any button to continue to the next trial.</div>
        "," ","ITI","","","","","","",""
"","","","","","html-keyboard-response","91","108833","0.0-6.7-1.7","6069f9a16164d8e1747bb021","65576f040411c2a4be0341a4","65576f60ef693c11c08803a8","null","
        
        <div style=""text-align: center; position: fixed; top: 5vh; left: 40vw;"">
            <div style=""margin:0 auto; width: 20vw; top: 8vh; font-size: 2vw""> 
            <font color=""green""> Bonus : $0.35 </font>
            </div>
        </div>
    
        <img class=""stim"" src=./stimuli//pack_shapes_diff/cat_2/diff_2/ex_2_2_15.png></img>
    ","null","stimulus","","","","","","",""
"","","","","","html-keyboard-response","92","109841","0.0-6.7-2.7","6069f9a16164d8e1747bb021","65576f040411c2a4be0341a4","65576f60ef693c11c08803a8","null","
        <div style=""text-align: center; position: fixed; top: 5vh; left: 40vw;"">
            <div style=""margin:0 auto; width: 20vw; top: 8vh; font-size: 2vw""> 
            <font color=""green""> Bonus : $0.35 </font>
            </div>
        </div>
    ","null","","","","","","","",""
"","","","","","html-keyboard-response","93","110164","0.0-6.7-3.7","6069f9a16164d8e1747bb021","65576f040411c2a4be0341a4","65576f60ef693c11c08803a8","322","./stimuli//pack_shapes_diff/cat_2/diff_2/ex_2_2_15.png","arrowright","response","ArrowRight","15","2","2","test","true",""
"","","","","","html-keyboard-response","94","111675","0.0-6.7-4.7","6069f9a16164d8e1747bb021","65576f040411c2a4be0341a4","65576f60ef693c11c08803a8","null","<p> <font color=""green"" size=""5vw""> Correct category! </font> <br> <br> <font color=""green"" size=""8vw""> + $0.05 </font> </p>","null","feedback","","","","","","","0.4"
"","","","","","html-keyboard-response","95","111701","0.0-6.8-0.8","6069f9a16164d8e1747bb021","65576f040411c2a4be0341a4","65576f60ef693c11c08803a8","24","
            
        <div style=""text-align: center; position: fixed; top: 5vh; left: 40vw;"">
            <div style=""margin:0 auto; width: 20vw; top: 8vh; font-size: 2vw""> 
            <font color=""green""> Bonus : $0.4 </font>
            </div>
        </div>
    
            <div> Please press any button to continue to the next trial.</div>
        "," ","ITI","","","","","","",""
"","","","","","html-keyboard-response","96","112306","0.0-6.8-1.8","6069f9a16164d8e1747bb021","65576f040411c2a4be0341a4","65576f60ef693c11c08803a8","null","
        
        <div style=""text-align: center; position: fixed; top: 5vh; left: 40vw;"">
            <div style=""margin:0 auto; width: 20vw; top: 8vh; font-size: 2vw""> 
            <font color=""green""> Bonus : $0.4 </font>
            </div>
        </div>
    
        <img class=""stim"" src=./stimuli//pack_shapes_diff/cat_2/diff_2/ex_2_2_4.png></img>
    ","null","stimulus","","","","","","",""
"","","","","","html-keyboard-response","97","113308","0.0-6.8-2.8","6069f9a16164d8e1747bb021","65576f040411c2a4be0341a4","65576f60ef693c11c08803a8","null","
        <div style=""text-align: center; position: fixed; top: 5vh; left: 40vw;"">
            <div style=""margin:0 auto; width: 20vw; top: 8vh; font-size: 2vw""> 
            <font color=""green""> Bonus : $0.4 </font>
            </div>
        </div>
    ","null","","","","","","","",""
"","","","","","html-keyboard-response","98","113587","0.0-6.8-3.8","6069f9a16164d8e1747bb021","65576f040411c2a4be0341a4","65576f60ef693c11c08803a8","278","./stimuli//pack_shapes_diff/cat_2/diff_2/ex_2_2_4.png","arrowright","response","ArrowRight","4","2","2","test","true",""
"","","","","","html-keyboard-response","99","115092","0.0-6.8-4.8","6069f9a16164d8e1747bb021","65576f040411c2a4be0341a4","65576f60ef693c11c08803a8","null","<p> <font color=""green"" size=""5vw""> Correct category! </font> <br> <br> <font color=""green"" size=""8vw""> + $0.05 </font> </p>","null","feedback","","","","","","","0.45"
"","","","","","html-keyboard-response","100","115397","0.0-6.9-0.9","6069f9a16164d8e1747bb021","65576f040411c2a4be0341a4","65576f60ef693c11c08803a8","304","
            
        <div style=""text-align: center; position: fixed; top: 5vh; left: 40vw;"">
            <div style=""margin:0 auto; width: 20vw; top: 8vh; font-size: 2vw""> 
            <font color=""green""> Bonus : $0.45 </font>
            </div>
        </div>
    
            <div> Please press any button to continue to the next trial.</div>
        "," ","ITI","","","","","","",""
"","","","","","html-keyboard-response","101","116015","0.0-6.9-1.9","6069f9a16164d8e1747bb021","65576f040411c2a4be0341a4","65576f60ef693c11c08803a8","null","
        
        <div style=""text-align: center; position: fixed; top: 5vh; left: 40vw;"">
            <div style=""margin:0 auto; width: 20vw; top: 8vh; font-size: 2vw""> 
            <font color=""green""> Bonus : $0.45 </font>
            </div>
        </div>
    
        <img class=""stim"" src=./stimuli//pack_shapes_diff/cat_2/diff_2/ex_2_2_6.png></img>
    ","null","stimulus","","","","","","",""
"","","","","","html-keyboard-response","102","117019","0.0-6.9-2.9","6069f9a16164d8e1747bb021","65576f040411c2a4be0341a4","65576f60ef693c11c08803a8","null","
        <div style=""text-align: center; position: fixed; top: 5vh; left: 40vw;"">
            <div style=""margin:0 auto; width: 20vw; top: 8vh; font-size: 2vw""> 
            <font color=""green""> Bonus : $0.45 </font>
            </div>
        </div>
    ","null","","","","","","","",""
"","","","","","html-keyboard-response","103","117493","0.0-6.9-3.9","6069f9a16164d8e1747bb021","65576f040411c2a4be0341a4","65576f60ef693c11c08803a8","473","./stimuli//pack_shapes_diff/cat_2/diff_2/ex_2_2_6.png","arrowright","response","ArrowRight","6","2","2","test","true",""
"","","","","","html-keyboard-response","104","119003","0.0-6.9-4.9","6069f9a16164d8e1747bb021","65576f040411c2a4be0341a4","65576f60ef693c11c08803a8","null","<p> <font color=""green"" size=""5vw""> Correct category! </font> <br> <br> <font color=""green"" size=""8vw""> + $0.05 </font> </p>","null","feedback","","","","","","","0.5"
"","","","","","html-keyboard-response","105","119328","0.0-6.10-0.10","6069f9a16164d8e1747bb021","65576f040411c2a4be0341a4","65576f60ef693c11c08803a8","324","
            
        <div style=""text-align: center; position: fixed; top: 5vh; left: 40vw;"">
            <div style=""margin:0 auto; width: 20vw; top: 8vh; font-size: 2vw""> 
            <font color=""green""> Bonus : $0.5 </font>
            </div>
        </div>
    
            <div> Please press any button to continue to the next trial.</div>
        "," ","ITI","","","","","","",""
"","","","","","html-keyboard-response","106","119942","0.0-6.10-1.10","6069f9a16164d8e1747bb021","65576f040411c2a4be0341a4","65576f60ef693c11c08803a8","null","
        
        <div style=""text-align: center; position: fixed; top: 5vh; left: 40vw;"">
            <div style=""margin:0 auto; width: 20vw; top: 8vh; font-size: 2vw""> 
            <font color=""green""> Bonus : $0.5 </font>
            </div>
        </div>
    
        <img class=""stim"" src=./stimuli//pack_shapes_diff/cat_1/diff_3/ex_1_3_2.png></img>
    ","null","stimulus","","","","","","",""
"","","","","","html-keyboard-response","107","120948","0.0-6.10-2.10","6069f9a16164d8e1747bb021","65576f040411c2a4be0341a4","65576f60ef693c11c08803a8","null","
        <div style=""text-align: center; position: fixed; top: 5vh; left: 40vw;"">
            <div style=""margin:0 auto; width: 20vw; top: 8vh; font-size: 2vw""> 
            <font color=""green""> Bonus : $0.5 </font>
            </div>
        </div>
    ","null","","","","","","","",""
"","","","","","html-keyboard-response","108","121228","0.0-6.10-3.10","6069f9a16164d8e1747bb021","65576f040411c2a4be0341a4","65576f60ef693c11c08803a8","279","./stimuli//pack_shapes_diff/cat_1/diff_3/ex_1_3_2.png","arrowleft","response","ArrowLeft","2","1","3","test","true",""
"","","","","","html-keyboard-response","109","122733","0.0-6.10-4.10","6069f9a16164d8e1747bb021","65576f040411c2a4be0341a4","65576f60ef693c11c08803a8","null","<p> <font color=""green"" size=""5vw""> Correct category! </font> <br> <br> <font color=""green"" size=""8vw""> + $0.05 </font> </p>","null","feedback","","","","","","","0.55"
"","","","","","html-keyboard-response","110","123104","0.0-6.11-0.11","6069f9a16164d8e1747bb021","65576f040411c2a4be0341a4","65576f60ef693c11c08803a8","369","
            
        <div style=""text-align: center; position: fixed; top: 5vh; left: 40vw;"">
            <div style=""margin:0 auto; width: 20vw; top: 8vh; font-size: 2vw""> 
            <font color=""green""> Bonus : $0.55 </font>
            </div>
        </div>
    
            <div> Please press any button to continue to the next trial.</div>
        "," ","ITI","","","","","","",""
"","","","","","html-keyboard-response","111","123706","0.0-6.11-1.11","6069f9a16164d8e1747bb021","65576f040411c2a4be0341a4","65576f60ef693c11c08803a8","null","
        
        <div style=""text-align: center; position: fixed; top: 5vh; left: 40vw;"">
            <div style=""margin:0 auto; width: 20vw; top: 8vh; font-size: 2vw""> 
            <font color=""green""> Bonus : $0.55 </font>
            </div>
        </div>
    
        <img class=""stim"" src=./stimuli//pack_shapes_diff/cat_2/diff_3/ex_2_3_13.png></img>
    ","null","stimulus","","","","","","",""
"","","","","","html-keyboard-response","112","124715","0.0-6.11-2.11","6069f9a16164d8e1747bb021","65576f040411c2a4be0341a4","65576f60ef693c11c08803a8","null","
        <div style=""text-align: center; position: fixed; top: 5vh; left: 40vw;"">
            <div style=""margin:0 auto; width: 20vw; top: 8vh; font-size: 2vw""> 
            <font color=""green""> Bonus : $0.55 </font>
            </div>
        </div>
    ","null","","","","","","","",""
"","","","","","html-keyboard-response","113","125185","0.0-6.11-3.11","6069f9a16164d8e1747bb021","65576f040411c2a4be0341a4","65576f60ef693c11c08803a8","469","./stimuli//pack_shapes_diff/cat_2/diff_3/ex_2_3_13.png","arrowright","response","ArrowRight","13","2","3","test","true",""
"","","","","","html-keyboard-response","114","126690","0.0-6.11-4.11","6069f9a16164d8e1747bb021","65576f040411c2a4be0341a4","65576f60ef693c11c08803a8","null","<p> <font color=""green"" size=""5vw""> Correct category! </font> <br> <br> <font color=""green"" size=""8vw""> + $0.05 </font> </p>","null","feedback","","","","","","","0.6"
"","","","","","html-keyboard-response","115","127053","0.0-6.12-0.12","6069f9a16164d8e1747bb021","65576f040411c2a4be0341a4","65576f60ef693c11c08803a8","362","
            
        <div style=""text-align: center; position: fixed; top: 5vh; left: 40vw;"">
            <div style=""margin:0 auto; width: 20vw; top: 8vh; font-size: 2vw""> 
            <font color=""green""> Bonus : $0.6 </font>
            </div>
        </div>
    
            <div> Please press any button to continue to the next trial.</div>
        "," ","ITI","","","","","","",""
"","","","","","html-keyboard-response","116","127659","0.0-6.12-1.12","6069f9a16164d8e1747bb021","65576f040411c2a4be0341a4","65576f60ef693c11c08803a8","null","
        
        <div style=""text-align: center; position: fixed; top: 5vh; left: 40vw;"">
            <div style=""margin:0 auto; width: 20vw; top: 8vh; font-size: 2vw""> 
            <font color=""green""> Bonus : $0.6 </font>
            </div>
        </div>
    
        <img class=""stim"" src=./stimuli//pack_shapes_diff/cat_2/diff_3/ex_2_3_8.png></img>
    ","null","stimulus","","","","","","",""
"","","","","","html-keyboard-response","117","128676","0.0-6.12-2.12","6069f9a16164d8e1747bb021","65576f040411c2a4be0341a4","65576f60ef693c11c08803a8","null","
        <div style=""text-align: center; position: fixed; top: 5vh; left: 40vw;"">
            <div style=""margin:0 auto; width: 20vw; top: 8vh; font-size: 2vw""> 
            <font color=""green""> Bonus : $0.6 </font>
            </div>
        </div>
    ","null","","","","","","","",""
"","","","","","html-keyboard-response","118","128939","0.0-6.12-3.12","6069f9a16164d8e1747bb021","65576f040411c2a4be0341a4","65576f60ef693c11c08803a8","263","./stimuli//pack_shapes_diff/cat_2/diff_3/ex_2_3_8.png","arrowright","response","ArrowRight","8","2","3","test","true",""
"","","","","","html-keyboard-response","119","130444","0.0-6.12-4.12","6069f9a16164d8e1747bb021","65576f040411c2a4be0341a4","65576f60ef693c11c08803a8","null","<p> <font color=""green"" size=""5vw""> Correct category! </font> <br> <br> <font color=""green"" size=""8vw""> + $0.05 </font> </p>","null","feedback","","","","","","","0.65"
"","","","","","html-keyboard-response","120","130760","0.0-6.13-0.13","6069f9a16164d8e1747bb021","65576f040411c2a4be0341a4","65576f60ef693c11c08803a8","314","
            
        <div style=""text-align: center; position: fixed; top: 5vh; left: 40vw;"">
            <div style=""margin:0 auto; width: 20vw; top: 8vh; font-size: 2vw""> 
            <font color=""green""> Bonus : $0.65 </font>
            </div>
        </div>
    
            <div> Please press any button to continue to the next trial.</div>
        "," ","ITI","","","","","","",""
"","","","","","html-keyboard-response","121","131369","0.0-6.13-1.13","6069f9a16164d8e1747bb021","65576f040411c2a4be0341a4","65576f60ef693c11c08803a8","null","
        
        <div style=""text-align: center; position: fixed; top: 5vh; left: 40vw;"">
            <div style=""margin:0 auto; width: 20vw; top: 8vh; font-size: 2vw""> 
            <font color=""green""> Bonus : $0.65 </font>
            </div>
        </div>
    
        <img class=""stim"" src=./stimuli//pack_shapes_diff/cat_1/diff_3/ex_1_3_5.png></img>
    ","null","stimulus","","","","","","",""
"","","","","","html-keyboard-response","122","132379","0.0-6.13-2.13","6069f9a16164d8e1747bb021","65576f040411c2a4be0341a4","65576f60ef693c11c08803a8","null","
        <div style=""text-align: center; position: fixed; top: 5vh; left: 40vw;"">
            <div style=""margin:0 auto; width: 20vw; top: 8vh; font-size: 2vw""> 
            <font color=""green""> Bonus : $0.65 </font>
            </div>
        </div>
    ","null","","","","","","","",""
"","","","","","html-keyboard-response","123","132660","0.0-6.13-3.13","6069f9a16164d8e1747bb021","65576f040411c2a4be0341a4","65576f60ef693c11c08803a8","279","./stimuli//pack_shapes_diff/cat_1/diff_3/ex_1_3_5.png","arrowleft","response","ArrowLeft","5","1","3","test","true",""
"","","","","","html-keyboard-response","124","134171","0.0-6.13-4.13","6069f9a16164d8e1747bb021","65576f040411c2a4be0341a4","65576f60ef693c11c08803a8","null","<p> <font color=""green"" size=""5vw""> Correct category! </font> <br> <br> <font color=""green"" size=""8vw""> + $0.05 </font> </p>","null","feedback","","","","","","","0.7"
"","","","","","html-keyboard-response","125","134673","0.0-6.14-0.14","6069f9a16164d8e1747bb021","65576f040411c2a4be0341a4","65576f60ef693c11c08803a8","501","
            
        <div style=""text-align: center; position: fixed; top: 5vh; left: 40vw;"">
            <div style=""margin:0 auto; width: 20vw; top: 8vh; font-size: 2vw""> 
            <font color=""green""> Bonus : $0.7 </font>
            </div>
        </div>
    
            <div> Please press any button to continue to the next trial.</div>
        "," ","ITI","","","","","","",""
"","","","","","html-keyboard-response","126","135279","0.0-6.14-1.14","6069f9a16164d8e1747bb021","65576f040411c2a4be0341a4","65576f60ef693c11c08803a8","null","
        
        <div style=""text-align: center; position: fixed; top: 5vh; left: 40vw;"">
            <div style=""margin:0 auto; width: 20vw; top: 8vh; font-size: 2vw""> 
            <font color=""green""> Bonus : $0.7 </font>
            </div>
        </div>
    
        <img class=""stim"" src=./stimuli//pack_shapes_diff/cat_2/diff_3/ex_2_3_11.png></img>
    ","null","stimulus","","","","","","",""
"","","","","","html-keyboard-response","127","136287","0.0-6.14-2.14","6069f9a16164d8e1747bb021","65576f040411c2a4be0341a4","65576f60ef693c11c08803a8","null","
        <div style=""text-align: center; position: fixed; top: 5vh; left: 40vw;"">
            <div style=""margin:0 auto; width: 20vw; top: 8vh; font-size: 2vw""> 
            <font color=""green""> Bonus : $0.7 </font>
            </div>
        </div>
    ","null","","","","","","","",""
"","","","","","html-keyboard-response","128","136541","0.0-6.14-3.14","6069f9a16164d8e1747bb021","65576f040411c2a4be0341a4","65576f60ef693c11c08803a8","252","./stimuli//pack_shapes_diff/cat_2/diff_3/ex_2_3_11.png","arrowright","response","ArrowRight","11","2","3","test","true",""
"","","","","","html-keyboard-response","129","138051","0.0-6.14-4.14","6069f9a16164d8e1747bb021","65576f040411c2a4be0341a4","65576f60ef693c11c08803a8","null","<p> <font color=""green"" size=""5vw""> Correct category! </font> <br> <br> <font color=""green"" size=""8vw""> + $0.05 </font> </p>","null","feedback","","","","","","","0.75"
"","","","","","html-keyboard-response","130","138354","0.0-6.15-0.15","6069f9a16164d8e1747bb021","65576f040411c2a4be0341a4","65576f60ef693c11c08803a8","302","
            
        <div style=""text-align: center; position: fixed; top: 5vh; left: 40vw;"">
            <div style=""margin:0 auto; width: 20vw; top: 8vh; font-size: 2vw""> 
            <font color=""green""> Bonus : $0.75 </font>
            </div>
        </div>
    
            <div> Please press any button to continue to the next trial.</div>
        "," ","ITI","","","","","","",""
"","","","","","html-keyboard-response","131","138962","0.0-6.15-1.15","6069f9a16164d8e1747bb021","65576f040411c2a4be0341a4","65576f60ef693c11c08803a8","null","
        
        <div style=""text-align: center; position: fixed; top: 5vh; left: 40vw;"">
            <div style=""margin:0 auto; width: 20vw; top: 8vh; font-size: 2vw""> 
            <font color=""green""> Bonus : $0.75 </font>
            </div>
        </div>
    
        <img class=""stim"" src=./stimuli//pack_shapes_diff/cat_2/diff_4/ex_2_4_15.png></img>
    ","null","stimulus","","","","","","",""
"","","","","","html-keyboard-response","132","139973","0.0-6.15-2.15","6069f9a16164d8e1747bb021","65576f040411c2a4be0341a4","65576f60ef693c11c08803a8","null","
        <div style=""text-align: center; position: fixed; top: 5vh; left: 40vw;"">
            <div style=""margin:0 auto; width: 20vw; top: 8vh; font-size: 2vw""> 
            <font color=""green""> Bonus : $0.75 </font>
            </div>
        </div>
    ","null","","","","","","","",""
"","","","","","html-keyboard-response","133","140226","0.0-6.15-3.15","6069f9a16164d8e1747bb021","65576f040411c2a4be0341a4","65576f60ef693c11c08803a8","252","./stimuli//pack_shapes_diff/cat_2/diff_4/ex_2_4_15.png","arrowright","response","ArrowRight","15","2","4","test","true",""
"","","","","","html-keyboard-response","134","141735","0.0-6.15-4.15","6069f9a16164d8e1747bb021","65576f040411c2a4be0341a4","65576f60ef693c11c08803a8","null","<p> <font color=""green"" size=""5vw""> Correct category! </font> <br> <br> <font color=""green"" size=""8vw""> + $0.05 </font> </p>","null","feedback","","","","","","","0.8"
"","","","","","html-keyboard-response","135","142038","0.0-6.16-0.16","6069f9a16164d8e1747bb021","65576f040411c2a4be0341a4","65576f60ef693c11c08803a8","301","
            
        <div style=""text-align: center; position: fixed; top: 5vh; left: 40vw;"">
            <div style=""margin:0 auto; width: 20vw; top: 8vh; font-size: 2vw""> 
            <font color=""green""> Bonus : $0.8 </font>
            </div>
        </div>
    
            <div> Please press any button to continue to the next trial.</div>
        "," ","ITI","","","","","","",""
"","","","","","html-keyboard-response","136","142639","0.0-6.16-1.16","6069f9a16164d8e1747bb021","65576f040411c2a4be0341a4","65576f60ef693c11c08803a8","null","
        
        <div style=""text-align: center; position: fixed; top: 5vh; left: 40vw;"">
            <div style=""margin:0 auto; width: 20vw; top: 8vh; font-size: 2vw""> 
            <font color=""green""> Bonus : $0.8 </font>
            </div>
        </div>
    
        <img class=""stim"" src=./stimuli//pack_shapes_diff/cat_2/diff_4/ex_2_4_4.png></img>
    ","null","stimulus","","","","","","",""
"","","","","","html-keyboard-response","137","143649","0.0-6.16-2.16","6069f9a16164d8e1747bb021","65576f040411c2a4be0341a4","65576f60ef693c11c08803a8","null","
        <div style=""text-align: center; position: fixed; top: 5vh; left: 40vw;"">
            <div style=""margin:0 auto; width: 20vw; top: 8vh; font-size: 2vw""> 
            <font color=""green""> Bonus : $0.8 </font>
            </div>
        </div>
    ","null","","","","","","","",""
"","","","","","html-keyboard-response","138","144026","0.0-6.16-3.16","6069f9a16164d8e1747bb021","65576f040411c2a4be0341a4","65576f60ef693c11c08803a8","376","./stimuli//pack_shapes_diff/cat_2/diff_4/ex_2_4_4.png","arrowright","response","ArrowRight","4","2","4","test","true",""
"","","","","","html-keyboard-response","139","145536","0.0-6.16-4.16","6069f9a16164d8e1747bb021","65576f040411c2a4be0341a4","65576f60ef693c11c08803a8","null","<p> <font color=""green"" size=""5vw""> Correct category! </font> <br> <br> <font color=""green"" size=""8vw""> + $0.05 </font> </p>","null","feedback","","","","","","","0.85"
"","","","","","html-keyboard-response","140","145836","0.0-6.17-0.17","6069f9a16164d8e1747bb021","65576f040411c2a4be0341a4","65576f60ef693c11c08803a8","299","
            
        <div style=""text-align: center; position: fixed; top: 5vh; left: 40vw;"">
            <div style=""margin:0 auto; width: 20vw; top: 8vh; font-size: 2vw""> 
            <font color=""green""> Bonus : $0.85 </font>
            </div>
        </div>
    
            <div> Please press any button to continue to the next trial.</div>
        "," ","ITI","","","","","","",""
"","","","","","html-keyboard-response","141","146447","0.0-6.17-1.17","6069f9a16164d8e1747bb021","65576f040411c2a4be0341a4","65576f60ef693c11c08803a8","null","
        
        <div style=""text-align: center; position: fixed; top: 5vh; left: 40vw;"">
            <div style=""margin:0 auto; width: 20vw; top: 8vh; font-size: 2vw""> 
            <font color=""green""> Bonus : $0.85 </font>
            </div>
        </div>
    
        <img class=""stim"" src=./stimuli//pack_shapes_diff/cat_2/diff_4/ex_2_4_1.png></img>
    ","null","stimulus","","","","","","",""
"","","","","","html-keyboard-response","142","147462","0.0-6.17-2.17","6069f9a16164d8e1747bb021","65576f040411c2a4be0341a4","65576f60ef693c11c08803a8","null","
        <div style=""text-align: center; position: fixed; top: 5vh; left: 40vw;"">
            <div style=""margin:0 auto; width: 20vw; top: 8vh; font-size: 2vw""> 
            <font color=""green""> Bonus : $0.85 </font>
            </div>
        </div>
    ","null","","","","","","","",""
"","","","","","html-keyboard-response","143","147740","0.0-6.17-3.17","6069f9a16164d8e1747bb021","65576f040411c2a4be0341a4","65576f60ef693c11c08803a8","276","./stimuli//pack_shapes_diff/cat_2/diff_4/ex_2_4_1.png","arrowright","response","ArrowRight","1","2","4","test","true",""
"","","","","","html-keyboard-response","144","149249","0.0-6.17-4.17","6069f9a16164d8e1747bb021","65576f040411c2a4be0341a4","65576f60ef693c11c08803a8","null","<p> <font color=""green"" size=""5vw""> Correct category! </font> <br> <br> <font color=""green"" size=""8vw""> + $0.05 </font> </p>","null","feedback","","","","","","","0.9"
"","","","","","html-keyboard-response","145","149688","0.0-6.18-0.18","6069f9a16164d8e1747bb021","65576f040411c2a4be0341a4","65576f60ef693c11c08803a8","437","
            
        <div style=""text-align: center; position: fixed; top: 5vh; left: 40vw;"">
            <div style=""margin:0 auto; width: 20vw; top: 8vh; font-size: 2vw""> 
            <font color=""green""> Bonus : $0.9 </font>
            </div>
        </div>
    
            <div> Please press any button to continue to the next trial.</div>
        "," ","ITI","","","","","","",""
"","","","","","html-keyboard-response","146","150302","0.0-6.18-1.18","6069f9a16164d8e1747bb021","65576f040411c2a4be0341a4","65576f60ef693c11c08803a8","null","
        
        <div style=""text-align: center; position: fixed; top: 5vh; left: 40vw;"">
            <div style=""margin:0 auto; width: 20vw; top: 8vh; font-size: 2vw""> 
            <font color=""green""> Bonus : $0.9 </font>
            </div>
        </div>
    
        <img class=""stim"" src=./stimuli//pack_shapes_diff/cat_2/diff_4/ex_2_4_17.png></img>
    ","null","stimulus","","","","","","",""
"","","","","","html-keyboard-response","147","151310","0.0-6.18-2.18","6069f9a16164d8e1747bb021","65576f040411c2a4be0341a4","65576f60ef693c11c08803a8","null","
        <div style=""text-align: center; position: fixed; top: 5vh; left: 40vw;"">
            <div style=""margin:0 auto; width: 20vw; top: 8vh; font-size: 2vw""> 
            <font color=""green""> Bonus : $0.9 </font>
            </div>
        </div>
    ","null","","","","","","","",""
"","","","","","html-keyboard-response","148","151593","0.0-6.18-3.18","6069f9a16164d8e1747bb021","65576f040411c2a4be0341a4","65576f60ef693c11c08803a8","282","./stimuli//pack_shapes_diff/cat_2/diff_4/ex_2_4_17.png","arrowright","response","ArrowRight","17","2","4","test","true",""
"","","","","","html-keyboard-response","149","153109","0.0-6.18-4.18","6069f9a16164d8e1747bb021","65576f040411c2a4be0341a4","65576f60ef693c11c08803a8","null","<p> <font color=""green"" size=""5vw""> Correct category! </font> <br> <br> <font color=""green"" size=""8vw""> + $0.05 </font> </p>","null","feedback","","","","","","","0.95"
"","","","","","html-keyboard-response","150","153522","0.0-6.19-0.19","6069f9a16164d8e1747bb021","65576f040411c2a4be0341a4","65576f60ef693c11c08803a8","412","
            
        <div style=""text-align: center; position: fixed; top: 5vh; left: 40vw;"">
            <div style=""margin:0 auto; width: 20vw; top: 8vh; font-size: 2vw""> 
            <font color=""green""> Bonus : $0.95 </font>
            </div>
        </div>
    
            <div> Please press any button to continue to the next trial.</div>
        "," ","ITI","","","","","","",""
"","","","","","html-keyboard-response","151","154132","0.0-6.19-1.19","6069f9a16164d8e1747bb021","65576f040411c2a4be0341a4","65576f60ef693c11c08803a8","null","
        
        <div style=""text-align: center; position: fixed; top: 5vh; left: 40vw;"">
            <div style=""margin:0 auto; width: 20vw; top: 8vh; font-size: 2vw""> 
            <font color=""green""> Bonus : $0.95 </font>
            </div>
        </div>
    
        <img class=""stim"" src=./stimuli//pack_shapes_diff/cat_2/diff_4/ex_2_4_2.png></img>
    ","null","stimulus","","","","","","",""
"","","","","","html-keyboard-response","152","155140","0.0-6.19-2.19","6069f9a16164d8e1747bb021","65576f040411c2a4be0341a4","65576f60ef693c11c08803a8","null","
        <div style=""text-align: center; position: fixed; top: 5vh; left: 40vw;"">
            <div style=""margin:0 auto; width: 20vw; top: 8vh; font-size: 2vw""> 
            <font color=""green""> Bonus : $0.95 </font>
            </div>
        </div>
    ","null","","","","","","","",""
"","","","","","html-keyboard-response","153","155458","0.0-6.19-3.19","6069f9a16164d8e1747bb021","65576f040411c2a4be0341a4","65576f60ef693c11c08803a8","317","./stimuli//pack_shapes_diff/cat_2/diff_4/ex_2_4_2.png","arrowright","response","ArrowRight","2","2","4","test","true",""
"","","","","","html-keyboard-response","154","156969","0.0-6.19-4.19","6069f9a16164d8e1747bb021","65576f040411c2a4be0341a4","65576f60ef693c11c08803a8","null","<p> <font color=""green"" size=""5vw""> Correct category! </font> <br> <br> <font color=""green"" size=""8vw""> + $0.05 </font> </p>","null","feedback","","","","","","","1"
"","","","","","html-keyboard-response","155","160892","0.0-6.20-0.20","6069f9a16164d8e1747bb021","65576f040411c2a4be0341a4","65576f60ef693c11c08803a8","3922","
            
        <div style=""text-align: center; position: fixed; top: 5vh; left: 40vw;"">
            <div style=""margin:0 auto; width: 20vw; top: 8vh; font-size: 2vw""> 
            <font color=""green""> Bonus : $1 </font>
            </div>
        </div>
    
            <div> Please press any button to continue to the next trial.</div>
        "," ","ITI","","","","","","",""
"","","","","","html-keyboard-response","156","161496","0.0-6.20-1.20","6069f9a16164d8e1747bb021","65576f040411c2a4be0341a4","65576f60ef693c11c08803a8","null","
        
        <div style=""text-align: center; position: fixed; top: 5vh; left: 40vw;"">
            <div style=""margin:0 auto; width: 20vw; top: 8vh; font-size: 2vw""> 
            <font color=""green""> Bonus : $1 </font>
            </div>
        </div>
    
        <img class=""stim"" src=./stimuli//pack_shapes_diff/cat_2/diff_5/ex_2_5_12.png></img>
    ","null","stimulus","","","","","","",""
"","","","","","html-keyboard-response","157","162505","0.0-6.20-2.20","6069f9a16164d8e1747bb021","65576f040411c2a4be0341a4","65576f60ef693c11c08803a8","null","
        <div style=""text-align: center; position: fixed; top: 5vh; left: 40vw;"">
            <div style=""margin:0 auto; width: 20vw; top: 8vh; font-size: 2vw""> 
            <font color=""green""> Bonus : $1 </font>
            </div>
        </div>
    ","null","","","","","","","",""
"","","","","","html-keyboard-response","158","162817","0.0-6.20-3.20","6069f9a16164d8e1747bb021","65576f040411c2a4be0341a4","65576f60ef693c11c08803a8","311","./stimuli//pack_shapes_diff/cat_2/diff_5/ex_2_5_12.png","arrowright","response","ArrowRight","12","2","5","test","true",""
"","","","","","html-keyboard-response","159","164321","0.0-6.20-4.20","6069f9a16164d8e1747bb021","65576f040411c2a4be0341a4","65576f60ef693c11c08803a8","null","<p> <font color=""green"" size=""5vw""> Correct category! </font> <br> <br> <font color=""green"" size=""8vw""> + $0.05 </font> </p>","null","feedback","","","","","","","1.05"
"","","","","","html-keyboard-response","160","164666","0.0-6.21-0.21","6069f9a16164d8e1747bb021","65576f040411c2a4be0341a4","65576f60ef693c11c08803a8","344","
            
        <div style=""text-align: center; position: fixed; top: 5vh; left: 40vw;"">
            <div style=""margin:0 auto; width: 20vw; top: 8vh; font-size: 2vw""> 
            <font color=""green""> Bonus : $1.05 </font>
            </div>
        </div>
    
            <div> Please press any button to continue to the next trial.</div>
        "," ","ITI","","","","","","",""
"","","","","","html-keyboard-response","161","165271","0.0-6.21-1.21","6069f9a16164d8e1747bb021","65576f040411c2a4be0341a4","65576f60ef693c11c08803a8","null","
        
        <div style=""text-align: center; position: fixed; top: 5vh; left: 40vw;"">
            <div style=""margin:0 auto; width: 20vw; top: 8vh; font-size: 2vw""> 
            <font color=""green""> Bonus : $1.05 </font>
            </div>
        </div>
    
        <img class=""stim"" src=./stimuli//pack_shapes_diff/cat_2/diff_5/ex_2_5_11.png></img>
    ","null","stimulus","","","","","","",""
"","","","","","html-keyboard-response","162","166285","0.0-6.21-2.21","6069f9a16164d8e1747bb021","65576f040411c2a4be0341a4","65576f60ef693c11c08803a8","null","
        <div style=""text-align: center; position: fixed; top: 5vh; left: 40vw;"">
            <div style=""margin:0 auto; width: 20vw; top: 8vh; font-size: 2vw""> 
            <font color=""green""> Bonus : $1.05 </font>
            </div>
        </div>
    ","null","","","","","","","",""
"","","","","","html-keyboard-response","163","166593","0.0-6.21-3.21","6069f9a16164d8e1747bb021","65576f040411c2a4be0341a4","65576f60ef693c11c08803a8","307","./stimuli//pack_shapes_diff/cat_2/diff_5/ex_2_5_11.png","arrowright","response","ArrowRight","11","2","5","test","true",""
"","","","","","html-keyboard-response","164","168100","0.0-6.21-4.21","6069f9a16164d8e1747bb021","65576f040411c2a4be0341a4","65576f60ef693c11c08803a8","null","<p> <font color=""green"" size=""5vw""> Correct category! </font> <br> <br> <font color=""green"" size=""8vw""> + $0.05 </font> </p>","null","feedback","","","","","","","1.1"
"","","","","","html-keyboard-response","165","168409","0.0-6.22-0.22","6069f9a16164d8e1747bb021","65576f040411c2a4be0341a4","65576f60ef693c11c08803a8","308","
            
        <div style=""text-align: center; position: fixed; top: 5vh; left: 40vw;"">
            <div style=""margin:0 auto; width: 20vw; top: 8vh; font-size: 2vw""> 
            <font color=""green""> Bonus : $1.1 </font>
            </div>
        </div>
    
            <div> Please press any button to continue to the next trial.</div>
        "," ","ITI","","","","","","",""
"","","","","","html-keyboard-response","166","169024","0.0-6.22-1.22","6069f9a16164d8e1747bb021","65576f040411c2a4be0341a4","65576f60ef693c11c08803a8","null","
        
        <div style=""text-align: center; position: fixed; top: 5vh; left: 40vw;"">
            <div style=""margin:0 auto; width: 20vw; top: 8vh; font-size: 2vw""> 
            <font color=""green""> Bonus : $1.1 </font>
            </div>
        </div>
    
        <img class=""stim"" src=./stimuli//pack_shapes_diff/cat_2/diff_5/ex_2_5_13.png></img>
    ","null","stimulus","","","","","","",""
"","","","","","html-keyboard-response","167","170039","0.0-6.22-2.22","6069f9a16164d8e1747bb021","65576f040411c2a4be0341a4","65576f60ef693c11c08803a8","null","
        <div style=""text-align: center; position: fixed; top: 5vh; left: 40vw;"">
            <div style=""margin:0 auto; width: 20vw; top: 8vh; font-size: 2vw""> 
            <font color=""green""> Bonus : $1.1 </font>
            </div>
        </div>
    ","null","","","","","","","",""
"","","","","","html-keyboard-response","168","170369","0.0-6.22-3.22","6069f9a16164d8e1747bb021","65576f040411c2a4be0341a4","65576f60ef693c11c08803a8","329","./stimuli//pack_shapes_diff/cat_2/diff_5/ex_2_5_13.png","arrowright","response","ArrowRight","13","2","5","test","true",""
"","","","","","html-keyboard-response","169","171873","0.0-6.22-4.22","6069f9a16164d8e1747bb021","65576f040411c2a4be0341a4","65576f60ef693c11c08803a8","null","<p> <font color=""green"" size=""5vw""> Correct category! </font> <br> <br> <font color=""green"" size=""8vw""> + $0.05 </font> </p>","null","feedback","","","","","","","1.15"
"","","","","","html-keyboard-response","170","172220","0.0-6.23-0.23","6069f9a16164d8e1747bb021","65576f040411c2a4be0341a4","65576f60ef693c11c08803a8","346","
            
        <div style=""text-align: center; position: fixed; top: 5vh; left: 40vw;"">
            <div style=""margin:0 auto; width: 20vw; top: 8vh; font-size: 2vw""> 
            <font color=""green""> Bonus : $1.15 </font>
            </div>
        </div>
    
            <div> Please press any button to continue to the next trial.</div>
        "," ","ITI","","","","","","",""
"","","","","","html-keyboard-response","171","172834","0.0-6.23-1.23","6069f9a16164d8e1747bb021","65576f040411c2a4be0341a4","65576f60ef693c11c08803a8","null","
        
        <div style=""text-align: center; position: fixed; top: 5vh; left: 40vw;"">
            <div style=""margin:0 auto; width: 20vw; top: 8vh; font-size: 2vw""> 
            <font color=""green""> Bonus : $1.15 </font>
            </div>
        </div>
    
        <img class=""stim"" src=./stimuli//pack_shapes_diff/cat_1/diff_5/ex_1_5_13.png></img>
    ","null","stimulus","","","","","","",""
"","","","","","html-keyboard-response","172","173845","0.0-6.23-2.23","6069f9a16164d8e1747bb021","65576f040411c2a4be0341a4","65576f60ef693c11c08803a8","null","
        <div style=""text-align: center; position: fixed; top: 5vh; left: 40vw;"">
            <div style=""margin:0 auto; width: 20vw; top: 8vh; font-size: 2vw""> 
            <font color=""green""> Bonus : $1.15 </font>
            </div>
        </div>
    ","null","","","","","","","",""
"","","","","","html-keyboard-response","173","174157","0.0-6.23-3.23","6069f9a16164d8e1747bb021","65576f040411c2a4be0341a4","65576f60ef693c11c08803a8","310","./stimuli//pack_shapes_diff/cat_1/diff_5/ex_1_5_13.png","arrowright","response","ArrowLeft","13","1","5","test","false",""
"","","","","","html-keyboard-response","174","175668","0.0-6.23-4.23","6069f9a16164d8e1747bb021","65576f040411c2a4be0341a4","65576f60ef693c11c08803a8","null","<p> <font color=""red"" size=""5vw""> Wrong category! </font> </p>","null","feedback","","","","","","","1.15"
"","","","","","html-keyboard-response","175","176752","0.0-6.24-0.24","6069f9a16164d8e1747bb021","65576f040411c2a4be0341a4","65576f60ef693c11c08803a8","1083","
            
        <div style=""text-align: center; position: fixed; top: 5vh; left: 40vw;"">
            <div style=""margin:0 auto; width: 20vw; top: 8vh; font-size: 2vw""> 
            <font color=""green""> Bonus : $1.15 </font>
            </div>
        </div>
    
            <div> Please press any button to continue to the next trial.</div>
        "," ","ITI","","","","","","",""
"","","","","","html-keyboard-response","176","177362","0.0-6.24-1.24","6069f9a16164d8e1747bb021","65576f040411c2a4be0341a4","65576f60ef693c11c08803a8","null","
        
        <div style=""text-align: center; position: fixed; top: 5vh; left: 40vw;"">
            <div style=""margin:0 auto; width: 20vw; top: 8vh; font-size: 2vw""> 
            <font color=""green""> Bonus : $1.15 </font>
            </div>
        </div>
    
        <img class=""stim"" src=./stimuli//pack_shapes_diff/cat_2/diff_5/ex_2_5_16.png></img>
    ","null","stimulus","","","","","","",""
"","","","","","html-keyboard-response","177","178371","0.0-6.24-2.24","6069f9a16164d8e1747bb021","65576f040411c2a4be0341a4","65576f60ef693c11c08803a8","null","
        <div style=""text-align: center; position: fixed; top: 5vh; left: 40vw;"">
            <div style=""margin:0 auto; width: 20vw; top: 8vh; font-size: 2vw""> 
            <font color=""green""> Bonus : $1.15 </font>
            </div>
        </div>
    ","null","","","","","","","",""
"","","","","","html-keyboard-response","178","178656","0.0-6.24-3.24","6069f9a16164d8e1747bb021","65576f040411c2a4be0341a4","65576f60ef693c11c08803a8","284","./stimuli//pack_shapes_diff/cat_2/diff_5/ex_2_5_16.png","arrowright","response","ArrowRight","16","2","5","test","true",""
"","","","","","html-keyboard-response","179","180162","0.0-6.24-4.24","6069f9a16164d8e1747bb021","65576f040411c2a4be0341a4","65576f60ef693c11c08803a8","null","<p> <font color=""green"" size=""5vw""> Correct category! </font> <br> <br> <font color=""green"" size=""8vw""> + $0.05 </font> </p>","null","feedback","","","","","","","1.2"
"","","","","","html-keyboard-response","180","180624","0.0-6.25-0.25","6069f9a16164d8e1747bb021","65576f040411c2a4be0341a4","65576f60ef693c11c08803a8","461","
            
        <div style=""text-align: center; position: fixed; top: 5vh; left: 40vw;"">
            <div style=""margin:0 auto; width: 20vw; top: 8vh; font-size: 2vw""> 
            <font color=""green""> Bonus : $1.2 </font>
            </div>
        </div>
    
            <div> Please press any button to continue to the next trial.</div>
        "," ","ITI","","","","","","",""
"","","","","","html-keyboard-response","181","181235","0.0-6.25-1.25","6069f9a16164d8e1747bb021","65576f040411c2a4be0341a4","65576f60ef693c11c08803a8","null","
        
        <div style=""text-align: center; position: fixed; top: 5vh; left: 40vw;"">
            <div style=""margin:0 auto; width: 20vw; top: 8vh; font-size: 2vw""> 
            <font color=""green""> Bonus : $1.2 </font>
            </div>
        </div>
    
        <img class=""stim"" src=./stimuli//pack_shapes_diff/cat_2/diff_5/ex_2_5_6.png></img>
    ","null","stimulus","","","","","","",""
"","","","","","html-keyboard-response","182","182239","0.0-6.25-2.25","6069f9a16164d8e1747bb021","65576f040411c2a4be0341a4","65576f60ef693c11c08803a8","null","
        <div style=""text-align: center; position: fixed; top: 5vh; left: 40vw;"">
            <div style=""margin:0 auto; width: 20vw; top: 8vh; font-size: 2vw""> 
            <font color=""green""> Bonus : $1.2 </font>
            </div>
        </div>
    ","null","","","","","","","",""
"","","","","","html-keyboard-response","183","182563","0.0-6.25-3.25","6069f9a16164d8e1747bb021","65576f040411c2a4be0341a4","65576f60ef693c11c08803a8","323","./stimuli//pack_shapes_diff/cat_2/diff_5/ex_2_5_6.png","arrowright","response","ArrowRight","6","2","5","test","true",""
"","","","","","html-keyboard-response","184","184079","0.0-6.25-4.25","6069f9a16164d8e1747bb021","65576f040411c2a4be0341a4","65576f60ef693c11c08803a8","null","<p> <font color=""green"" size=""5vw""> Correct category! </font> <br> <br> <font color=""green"" size=""8vw""> + $0.05 </font> </p>","null","feedback","","","","","","","1.25"
"","","","","","html-keyboard-response","185","184448","0.0-6.26-0.26","6069f9a16164d8e1747bb021","65576f040411c2a4be0341a4","65576f60ef693c11c08803a8","368","
            
        <div style=""text-align: center; position: fixed; top: 5vh; left: 40vw;"">
            <div style=""margin:0 auto; width: 20vw; top: 8vh; font-size: 2vw""> 
            <font color=""green""> Bonus : $1.25 </font>
            </div>
        </div>
    
            <div> Please press any button to continue to the next trial.</div>
        "," ","ITI","","","","","","",""
"","","","","","html-keyboard-response","186","185050","0.0-6.26-1.26","6069f9a16164d8e1747bb021","65576f040411c2a4be0341a4","65576f60ef693c11c08803a8","null","
        
        <div style=""text-align: center; position: fixed; top: 5vh; left: 40vw;"">
            <div style=""margin:0 auto; width: 20vw; top: 8vh; font-size: 2vw""> 
            <font color=""green""> Bonus : $1.25 </font>
            </div>
        </div>
    
        <img class=""stim"" src=./stimuli//pack_shapes_diff/cat_1/diff_5/ex_1_5_2.png></img>
    ","null","stimulus","","","","","","",""
"","","","","","html-keyboard-response","187","186063","0.0-6.26-2.26","6069f9a16164d8e1747bb021","65576f040411c2a4be0341a4","65576f60ef693c11c08803a8","null","
        <div style=""text-align: center; position: fixed; top: 5vh; left: 40vw;"">
            <div style=""margin:0 auto; width: 20vw; top: 8vh; font-size: 2vw""> 
            <font color=""green""> Bonus : $1.25 </font>
            </div>
        </div>
    ","null","","","","","","","",""
"","","","","","html-keyboard-response","188","186423","0.0-6.26-3.26","6069f9a16164d8e1747bb021","65576f040411c2a4be0341a4","65576f60ef693c11c08803a8","359","./stimuli//pack_shapes_diff/cat_1/diff_5/ex_1_5_2.png","arrowleft","response","ArrowLeft","2","1","5","test","true",""
"","","","","","html-keyboard-response","189","187930","0.0-6.26-4.26","6069f9a16164d8e1747bb021","65576f040411c2a4be0341a4","65576f60ef693c11c08803a8","null","<p> <font color=""green"" size=""5vw""> Correct category! </font> <br> <br> <font color=""green"" size=""8vw""> + $0.05 </font> </p>","null","feedback","","","","","","","1.3"
"","","","","","html-keyboard-response","190","188383","0.0-6.27-0.27","6069f9a16164d8e1747bb021","65576f040411c2a4be0341a4","65576f60ef693c11c08803a8","452","
            
        <div style=""text-align: center; position: fixed; top: 5vh; left: 40vw;"">
            <div style=""margin:0 auto; width: 20vw; top: 8vh; font-size: 2vw""> 
            <font color=""green""> Bonus : $1.3 </font>
            </div>
        </div>
    
            <div> Please press any button to continue to the next trial.</div>
        "," ","ITI","","","","","","",""
"","","","","","html-keyboard-response","191","188990","0.0-6.27-1.27","6069f9a16164d8e1747bb021","65576f040411c2a4be0341a4","65576f60ef693c11c08803a8","null","
        
        <div style=""text-align: center; position: fixed; top: 5vh; left: 40vw;"">
            <div style=""margin:0 auto; width: 20vw; top: 8vh; font-size: 2vw""> 
            <font color=""green""> Bonus : $1.3 </font>
            </div>
        </div>
    
        <img class=""stim"" src=./stimuli//pack_shapes_diff/cat_1/diff_5/ex_1_5_9.png></img>
    ","null","stimulus","","","","","","",""
"","","","","","html-keyboard-response","192","189998","0.0-6.27-2.27","6069f9a16164d8e1747bb021","65576f040411c2a4be0341a4","65576f60ef693c11c08803a8","null","
        <div style=""text-align: center; position: fixed; top: 5vh; left: 40vw;"">
            <div style=""margin:0 auto; width: 20vw; top: 8vh; font-size: 2vw""> 
            <font color=""green""> Bonus : $1.3 </font>
            </div>
        </div>
    ","null","","","","","","","",""
"","","","","","html-keyboard-response","193","190304","0.0-6.27-3.27","6069f9a16164d8e1747bb021","65576f040411c2a4be0341a4","65576f60ef693c11c08803a8","305","./stimuli//pack_shapes_diff/cat_1/diff_5/ex_1_5_9.png","arrowleft","response","ArrowLeft","9","1","5","test","true",""
"","","","","","html-keyboard-response","194","191815","0.0-6.27-4.27","6069f9a16164d8e1747bb021","65576f040411c2a4be0341a4","65576f60ef693c11c08803a8","null","<p> <font color=""green"" size=""5vw""> Correct category! </font> <br> <br> <font color=""green"" size=""8vw""> + $0.05 </font> </p>","null","feedback","","","","","","","1.35"
"","","","","","html-keyboard-response","195","192138","0.0-6.28-0.28","6069f9a16164d8e1747bb021","65576f040411c2a4be0341a4","65576f60ef693c11c08803a8","322","
            
        <div style=""text-align: center; position: fixed; top: 5vh; left: 40vw;"">
            <div style=""margin:0 auto; width: 20vw; top: 8vh; font-size: 2vw""> 
            <font color=""green""> Bonus : $1.35 </font>
            </div>
        </div>
    
            <div> Please press any button to continue to the next trial.</div>
        "," ","ITI","","","","","","",""
"","","","","","html-keyboard-response","196","192749","0.0-6.28-1.28","6069f9a16164d8e1747bb021","65576f040411c2a4be0341a4","65576f60ef693c11c08803a8","null","
        
        <div style=""text-align: center; position: fixed; top: 5vh; left: 40vw;"">
            <div style=""margin:0 auto; width: 20vw; top: 8vh; font-size: 2vw""> 
            <font color=""green""> Bonus : $1.35 </font>
            </div>
        </div>
    
        <img class=""stim"" src=./stimuli//pack_shapes_diff/cat_2/diff_5/ex_2_5_7.png></img>
    ","null","stimulus","","","","","","",""
"","","","","","html-keyboard-response","197","193756","0.0-6.28-2.28","6069f9a16164d8e1747bb021","65576f040411c2a4be0341a4","65576f60ef693c11c08803a8","null","
        <div style=""text-align: center; position: fixed; top: 5vh; left: 40vw;"">
            <div style=""margin:0 auto; width: 20vw; top: 8vh; font-size: 2vw""> 
            <font color=""green""> Bonus : $1.35 </font>
            </div>
        </div>
    ","null","","","","","","","",""
"","","","","","html-keyboard-response","198","194048","0.0-6.28-3.28","6069f9a16164d8e1747bb021","65576f040411c2a4be0341a4","65576f60ef693c11c08803a8","290","./stimuli//pack_shapes_diff/cat_2/diff_5/ex_2_5_7.png","arrowright","response","ArrowRight","7","2","5","test","true",""
"","","","","","html-keyboard-response","199","195573","0.0-6.28-4.28","6069f9a16164d8e1747bb021","65576f040411c2a4be0341a4","65576f60ef693c11c08803a8","null","<p> <font color=""green"" size=""5vw""> Correct category! </font> <br> <br> <font color=""green"" size=""8vw""> + $0.05 </font> </p>","null","feedback","","","","","","","1.4"
"","","","","","html-keyboard-response","200","195989","0.0-6.29-0.29","6069f9a16164d8e1747bb021","65576f040411c2a4be0341a4","65576f60ef693c11c08803a8","415","
            
        <div style=""text-align: center; position: fixed; top: 5vh; left: 40vw;"">
            <div style=""margin:0 auto; width: 20vw; top: 8vh; font-size: 2vw""> 
            <font color=""green""> Bonus : $1.4 </font>
            </div>
        </div>
    
            <div> Please press any button to continue to the next trial.</div>
        "," ","ITI","","","","","","",""
"","","","","","html-keyboard-response","201","196613","0.0-6.29-1.29","6069f9a16164d8e1747bb021","65576f040411c2a4be0341a4","65576f60ef693c11c08803a8","null","
        
        <div style=""text-align: center; position: fixed; top: 5vh; left: 40vw;"">
            <div style=""margin:0 auto; width: 20vw; top: 8vh; font-size: 2vw""> 
            <font color=""green""> Bonus : $1.4 </font>
            </div>
        </div>
    
        <img class=""stim"" src=./stimuli//pack_shapes_diff/cat_2/diff_5/ex_2_5_14.png></img>
    ","null","stimulus","","","","","","",""
"","","","","","html-keyboard-response","202","197620","0.0-6.29-2.29","6069f9a16164d8e1747bb021","65576f040411c2a4be0341a4","65576f60ef693c11c08803a8","null","
        <div style=""text-align: center; position: fixed; top: 5vh; left: 40vw;"">
            <div style=""margin:0 auto; width: 20vw; top: 8vh; font-size: 2vw""> 
            <font color=""green""> Bonus : $1.4 </font>
            </div>
        </div>
    ","null","","","","","","","",""
"","","","","","html-keyboard-response","203","197947","0.0-6.29-3.29","6069f9a16164d8e1747bb021","65576f040411c2a4be0341a4","65576f60ef693c11c08803a8","326","./stimuli//pack_shapes_diff/cat_2/diff_5/ex_2_5_14.png","arrowleft","response","ArrowRight","14","2","5","test","false",""
"","","","","","html-keyboard-response","204","199450","0.0-6.29-4.29","6069f9a16164d8e1747bb021","65576f040411c2a4be0341a4","65576f60ef693c11c08803a8","null","<p> <font color=""red"" size=""5vw""> Wrong category! </font> </p>","null","feedback","","","","","","","1.4"
"","","","","","html-keyboard-response","205","199901","0.0-6.30-0.30","6069f9a16164d8e1747bb021","65576f040411c2a4be0341a4","65576f60ef693c11c08803a8","449","
            
        <div style=""text-align: center; position: fixed; top: 5vh; left: 40vw;"">
            <div style=""margin:0 auto; width: 20vw; top: 8vh; font-size: 2vw""> 
            <font color=""green""> Bonus : $1.4 </font>
            </div>
        </div>
    
            <div> Please press any button to continue to the next trial.</div>
        "," ","ITI","","","","","","",""
"","","","","","html-keyboard-response","206","200518","0.0-6.30-1.30","6069f9a16164d8e1747bb021","65576f040411c2a4be0341a4","65576f60ef693c11c08803a8","null","
        
        <div style=""text-align: center; position: fixed; top: 5vh; left: 40vw;"">
            <div style=""margin:0 auto; width: 20vw; top: 8vh; font-size: 2vw""> 
            <font color=""green""> Bonus : $1.4 </font>
            </div>
        </div>
    
        <img class=""stim"" src=./stimuli//pack_shapes_diff/cat_1/diff_5/ex_1_5_4.png></img>
    ","null","stimulus","","","","","","",""
"","","","","","html-keyboard-response","207","201529","0.0-6.30-2.30","6069f9a16164d8e1747bb021","65576f040411c2a4be0341a4","65576f60ef693c11c08803a8","null","
        <div style=""text-align: center; position: fixed; top: 5vh; left: 40vw;"">
            <div style=""margin:0 auto; width: 20vw; top: 8vh; font-size: 2vw""> 
            <font color=""green""> Bonus : $1.4 </font>
            </div>
        </div>
    ","null","","","","","","","",""
"","","","","","html-keyboard-response","208","201826","0.0-6.30-3.30","6069f9a16164d8e1747bb021","65576f040411c2a4be0341a4","65576f60ef693c11c08803a8","296","./stimuli//pack_shapes_diff/cat_1/diff_5/ex_1_5_4.png","arrowleft","response","ArrowLeft","4","1","5","test","true",""
"","","","","","html-keyboard-response","209","203336","0.0-6.30-4.30","6069f9a16164d8e1747bb021","65576f040411c2a4be0341a4","65576f60ef693c11c08803a8","null","<p> <font color=""green"" size=""5vw""> Correct category! </font> <br> <br> <font color=""green"" size=""8vw""> + $0.05 </font> </p>","null","feedback","","","","","","","1.45"
"","","","","","html-keyboard-response","210","203744","0.0-6.31-0.31","6069f9a16164d8e1747bb021","65576f040411c2a4be0341a4","65576f60ef693c11c08803a8","407","
            
        <div style=""text-align: center; position: fixed; top: 5vh; left: 40vw;"">
            <div style=""margin:0 auto; width: 20vw; top: 8vh; font-size: 2vw""> 
            <font color=""green""> Bonus : $1.45 </font>
            </div>
        </div>
    
            <div> Please press any button to continue to the next trial.</div>
        "," ","ITI","","","","","","",""
"","","","","","html-keyboard-response","211","204350","0.0-6.31-1.31","6069f9a16164d8e1747bb021","65576f040411c2a4be0341a4","65576f60ef693c11c08803a8","null","
        
        <div style=""text-align: center; position: fixed; top: 5vh; left: 40vw;"">
            <div style=""margin:0 auto; width: 20vw; top: 8vh; font-size: 2vw""> 
            <font color=""green""> Bonus : $1.45 </font>
            </div>
        </div>
    
        <img class=""stim"" src=./stimuli//pack_shapes_diff/cat_2/diff_5/ex_2_5_10.png></img>
    ","null","stimulus","","","","","","",""
"","","","","","html-keyboard-response","212","205366","0.0-6.31-2.31","6069f9a16164d8e1747bb021","65576f040411c2a4be0341a4","65576f60ef693c11c08803a8","null","
        <div style=""text-align: center; position: fixed; top: 5vh; left: 40vw;"">
            <div style=""margin:0 auto; width: 20vw; top: 8vh; font-size: 2vw""> 
            <font color=""green""> Bonus : $1.45 </font>
            </div>
        </div>
    ","null","","","","","","","",""
"","","","","","html-keyboard-response","213","205699","0.0-6.31-3.31","6069f9a16164d8e1747bb021","65576f040411c2a4be0341a4","65576f60ef693c11c08803a8","332","./stimuli//pack_shapes_diff/cat_2/diff_5/ex_2_5_10.png","arrowright","response","ArrowRight","10","2","5","test","true",""
"","","","","","html-keyboard-response","214","207209","0.0-6.31-4.31","6069f9a16164d8e1747bb021","65576f040411c2a4be0341a4","65576f60ef693c11c08803a8","null","<p> <font color=""green"" size=""5vw""> Correct category! </font> <br> <br> <font color=""green"" size=""8vw""> + $0.05 </font> </p>","null","feedback","","","","","","","1.5"
"","","","","","html-keyboard-response","215","207535","0.0-6.32-0.32","6069f9a16164d8e1747bb021","65576f040411c2a4be0341a4","65576f60ef693c11c08803a8","325","
            
        <div style=""text-align: center; position: fixed; top: 5vh; left: 40vw;"">
            <div style=""margin:0 auto; width: 20vw; top: 8vh; font-size: 2vw""> 
            <font color=""green""> Bonus : $1.5 </font>
            </div>
        </div>
    
            <div> Please press any button to continue to the next trial.</div>
        "," ","ITI","","","","","","",""
"","","","","","html-keyboard-response","216","208139","0.0-6.32-1.32","6069f9a16164d8e1747bb021","65576f040411c2a4be0341a4","65576f60ef693c11c08803a8","null","
        
        <div style=""text-align: center; position: fixed; top: 5vh; left: 40vw;"">
            <div style=""margin:0 auto; width: 20vw; top: 8vh; font-size: 2vw""> 
            <font color=""green""> Bonus : $1.5 </font>
            </div>
        </div>
    
        <img class=""stim"" src=./stimuli//pack_shapes_diff/cat_1/diff_5/ex_1_5_3.png></img>
    ","null","stimulus","","","","","","",""
"","","","","","html-keyboard-response","217","209145","0.0-6.32-2.32","6069f9a16164d8e1747bb021","65576f040411c2a4be0341a4","65576f60ef693c11c08803a8","null","
        <div style=""text-align: center; position: fixed; top: 5vh; left: 40vw;"">
            <div style=""margin:0 auto; width: 20vw; top: 8vh; font-size: 2vw""> 
            <font color=""green""> Bonus : $1.5 </font>
            </div>
        </div>
    ","null","","","","","","","",""
"","","","","","html-keyboard-response","218","209409","0.0-6.32-3.32","6069f9a16164d8e1747bb021","65576f040411c2a4be0341a4","65576f60ef693c11c08803a8","263","./stimuli//pack_shapes_diff/cat_1/diff_5/ex_1_5_3.png","arrowleft","response","ArrowLeft","3","1","5","test","true",""
"","","","","","html-keyboard-response","219","210912","0.0-6.32-4.32","6069f9a16164d8e1747bb021","65576f040411c2a4be0341a4","65576f60ef693c11c08803a8","null","<p> <font color=""green"" size=""5vw""> Correct category! </font> <br> <br> <font color=""green"" size=""8vw""> + $0.05 </font> </p>","null","feedback","","","","","","","1.55"
"","","","","","html-keyboard-response","220","211992","0.0-6.33-0.33","6069f9a16164d8e1747bb021","65576f040411c2a4be0341a4","65576f60ef693c11c08803a8","1079","
            
        <div style=""text-align: center; position: fixed; top: 5vh; left: 40vw;"">
            <div style=""margin:0 auto; width: 20vw; top: 8vh; font-size: 2vw""> 
            <font color=""green""> Bonus : $1.55 </font>
            </div>
        </div>
    
            <div> Please press any button to continue to the next trial.</div>
        "," ","ITI","","","","","","",""
"","","","","","html-keyboard-response","221","212599","0.0-6.33-1.33","6069f9a16164d8e1747bb021","65576f040411c2a4be0341a4","65576f60ef693c11c08803a8","null","
        
        <div style=""text-align: center; position: fixed; top: 5vh; left: 40vw;"">
            <div style=""margin:0 auto; width: 20vw; top: 8vh; font-size: 2vw""> 
            <font color=""green""> Bonus : $1.55 </font>
            </div>
        </div>
    
        <img class=""stim"" src=./stimuli//pack_shapes_diff/cat_1/diff_5/ex_1_5_5.png></img>
    ","null","stimulus","","","","","","",""
"","","","","","html-keyboard-response","222","213616","0.0-6.33-2.33","6069f9a16164d8e1747bb021","65576f040411c2a4be0341a4","65576f60ef693c11c08803a8","null","
        <div style=""text-align: center; position: fixed; top: 5vh; left: 40vw;"">
            <div style=""margin:0 auto; width: 20vw; top: 8vh; font-size: 2vw""> 
            <font color=""green""> Bonus : $1.55 </font>
            </div>
        </div>
    ","null","","","","","","","",""
"","","","","","html-keyboard-response","223","213945","0.0-6.33-3.33","6069f9a16164d8e1747bb021","65576f040411c2a4be0341a4","65576f60ef693c11c08803a8","328","./stimuli//pack_shapes_diff/cat_1/diff_5/ex_1_5_5.png","arrowleft","response","ArrowLeft","5","1","5","test","true",""
"","","","","","html-keyboard-response","224","215453","0.0-6.33-4.33","6069f9a16164d8e1747bb021","65576f040411c2a4be0341a4","65576f60ef693c11c08803a8","null","<p> <font color=""green"" size=""5vw""> Correct category! </font> <br> <br> <font color=""green"" size=""8vw""> + $0.05 </font> </p>","null","feedback","","","","","","","1.6"
"","","","","","html-keyboard-response","225","215755","0.0-6.34-0.34","6069f9a16164d8e1747bb021","65576f040411c2a4be0341a4","65576f60ef693c11c08803a8","301","
            
        <div style=""text-align: center; position: fixed; top: 5vh; left: 40vw;"">
            <div style=""margin:0 auto; width: 20vw; top: 8vh; font-size: 2vw""> 
            <font color=""green""> Bonus : $1.6 </font>
            </div>
        </div>
    
            <div> Please press any button to continue to the next trial.</div>
        "," ","ITI","","","","","","",""
"","","","","","html-keyboard-response","226","216360","0.0-6.34-1.34","6069f9a16164d8e1747bb021","65576f040411c2a4be0341a4","65576f60ef693c11c08803a8","null","
        
        <div style=""text-align: center; position: fixed; top: 5vh; left: 40vw;"">
            <div style=""margin:0 auto; width: 20vw; top: 8vh; font-size: 2vw""> 
            <font color=""green""> Bonus : $1.6 </font>
            </div>
        </div>
    
        <img class=""stim"" src=./stimuli//pack_shapes_diff/cat_1/diff_5/ex_1_5_2.png></img>
    ","null","stimulus","","","","","","",""
"","","","","","html-keyboard-response","227","217388","0.0-6.34-2.34","6069f9a16164d8e1747bb021","65576f040411c2a4be0341a4","65576f60ef693c11c08803a8","null","
        <div style=""text-align: center; position: fixed; top: 5vh; left: 40vw;"">
            <div style=""margin:0 auto; width: 20vw; top: 8vh; font-size: 2vw""> 
            <font color=""green""> Bonus : $1.6 </font>
            </div>
        </div>
    ","null","","","","","","","",""
"","","","","","html-keyboard-response","228","217709","0.0-6.34-3.34","6069f9a16164d8e1747bb021","65576f040411c2a4be0341a4","65576f60ef693c11c08803a8","318","./stimuli//pack_shapes_diff/cat_1/diff_5/ex_1_5_2.png","arrowleft","response","ArrowLeft","2","1","5","test","true",""
"","","","","","html-keyboard-response","229","219216","0.0-6.34-4.34","6069f9a16164d8e1747bb021","65576f040411c2a4be0341a4","65576f60ef693c11c08803a8","null","<p> <font color=""green"" size=""5vw""> Correct category! </font> <br> <br> <font color=""green"" size=""8vw""> + $0.05 </font> </p>","null","feedback","","","","","","","1.65"
