"success","timeout","failed_images","failed_audio","failed_video","trial_type","trial_index","time_elapsed","internal_node_id","subject_id","study_id","session_id","rt","stimulus","response","task","correct_response","exemplar_ID","category","difficulty","phase","correct","bonus"
"true","false","[]","[]","[]","preload","0","7","0.0-0.0","614da4dd46a046479740407a","65576f040411c2a4be0341a4","65576f57a03ec068a8fc03f1","","","","","","","","","","",""
"","","","","","html-keyboard-response","1","8317","0.0-1.0","614da4dd46a046479740407a","65576f040411c2a4be0341a4","65576f57a03ec068a8fc03f1","8309","Welcome to the Category Learning experiment! Press any key to continue."," ","welcome","","","","","","",""
"","","","","","html-keyboard-response","2","26374","0.0-2.0","614da4dd46a046479740407a","65576f040411c2a4be0341a4","65576f57a03ec068a8fc03f1","18056","
            <p>You will be shown images of black shapes. Some are category A, some are category B.
            <br>You will not know in advance which category a specific shape belongs to.</p>
            <p>After you see an image, you will be asked to guess its category <b>(left arrow for category A, right arrow for category B)</b></p>
            <p>After you choose, the screen will show you whether you were correct or not.</p>
            <p><b>You will receive a bonus payment of $0.05 for each correct answer!</b></p>
            <p> So you can increase your bonus by guessing correctly, and by guessing as quickly as possible so you move on to the next image sooner.</p>
            <p>Press any key to continue.</p>
            "," ","introduction_1","","","","","","",""
"","","","","","html-keyboard-response","3","34167","0.0-3.0","614da4dd46a046479740407a","65576f040411c2a4be0341a4","65576f57a03ec068a8fc03f1","7792","
            <p> <b>The first 10 trials are a practice round that will not count towards your bonus payment.</b></p>
            <p> You will be notified when practice finishes and the test begins. </p>
            <p> Press any key to begin the practice round.</p>
            "," ","introduction_2","","","","","","",""
"","","","","","html-keyboard-response","4","35679","0.0-4.0-0.0","614da4dd46a046479740407a","65576f040411c2a4be0341a4","65576f57a03ec068a8fc03f1","1510","
            
        <div style=""text-align: center; position: fixed; top: 5vh; left: 40vw;"">
            <div style=""margin:0 auto; width: 20vw; top: 8vh; font-size: 2vw""> 
            <font color=""green""> Bonus : $0 </font>
            </div>
        </div>
    
            <div> Please press any button to continue to the next trial.</div>
        "," ","ITI","","","","","","",""
"","","","","","html-keyboard-response","5","36281","0.0-4.0-1.0","614da4dd46a046479740407a","65576f040411c2a4be0341a4","65576f57a03ec068a8fc03f1","null","
        
        <div style=""text-align: center; position: fixed; top: 5vh; left: 40vw;"">
            <div style=""margin:0 auto; width: 20vw; top: 8vh; font-size: 2vw""> 
            <font color=""green""> Bonus : $0 </font>
            </div>
        </div>
    
        <img class=""stim"" src=./stimuli//pack_shapes_diff/cat_2/diff_2/ex_2_2_13.png></img>
    ","null","stimulus","","","","","","",""
"","","","","","html-keyboard-response","6","37287","0.0-4.0-2.0","614da4dd46a046479740407a","65576f040411c2a4be0341a4","65576f57a03ec068a8fc03f1","null","
        <div style=""text-align: center; position: fixed; top: 5vh; left: 40vw;"">
            <div style=""margin:0 auto; width: 20vw; top: 8vh; font-size: 2vw""> 
            <font color=""green""> Bonus : $0 </font>
            </div>
        </div>
    ","null","","","","","","","",""
"","","","","","html-keyboard-response","7","41291","0.0-4.0-3.0","614da4dd46a046479740407a","65576f040411c2a4be0341a4","65576f57a03ec068a8fc03f1","null","./stimuli//pack_shapes_diff/cat_2/diff_2/ex_2_2_13.png","null","response","ArrowRight","13","2","2","train","false",""
"","","","","","html-keyboard-response","8","41585","0.0-4.0-4.0","614da4dd46a046479740407a","65576f040411c2a4be0341a4","65576f57a03ec068a8fc03f1","293","<p> <font color=""red"" size=""5vw""> Time out! </font> <br> Please try to respond as quickly as possible. </p>","b","feedback","","","","","","","0"
"","","","","","html-keyboard-response","9","43187","0.0-4.0-0.1","614da4dd46a046479740407a","65576f040411c2a4be0341a4","65576f57a03ec068a8fc03f1","1602","
            
        <div style=""text-align: center; position: fixed; top: 5vh; left: 40vw;"">
            <div style=""margin:0 auto; width: 20vw; top: 8vh; font-size: 2vw""> 
            <font color=""green""> Bonus : $0 </font>
            </div>
        </div>
    
            <div> Please press any button to continue to the next trial.</div>
        "," ","ITI","","","","","","",""
"","","","","","html-keyboard-response","10","43790","0.0-4.0-1.1","614da4dd46a046479740407a","65576f040411c2a4be0341a4","65576f57a03ec068a8fc03f1","null","
        
        <div style=""text-align: center; position: fixed; top: 5vh; left: 40vw;"">
            <div style=""margin:0 auto; width: 20vw; top: 8vh; font-size: 2vw""> 
            <font color=""green""> Bonus : $0 </font>
            </div>
        </div>
    
        <img class=""stim"" src=./stimuli//pack_shapes_diff/cat_1/diff_1/ex_1_1_7.png></img>
    ","null","stimulus","","","","","","",""
"","","","","","html-keyboard-response","11","44792","0.0-4.0-2.1","614da4dd46a046479740407a","65576f040411c2a4be0341a4","65576f57a03ec068a8fc03f1","null","
        <div style=""text-align: center; position: fixed; top: 5vh; left: 40vw;"">
            <div style=""margin:0 auto; width: 20vw; top: 8vh; font-size: 2vw""> 
            <font color=""green""> Bonus : $0 </font>
            </div>
        </div>
    ","null","","","","","","","",""
"","","","","","html-keyboard-response","12","48794","0.0-4.0-3.1","614da4dd46a046479740407a","65576f040411c2a4be0341a4","65576f57a03ec068a8fc03f1","null","./stimuli//pack_shapes_diff/cat_1/diff_1/ex_1_1_7.png","null","response","ArrowLeft","7","1","1","train","false",""
"","","","","","html-keyboard-response","13","50299","0.0-4.0-4.1","614da4dd46a046479740407a","65576f040411c2a4be0341a4","65576f57a03ec068a8fc03f1","null","<p> <font color=""red"" size=""5vw""> Time out! </font> <br> Please try to respond as quickly as possible. </p>","null","feedback","","","","","","","0"
"","","","","","html-keyboard-response","14","51033","0.0-4.0-0.2","614da4dd46a046479740407a","65576f040411c2a4be0341a4","65576f57a03ec068a8fc03f1","733","
            
        <div style=""text-align: center; position: fixed; top: 5vh; left: 40vw;"">
            <div style=""margin:0 auto; width: 20vw; top: 8vh; font-size: 2vw""> 
            <font color=""green""> Bonus : $0 </font>
            </div>
        </div>
    
            <div> Please press any button to continue to the next trial.</div>
        "," ","ITI","","","","","","",""
"","","","","","html-keyboard-response","15","51638","0.0-4.0-1.2","614da4dd46a046479740407a","65576f040411c2a4be0341a4","65576f57a03ec068a8fc03f1","null","
        
        <div style=""text-align: center; position: fixed; top: 5vh; left: 40vw;"">
            <div style=""margin:0 auto; width: 20vw; top: 8vh; font-size: 2vw""> 
            <font color=""green""> Bonus : $0 </font>
            </div>
        </div>
    
        <img class=""stim"" src=./stimuli//pack_shapes_diff/cat_1/diff_1/ex_1_1_10.png></img>
    ","null","stimulus","","","","","","",""
"","","","","","html-keyboard-response","16","52643","0.0-4.0-2.2","614da4dd46a046479740407a","65576f040411c2a4be0341a4","65576f57a03ec068a8fc03f1","null","
        <div style=""text-align: center; position: fixed; top: 5vh; left: 40vw;"">
            <div style=""margin:0 auto; width: 20vw; top: 8vh; font-size: 2vw""> 
            <font color=""green""> Bonus : $0 </font>
            </div>
        </div>
    ","null","","","","","","","",""
"","","","","","html-keyboard-response","17","53299","0.0-4.0-3.2","614da4dd46a046479740407a","65576f040411c2a4be0341a4","65576f57a03ec068a8fc03f1","655","./stimuli//pack_shapes_diff/cat_1/diff_1/ex_1_1_10.png","arrowright","response","ArrowLeft","10","1","1","train","false",""
"","","","","","html-keyboard-response","18","54805","0.0-4.0-4.2","614da4dd46a046479740407a","65576f040411c2a4be0341a4","65576f57a03ec068a8fc03f1","null","<p> <font color=""red"" size=""5vw""> Wrong category! </font> </p>","null","feedback","","","","","","","0"
"","","","","","html-keyboard-response","19","55683","0.0-4.0-0.3","614da4dd46a046479740407a","65576f040411c2a4be0341a4","65576f57a03ec068a8fc03f1","878","
            
        <div style=""text-align: center; position: fixed; top: 5vh; left: 40vw;"">
            <div style=""margin:0 auto; width: 20vw; top: 8vh; font-size: 2vw""> 
            <font color=""green""> Bonus : $0 </font>
            </div>
        </div>
    
            <div> Please press any button to continue to the next trial.</div>
        "," ","ITI","","","","","","",""
"","","","","","html-keyboard-response","20","56288","0.0-4.0-1.3","614da4dd46a046479740407a","65576f040411c2a4be0341a4","65576f57a03ec068a8fc03f1","null","
        
        <div style=""text-align: center; position: fixed; top: 5vh; left: 40vw;"">
            <div style=""margin:0 auto; width: 20vw; top: 8vh; font-size: 2vw""> 
            <font color=""green""> Bonus : $0 </font>
            </div>
        </div>
    
        <img class=""stim"" src=./stimuli//pack_shapes_diff/cat_2/diff_2/ex_2_2_17.png></img>
    ","null","stimulus","","","","","","",""
"","","","","","html-keyboard-response","21","57292","0.0-4.0-2.3","614da4dd46a046479740407a","65576f040411c2a4be0341a4","65576f57a03ec068a8fc03f1","null","
        <div style=""text-align: center; position: fixed; top: 5vh; left: 40vw;"">
            <div style=""margin:0 auto; width: 20vw; top: 8vh; font-size: 2vw""> 
            <font color=""green""> Bonus : $0 </font>
            </div>
        </div>
    ","null","","","","","","","",""
"","","","","","html-keyboard-response","22","57645","0.0-4.0-3.3","614da4dd46a046479740407a","65576f040411c2a4be0341a4","65576f57a03ec068a8fc03f1","352","./stimuli//pack_shapes_diff/cat_2/diff_2/ex_2_2_17.png","arrowleft","response","ArrowRight","17","2","2","train","false",""
"","","","","","html-keyboard-response","23","59149","0.0-4.0-4.3","614da4dd46a046479740407a","65576f040411c2a4be0341a4","65576f57a03ec068a8fc03f1","null","<p> <font color=""red"" size=""5vw""> Wrong category! </font> </p>","null","feedback","","","","","","","0"
"","","","","","html-keyboard-response","24","59737","0.0-4.0-0.4","614da4dd46a046479740407a","65576f040411c2a4be0341a4","65576f57a03ec068a8fc03f1","587","
            
        <div style=""text-align: center; position: fixed; top: 5vh; left: 40vw;"">
            <div style=""margin:0 auto; width: 20vw; top: 8vh; font-size: 2vw""> 
            <font color=""green""> Bonus : $0 </font>
            </div>
        </div>
    
            <div> Please press any button to continue to the next trial.</div>
        ","arrowright","ITI","","","","","","",""
"","","","","","html-keyboard-response","25","60341","0.0-4.0-1.4","614da4dd46a046479740407a","65576f040411c2a4be0341a4","65576f57a03ec068a8fc03f1","null","
        
        <div style=""text-align: center; position: fixed; top: 5vh; left: 40vw;"">
            <div style=""margin:0 auto; width: 20vw; top: 8vh; font-size: 2vw""> 
            <font color=""green""> Bonus : $0 </font>
            </div>
        </div>
    
        <img class=""stim"" src=./stimuli//pack_shapes_diff/cat_1/diff_2/ex_1_2_11.png></img>
    ","null","stimulus","","","","","","",""
"","","","","","html-keyboard-response","26","61346","0.0-4.0-2.4","614da4dd46a046479740407a","65576f040411c2a4be0341a4","65576f57a03ec068a8fc03f1","null","
        <div style=""text-align: center; position: fixed; top: 5vh; left: 40vw;"">
            <div style=""margin:0 auto; width: 20vw; top: 8vh; font-size: 2vw""> 
            <font color=""green""> Bonus : $0 </font>
            </div>
        </div>
    ","null","","","","","","","",""
"","","","","","html-keyboard-response","27","62758","0.0-4.0-3.4","614da4dd46a046479740407a","65576f040411c2a4be0341a4","65576f57a03ec068a8fc03f1","1411","./stimuli//pack_shapes_diff/cat_1/diff_2/ex_1_2_11.png","arrowright","response","ArrowLeft","11","1","2","train","false",""
"","","","","","html-keyboard-response","28","64261","0.0-4.0-4.4","614da4dd46a046479740407a","65576f040411c2a4be0341a4","65576f57a03ec068a8fc03f1","null","<p> <font color=""red"" size=""5vw""> Wrong category! </font> </p>","null","feedback","","","","","","","0"
"","","","","","html-keyboard-response","29","64991","0.0-4.0-0.5","614da4dd46a046479740407a","65576f040411c2a4be0341a4","65576f57a03ec068a8fc03f1","730","
            
        <div style=""text-align: center; position: fixed; top: 5vh; left: 40vw;"">
            <div style=""margin:0 auto; width: 20vw; top: 8vh; font-size: 2vw""> 
            <font color=""green""> Bonus : $0 </font>
            </div>
        </div>
    
            <div> Please press any button to continue to the next trial.</div>
        "," ","ITI","","","","","","",""
"","","","","","html-keyboard-response","30","65595","0.0-4.0-1.5","614da4dd46a046479740407a","65576f040411c2a4be0341a4","65576f57a03ec068a8fc03f1","null","
        
        <div style=""text-align: center; position: fixed; top: 5vh; left: 40vw;"">
            <div style=""margin:0 auto; width: 20vw; top: 8vh; font-size: 2vw""> 
            <font color=""green""> Bonus : $0 </font>
            </div>
        </div>
    
        <img class=""stim"" src=./stimuli//pack_shapes_diff/cat_1/diff_2/ex_1_2_13.png></img>
    ","null","stimulus","","","","","","",""
"","","","","","html-keyboard-response","31","66598","0.0-4.0-2.5","614da4dd46a046479740407a","65576f040411c2a4be0341a4","65576f57a03ec068a8fc03f1","null","
        <div style=""text-align: center; position: fixed; top: 5vh; left: 40vw;"">
            <div style=""margin:0 auto; width: 20vw; top: 8vh; font-size: 2vw""> 
            <font color=""green""> Bonus : $0 </font>
            </div>
        </div>
    ","null","","","","","","","",""
"","","","","","html-keyboard-response","32","66959","0.0-4.0-3.5","614da4dd46a046479740407a","65576f040411c2a4be0341a4","65576f57a03ec068a8fc03f1","361","./stimuli//pack_shapes_diff/cat_1/diff_2/ex_1_2_13.png","arrowleft","response","ArrowLeft","13","1","2","train","true",""
"","","","","","html-keyboard-response","33","68462","0.0-4.0-4.5","614da4dd46a046479740407a","65576f040411c2a4be0341a4","65576f57a03ec068a8fc03f1","null","<p> <font color=""green"" size=""5vw""> Correct category! </font> </p>","null","feedback","","","","","","","0"
"","","","","","html-keyboard-response","34","69141","0.0-4.0-0.6","614da4dd46a046479740407a","65576f040411c2a4be0341a4","65576f57a03ec068a8fc03f1","678","
            
        <div style=""text-align: center; position: fixed; top: 5vh; left: 40vw;"">
            <div style=""margin:0 auto; width: 20vw; top: 8vh; font-size: 2vw""> 
            <font color=""green""> Bonus : $0 </font>
            </div>
        </div>
    
            <div> Please press any button to continue to the next trial.</div>
        "," ","ITI","","","","","","",""
"","","","","","html-keyboard-response","35","69748","0.0-4.0-1.6","614da4dd46a046479740407a","65576f040411c2a4be0341a4","65576f57a03ec068a8fc03f1","null","
        
        <div style=""text-align: center; position: fixed; top: 5vh; left: 40vw;"">
            <div style=""margin:0 auto; width: 20vw; top: 8vh; font-size: 2vw""> 
            <font color=""green""> Bonus : $0 </font>
            </div>
        </div>
    
        <img class=""stim"" src=./stimuli//pack_shapes_diff/cat_2/diff_1/ex_2_1_7.png></img>
    ","null","stimulus","","","","","","",""
"","","","","","html-keyboard-response","36","70751","0.0-4.0-2.6","614da4dd46a046479740407a","65576f040411c2a4be0341a4","65576f57a03ec068a8fc03f1","null","
        <div style=""text-align: center; position: fixed; top: 5vh; left: 40vw;"">
            <div style=""margin:0 auto; width: 20vw; top: 8vh; font-size: 2vw""> 
            <font color=""green""> Bonus : $0 </font>
            </div>
        </div>
    ","null","","","","","","","",""
"","","","","","html-keyboard-response","37","71008","0.0-4.0-3.6","614da4dd46a046479740407a","65576f040411c2a4be0341a4","65576f57a03ec068a8fc03f1","256","./stimuli//pack_shapes_diff/cat_2/diff_1/ex_2_1_7.png","arrowright","response","ArrowRight","7","2","1","train","true",""
"","","","","","html-keyboard-response","38","72514","0.0-4.0-4.6","614da4dd46a046479740407a","65576f040411c2a4be0341a4","65576f57a03ec068a8fc03f1","null","<p> <font color=""green"" size=""5vw""> Correct category! </font> </p>","null","feedback","","","","","","","0"
"","","","","","html-keyboard-response","39","73029","0.0-4.0-0.7","614da4dd46a046479740407a","65576f040411c2a4be0341a4","65576f57a03ec068a8fc03f1","515","
            
        <div style=""text-align: center; position: fixed; top: 5vh; left: 40vw;"">
            <div style=""margin:0 auto; width: 20vw; top: 8vh; font-size: 2vw""> 
            <font color=""green""> Bonus : $0 </font>
            </div>
        </div>
    
            <div> Please press any button to continue to the next trial.</div>
        ","arrowleft","ITI","","","","","","",""
"","","","","","html-keyboard-response","40","73633","0.0-4.0-1.7","614da4dd46a046479740407a","65576f040411c2a4be0341a4","65576f57a03ec068a8fc03f1","null","
        
        <div style=""text-align: center; position: fixed; top: 5vh; left: 40vw;"">
            <div style=""margin:0 auto; width: 20vw; top: 8vh; font-size: 2vw""> 
            <font color=""green""> Bonus : $0 </font>
            </div>
        </div>
    
        <img class=""stim"" src=./stimuli//pack_shapes_diff/cat_2/diff_1/ex_2_1_14.png></img>
    ","null","stimulus","","","","","","",""
"","","","","","html-keyboard-response","41","74638","0.0-4.0-2.7","614da4dd46a046479740407a","65576f040411c2a4be0341a4","65576f57a03ec068a8fc03f1","null","
        <div style=""text-align: center; position: fixed; top: 5vh; left: 40vw;"">
            <div style=""margin:0 auto; width: 20vw; top: 8vh; font-size: 2vw""> 
            <font color=""green""> Bonus : $0 </font>
            </div>
        </div>
    ","null","","","","","","","",""
"","","","","","html-keyboard-response","42","74877","0.0-4.0-3.7","614da4dd46a046479740407a","65576f040411c2a4be0341a4","65576f57a03ec068a8fc03f1","238","./stimuli//pack_shapes_diff/cat_2/diff_1/ex_2_1_14.png","arrowright","response","ArrowRight","14","2","1","train","true",""
"","","","","","html-keyboard-response","43","76384","0.0-4.0-4.7","614da4dd46a046479740407a","65576f040411c2a4be0341a4","65576f57a03ec068a8fc03f1","null","<p> <font color=""green"" size=""5vw""> Correct category! </font> </p>","null","feedback","","","","","","","0"
"","","","","","html-keyboard-response","44","77245","0.0-4.0-0.8","614da4dd46a046479740407a","65576f040411c2a4be0341a4","65576f57a03ec068a8fc03f1","861","
            
        <div style=""text-align: center; position: fixed; top: 5vh; left: 40vw;"">
            <div style=""margin:0 auto; width: 20vw; top: 8vh; font-size: 2vw""> 
            <font color=""green""> Bonus : $0 </font>
            </div>
        </div>
    
            <div> Please press any button to continue to the next trial.</div>
        "," ","ITI","","","","","","",""
"","","","","","html-keyboard-response","45","77850","0.0-4.0-1.8","614da4dd46a046479740407a","65576f040411c2a4be0341a4","65576f57a03ec068a8fc03f1","null","
        
        <div style=""text-align: center; position: fixed; top: 5vh; left: 40vw;"">
            <div style=""margin:0 auto; width: 20vw; top: 8vh; font-size: 2vw""> 
            <font color=""green""> Bonus : $0 </font>
            </div>
        </div>
    
        <img class=""stim"" src=./stimuli//pack_shapes_diff/cat_1/diff_1/ex_1_1_3.png></img>
    ","null","stimulus","","","","","","",""
"","","","","","html-keyboard-response","46","78854","0.0-4.0-2.8","614da4dd46a046479740407a","65576f040411c2a4be0341a4","65576f57a03ec068a8fc03f1","null","
        <div style=""text-align: center; position: fixed; top: 5vh; left: 40vw;"">
            <div style=""margin:0 auto; width: 20vw; top: 8vh; font-size: 2vw""> 
            <font color=""green""> Bonus : $0 </font>
            </div>
        </div>
    ","null","","","","","","","",""
"","","","","","html-keyboard-response","47","79140","0.0-4.0-3.8","614da4dd46a046479740407a","65576f040411c2a4be0341a4","65576f57a03ec068a8fc03f1","285","./stimuli//pack_shapes_diff/cat_1/diff_1/ex_1_1_3.png","arrowleft","response","ArrowLeft","3","1","1","train","true",""
"","","","","","html-keyboard-response","48","80644","0.0-4.0-4.8","614da4dd46a046479740407a","65576f040411c2a4be0341a4","65576f57a03ec068a8fc03f1","null","<p> <font color=""green"" size=""5vw""> Correct category! </font> </p>","null","feedback","","","","","","","0"
"","","","","","html-keyboard-response","49","81295","0.0-4.0-0.9","614da4dd46a046479740407a","65576f040411c2a4be0341a4","65576f57a03ec068a8fc03f1","650","
            
        <div style=""text-align: center; position: fixed; top: 5vh; left: 40vw;"">
            <div style=""margin:0 auto; width: 20vw; top: 8vh; font-size: 2vw""> 
            <font color=""green""> Bonus : $0 </font>
            </div>
        </div>
    
            <div> Please press any button to continue to the next trial.</div>
        "," ","ITI","","","","","","",""
"","","","","","html-keyboard-response","50","81901","0.0-4.0-1.9","614da4dd46a046479740407a","65576f040411c2a4be0341a4","65576f57a03ec068a8fc03f1","null","
        
        <div style=""text-align: center; position: fixed; top: 5vh; left: 40vw;"">
            <div style=""margin:0 auto; width: 20vw; top: 8vh; font-size: 2vw""> 
            <font color=""green""> Bonus : $0 </font>
            </div>
        </div>
    
        <img class=""stim"" src=./stimuli//pack_shapes_diff/cat_2/diff_1/ex_2_1_2.png></img>
    ","null","stimulus","","","","","","",""
"","","","","","html-keyboard-response","51","82906","0.0-4.0-2.9","614da4dd46a046479740407a","65576f040411c2a4be0341a4","65576f57a03ec068a8fc03f1","null","
        <div style=""text-align: center; position: fixed; top: 5vh; left: 40vw;"">
            <div style=""margin:0 auto; width: 20vw; top: 8vh; font-size: 2vw""> 
            <font color=""green""> Bonus : $0 </font>
            </div>
        </div>
    ","null","","","","","","","",""
"","","","","","html-keyboard-response","52","83212","0.0-4.0-3.9","614da4dd46a046479740407a","65576f040411c2a4be0341a4","65576f57a03ec068a8fc03f1","305","./stimuli//pack_shapes_diff/cat_2/diff_1/ex_2_1_2.png","arrowright","response","ArrowRight","2","2","1","train","true",""
"","","","","","html-keyboard-response","53","84717","0.0-4.0-4.9","614da4dd46a046479740407a","65576f040411c2a4be0341a4","65576f57a03ec068a8fc03f1","null","<p> <font color=""green"" size=""5vw""> Correct category! </font> </p>","null","feedback","","","","","","","0"
"","","","","","html-keyboard-response","54","91373","0.0-5.0","614da4dd46a046479740407a","65576f040411c2a4be0341a4","65576f57a03ec068a8fc03f1","6655","
            <b> <p> The practice round has finished.</p>
            <b> For the rest of the experiment you will receive a $0.05 bonus for each correct answer!</b>
            <p> Press any key to begin the test. </p>
            "," ","intermission","","","","","","",""
"","","","","","html-keyboard-response","55","93740","0.0-6.0-0.0","614da4dd46a046479740407a","65576f040411c2a4be0341a4","65576f57a03ec068a8fc03f1","2367","
            
        <div style=""text-align: center; position: fixed; top: 5vh; left: 40vw;"">
            <div style=""margin:0 auto; width: 20vw; top: 8vh; font-size: 2vw""> 
            <font color=""green""> Bonus : $0 </font>
            </div>
        </div>
    
            <div> Please press any button to continue to the next trial.</div>
        "," ","ITI","","","","","","",""
"","","","","","html-keyboard-response","56","94344","0.0-6.0-1.0","614da4dd46a046479740407a","65576f040411c2a4be0341a4","65576f57a03ec068a8fc03f1","null","
        
        <div style=""text-align: center; position: fixed; top: 5vh; left: 40vw;"">
            <div style=""margin:0 auto; width: 20vw; top: 8vh; font-size: 2vw""> 
            <font color=""green""> Bonus : $0 </font>
            </div>
        </div>
    
        <img class=""stim"" src=./stimuli//pack_shapes_diff/cat_1/diff_1/ex_1_1_15.png></img>
    ","null","stimulus","","","","","","",""
"","","","","","html-keyboard-response","57","95348","0.0-6.0-2.0","614da4dd46a046479740407a","65576f040411c2a4be0341a4","65576f57a03ec068a8fc03f1","null","
        <div style=""text-align: center; position: fixed; top: 5vh; left: 40vw;"">
            <div style=""margin:0 auto; width: 20vw; top: 8vh; font-size: 2vw""> 
            <font color=""green""> Bonus : $0 </font>
            </div>
        </div>
    ","null","","","","","","","",""
"","","","","","html-keyboard-response","58","95660","0.0-6.0-3.0","614da4dd46a046479740407a","65576f040411c2a4be0341a4","65576f57a03ec068a8fc03f1","311","./stimuli//pack_shapes_diff/cat_1/diff_1/ex_1_1_15.png","arrowleft","response","ArrowLeft","15","1","1","test","true",""
"","","","","","html-keyboard-response","59","97164","0.0-6.0-4.0","614da4dd46a046479740407a","65576f040411c2a4be0341a4","65576f57a03ec068a8fc03f1","null","<p> <font color=""green"" size=""5vw""> Correct category! </font> <br> <br> <font color=""green"" size=""8vw""> + $0.05 </font> </p>","null","feedback","","","","","","","0.05"
"","","","","","html-keyboard-response","60","97992","0.0-6.1-0.1","614da4dd46a046479740407a","65576f040411c2a4be0341a4","65576f57a03ec068a8fc03f1","827","
            
        <div style=""text-align: center; position: fixed; top: 5vh; left: 40vw;"">
            <div style=""margin:0 auto; width: 20vw; top: 8vh; font-size: 2vw""> 
            <font color=""green""> Bonus : $0.05 </font>
            </div>
        </div>
    
            <div> Please press any button to continue to the next trial.</div>
        "," ","ITI","","","","","","",""
"","","","","","html-keyboard-response","61","98597","0.0-6.1-1.1","614da4dd46a046479740407a","65576f040411c2a4be0341a4","65576f57a03ec068a8fc03f1","null","
        
        <div style=""text-align: center; position: fixed; top: 5vh; left: 40vw;"">
            <div style=""margin:0 auto; width: 20vw; top: 8vh; font-size: 2vw""> 
            <font color=""green""> Bonus : $0.05 </font>
            </div>
        </div>
    
        <img class=""stim"" src=./stimuli//pack_shapes_diff/cat_1/diff_1/ex_1_1_5.png></img>
    ","null","stimulus","","","","","","",""
"","","","","","html-keyboard-response","62","99602","0.0-6.1-2.1","614da4dd46a046479740407a","65576f040411c2a4be0341a4","65576f57a03ec068a8fc03f1","null","
        <div style=""text-align: center; position: fixed; top: 5vh; left: 40vw;"">
            <div style=""margin:0 auto; width: 20vw; top: 8vh; font-size: 2vw""> 
            <font color=""green""> Bonus : $0.05 </font>
            </div>
        </div>
    ","null","","","","","","","",""
"","","","","","html-keyboard-response","63","99884","0.0-6.1-3.1","614da4dd46a046479740407a","65576f040411c2a4be0341a4","65576f57a03ec068a8fc03f1","282","./stimuli//pack_shapes_diff/cat_1/diff_1/ex_1_1_5.png","arrowleft","response","ArrowLeft","5","1","1","test","true",""
"","","","","","html-keyboard-response","64","101389","0.0-6.1-4.1","614da4dd46a046479740407a","65576f040411c2a4be0341a4","65576f57a03ec068a8fc03f1","null","<p> <font color=""green"" size=""5vw""> Correct category! </font> <br> <br> <font color=""green"" size=""8vw""> + $0.05 </font> </p>","null","feedback","","","","","","","0.1"
"","","","","","html-keyboard-response","65","102018","0.0-6.2-0.2","614da4dd46a046479740407a","65576f040411c2a4be0341a4","65576f57a03ec068a8fc03f1","628","
            
        <div style=""text-align: center; position: fixed; top: 5vh; left: 40vw;"">
            <div style=""margin:0 auto; width: 20vw; top: 8vh; font-size: 2vw""> 
            <font color=""green""> Bonus : $0.1 </font>
            </div>
        </div>
    
            <div> Please press any button to continue to the next trial.</div>
        "," ","ITI","","","","","","",""
"","","","","","html-keyboard-response","66","102622","0.0-6.2-1.2","614da4dd46a046479740407a","65576f040411c2a4be0341a4","65576f57a03ec068a8fc03f1","null","
        
        <div style=""text-align: center; position: fixed; top: 5vh; left: 40vw;"">
            <div style=""margin:0 auto; width: 20vw; top: 8vh; font-size: 2vw""> 
            <font color=""green""> Bonus : $0.1 </font>
            </div>
        </div>
    
        <img class=""stim"" src=./stimuli//pack_shapes_diff/cat_2/diff_1/ex_2_1_10.png></img>
    ","null","stimulus","","","","","","",""
"","","","","","html-keyboard-response","67","103628","0.0-6.2-2.2","614da4dd46a046479740407a","65576f040411c2a4be0341a4","65576f57a03ec068a8fc03f1","null","
        <div style=""text-align: center; position: fixed; top: 5vh; left: 40vw;"">
            <div style=""margin:0 auto; width: 20vw; top: 8vh; font-size: 2vw""> 
            <font color=""green""> Bonus : $0.1 </font>
            </div>
        </div>
    ","null","","","","","","","",""
"","","","","","html-keyboard-response","68","104661","0.0-6.2-3.2","614da4dd46a046479740407a","65576f040411c2a4be0341a4","65576f57a03ec068a8fc03f1","1032","./stimuli//pack_shapes_diff/cat_2/diff_1/ex_2_1_10.png","arrowright","response","ArrowRight","10","2","1","test","true",""
"","","","","","html-keyboard-response","69","104874","0.0-6.2-4.2","614da4dd46a046479740407a","65576f040411c2a4be0341a4","65576f57a03ec068a8fc03f1","210","<p> <font color=""green"" size=""5vw""> Correct category! </font> <br> <br> <font color=""green"" size=""8vw""> + $0.05 </font> </p>","arrowright","feedback","","","","","","","0.15"
"","","","","","html-keyboard-response","70","105612","0.0-6.3-0.3","614da4dd46a046479740407a","65576f040411c2a4be0341a4","65576f57a03ec068a8fc03f1","738","
            
        <div style=""text-align: center; position: fixed; top: 5vh; left: 40vw;"">
            <div style=""margin:0 auto; width: 20vw; top: 8vh; font-size: 2vw""> 
            <font color=""green""> Bonus : $0.15 </font>
            </div>
        </div>
    
            <div> Please press any button to continue to the next trial.</div>
        "," ","ITI","","","","","","",""
"","","","","","html-keyboard-response","71","106221","0.0-6.3-1.3","614da4dd46a046479740407a","65576f040411c2a4be0341a4","65576f57a03ec068a8fc03f1","null","
        
        <div style=""text-align: center; position: fixed; top: 5vh; left: 40vw;"">
            <div style=""margin:0 auto; width: 20vw; top: 8vh; font-size: 2vw""> 
            <font color=""green""> Bonus : $0.15 </font>
            </div>
        </div>
    
        <img class=""stim"" src=./stimuli//pack_shapes_diff/cat_2/diff_1/ex_2_1_16.png></img>
    ","null","stimulus","","","","","","",""
"","","","","","html-keyboard-response","72","107227","0.0-6.3-2.3","614da4dd46a046479740407a","65576f040411c2a4be0341a4","65576f57a03ec068a8fc03f1","null","
        <div style=""text-align: center; position: fixed; top: 5vh; left: 40vw;"">
            <div style=""margin:0 auto; width: 20vw; top: 8vh; font-size: 2vw""> 
            <font color=""green""> Bonus : $0.15 </font>
            </div>
        </div>
    ","null","","","","","","","",""
"","","","","","html-keyboard-response","73","107620","0.0-6.3-3.3","614da4dd46a046479740407a","65576f040411c2a4be0341a4","65576f57a03ec068a8fc03f1","392","./stimuli//pack_shapes_diff/cat_2/diff_1/ex_2_1_16.png","arrowright","response","ArrowRight","16","2","1","test","true",""
"","","","","","html-keyboard-response","74","109126","0.0-6.3-4.3","614da4dd46a046479740407a","65576f040411c2a4be0341a4","65576f57a03ec068a8fc03f1","null","<p> <font color=""green"" size=""5vw""> Correct category! </font> <br> <br> <font color=""green"" size=""8vw""> + $0.05 </font> </p>","null","feedback","","","","","","","0.2"
"","","","","","html-keyboard-response","75","109720","0.0-6.4-0.4","614da4dd46a046479740407a","65576f040411c2a4be0341a4","65576f57a03ec068a8fc03f1","593","
            
        <div style=""text-align: center; position: fixed; top: 5vh; left: 40vw;"">
            <div style=""margin:0 auto; width: 20vw; top: 8vh; font-size: 2vw""> 
            <font color=""green""> Bonus : $0.2 </font>
            </div>
        </div>
    
            <div> Please press any button to continue to the next trial.</div>
        "," ","ITI","","","","","","",""
"","","","","","html-keyboard-response","76","110326","0.0-6.4-1.4","614da4dd46a046479740407a","65576f040411c2a4be0341a4","65576f57a03ec068a8fc03f1","null","
        
        <div style=""text-align: center; position: fixed; top: 5vh; left: 40vw;"">
            <div style=""margin:0 auto; width: 20vw; top: 8vh; font-size: 2vw""> 
            <font color=""green""> Bonus : $0.2 </font>
            </div>
        </div>
    
        <img class=""stim"" src=./stimuli//pack_shapes_diff/cat_2/diff_1/ex_2_1_8.png></img>
    ","null","stimulus","","","","","","",""
"","","","","","html-keyboard-response","77","111330","0.0-6.4-2.4","614da4dd46a046479740407a","65576f040411c2a4be0341a4","65576f57a03ec068a8fc03f1","null","
        <div style=""text-align: center; position: fixed; top: 5vh; left: 40vw;"">
            <div style=""margin:0 auto; width: 20vw; top: 8vh; font-size: 2vw""> 
            <font color=""green""> Bonus : $0.2 </font>
            </div>
        </div>
    ","null","","","","","","","",""
"","","","","","html-keyboard-response","78","111689","0.0-6.4-3.4","614da4dd46a046479740407a","65576f040411c2a4be0341a4","65576f57a03ec068a8fc03f1","358","./stimuli//pack_shapes_diff/cat_2/diff_1/ex_2_1_8.png","arrowright","response","ArrowRight","8","2","1","test","true",""
"","","","","","html-keyboard-response","79","113190","0.0-6.4-4.4","614da4dd46a046479740407a","65576f040411c2a4be0341a4","65576f57a03ec068a8fc03f1","null","<p> <font color=""green"" size=""5vw""> Correct category! </font> <br> <br> <font color=""green"" size=""8vw""> + $0.05 </font> </p>","null","feedback","","","","","","","0.25"
"","","","","","html-keyboard-response","80","113784","0.0-6.5-0.5","614da4dd46a046479740407a","65576f040411c2a4be0341a4","65576f57a03ec068a8fc03f1","593","
            
        <div style=""text-align: center; position: fixed; top: 5vh; left: 40vw;"">
            <div style=""margin:0 auto; width: 20vw; top: 8vh; font-size: 2vw""> 
            <font color=""green""> Bonus : $0.25 </font>
            </div>
        </div>
    
            <div> Please press any button to continue to the next trial.</div>
        "," ","ITI","","","","","","",""
"","","","","","html-keyboard-response","81","114388","0.0-6.5-1.5","614da4dd46a046479740407a","65576f040411c2a4be0341a4","65576f57a03ec068a8fc03f1","null","
        
        <div style=""text-align: center; position: fixed; top: 5vh; left: 40vw;"">
            <div style=""margin:0 auto; width: 20vw; top: 8vh; font-size: 2vw""> 
            <font color=""green""> Bonus : $0.25 </font>
            </div>
        </div>
    
        <img class=""stim"" src=./stimuli//pack_shapes_diff/cat_1/diff_2/ex_1_2_12.png></img>
    ","null","stimulus","","","","","","",""
"","","","","","html-keyboard-response","82","115390","0.0-6.5-2.5","614da4dd46a046479740407a","65576f040411c2a4be0341a4","65576f57a03ec068a8fc03f1","null","
        <div style=""text-align: center; position: fixed; top: 5vh; left: 40vw;"">
            <div style=""margin:0 auto; width: 20vw; top: 8vh; font-size: 2vw""> 
            <font color=""green""> Bonus : $0.25 </font>
            </div>
        </div>
    ","null","","","","","","","",""
"","","","","","html-keyboard-response","83","115678","0.0-6.5-3.5","614da4dd46a046479740407a","65576f040411c2a4be0341a4","65576f57a03ec068a8fc03f1","287","./stimuli//pack_shapes_diff/cat_1/diff_2/ex_1_2_12.png","arrowleft","response","ArrowLeft","12","1","2","test","true",""
"","","","","","html-keyboard-response","84","117181","0.0-6.5-4.5","614da4dd46a046479740407a","65576f040411c2a4be0341a4","65576f57a03ec068a8fc03f1","null","<p> <font color=""green"" size=""5vw""> Correct category! </font> <br> <br> <font color=""green"" size=""8vw""> + $0.05 </font> </p>","null","feedback","","","","","","","0.3"
"","","","","","html-keyboard-response","85","117495","0.0-6.6-0.6","614da4dd46a046479740407a","65576f040411c2a4be0341a4","65576f57a03ec068a8fc03f1","313","
            
        <div style=""text-align: center; position: fixed; top: 5vh; left: 40vw;"">
            <div style=""margin:0 auto; width: 20vw; top: 8vh; font-size: 2vw""> 
            <font color=""green""> Bonus : $0.3 </font>
            </div>
        </div>
    
            <div> Please press any button to continue to the next trial.</div>
        "," ","ITI","","","","","","",""
"","","","","","html-keyboard-response","86","118098","0.0-6.6-1.6","614da4dd46a046479740407a","65576f040411c2a4be0341a4","65576f57a03ec068a8fc03f1","null","
        
        <div style=""text-align: center; position: fixed; top: 5vh; left: 40vw;"">
            <div style=""margin:0 auto; width: 20vw; top: 8vh; font-size: 2vw""> 
            <font color=""green""> Bonus : $0.3 </font>
            </div>
        </div>
    
        <img class=""stim"" src=./stimuli//pack_shapes_diff/cat_1/diff_2/ex_1_2_12.png></img>
    ","null","stimulus","","","","","","",""
"","","","","","html-keyboard-response","87","119105","0.0-6.6-2.6","614da4dd46a046479740407a","65576f040411c2a4be0341a4","65576f57a03ec068a8fc03f1","null","
        <div style=""text-align: center; position: fixed; top: 5vh; left: 40vw;"">
            <div style=""margin:0 auto; width: 20vw; top: 8vh; font-size: 2vw""> 
            <font color=""green""> Bonus : $0.3 </font>
            </div>
        </div>
    ","null","","","","","","","",""
"","","","","","html-keyboard-response","88","119429","0.0-6.6-3.6","614da4dd46a046479740407a","65576f040411c2a4be0341a4","65576f57a03ec068a8fc03f1","322","./stimuli//pack_shapes_diff/cat_1/diff_2/ex_1_2_12.png","arrowleft","response","ArrowLeft","12","1","2","test","true",""
"","","","","","html-keyboard-response","89","120935","0.0-6.6-4.6","614da4dd46a046479740407a","65576f040411c2a4be0341a4","65576f57a03ec068a8fc03f1","null","<p> <font color=""green"" size=""5vw""> Correct category! </font> <br> <br> <font color=""green"" size=""8vw""> + $0.05 </font> </p>","null","feedback","","","","","","","0.35"
"","","","","","html-keyboard-response","90","121814","0.0-6.7-0.7","614da4dd46a046479740407a","65576f040411c2a4be0341a4","65576f57a03ec068a8fc03f1","878","
            
        <div style=""text-align: center; position: fixed; top: 5vh; left: 40vw;"">
            <div style=""margin:0 auto; width: 20vw; top: 8vh; font-size: 2vw""> 
            <font color=""green""> Bonus : $0.35 </font>
            </div>
        </div>
    
            <div> Please press any button to continue to the next trial.</div>
        "," ","ITI","","","","","","",""
"","","","","","html-keyboard-response","91","122417","0.0-6.7-1.7","614da4dd46a046479740407a","65576f040411c2a4be0341a4","65576f57a03ec068a8fc03f1","null","
        
        <div style=""text-align: center; position: fixed; top: 5vh; left: 40vw;"">
            <div style=""margin:0 auto; width: 20vw; top: 8vh; font-size: 2vw""> 
            <font color=""green""> Bonus : $0.35 </font>
            </div>
        </div>
    
        <img class=""stim"" src=./stimuli//pack_shapes_diff/cat_1/diff_2/ex_1_2_4.png></img>
    ","null","stimulus","","","","","","",""
"","","","","","html-keyboard-response","92","123420","0.0-6.7-2.7","614da4dd46a046479740407a","65576f040411c2a4be0341a4","65576f57a03ec068a8fc03f1","null","
        <div style=""text-align: center; position: fixed; top: 5vh; left: 40vw;"">
            <div style=""margin:0 auto; width: 20vw; top: 8vh; font-size: 2vw""> 
            <font color=""green""> Bonus : $0.35 </font>
            </div>
        </div>
    ","null","","","","","","","",""
"","","","","","html-keyboard-response","93","123691","0.0-6.7-3.7","614da4dd46a046479740407a","65576f040411c2a4be0341a4","65576f57a03ec068a8fc03f1","270","./stimuli//pack_shapes_diff/cat_1/diff_2/ex_1_2_4.png","arrowleft","response","ArrowLeft","4","1","2","test","true",""
"","","","","","html-keyboard-response","94","125193","0.0-6.7-4.7","614da4dd46a046479740407a","65576f040411c2a4be0341a4","65576f57a03ec068a8fc03f1","null","<p> <font color=""green"" size=""5vw""> Correct category! </font> <br> <br> <font color=""green"" size=""8vw""> + $0.05 </font> </p>","null","feedback","","","","","","","0.4"
"","","","","","html-keyboard-response","95","125845","0.0-6.8-0.8","614da4dd46a046479740407a","65576f040411c2a4be0341a4","65576f57a03ec068a8fc03f1","651","
            
        <div style=""text-align: center; position: fixed; top: 5vh; left: 40vw;"">
            <div style=""margin:0 auto; width: 20vw; top: 8vh; font-size: 2vw""> 
            <font color=""green""> Bonus : $0.4 </font>
            </div>
        </div>
    
            <div> Please press any button to continue to the next trial.</div>
        "," ","ITI","","","","","","",""
"","","","","","html-keyboard-response","96","126451","0.0-6.8-1.8","614da4dd46a046479740407a","65576f040411c2a4be0341a4","65576f57a03ec068a8fc03f1","null","
        
        <div style=""text-align: center; position: fixed; top: 5vh; left: 40vw;"">
            <div style=""margin:0 auto; width: 20vw; top: 8vh; font-size: 2vw""> 
            <font color=""green""> Bonus : $0.4 </font>
            </div>
        </div>
    
        <img class=""stim"" src=./stimuli//pack_shapes_diff/cat_2/diff_2/ex_2_2_1.png></img>
    ","null","stimulus","","","","","","",""
"","","","","","html-keyboard-response","97","127454","0.0-6.8-2.8","614da4dd46a046479740407a","65576f040411c2a4be0341a4","65576f57a03ec068a8fc03f1","null","
        <div style=""text-align: center; position: fixed; top: 5vh; left: 40vw;"">
            <div style=""margin:0 auto; width: 20vw; top: 8vh; font-size: 2vw""> 
            <font color=""green""> Bonus : $0.4 </font>
            </div>
        </div>
    ","null","","","","","","","",""
"","","","","","html-keyboard-response","98","127728","0.0-6.8-3.8","614da4dd46a046479740407a","65576f040411c2a4be0341a4","65576f57a03ec068a8fc03f1","273","./stimuli//pack_shapes_diff/cat_2/diff_2/ex_2_2_1.png","arrowright","response","ArrowRight","1","2","2","test","true",""
"","","","","","html-keyboard-response","99","129232","0.0-6.8-4.8","614da4dd46a046479740407a","65576f040411c2a4be0341a4","65576f57a03ec068a8fc03f1","null","<p> <font color=""green"" size=""5vw""> Correct category! </font> <br> <br> <font color=""green"" size=""8vw""> + $0.05 </font> </p>","null","feedback","","","","","","","0.45"
"","","","","","html-keyboard-response","100","129787","0.0-6.9-0.9","614da4dd46a046479740407a","65576f040411c2a4be0341a4","65576f57a03ec068a8fc03f1","554","
            
        <div style=""text-align: center; position: fixed; top: 5vh; left: 40vw;"">
            <div style=""margin:0 auto; width: 20vw; top: 8vh; font-size: 2vw""> 
            <font color=""green""> Bonus : $0.45 </font>
            </div>
        </div>
    
            <div> Please press any button to continue to the next trial.</div>
        "," ","ITI","","","","","","",""
"","","","","","html-keyboard-response","101","130389","0.0-6.9-1.9","614da4dd46a046479740407a","65576f040411c2a4be0341a4","65576f57a03ec068a8fc03f1","null","
        
        <div style=""text-align: center; position: fixed; top: 5vh; left: 40vw;"">
            <div style=""margin:0 auto; width: 20vw; top: 8vh; font-size: 2vw""> 
            <font color=""green""> Bonus : $0.45 </font>
            </div>
        </div>
    
        <img class=""stim"" src=./stimuli//pack_shapes_diff/cat_1/diff_2/ex_1_2_8.png></img>
    ","null","stimulus","","","","","","",""
"","","","","","html-keyboard-response","102","131390","0.0-6.9-2.9","614da4dd46a046479740407a","65576f040411c2a4be0341a4","65576f57a03ec068a8fc03f1","null","
        <div style=""text-align: center; position: fixed; top: 5vh; left: 40vw;"">
            <div style=""margin:0 auto; width: 20vw; top: 8vh; font-size: 2vw""> 
            <font color=""green""> Bonus : $0.45 </font>
            </div>
        </div>
    ","null","","","","","","","",""
"","","","","","html-keyboard-response","103","131676","0.0-6.9-3.9","614da4dd46a046479740407a","65576f040411c2a4be0341a4","65576f57a03ec068a8fc03f1","285","./stimuli//pack_shapes_diff/cat_1/diff_2/ex_1_2_8.png","arrowleft","response","ArrowLeft","8","1","2","test","true",""
"","","","","","html-keyboard-response","104","133182","0.0-6.9-4.9","614da4dd46a046479740407a","65576f040411c2a4be0341a4","65576f57a03ec068a8fc03f1","null","<p> <font color=""green"" size=""5vw""> Correct category! </font> <br> <br> <font color=""green"" size=""8vw""> + $0.05 </font> </p>","null","feedback","","","","","","","0.5"
"","","","","","html-keyboard-response","105","134330","0.0-6.10-0.10","614da4dd46a046479740407a","65576f040411c2a4be0341a4","65576f57a03ec068a8fc03f1","1147","
            
        <div style=""text-align: center; position: fixed; top: 5vh; left: 40vw;"">
            <div style=""margin:0 auto; width: 20vw; top: 8vh; font-size: 2vw""> 
            <font color=""green""> Bonus : $0.5 </font>
            </div>
        </div>
    
            <div> Please press any button to continue to the next trial.</div>
        "," ","ITI","","","","","","",""
"","","","","","html-keyboard-response","106","134934","0.0-6.10-1.10","614da4dd46a046479740407a","65576f040411c2a4be0341a4","65576f57a03ec068a8fc03f1","null","
        
        <div style=""text-align: center; position: fixed; top: 5vh; left: 40vw;"">
            <div style=""margin:0 auto; width: 20vw; top: 8vh; font-size: 2vw""> 
            <font color=""green""> Bonus : $0.5 </font>
            </div>
        </div>
    
        <img class=""stim"" src=./stimuli//pack_shapes_diff/cat_2/diff_3/ex_2_3_14.png></img>
    ","null","stimulus","","","","","","",""
"","","","","","html-keyboard-response","107","135938","0.0-6.10-2.10","614da4dd46a046479740407a","65576f040411c2a4be0341a4","65576f57a03ec068a8fc03f1","null","
        <div style=""text-align: center; position: fixed; top: 5vh; left: 40vw;"">
            <div style=""margin:0 auto; width: 20vw; top: 8vh; font-size: 2vw""> 
            <font color=""green""> Bonus : $0.5 </font>
            </div>
        </div>
    ","null","","","","","","","",""
"","","","","","html-keyboard-response","108","136284","0.0-6.10-3.10","614da4dd46a046479740407a","65576f040411c2a4be0341a4","65576f57a03ec068a8fc03f1","345","./stimuli//pack_shapes_diff/cat_2/diff_3/ex_2_3_14.png","arrowleft","response","ArrowRight","14","2","3","test","false",""
"","","","","","html-keyboard-response","109","137788","0.0-6.10-4.10","614da4dd46a046479740407a","65576f040411c2a4be0341a4","65576f57a03ec068a8fc03f1","null","<p> <font color=""red"" size=""5vw""> Wrong category! </font> </p>","null","feedback","","","","","","","0.5"
"","","","","","html-keyboard-response","110","138201","0.0-6.11-0.11","614da4dd46a046479740407a","65576f040411c2a4be0341a4","65576f57a03ec068a8fc03f1","412","
            
        <div style=""text-align: center; position: fixed; top: 5vh; left: 40vw;"">
            <div style=""margin:0 auto; width: 20vw; top: 8vh; font-size: 2vw""> 
            <font color=""green""> Bonus : $0.5 </font>
            </div>
        </div>
    
            <div> Please press any button to continue to the next trial.</div>
        "," ","ITI","","","","","","",""
"","","","","","html-keyboard-response","111","138804","0.0-6.11-1.11","614da4dd46a046479740407a","65576f040411c2a4be0341a4","65576f57a03ec068a8fc03f1","null","
        
        <div style=""text-align: center; position: fixed; top: 5vh; left: 40vw;"">
            <div style=""margin:0 auto; width: 20vw; top: 8vh; font-size: 2vw""> 
            <font color=""green""> Bonus : $0.5 </font>
            </div>
        </div>
    
        <img class=""stim"" src=./stimuli//pack_shapes_diff/cat_2/diff_3/ex_2_3_3.png></img>
    ","null","stimulus","","","","","","",""
"","","","","","html-keyboard-response","112","139806","0.0-6.11-2.11","614da4dd46a046479740407a","65576f040411c2a4be0341a4","65576f57a03ec068a8fc03f1","null","
        <div style=""text-align: center; position: fixed; top: 5vh; left: 40vw;"">
            <div style=""margin:0 auto; width: 20vw; top: 8vh; font-size: 2vw""> 
            <font color=""green""> Bonus : $0.5 </font>
            </div>
        </div>
    ","null","","","","","","","",""
"","","","","","html-keyboard-response","113","140124","0.0-6.11-3.11","614da4dd46a046479740407a","65576f040411c2a4be0341a4","65576f57a03ec068a8fc03f1","318","./stimuli//pack_shapes_diff/cat_2/diff_3/ex_2_3_3.png","arrowright","response","ArrowRight","3","2","3","test","true",""
"","","","","","html-keyboard-response","114","141629","0.0-6.11-4.11","614da4dd46a046479740407a","65576f040411c2a4be0341a4","65576f57a03ec068a8fc03f1","null","<p> <font color=""green"" size=""5vw""> Correct category! </font> <br> <br> <font color=""green"" size=""8vw""> + $0.05 </font> </p>","null","feedback","","","","","","","0.55"
"","","","","","html-keyboard-response","115","142543","0.0-6.12-0.12","614da4dd46a046479740407a","65576f040411c2a4be0341a4","65576f57a03ec068a8fc03f1","913","
            
        <div style=""text-align: center; position: fixed; top: 5vh; left: 40vw;"">
            <div style=""margin:0 auto; width: 20vw; top: 8vh; font-size: 2vw""> 
            <font color=""green""> Bonus : $0.55 </font>
            </div>
        </div>
    
            <div> Please press any button to continue to the next trial.</div>
        "," ","ITI","","","","","","",""
"","","","","","html-keyboard-response","116","143147","0.0-6.12-1.12","614da4dd46a046479740407a","65576f040411c2a4be0341a4","65576f57a03ec068a8fc03f1","null","
        
        <div style=""text-align: center; position: fixed; top: 5vh; left: 40vw;"">
            <div style=""margin:0 auto; width: 20vw; top: 8vh; font-size: 2vw""> 
            <font color=""green""> Bonus : $0.55 </font>
            </div>
        </div>
    
        <img class=""stim"" src=./stimuli//pack_shapes_diff/cat_2/diff_3/ex_2_3_3.png></img>
    ","null","stimulus","","","","","","",""
"","","","","","html-keyboard-response","117","144152","0.0-6.12-2.12","614da4dd46a046479740407a","65576f040411c2a4be0341a4","65576f57a03ec068a8fc03f1","null","
        <div style=""text-align: center; position: fixed; top: 5vh; left: 40vw;"">
            <div style=""margin:0 auto; width: 20vw; top: 8vh; font-size: 2vw""> 
            <font color=""green""> Bonus : $0.55 </font>
            </div>
        </div>
    ","null","","","","","","","",""
"","","","","","html-keyboard-response","118","144656","0.0-6.12-3.12","614da4dd46a046479740407a","65576f040411c2a4be0341a4","65576f57a03ec068a8fc03f1","503","./stimuli//pack_shapes_diff/cat_2/diff_3/ex_2_3_3.png","arrowright","response","ArrowRight","3","2","3","test","true",""
"","","","","","html-keyboard-response","119","146158","0.0-6.12-4.12","614da4dd46a046479740407a","65576f040411c2a4be0341a4","65576f57a03ec068a8fc03f1","null","<p> <font color=""green"" size=""5vw""> Correct category! </font> <br> <br> <font color=""green"" size=""8vw""> + $0.05 </font> </p>","null","feedback","","","","","","","0.6"
"","","","","","html-keyboard-response","120","146597","0.0-6.13-0.13","614da4dd46a046479740407a","65576f040411c2a4be0341a4","65576f57a03ec068a8fc03f1","439","
            
        <div style=""text-align: center; position: fixed; top: 5vh; left: 40vw;"">
            <div style=""margin:0 auto; width: 20vw; top: 8vh; font-size: 2vw""> 
            <font color=""green""> Bonus : $0.6 </font>
            </div>
        </div>
    
            <div> Please press any button to continue to the next trial.</div>
        "," ","ITI","","","","","","",""
"","","","","","html-keyboard-response","121","147201","0.0-6.13-1.13","614da4dd46a046479740407a","65576f040411c2a4be0341a4","65576f57a03ec068a8fc03f1","null","
        
        <div style=""text-align: center; position: fixed; top: 5vh; left: 40vw;"">
            <div style=""margin:0 auto; width: 20vw; top: 8vh; font-size: 2vw""> 
            <font color=""green""> Bonus : $0.6 </font>
            </div>
        </div>
    
        <img class=""stim"" src=./stimuli//pack_shapes_diff/cat_1/diff_3/ex_1_3_2.png></img>
    ","null","stimulus","","","","","","",""
"","","","","","html-keyboard-response","122","148206","0.0-6.13-2.13","614da4dd46a046479740407a","65576f040411c2a4be0341a4","65576f57a03ec068a8fc03f1","null","
        <div style=""text-align: center; position: fixed; top: 5vh; left: 40vw;"">
            <div style=""margin:0 auto; width: 20vw; top: 8vh; font-size: 2vw""> 
            <font color=""green""> Bonus : $0.6 </font>
            </div>
        </div>
    ","null","","","","","","","",""
"","","","","","html-keyboard-response","123","148502","0.0-6.13-3.13","614da4dd46a046479740407a","65576f040411c2a4be0341a4","65576f57a03ec068a8fc03f1","296","./stimuli//pack_shapes_diff/cat_1/diff_3/ex_1_3_2.png","arrowleft","response","ArrowLeft","2","1","3","test","true",""
"","","","","","html-keyboard-response","124","150005","0.0-6.13-4.13","614da4dd46a046479740407a","65576f040411c2a4be0341a4","65576f57a03ec068a8fc03f1","null","<p> <font color=""green"" size=""5vw""> Correct category! </font> <br> <br> <font color=""green"" size=""8vw""> + $0.05 </font> </p>","null","feedback","","","","","","","0.65"
"","","","","","html-keyboard-response","125","150310","0.0-6.14-0.14","614da4dd46a046479740407a","65576f040411c2a4be0341a4","65576f57a03ec068a8fc03f1","305","
            
        <div style=""text-align: center; position: fixed; top: 5vh; left: 40vw;"">
            <div style=""margin:0 auto; width: 20vw; top: 8vh; font-size: 2vw""> 
            <font color=""green""> Bonus : $0.65 </font>
            </div>
        </div>
    
            <div> Please press any button to continue to the next trial.</div>
        "," ","ITI","","","","","","",""
"","","","","","html-keyboard-response","126","150914","0.0-6.14-1.14","614da4dd46a046479740407a","65576f040411c2a4be0341a4","65576f57a03ec068a8fc03f1","null","
        
        <div style=""text-align: center; position: fixed; top: 5vh; left: 40vw;"">
            <div style=""margin:0 auto; width: 20vw; top: 8vh; font-size: 2vw""> 
            <font color=""green""> Bonus : $0.65 </font>
            </div>
        </div>
    
        <img class=""stim"" src=./stimuli//pack_shapes_diff/cat_2/diff_3/ex_2_3_14.png></img>
    ","null","stimulus","","","","","","",""
"","","","","","html-keyboard-response","127","151916","0.0-6.14-2.14","614da4dd46a046479740407a","65576f040411c2a4be0341a4","65576f57a03ec068a8fc03f1","null","
        <div style=""text-align: center; position: fixed; top: 5vh; left: 40vw;"">
            <div style=""margin:0 auto; width: 20vw; top: 8vh; font-size: 2vw""> 
            <font color=""green""> Bonus : $0.65 </font>
            </div>
        </div>
    ","null","","","","","","","",""
"","","","","","html-keyboard-response","128","152203","0.0-6.14-3.14","614da4dd46a046479740407a","65576f040411c2a4be0341a4","65576f57a03ec068a8fc03f1","286","./stimuli//pack_shapes_diff/cat_2/diff_3/ex_2_3_14.png","arrowright","response","ArrowRight","14","2","3","test","true",""
"","","","","","html-keyboard-response","129","153708","0.0-6.14-4.14","614da4dd46a046479740407a","65576f040411c2a4be0341a4","65576f57a03ec068a8fc03f1","null","<p> <font color=""green"" size=""5vw""> Correct category! </font> <br> <br> <font color=""green"" size=""8vw""> + $0.05 </font> </p>","null","feedback","","","","","","","0.7"
"","","","","","html-keyboard-response","130","154073","0.0-6.15-0.15","614da4dd46a046479740407a","65576f040411c2a4be0341a4","65576f57a03ec068a8fc03f1","362","
            
        <div style=""text-align: center; position: fixed; top: 5vh; left: 40vw;"">
            <div style=""margin:0 auto; width: 20vw; top: 8vh; font-size: 2vw""> 
            <font color=""green""> Bonus : $0.7 </font>
            </div>
        </div>
    
            <div> Please press any button to continue to the next trial.</div>
        "," ","ITI","","","","","","",""
"","","","","","html-keyboard-response","131","154680","0.0-6.15-1.15","614da4dd46a046479740407a","65576f040411c2a4be0341a4","65576f57a03ec068a8fc03f1","null","
        
        <div style=""text-align: center; position: fixed; top: 5vh; left: 40vw;"">
            <div style=""margin:0 auto; width: 20vw; top: 8vh; font-size: 2vw""> 
            <font color=""green""> Bonus : $0.7 </font>
            </div>
        </div>
    
        <img class=""stim"" src=./stimuli//pack_shapes_diff/cat_2/diff_4/ex_2_4_4.png></img>
    ","null","stimulus","","","","","","",""
"","","","","","html-keyboard-response","132","155683","0.0-6.15-2.15","614da4dd46a046479740407a","65576f040411c2a4be0341a4","65576f57a03ec068a8fc03f1","null","
        <div style=""text-align: center; position: fixed; top: 5vh; left: 40vw;"">
            <div style=""margin:0 auto; width: 20vw; top: 8vh; font-size: 2vw""> 
            <font color=""green""> Bonus : $0.7 </font>
            </div>
        </div>
    ","null","","","","","","","",""
"","","","","","html-keyboard-response","133","155998","0.0-6.15-3.15","614da4dd46a046479740407a","65576f040411c2a4be0341a4","65576f57a03ec068a8fc03f1","314","./stimuli//pack_shapes_diff/cat_2/diff_4/ex_2_4_4.png","arrowright","response","ArrowRight","4","2","4","test","true",""
"","","","","","html-keyboard-response","134","157500","0.0-6.15-4.15","614da4dd46a046479740407a","65576f040411c2a4be0341a4","65576f57a03ec068a8fc03f1","null","<p> <font color=""green"" size=""5vw""> Correct category! </font> <br> <br> <font color=""green"" size=""8vw""> + $0.05 </font> </p>","null","feedback","","","","","","","0.75"
"","","","","","html-keyboard-response","135","158147","0.0-6.16-0.16","614da4dd46a046479740407a","65576f040411c2a4be0341a4","65576f57a03ec068a8fc03f1","646","
            
        <div style=""text-align: center; position: fixed; top: 5vh; left: 40vw;"">
            <div style=""margin:0 auto; width: 20vw; top: 8vh; font-size: 2vw""> 
            <font color=""green""> Bonus : $0.75 </font>
            </div>
        </div>
    
            <div> Please press any button to continue to the next trial.</div>
        "," ","ITI","","","","","","",""
"","","","","","html-keyboard-response","136","158750","0.0-6.16-1.16","614da4dd46a046479740407a","65576f040411c2a4be0341a4","65576f57a03ec068a8fc03f1","null","
        
        <div style=""text-align: center; position: fixed; top: 5vh; left: 40vw;"">
            <div style=""margin:0 auto; width: 20vw; top: 8vh; font-size: 2vw""> 
            <font color=""green""> Bonus : $0.75 </font>
            </div>
        </div>
    
        <img class=""stim"" src=./stimuli//pack_shapes_diff/cat_1/diff_4/ex_1_4_15.png></img>
    ","null","stimulus","","","","","","",""
"","","","","","html-keyboard-response","137","159755","0.0-6.16-2.16","614da4dd46a046479740407a","65576f040411c2a4be0341a4","65576f57a03ec068a8fc03f1","null","
        <div style=""text-align: center; position: fixed; top: 5vh; left: 40vw;"">
            <div style=""margin:0 auto; width: 20vw; top: 8vh; font-size: 2vw""> 
            <font color=""green""> Bonus : $0.75 </font>
            </div>
        </div>
    ","null","","","","","","","",""
"","","","","","html-keyboard-response","138","160036","0.0-6.16-3.16","614da4dd46a046479740407a","65576f040411c2a4be0341a4","65576f57a03ec068a8fc03f1","281","./stimuli//pack_shapes_diff/cat_1/diff_4/ex_1_4_15.png","arrowleft","response","ArrowLeft","15","1","4","test","true",""
"","","","","","html-keyboard-response","139","161542","0.0-6.16-4.16","614da4dd46a046479740407a","65576f040411c2a4be0341a4","65576f57a03ec068a8fc03f1","null","<p> <font color=""green"" size=""5vw""> Correct category! </font> <br> <br> <font color=""green"" size=""8vw""> + $0.05 </font> </p>","null","feedback","","","","","","","0.8"
"","","","","","html-keyboard-response","140","161834","0.0-6.17-0.17","614da4dd46a046479740407a","65576f040411c2a4be0341a4","65576f57a03ec068a8fc03f1","291","
            
        <div style=""text-align: center; position: fixed; top: 5vh; left: 40vw;"">
            <div style=""margin:0 auto; width: 20vw; top: 8vh; font-size: 2vw""> 
            <font color=""green""> Bonus : $0.8 </font>
            </div>
        </div>
    
            <div> Please press any button to continue to the next trial.</div>
        "," ","ITI","","","","","","",""
"","","","","","html-keyboard-response","141","162438","0.0-6.17-1.17","614da4dd46a046479740407a","65576f040411c2a4be0341a4","65576f57a03ec068a8fc03f1","null","
        
        <div style=""text-align: center; position: fixed; top: 5vh; left: 40vw;"">
            <div style=""margin:0 auto; width: 20vw; top: 8vh; font-size: 2vw""> 
            <font color=""green""> Bonus : $0.8 </font>
            </div>
        </div>
    
        <img class=""stim"" src=./stimuli//pack_shapes_diff/cat_1/diff_4/ex_1_4_9.png></img>
    ","null","stimulus","","","","","","",""
"","","","","","html-keyboard-response","142","163442","0.0-6.17-2.17","614da4dd46a046479740407a","65576f040411c2a4be0341a4","65576f57a03ec068a8fc03f1","null","
        <div style=""text-align: center; position: fixed; top: 5vh; left: 40vw;"">
            <div style=""margin:0 auto; width: 20vw; top: 8vh; font-size: 2vw""> 
            <font color=""green""> Bonus : $0.8 </font>
            </div>
        </div>
    ","null","","","","","","","",""
"","","","","","html-keyboard-response","143","163731","0.0-6.17-3.17","614da4dd46a046479740407a","65576f040411c2a4be0341a4","65576f57a03ec068a8fc03f1","288","./stimuli//pack_shapes_diff/cat_1/diff_4/ex_1_4_9.png","arrowleft","response","ArrowLeft","9","1","4","test","true",""
"","","","","","html-keyboard-response","144","165240","0.0-6.17-4.17","614da4dd46a046479740407a","65576f040411c2a4be0341a4","65576f57a03ec068a8fc03f1","null","<p> <font color=""green"" size=""5vw""> Correct category! </font> <br> <br> <font color=""green"" size=""8vw""> + $0.05 </font> </p>","null","feedback","","","","","","","0.85"
"","","","","","html-keyboard-response","145","165554","0.0-6.18-0.18","614da4dd46a046479740407a","65576f040411c2a4be0341a4","65576f57a03ec068a8fc03f1","313","
            
        <div style=""text-align: center; position: fixed; top: 5vh; left: 40vw;"">
            <div style=""margin:0 auto; width: 20vw; top: 8vh; font-size: 2vw""> 
            <font color=""green""> Bonus : $0.85 </font>
            </div>
        </div>
    
            <div> Please press any button to continue to the next trial.</div>
        "," ","ITI","","","","","","",""
"","","","","","html-keyboard-response","146","166160","0.0-6.18-1.18","614da4dd46a046479740407a","65576f040411c2a4be0341a4","65576f57a03ec068a8fc03f1","null","
        
        <div style=""text-align: center; position: fixed; top: 5vh; left: 40vw;"">
            <div style=""margin:0 auto; width: 20vw; top: 8vh; font-size: 2vw""> 
            <font color=""green""> Bonus : $0.85 </font>
            </div>
        </div>
    
        <img class=""stim"" src=./stimuli//pack_shapes_diff/cat_2/diff_4/ex_2_4_2.png></img>
    ","null","stimulus","","","","","","",""
"","","","","","html-keyboard-response","147","167164","0.0-6.18-2.18","614da4dd46a046479740407a","65576f040411c2a4be0341a4","65576f57a03ec068a8fc03f1","null","
        <div style=""text-align: center; position: fixed; top: 5vh; left: 40vw;"">
            <div style=""margin:0 auto; width: 20vw; top: 8vh; font-size: 2vw""> 
            <font color=""green""> Bonus : $0.85 </font>
            </div>
        </div>
    ","null","","","","","","","",""
"","","","","","html-keyboard-response","148","167439","0.0-6.18-3.18","614da4dd46a046479740407a","65576f040411c2a4be0341a4","65576f57a03ec068a8fc03f1","274","./stimuli//pack_shapes_diff/cat_2/diff_4/ex_2_4_2.png","arrowright","response","ArrowRight","2","2","4","test","true",""
"","","","","","html-keyboard-response","149","168943","0.0-6.18-4.18","614da4dd46a046479740407a","65576f040411c2a4be0341a4","65576f57a03ec068a8fc03f1","null","<p> <font color=""green"" size=""5vw""> Correct category! </font> <br> <br> <font color=""green"" size=""8vw""> + $0.05 </font> </p>","null","feedback","","","","","","","0.9"
"","","","","","html-keyboard-response","150","169616","0.0-6.19-0.19","614da4dd46a046479740407a","65576f040411c2a4be0341a4","65576f57a03ec068a8fc03f1","671","
            
        <div style=""text-align: center; position: fixed; top: 5vh; left: 40vw;"">
            <div style=""margin:0 auto; width: 20vw; top: 8vh; font-size: 2vw""> 
            <font color=""green""> Bonus : $0.9 </font>
            </div>
        </div>
    
            <div> Please press any button to continue to the next trial.</div>
        "," ","ITI","","","","","","",""
"","","","","","html-keyboard-response","151","170221","0.0-6.19-1.19","614da4dd46a046479740407a","65576f040411c2a4be0341a4","65576f57a03ec068a8fc03f1","null","
        
        <div style=""text-align: center; position: fixed; top: 5vh; left: 40vw;"">
            <div style=""margin:0 auto; width: 20vw; top: 8vh; font-size: 2vw""> 
            <font color=""green""> Bonus : $0.9 </font>
            </div>
        </div>
    
        <img class=""stim"" src=./stimuli//pack_shapes_diff/cat_2/diff_4/ex_2_4_9.png></img>
    ","null","stimulus","","","","","","",""
"","","","","","html-keyboard-response","152","171223","0.0-6.19-2.19","614da4dd46a046479740407a","65576f040411c2a4be0341a4","65576f57a03ec068a8fc03f1","null","
        <div style=""text-align: center; position: fixed; top: 5vh; left: 40vw;"">
            <div style=""margin:0 auto; width: 20vw; top: 8vh; font-size: 2vw""> 
            <font color=""green""> Bonus : $0.9 </font>
            </div>
        </div>
    ","null","","","","","","","",""
"","","","","","html-keyboard-response","153","171515","0.0-6.19-3.19","614da4dd46a046479740407a","65576f040411c2a4be0341a4","65576f57a03ec068a8fc03f1","291","./stimuli//pack_shapes_diff/cat_2/diff_4/ex_2_4_9.png","arrowleft","response","ArrowRight","9","2","4","test","false",""
"","","","","","html-keyboard-response","154","173018","0.0-6.19-4.19","614da4dd46a046479740407a","65576f040411c2a4be0341a4","65576f57a03ec068a8fc03f1","null","<p> <font color=""red"" size=""5vw""> Wrong category! </font> </p>","null","feedback","","","","","","","0.9"
"","","","","","html-keyboard-response","155","173397","0.0-6.20-0.20","614da4dd46a046479740407a","65576f040411c2a4be0341a4","65576f57a03ec068a8fc03f1","378","
            
        <div style=""text-align: center; position: fixed; top: 5vh; left: 40vw;"">
            <div style=""margin:0 auto; width: 20vw; top: 8vh; font-size: 2vw""> 
            <font color=""green""> Bonus : $0.9 </font>
            </div>
        </div>
    
            <div> Please press any button to continue to the next trial.</div>
        "," ","ITI","","","","","","",""
"","","","","","html-keyboard-response","156","173999","0.0-6.20-1.20","614da4dd46a046479740407a","65576f040411c2a4be0341a4","65576f57a03ec068a8fc03f1","null","
        
        <div style=""text-align: center; position: fixed; top: 5vh; left: 40vw;"">
            <div style=""margin:0 auto; width: 20vw; top: 8vh; font-size: 2vw""> 
            <font color=""green""> Bonus : $0.9 </font>
            </div>
        </div>
    
        <img class=""stim"" src=./stimuli//pack_shapes_diff/cat_2/diff_5/ex_2_5_9.png></img>
    ","null","stimulus","","","","","","",""
"","","","","","html-keyboard-response","157","175000","0.0-6.20-2.20","614da4dd46a046479740407a","65576f040411c2a4be0341a4","65576f57a03ec068a8fc03f1","null","
        <div style=""text-align: center; position: fixed; top: 5vh; left: 40vw;"">
            <div style=""margin:0 auto; width: 20vw; top: 8vh; font-size: 2vw""> 
            <font color=""green""> Bonus : $0.9 </font>
            </div>
        </div>
    ","null","","","","","","","",""
"","","","","","html-keyboard-response","158","175260","0.0-6.20-3.20","614da4dd46a046479740407a","65576f040411c2a4be0341a4","65576f57a03ec068a8fc03f1","259","./stimuli//pack_shapes_diff/cat_2/diff_5/ex_2_5_9.png","arrowright","response","ArrowRight","9","2","5","test","true",""
"","","","","","html-keyboard-response","159","176765","0.0-6.20-4.20","614da4dd46a046479740407a","65576f040411c2a4be0341a4","65576f57a03ec068a8fc03f1","null","<p> <font color=""green"" size=""5vw""> Correct category! </font> <br> <br> <font color=""green"" size=""8vw""> + $0.05 </font> </p>","null","feedback","","","","","","","0.95"
"","","","","","html-keyboard-response","160","177290","0.0-6.21-0.21","614da4dd46a046479740407a","65576f040411c2a4be0341a4","65576f57a03ec068a8fc03f1","524","
            
        <div style=""text-align: center; position: fixed; top: 5vh; left: 40vw;"">
            <div style=""margin:0 auto; width: 20vw; top: 8vh; font-size: 2vw""> 
            <font color=""green""> Bonus : $0.95 </font>
            </div>
        </div>
    
            <div> Please press any button to continue to the next trial.</div>
        "," ","ITI","","","","","","",""
"","","","","","html-keyboard-response","161","177895","0.0-6.21-1.21","614da4dd46a046479740407a","65576f040411c2a4be0341a4","65576f57a03ec068a8fc03f1","null","
        
        <div style=""text-align: center; position: fixed; top: 5vh; left: 40vw;"">
            <div style=""margin:0 auto; width: 20vw; top: 8vh; font-size: 2vw""> 
            <font color=""green""> Bonus : $0.95 </font>
            </div>
        </div>
    
        <img class=""stim"" src=./stimuli//pack_shapes_diff/cat_2/diff_5/ex_2_5_3.png></img>
    ","null","stimulus","","","","","","",""
"","","","","","html-keyboard-response","162","178898","0.0-6.21-2.21","614da4dd46a046479740407a","65576f040411c2a4be0341a4","65576f57a03ec068a8fc03f1","null","
        <div style=""text-align: center; position: fixed; top: 5vh; left: 40vw;"">
            <div style=""margin:0 auto; width: 20vw; top: 8vh; font-size: 2vw""> 
            <font color=""green""> Bonus : $0.95 </font>
            </div>
        </div>
    ","null","","","","","","","",""
"","","","","","html-keyboard-response","163","179161","0.0-6.21-3.21","614da4dd46a046479740407a","65576f040411c2a4be0341a4","65576f57a03ec068a8fc03f1","262","./stimuli//pack_shapes_diff/cat_2/diff_5/ex_2_5_3.png","arrowright","response","ArrowRight","3","2","5","test","true",""
"","","","","","html-keyboard-response","164","180666","0.0-6.21-4.21","614da4dd46a046479740407a","65576f040411c2a4be0341a4","65576f57a03ec068a8fc03f1","null","<p> <font color=""green"" size=""5vw""> Correct category! </font> <br> <br> <font color=""green"" size=""8vw""> + $0.05 </font> </p>","null","feedback","","","","","","","1"
"","","","","","html-keyboard-response","165","180963","0.0-6.22-0.22","614da4dd46a046479740407a","65576f040411c2a4be0341a4","65576f57a03ec068a8fc03f1","296","
            
        <div style=""text-align: center; position: fixed; top: 5vh; left: 40vw;"">
            <div style=""margin:0 auto; width: 20vw; top: 8vh; font-size: 2vw""> 
            <font color=""green""> Bonus : $1 </font>
            </div>
        </div>
    
            <div> Please press any button to continue to the next trial.</div>
        "," ","ITI","","","","","","",""
"","","","","","html-keyboard-response","166","181569","0.0-6.22-1.22","614da4dd46a046479740407a","65576f040411c2a4be0341a4","65576f57a03ec068a8fc03f1","null","
        
        <div style=""text-align: center; position: fixed; top: 5vh; left: 40vw;"">
            <div style=""margin:0 auto; width: 20vw; top: 8vh; font-size: 2vw""> 
            <font color=""green""> Bonus : $1 </font>
            </div>
        </div>
    
        <img class=""stim"" src=./stimuli//pack_shapes_diff/cat_1/diff_5/ex_1_5_11.png></img>
    ","null","stimulus","","","","","","",""
"","","","","","html-keyboard-response","167","182574","0.0-6.22-2.22","614da4dd46a046479740407a","65576f040411c2a4be0341a4","65576f57a03ec068a8fc03f1","null","
        <div style=""text-align: center; position: fixed; top: 5vh; left: 40vw;"">
            <div style=""margin:0 auto; width: 20vw; top: 8vh; font-size: 2vw""> 
            <font color=""green""> Bonus : $1 </font>
            </div>
        </div>
    ","null","","","","","","","",""
"","","","","","html-keyboard-response","168","182838","0.0-6.22-3.22","614da4dd46a046479740407a","65576f040411c2a4be0341a4","65576f57a03ec068a8fc03f1","263","./stimuli//pack_shapes_diff/cat_1/diff_5/ex_1_5_11.png","arrowright","response","ArrowLeft","11","1","5","test","false",""
"","","","","","html-keyboard-response","169","184341","0.0-6.22-4.22","614da4dd46a046479740407a","65576f040411c2a4be0341a4","65576f57a03ec068a8fc03f1","null","<p> <font color=""red"" size=""5vw""> Wrong category! </font> </p>","null","feedback","","","","","","","1"
"","","","","","html-keyboard-response","170","184614","0.0-6.23-0.23","614da4dd46a046479740407a","65576f040411c2a4be0341a4","65576f57a03ec068a8fc03f1","272","
            
        <div style=""text-align: center; position: fixed; top: 5vh; left: 40vw;"">
            <div style=""margin:0 auto; width: 20vw; top: 8vh; font-size: 2vw""> 
            <font color=""green""> Bonus : $1 </font>
            </div>
        </div>
    
            <div> Please press any button to continue to the next trial.</div>
        "," ","ITI","","","","","","",""
"","","","","","html-keyboard-response","171","185217","0.0-6.23-1.23","614da4dd46a046479740407a","65576f040411c2a4be0341a4","65576f57a03ec068a8fc03f1","null","
        
        <div style=""text-align: center; position: fixed; top: 5vh; left: 40vw;"">
            <div style=""margin:0 auto; width: 20vw; top: 8vh; font-size: 2vw""> 
            <font color=""green""> Bonus : $1 </font>
            </div>
        </div>
    
        <img class=""stim"" src=./stimuli//pack_shapes_diff/cat_2/diff_5/ex_2_5_10.png></img>
    ","null","stimulus","","","","","","",""
"","","","","","html-keyboard-response","172","186221","0.0-6.23-2.23","614da4dd46a046479740407a","65576f040411c2a4be0341a4","65576f57a03ec068a8fc03f1","null","
        <div style=""text-align: center; position: fixed; top: 5vh; left: 40vw;"">
            <div style=""margin:0 auto; width: 20vw; top: 8vh; font-size: 2vw""> 
            <font color=""green""> Bonus : $1 </font>
            </div>
        </div>
    ","null","","","","","","","",""
"","","","","","html-keyboard-response","173","186479","0.0-6.23-3.23","614da4dd46a046479740407a","65576f040411c2a4be0341a4","65576f57a03ec068a8fc03f1","256","./stimuli//pack_shapes_diff/cat_2/diff_5/ex_2_5_10.png","arrowleft","response","ArrowRight","10","2","5","test","false",""
"","","","","","html-keyboard-response","174","187983","0.0-6.23-4.23","614da4dd46a046479740407a","65576f040411c2a4be0341a4","65576f57a03ec068a8fc03f1","null","<p> <font color=""red"" size=""5vw""> Wrong category! </font> </p>","null","feedback","","","","","","","1"
"","","","","","html-keyboard-response","175","188273","0.0-6.24-0.24","614da4dd46a046479740407a","65576f040411c2a4be0341a4","65576f57a03ec068a8fc03f1","288","
            
        <div style=""text-align: center; position: fixed; top: 5vh; left: 40vw;"">
            <div style=""margin:0 auto; width: 20vw; top: 8vh; font-size: 2vw""> 
            <font color=""green""> Bonus : $1 </font>
            </div>
        </div>
    
            <div> Please press any button to continue to the next trial.</div>
        "," ","ITI","","","","","","",""
"","","","","","html-keyboard-response","176","188879","0.0-6.24-1.24","614da4dd46a046479740407a","65576f040411c2a4be0341a4","65576f57a03ec068a8fc03f1","null","
        
        <div style=""text-align: center; position: fixed; top: 5vh; left: 40vw;"">
            <div style=""margin:0 auto; width: 20vw; top: 8vh; font-size: 2vw""> 
            <font color=""green""> Bonus : $1 </font>
            </div>
        </div>
    
        <img class=""stim"" src=./stimuli//pack_shapes_diff/cat_2/diff_5/ex_2_5_4.png></img>
    ","null","stimulus","","","","","","",""
"","","","","","html-keyboard-response","177","189883","0.0-6.24-2.24","614da4dd46a046479740407a","65576f040411c2a4be0341a4","65576f57a03ec068a8fc03f1","null","
        <div style=""text-align: center; position: fixed; top: 5vh; left: 40vw;"">
            <div style=""margin:0 auto; width: 20vw; top: 8vh; font-size: 2vw""> 
            <font color=""green""> Bonus : $1 </font>
            </div>
        </div>
    ","null","","","","","","","",""
"","","","","","html-keyboard-response","178","190149","0.0-6.24-3.24","614da4dd46a046479740407a","65576f040411c2a4be0341a4","65576f57a03ec068a8fc03f1","266","./stimuli//pack_shapes_diff/cat_2/diff_5/ex_2_5_4.png","arrowright","response","ArrowRight","4","2","5","test","true",""
"","","","","","html-keyboard-response","179","191654","0.0-6.24-4.24","614da4dd46a046479740407a","65576f040411c2a4be0341a4","65576f57a03ec068a8fc03f1","null","<p> <font color=""green"" size=""5vw""> Correct category! </font> <br> <br> <font color=""green"" size=""8vw""> + $0.05 </font> </p>","null","feedback","","","","","","","1.05"
"","","","","","html-keyboard-response","180","192014","0.0-6.25-0.25","614da4dd46a046479740407a","65576f040411c2a4be0341a4","65576f57a03ec068a8fc03f1","359","
            
        <div style=""text-align: center; position: fixed; top: 5vh; left: 40vw;"">
            <div style=""margin:0 auto; width: 20vw; top: 8vh; font-size: 2vw""> 
            <font color=""green""> Bonus : $1.05 </font>
            </div>
        </div>
    
            <div> Please press any button to continue to the next trial.</div>
        "," ","ITI","","","","","","",""
"","","","","","html-keyboard-response","181","192621","0.0-6.25-1.25","614da4dd46a046479740407a","65576f040411c2a4be0341a4","65576f57a03ec068a8fc03f1","null","
        
        <div style=""text-align: center; position: fixed; top: 5vh; left: 40vw;"">
            <div style=""margin:0 auto; width: 20vw; top: 8vh; font-size: 2vw""> 
            <font color=""green""> Bonus : $1.05 </font>
            </div>
        </div>
    
        <img class=""stim"" src=./stimuli//pack_shapes_diff/cat_1/diff_4/ex_1_4_11.png></img>
    ","null","stimulus","","","","","","",""
"","","","","","html-keyboard-response","182","193625","0.0-6.25-2.25","614da4dd46a046479740407a","65576f040411c2a4be0341a4","65576f57a03ec068a8fc03f1","null","
        <div style=""text-align: center; position: fixed; top: 5vh; left: 40vw;"">
            <div style=""margin:0 auto; width: 20vw; top: 8vh; font-size: 2vw""> 
            <font color=""green""> Bonus : $1.05 </font>
            </div>
        </div>
    ","null","","","","","","","",""
"","","","","","html-keyboard-response","183","193939","0.0-6.25-3.25","614da4dd46a046479740407a","65576f040411c2a4be0341a4","65576f57a03ec068a8fc03f1","313","./stimuli//pack_shapes_diff/cat_1/diff_4/ex_1_4_11.png","arrowright","response","ArrowLeft","11","1","4","test","false",""
"","","","","","html-keyboard-response","184","195441","0.0-6.25-4.25","614da4dd46a046479740407a","65576f040411c2a4be0341a4","65576f57a03ec068a8fc03f1","null","<p> <font color=""red"" size=""5vw""> Wrong category! </font> </p>","null","feedback","","","","","","","1.05"
"","","","","","html-keyboard-response","185","195752","0.0-6.26-0.26","614da4dd46a046479740407a","65576f040411c2a4be0341a4","65576f57a03ec068a8fc03f1","310","
            
        <div style=""text-align: center; position: fixed; top: 5vh; left: 40vw;"">
            <div style=""margin:0 auto; width: 20vw; top: 8vh; font-size: 2vw""> 
            <font color=""green""> Bonus : $1.05 </font>
            </div>
        </div>
    
            <div> Please press any button to continue to the next trial.</div>
        "," ","ITI","","","","","","",""
"","","","","","html-keyboard-response","186","196358","0.0-6.26-1.26","614da4dd46a046479740407a","65576f040411c2a4be0341a4","65576f57a03ec068a8fc03f1","null","
        
        <div style=""text-align: center; position: fixed; top: 5vh; left: 40vw;"">
            <div style=""margin:0 auto; width: 20vw; top: 8vh; font-size: 2vw""> 
            <font color=""green""> Bonus : $1.05 </font>
            </div>
        </div>
    
        <img class=""stim"" src=./stimuli//pack_shapes_diff/cat_2/diff_4/ex_2_4_9.png></img>
    ","null","stimulus","","","","","","",""
"","","","","","html-keyboard-response","187","197363","0.0-6.26-2.26","614da4dd46a046479740407a","65576f040411c2a4be0341a4","65576f57a03ec068a8fc03f1","null","
        <div style=""text-align: center; position: fixed; top: 5vh; left: 40vw;"">
            <div style=""margin:0 auto; width: 20vw; top: 8vh; font-size: 2vw""> 
            <font color=""green""> Bonus : $1.05 </font>
            </div>
        </div>
    ","null","","","","","","","",""
"","","","","","html-keyboard-response","188","197650","0.0-6.26-3.26","614da4dd46a046479740407a","65576f040411c2a4be0341a4","65576f57a03ec068a8fc03f1","286","./stimuli//pack_shapes_diff/cat_2/diff_4/ex_2_4_9.png","arrowleft","response","ArrowRight","9","2","4","test","false",""
"","","","","","html-keyboard-response","189","199155","0.0-6.26-4.26","614da4dd46a046479740407a","65576f040411c2a4be0341a4","65576f57a03ec068a8fc03f1","null","<p> <font color=""red"" size=""5vw""> Wrong category! </font> </p>","null","feedback","","","","","","","1.05"
"","","","","","html-keyboard-response","190","199383","0.0-6.27-0.27","614da4dd46a046479740407a","65576f040411c2a4be0341a4","65576f57a03ec068a8fc03f1","227","
            
        <div style=""text-align: center; position: fixed; top: 5vh; left: 40vw;"">
            <div style=""margin:0 auto; width: 20vw; top: 8vh; font-size: 2vw""> 
            <font color=""green""> Bonus : $1.05 </font>
            </div>
        </div>
    
            <div> Please press any button to continue to the next trial.</div>
        "," ","ITI","","","","","","",""
"","","","","","html-keyboard-response","191","199988","0.0-6.27-1.27","614da4dd46a046479740407a","65576f040411c2a4be0341a4","65576f57a03ec068a8fc03f1","null","
        
        <div style=""text-align: center; position: fixed; top: 5vh; left: 40vw;"">
            <div style=""margin:0 auto; width: 20vw; top: 8vh; font-size: 2vw""> 
            <font color=""green""> Bonus : $1.05 </font>
            </div>
        </div>
    
        <img class=""stim"" src=./stimuli//pack_shapes_diff/cat_2/diff_4/ex_2_4_6.png></img>
    ","null","stimulus","","","","","","",""
"","","","","","html-keyboard-response","192","200989","0.0-6.27-2.27","614da4dd46a046479740407a","65576f040411c2a4be0341a4","65576f57a03ec068a8fc03f1","null","
        <div style=""text-align: center; position: fixed; top: 5vh; left: 40vw;"">
            <div style=""margin:0 auto; width: 20vw; top: 8vh; font-size: 2vw""> 
            <font color=""green""> Bonus : $1.05 </font>
            </div>
        </div>
    ","null","","","","","","","",""
"","","","","","html-keyboard-response","193","201271","0.0-6.27-3.27","614da4dd46a046479740407a","65576f040411c2a4be0341a4","65576f57a03ec068a8fc03f1","281","./stimuli//pack_shapes_diff/cat_2/diff_4/ex_2_4_6.png","arrowright","response","ArrowRight","6","2","4","test","true",""
"","","","","","html-keyboard-response","194","202776","0.0-6.27-4.27","614da4dd46a046479740407a","65576f040411c2a4be0341a4","65576f57a03ec068a8fc03f1","null","<p> <font color=""green"" size=""5vw""> Correct category! </font> <br> <br> <font color=""green"" size=""8vw""> + $0.05 </font> </p>","null","feedback","","","","","","","1.1"
"","","","","","html-keyboard-response","195","203173","0.0-6.28-0.28","614da4dd46a046479740407a","65576f040411c2a4be0341a4","65576f57a03ec068a8fc03f1","397","
            
        <div style=""text-align: center; position: fixed; top: 5vh; left: 40vw;"">
            <div style=""margin:0 auto; width: 20vw; top: 8vh; font-size: 2vw""> 
            <font color=""green""> Bonus : $1.1 </font>
            </div>
        </div>
    
            <div> Please press any button to continue to the next trial.</div>
        "," ","ITI","","","","","","",""
"","","","","","html-keyboard-response","196","203778","0.0-6.28-1.28","614da4dd46a046479740407a","65576f040411c2a4be0341a4","65576f57a03ec068a8fc03f1","null","
        
        <div style=""text-align: center; position: fixed; top: 5vh; left: 40vw;"">
            <div style=""margin:0 auto; width: 20vw; top: 8vh; font-size: 2vw""> 
            <font color=""green""> Bonus : $1.1 </font>
            </div>
        </div>
    
        <img class=""stim"" src=./stimuli//pack_shapes_diff/cat_2/diff_4/ex_2_4_6.png></img>
    ","null","stimulus","","","","","","",""
"","","","","","html-keyboard-response","197","204785","0.0-6.28-2.28","614da4dd46a046479740407a","65576f040411c2a4be0341a4","65576f57a03ec068a8fc03f1","null","
        <div style=""text-align: center; position: fixed; top: 5vh; left: 40vw;"">
            <div style=""margin:0 auto; width: 20vw; top: 8vh; font-size: 2vw""> 
            <font color=""green""> Bonus : $1.1 </font>
            </div>
        </div>
    ","null","","","","","","","",""
"","","","","","html-keyboard-response","198","205610","0.0-6.28-3.28","614da4dd46a046479740407a","65576f040411c2a4be0341a4","65576f57a03ec068a8fc03f1","825","./stimuli//pack_shapes_diff/cat_2/diff_4/ex_2_4_6.png","arrowleft","response","ArrowRight","6","2","4","test","false",""
"","","","","","html-keyboard-response","199","207112","0.0-6.28-4.28","614da4dd46a046479740407a","65576f040411c2a4be0341a4","65576f57a03ec068a8fc03f1","null","<p> <font color=""red"" size=""5vw""> Wrong category! </font> </p>","null","feedback","","","","","","","1.1"
"","","","","","html-keyboard-response","200","207516","0.0-6.29-0.29","614da4dd46a046479740407a","65576f040411c2a4be0341a4","65576f57a03ec068a8fc03f1","403","
            
        <div style=""text-align: center; position: fixed; top: 5vh; left: 40vw;"">
            <div style=""margin:0 auto; width: 20vw; top: 8vh; font-size: 2vw""> 
            <font color=""green""> Bonus : $1.1 </font>
            </div>
        </div>
    
            <div> Please press any button to continue to the next trial.</div>
        "," ","ITI","","","","","","",""
"","","","","","html-keyboard-response","201","208121","0.0-6.29-1.29","614da4dd46a046479740407a","65576f040411c2a4be0341a4","65576f57a03ec068a8fc03f1","null","
        
        <div style=""text-align: center; position: fixed; top: 5vh; left: 40vw;"">
            <div style=""margin:0 auto; width: 20vw; top: 8vh; font-size: 2vw""> 
            <font color=""green""> Bonus : $1.1 </font>
            </div>
        </div>
    
        <img class=""stim"" src=./stimuli//pack_shapes_diff/cat_1/diff_4/ex_1_4_2.png></img>
    ","null","stimulus","","","","","","",""
"","","","","","html-keyboard-response","202","209125","0.0-6.29-2.29","614da4dd46a046479740407a","65576f040411c2a4be0341a4","65576f57a03ec068a8fc03f1","null","
        <div style=""text-align: center; position: fixed; top: 5vh; left: 40vw;"">
            <div style=""margin:0 auto; width: 20vw; top: 8vh; font-size: 2vw""> 
            <font color=""green""> Bonus : $1.1 </font>
            </div>
        </div>
    ","null","","","","","","","",""
"","","","","","html-keyboard-response","203","209401","0.0-6.29-3.29","614da4dd46a046479740407a","65576f040411c2a4be0341a4","65576f57a03ec068a8fc03f1","275","./stimuli//pack_shapes_diff/cat_1/diff_4/ex_1_4_2.png","arrowleft","response","ArrowLeft","2","1","4","test","true",""
"","","","","","html-keyboard-response","204","210324","0.0-6.29-4.29","614da4dd46a046479740407a","65576f040411c2a4be0341a4","65576f57a03ec068a8fc03f1","922","<p> <font color=""green"" size=""5vw""> Correct category! </font> <br> <br> <font color=""green"" size=""8vw""> + $0.05 </font> </p>"," ","feedback","","","","","","","1.15"
"","","","","","html-keyboard-response","205","211009","0.0-6.30-0.30","614da4dd46a046479740407a","65576f040411c2a4be0341a4","65576f57a03ec068a8fc03f1","684","
            
        <div style=""text-align: center; position: fixed; top: 5vh; left: 40vw;"">
            <div style=""margin:0 auto; width: 20vw; top: 8vh; font-size: 2vw""> 
            <font color=""green""> Bonus : $1.15 </font>
            </div>
        </div>
    
            <div> Please press any button to continue to the next trial.</div>
        "," ","ITI","","","","","","",""
"","","","","","html-keyboard-response","206","211612","0.0-6.30-1.30","614da4dd46a046479740407a","65576f040411c2a4be0341a4","65576f57a03ec068a8fc03f1","null","
        
        <div style=""text-align: center; position: fixed; top: 5vh; left: 40vw;"">
            <div style=""margin:0 auto; width: 20vw; top: 8vh; font-size: 2vw""> 
            <font color=""green""> Bonus : $1.15 </font>
            </div>
        </div>
    
        <img class=""stim"" src=./stimuli//pack_shapes_diff/cat_1/diff_3/ex_1_3_8.png></img>
    ","null","stimulus","","","","","","",""
"","","","","","html-keyboard-response","207","212617","0.0-6.30-2.30","614da4dd46a046479740407a","65576f040411c2a4be0341a4","65576f57a03ec068a8fc03f1","null","
        <div style=""text-align: center; position: fixed; top: 5vh; left: 40vw;"">
            <div style=""margin:0 auto; width: 20vw; top: 8vh; font-size: 2vw""> 
            <font color=""green""> Bonus : $1.15 </font>
            </div>
        </div>
    ","null","","","","","","","",""
"","","","","","html-keyboard-response","208","212896","0.0-6.30-3.30","614da4dd46a046479740407a","65576f040411c2a4be0341a4","65576f57a03ec068a8fc03f1","278","./stimuli//pack_shapes_diff/cat_1/diff_3/ex_1_3_8.png","arrowleft","response","ArrowLeft","8","1","3","test","true",""
"","","","","","html-keyboard-response","209","214401","0.0-6.30-4.30","614da4dd46a046479740407a","65576f040411c2a4be0341a4","65576f57a03ec068a8fc03f1","null","<p> <font color=""green"" size=""5vw""> Correct category! </font> <br> <br> <font color=""green"" size=""8vw""> + $0.05 </font> </p>","null","feedback","","","","","","","1.2"
"","","","","","html-keyboard-response","210","214708","0.0-6.31-0.31","614da4dd46a046479740407a","65576f040411c2a4be0341a4","65576f57a03ec068a8fc03f1","307","
            
        <div style=""text-align: center; position: fixed; top: 5vh; left: 40vw;"">
            <div style=""margin:0 auto; width: 20vw; top: 8vh; font-size: 2vw""> 
            <font color=""green""> Bonus : $1.2 </font>
            </div>
        </div>
    
            <div> Please press any button to continue to the next trial.</div>
        "," ","ITI","","","","","","",""
"","","","","","html-keyboard-response","211","215315","0.0-6.31-1.31","614da4dd46a046479740407a","65576f040411c2a4be0341a4","65576f57a03ec068a8fc03f1","null","
        
        <div style=""text-align: center; position: fixed; top: 5vh; left: 40vw;"">
            <div style=""margin:0 auto; width: 20vw; top: 8vh; font-size: 2vw""> 
            <font color=""green""> Bonus : $1.2 </font>
            </div>
        </div>
    
        <img class=""stim"" src=./stimuli//pack_shapes_diff/cat_2/diff_3/ex_2_3_15.png></img>
    ","null","stimulus","","","","","","",""
"","","","","","html-keyboard-response","212","216318","0.0-6.31-2.31","614da4dd46a046479740407a","65576f040411c2a4be0341a4","65576f57a03ec068a8fc03f1","null","
        <div style=""text-align: center; position: fixed; top: 5vh; left: 40vw;"">
            <div style=""margin:0 auto; width: 20vw; top: 8vh; font-size: 2vw""> 
            <font color=""green""> Bonus : $1.2 </font>
            </div>
        </div>
    ","null","","","","","","","",""
"","","","","","html-keyboard-response","213","216586","0.0-6.31-3.31","614da4dd46a046479740407a","65576f040411c2a4be0341a4","65576f57a03ec068a8fc03f1","267","./stimuli//pack_shapes_diff/cat_2/diff_3/ex_2_3_15.png","arrowleft","response","ArrowRight","15","2","3","test","false",""
"","","","","","html-keyboard-response","214","218088","0.0-6.31-4.31","614da4dd46a046479740407a","65576f040411c2a4be0341a4","65576f57a03ec068a8fc03f1","null","<p> <font color=""red"" size=""5vw""> Wrong category! </font> </p>","null","feedback","","","","","","","1.2"
"","","","","","html-keyboard-response","215","218384","0.0-6.32-0.32","614da4dd46a046479740407a","65576f040411c2a4be0341a4","65576f57a03ec068a8fc03f1","295","
            
        <div style=""text-align: center; position: fixed; top: 5vh; left: 40vw;"">
            <div style=""margin:0 auto; width: 20vw; top: 8vh; font-size: 2vw""> 
            <font color=""green""> Bonus : $1.2 </font>
            </div>
        </div>
    
            <div> Please press any button to continue to the next trial.</div>
        "," ","ITI","","","","","","",""
"","","","","","html-keyboard-response","216","218988","0.0-6.32-1.32","614da4dd46a046479740407a","65576f040411c2a4be0341a4","65576f57a03ec068a8fc03f1","null","
        
        <div style=""text-align: center; position: fixed; top: 5vh; left: 40vw;"">
            <div style=""margin:0 auto; width: 20vw; top: 8vh; font-size: 2vw""> 
            <font color=""green""> Bonus : $1.2 </font>
            </div>
        </div>
    
        <img class=""stim"" src=./stimuli//pack_shapes_diff/cat_2/diff_3/ex_2_3_3.png></img>
    ","null","stimulus","","","","","","",""
"","","","","","html-keyboard-response","217","219992","0.0-6.32-2.32","614da4dd46a046479740407a","65576f040411c2a4be0341a4","65576f57a03ec068a8fc03f1","null","
        <div style=""text-align: center; position: fixed; top: 5vh; left: 40vw;"">
            <div style=""margin:0 auto; width: 20vw; top: 8vh; font-size: 2vw""> 
            <font color=""green""> Bonus : $1.2 </font>
            </div>
        </div>
    ","null","","","","","","","",""
"","","","","","html-keyboard-response","218","220274","0.0-6.32-3.32","614da4dd46a046479740407a","65576f040411c2a4be0341a4","65576f57a03ec068a8fc03f1","282","./stimuli//pack_shapes_diff/cat_2/diff_3/ex_2_3_3.png","arrowright","response","ArrowRight","3","2","3","test","true",""
"","","","","","html-keyboard-response","219","221779","0.0-6.32-4.32","614da4dd46a046479740407a","65576f040411c2a4be0341a4","65576f57a03ec068a8fc03f1","null","<p> <font color=""green"" size=""5vw""> Correct category! </font> <br> <br> <font color=""green"" size=""8vw""> + $0.05 </font> </p>","null","feedback","","","","","","","1.25"
"","","","","","html-keyboard-response","220","222203","0.0-6.33-0.33","614da4dd46a046479740407a","65576f040411c2a4be0341a4","65576f57a03ec068a8fc03f1","424","
            
        <div style=""text-align: center; position: fixed; top: 5vh; left: 40vw;"">
            <div style=""margin:0 auto; width: 20vw; top: 8vh; font-size: 2vw""> 
            <font color=""green""> Bonus : $1.25 </font>
            </div>
        </div>
    
            <div> Please press any button to continue to the next trial.</div>
        "," ","ITI","","","","","","",""
"","","","","","html-keyboard-response","221","222811","0.0-6.33-1.33","614da4dd46a046479740407a","65576f040411c2a4be0341a4","65576f57a03ec068a8fc03f1","null","
        
        <div style=""text-align: center; position: fixed; top: 5vh; left: 40vw;"">
            <div style=""margin:0 auto; width: 20vw; top: 8vh; font-size: 2vw""> 
            <font color=""green""> Bonus : $1.25 </font>
            </div>
        </div>
    
        <img class=""stim"" src=./stimuli//pack_shapes_diff/cat_1/diff_3/ex_1_3_4.png></img>
    ","null","stimulus","","","","","","",""
"","","","","","html-keyboard-response","222","223813","0.0-6.33-2.33","614da4dd46a046479740407a","65576f040411c2a4be0341a4","65576f57a03ec068a8fc03f1","null","
        <div style=""text-align: center; position: fixed; top: 5vh; left: 40vw;"">
            <div style=""margin:0 auto; width: 20vw; top: 8vh; font-size: 2vw""> 
            <font color=""green""> Bonus : $1.25 </font>
            </div>
        </div>
    ","null","","","","","","","",""
"","","","","","html-keyboard-response","223","224085","0.0-6.33-3.33","614da4dd46a046479740407a","65576f040411c2a4be0341a4","65576f57a03ec068a8fc03f1","272","./stimuli//pack_shapes_diff/cat_1/diff_3/ex_1_3_4.png","arrowleft","response","ArrowLeft","4","1","3","test","true",""
"","","","","","html-keyboard-response","224","225532","0.0-6.33-4.33","614da4dd46a046479740407a","65576f040411c2a4be0341a4","65576f57a03ec068a8fc03f1","1446","<p> <font color=""green"" size=""5vw""> Correct category! </font> <br> <br> <font color=""green"" size=""8vw""> + $0.05 </font> </p>"," ","feedback","","","","","","","1.3"
"","","","","","html-keyboard-response","225","226055","0.0-6.34-0.34","614da4dd46a046479740407a","65576f040411c2a4be0341a4","65576f57a03ec068a8fc03f1","522","
            
        <div style=""text-align: center; position: fixed; top: 5vh; left: 40vw;"">
            <div style=""margin:0 auto; width: 20vw; top: 8vh; font-size: 2vw""> 
            <font color=""green""> Bonus : $1.3 </font>
            </div>
        </div>
    
            <div> Please press any button to continue to the next trial.</div>
        "," ","ITI","","","","","","",""
"","","","","","html-keyboard-response","226","226661","0.0-6.34-1.34","614da4dd46a046479740407a","65576f040411c2a4be0341a4","65576f57a03ec068a8fc03f1","null","
        
        <div style=""text-align: center; position: fixed; top: 5vh; left: 40vw;"">
            <div style=""margin:0 auto; width: 20vw; top: 8vh; font-size: 2vw""> 
            <font color=""green""> Bonus : $1.3 </font>
            </div>
        </div>
    
        <img class=""stim"" src=./stimuli//pack_shapes_diff/cat_2/diff_3/ex_2_3_14.png></img>
    ","null","stimulus","","","","","","",""
"","","","","","html-keyboard-response","227","227664","0.0-6.34-2.34","614da4dd46a046479740407a","65576f040411c2a4be0341a4","65576f57a03ec068a8fc03f1","null","
        <div style=""text-align: center; position: fixed; top: 5vh; left: 40vw;"">
            <div style=""margin:0 auto; width: 20vw; top: 8vh; font-size: 2vw""> 
            <font color=""green""> Bonus : $1.3 </font>
            </div>
        </div>
    ","null","","","","","","","",""
"","","","","","html-keyboard-response","228","227932","0.0-6.34-3.34","614da4dd46a046479740407a","65576f040411c2a4be0341a4","65576f57a03ec068a8fc03f1","267","./stimuli//pack_shapes_diff/cat_2/diff_3/ex_2_3_14.png","arrowright","response","ArrowRight","14","2","3","test","true",""
"","","","","","html-keyboard-response","229","229436","0.0-6.34-4.34","614da4dd46a046479740407a","65576f040411c2a4be0341a4","65576f57a03ec068a8fc03f1","null","<p> <font color=""green"" size=""5vw""> Correct category! </font> <br> <br> <font color=""green"" size=""8vw""> + $0.05 </font> </p>","null","feedback","","","","","","","1.35"
"","","","","","html-keyboard-response","230","229921","0.0-6.35-0.35","614da4dd46a046479740407a","65576f040411c2a4be0341a4","65576f57a03ec068a8fc03f1","484","
            
        <div style=""text-align: center; position: fixed; top: 5vh; left: 40vw;"">
            <div style=""margin:0 auto; width: 20vw; top: 8vh; font-size: 2vw""> 
