"success","timeout","failed_images","failed_audio","failed_video","trial_type","trial_index","time_elapsed","internal_node_id","subject_id","study_id","session_id","rt","stimulus","response","task","correct_response","exemplar_ID","category","difficulty","phase","correct","bonus"
"true","false","[]","[]","[]","preload","0","2","0.0-0.0","602ba62750c603308389e87f","65576f040411c2a4be0341a4","65576f4485f999a01c1d08d7","","","","","","","","","","",""
"","","","","","html-keyboard-response","1","4988","0.0-1.0","602ba62750c603308389e87f","65576f040411c2a4be0341a4","65576f4485f999a01c1d08d7","4986","Welcome to the Category Learning experiment! Press any key to continue."," ","welcome","","","","","","",""
"","","","","","html-keyboard-response","2","202774","0.0-2.0","602ba62750c603308389e87f","65576f040411c2a4be0341a4","65576f4485f999a01c1d08d7","197786","
            <p>You will be shown images of black shapes. Some are category A, some are category B.
            <br>You will not know in advance which category a specific shape belongs to.</p>
            <p>After you see an image, you will be asked to guess its category <b>(left arrow for category A, right arrow for category B)</b></p>
            <p>After you choose, the screen will show you whether you were correct or not.</p>
            <p><b>You will receive a bonus payment of $0.05 for each correct answer!</b></p>
            <p> So you can increase your bonus by guessing correctly, and by guessing as quickly as possible so you move on to the next image sooner.</p>
            <p>Press any key to continue.</p>
            "," ","introduction_1","","","","","","",""
"","","","","","html-keyboard-response","3","206928","0.0-3.0","602ba62750c603308389e87f","65576f040411c2a4be0341a4","65576f4485f999a01c1d08d7","4153","
            <p> <b>The first 10 trials are a practice round that will not count towards your bonus payment.</b></p>
            <p> You will be notified when practice finishes and the test begins. </p>
            <p> Press any key to begin the practice round.</p>
            "," ","introduction_2","","","","","","",""
"","","","","","html-keyboard-response","4","209432","0.0-4.0-0.0","602ba62750c603308389e87f","65576f040411c2a4be0341a4","65576f4485f999a01c1d08d7","2503","
            
        <div style=""text-align: center; position: fixed; top: 5vh; left: 40vw;"">
            <div style=""margin:0 auto; width: 20vw; top: 8vh; font-size: 2vw""> 
            <font color=""green""> Bonus : $0 </font>
            </div>
        </div>
    
            <div> Please press any button to continue to the next trial.</div>
        ","arrowright","ITI","","","","","","",""
"","","","","","html-keyboard-response","5","210036","0.0-4.0-1.0","602ba62750c603308389e87f","65576f040411c2a4be0341a4","65576f4485f999a01c1d08d7","null","
        
        <div style=""text-align: center; position: fixed; top: 5vh; left: 40vw;"">
            <div style=""margin:0 auto; width: 20vw; top: 8vh; font-size: 2vw""> 
            <font color=""green""> Bonus : $0 </font>
            </div>
        </div>
    
        <img class=""stim"" src=./stimuli//pack_shapes_diff/cat_1/diff_1/ex_1_1_5.png></img>
    ","null","stimulus","","","","","","",""
"","","","","","html-keyboard-response","6","211044","0.0-4.0-2.0","602ba62750c603308389e87f","65576f040411c2a4be0341a4","65576f4485f999a01c1d08d7","null","
        <div style=""text-align: center; position: fixed; top: 5vh; left: 40vw;"">
            <div style=""margin:0 auto; width: 20vw; top: 8vh; font-size: 2vw""> 
            <font color=""green""> Bonus : $0 </font>
            </div>
        </div>
    ","null","","","","","","","",""
"","","","","","html-keyboard-response","7","211779","0.0-4.0-3.0","602ba62750c603308389e87f","65576f040411c2a4be0341a4","65576f4485f999a01c1d08d7","734","./stimuli//pack_shapes_diff/cat_1/diff_1/ex_1_1_5.png","arrowright","response","ArrowLeft","5","1","1","train","false",""
"","","","","","html-keyboard-response","8","213285","0.0-4.0-4.0","602ba62750c603308389e87f","65576f040411c2a4be0341a4","65576f4485f999a01c1d08d7","null","<p> <font color=""red"" size=""5vw""> Wrong category! </font> </p>","null","feedback","","","","","","","0"
"","","","","","html-keyboard-response","9","214476","0.0-4.0-0.1","602ba62750c603308389e87f","65576f040411c2a4be0341a4","65576f4485f999a01c1d08d7","1191","
            
        <div style=""text-align: center; position: fixed; top: 5vh; left: 40vw;"">
            <div style=""margin:0 auto; width: 20vw; top: 8vh; font-size: 2vw""> 
            <font color=""green""> Bonus : $0 </font>
            </div>
        </div>
    
            <div> Please press any button to continue to the next trial.</div>
        ","arrowleft","ITI","","","","","","",""
"","","","","","html-keyboard-response","10","215090","0.0-4.0-1.1","602ba62750c603308389e87f","65576f040411c2a4be0341a4","65576f4485f999a01c1d08d7","null","
        
        <div style=""text-align: center; position: fixed; top: 5vh; left: 40vw;"">
            <div style=""margin:0 auto; width: 20vw; top: 8vh; font-size: 2vw""> 
            <font color=""green""> Bonus : $0 </font>
            </div>
        </div>
    
        <img class=""stim"" src=./stimuli//pack_shapes_diff/cat_2/diff_2/ex_2_2_11.png></img>
    ","null","stimulus","","","","","","",""
"","","","","","html-keyboard-response","11","216103","0.0-4.0-2.1","602ba62750c603308389e87f","65576f040411c2a4be0341a4","65576f4485f999a01c1d08d7","null","
        <div style=""text-align: center; position: fixed; top: 5vh; left: 40vw;"">
            <div style=""margin:0 auto; width: 20vw; top: 8vh; font-size: 2vw""> 
            <font color=""green""> Bonus : $0 </font>
            </div>
        </div>
    ","null","","","","","","","",""
"","","","","","html-keyboard-response","12","216422","0.0-4.0-3.1","602ba62750c603308389e87f","65576f040411c2a4be0341a4","65576f4485f999a01c1d08d7","318","./stimuli//pack_shapes_diff/cat_2/diff_2/ex_2_2_11.png","arrowleft","response","ArrowRight","11","2","2","train","false",""
"","","","","","html-keyboard-response","13","217924","0.0-4.0-4.1","602ba62750c603308389e87f","65576f040411c2a4be0341a4","65576f4485f999a01c1d08d7","null","<p> <font color=""red"" size=""5vw""> Wrong category! </font> </p>","null","feedback","","","","","","","0"
"","","","","","html-keyboard-response","14","218423","0.0-4.0-0.2","602ba62750c603308389e87f","65576f040411c2a4be0341a4","65576f4485f999a01c1d08d7","499","
            
        <div style=""text-align: center; position: fixed; top: 5vh; left: 40vw;"">
            <div style=""margin:0 auto; width: 20vw; top: 8vh; font-size: 2vw""> 
            <font color=""green""> Bonus : $0 </font>
            </div>
        </div>
    
            <div> Please press any button to continue to the next trial.</div>
        ","arrowleft","ITI","","","","","","",""
"","","","","","html-keyboard-response","15","219039","0.0-4.0-1.2","602ba62750c603308389e87f","65576f040411c2a4be0341a4","65576f4485f999a01c1d08d7","null","
        
        <div style=""text-align: center; position: fixed; top: 5vh; left: 40vw;"">
            <div style=""margin:0 auto; width: 20vw; top: 8vh; font-size: 2vw""> 
            <font color=""green""> Bonus : $0 </font>
            </div>
        </div>
    
        <img class=""stim"" src=./stimuli//pack_shapes_diff/cat_1/diff_2/ex_1_2_14.png></img>
    ","null","stimulus","","","","","","",""
"","","","","","html-keyboard-response","16","220046","0.0-4.0-2.2","602ba62750c603308389e87f","65576f040411c2a4be0341a4","65576f4485f999a01c1d08d7","null","
        <div style=""text-align: center; position: fixed; top: 5vh; left: 40vw;"">
            <div style=""margin:0 auto; width: 20vw; top: 8vh; font-size: 2vw""> 
            <font color=""green""> Bonus : $0 </font>
            </div>
        </div>
    ","null","","","","","","","",""
"","","","","","html-keyboard-response","17","220384","0.0-4.0-3.2","602ba62750c603308389e87f","65576f040411c2a4be0341a4","65576f4485f999a01c1d08d7","337","./stimuli//pack_shapes_diff/cat_1/diff_2/ex_1_2_14.png","arrowright","response","ArrowLeft","14","1","2","train","false",""
"","","","","","html-keyboard-response","18","221897","0.0-4.0-4.2","602ba62750c603308389e87f","65576f040411c2a4be0341a4","65576f4485f999a01c1d08d7","null","<p> <font color=""red"" size=""5vw""> Wrong category! </font> </p>","null","feedback","","","","","","","0"
"","","","","","html-keyboard-response","19","222354","0.0-4.0-0.3","602ba62750c603308389e87f","65576f040411c2a4be0341a4","65576f4485f999a01c1d08d7","457","
            
        <div style=""text-align: center; position: fixed; top: 5vh; left: 40vw;"">
            <div style=""margin:0 auto; width: 20vw; top: 8vh; font-size: 2vw""> 
            <font color=""green""> Bonus : $0 </font>
            </div>
        </div>
    
            <div> Please press any button to continue to the next trial.</div>
        ","arrowleft","ITI","","","","","","",""
"","","","","","html-keyboard-response","20","222970","0.0-4.0-1.3","602ba62750c603308389e87f","65576f040411c2a4be0341a4","65576f4485f999a01c1d08d7","null","
        
        <div style=""text-align: center; position: fixed; top: 5vh; left: 40vw;"">
            <div style=""margin:0 auto; width: 20vw; top: 8vh; font-size: 2vw""> 
            <font color=""green""> Bonus : $0 </font>
            </div>
        </div>
    
        <img class=""stim"" src=./stimuli//pack_shapes_diff/cat_1/diff_1/ex_1_1_13.png></img>
    ","null","stimulus","","","","","","",""
"","","","","","html-keyboard-response","21","223977","0.0-4.0-2.3","602ba62750c603308389e87f","65576f040411c2a4be0341a4","65576f4485f999a01c1d08d7","null","
        <div style=""text-align: center; position: fixed; top: 5vh; left: 40vw;"">
            <div style=""margin:0 auto; width: 20vw; top: 8vh; font-size: 2vw""> 
            <font color=""green""> Bonus : $0 </font>
            </div>
        </div>
    ","null","","","","","","","",""
"","","","","","html-keyboard-response","22","224251","0.0-4.0-3.3","602ba62750c603308389e87f","65576f040411c2a4be0341a4","65576f4485f999a01c1d08d7","273","./stimuli//pack_shapes_diff/cat_1/diff_1/ex_1_1_13.png","arrowright","response","ArrowLeft","13","1","1","train","false",""
"","","","","","html-keyboard-response","23","225762","0.0-4.0-4.3","602ba62750c603308389e87f","65576f040411c2a4be0341a4","65576f4485f999a01c1d08d7","null","<p> <font color=""red"" size=""5vw""> Wrong category! </font> </p>","null","feedback","","","","","","","0"
"","","","","","html-keyboard-response","24","226158","0.0-4.0-0.4","602ba62750c603308389e87f","65576f040411c2a4be0341a4","65576f4485f999a01c1d08d7","396","
            
        <div style=""text-align: center; position: fixed; top: 5vh; left: 40vw;"">
            <div style=""margin:0 auto; width: 20vw; top: 8vh; font-size: 2vw""> 
            <font color=""green""> Bonus : $0 </font>
            </div>
        </div>
    
            <div> Please press any button to continue to the next trial.</div>
        ","arrowleft","ITI","","","","","","",""
"","","","","","html-keyboard-response","25","226768","0.0-4.0-1.4","602ba62750c603308389e87f","65576f040411c2a4be0341a4","65576f4485f999a01c1d08d7","null","
        
        <div style=""text-align: center; position: fixed; top: 5vh; left: 40vw;"">
            <div style=""margin:0 auto; width: 20vw; top: 8vh; font-size: 2vw""> 
            <font color=""green""> Bonus : $0 </font>
            </div>
        </div>
    
        <img class=""stim"" src=./stimuli//pack_shapes_diff/cat_2/diff_2/ex_2_2_5.png></img>
    ","null","stimulus","","","","","","",""
"","","","","","html-keyboard-response","26","227780","0.0-4.0-2.4","602ba62750c603308389e87f","65576f040411c2a4be0341a4","65576f4485f999a01c1d08d7","null","
        <div style=""text-align: center; position: fixed; top: 5vh; left: 40vw;"">
            <div style=""margin:0 auto; width: 20vw; top: 8vh; font-size: 2vw""> 
            <font color=""green""> Bonus : $0 </font>
            </div>
        </div>
    ","null","","","","","","","",""
"","","","","","html-keyboard-response","27","228050","0.0-4.0-3.4","602ba62750c603308389e87f","65576f040411c2a4be0341a4","65576f4485f999a01c1d08d7","270","./stimuli//pack_shapes_diff/cat_2/diff_2/ex_2_2_5.png","arrowleft","response","ArrowRight","5","2","2","train","false",""
"","","","","","html-keyboard-response","28","229561","0.0-4.0-4.4","602ba62750c603308389e87f","65576f040411c2a4be0341a4","65576f4485f999a01c1d08d7","null","<p> <font color=""red"" size=""5vw""> Wrong category! </font> </p>","null","feedback","","","","","","","0"
"","","","","","html-keyboard-response","29","229953","0.0-4.0-0.5","602ba62750c603308389e87f","65576f040411c2a4be0341a4","65576f4485f999a01c1d08d7","391","
            
        <div style=""text-align: center; position: fixed; top: 5vh; left: 40vw;"">
            <div style=""margin:0 auto; width: 20vw; top: 8vh; font-size: 2vw""> 
            <font color=""green""> Bonus : $0 </font>
            </div>
        </div>
    
            <div> Please press any button to continue to the next trial.</div>
        ","arrowleft","ITI","","","","","","",""
"","","","","","html-keyboard-response","30","230569","0.0-4.0-1.5","602ba62750c603308389e87f","65576f040411c2a4be0341a4","65576f4485f999a01c1d08d7","null","
        
        <div style=""text-align: center; position: fixed; top: 5vh; left: 40vw;"">
            <div style=""margin:0 auto; width: 20vw; top: 8vh; font-size: 2vw""> 
            <font color=""green""> Bonus : $0 </font>
            </div>
        </div>
    
        <img class=""stim"" src=./stimuli//pack_shapes_diff/cat_1/diff_2/ex_1_2_11.png></img>
    ","null","stimulus","","","","","","",""
"","","","","","html-keyboard-response","31","231580","0.0-4.0-2.5","602ba62750c603308389e87f","65576f040411c2a4be0341a4","65576f4485f999a01c1d08d7","null","
        <div style=""text-align: center; position: fixed; top: 5vh; left: 40vw;"">
            <div style=""margin:0 auto; width: 20vw; top: 8vh; font-size: 2vw""> 
            <font color=""green""> Bonus : $0 </font>
            </div>
        </div>
    ","null","","","","","","","",""
"","","","","","html-keyboard-response","32","231864","0.0-4.0-3.5","602ba62750c603308389e87f","65576f040411c2a4be0341a4","65576f4485f999a01c1d08d7","284","./stimuli//pack_shapes_diff/cat_1/diff_2/ex_1_2_11.png","arrowleft","response","ArrowLeft","11","1","2","train","true",""
"","","","","","html-keyboard-response","33","233365","0.0-4.0-4.5","602ba62750c603308389e87f","65576f040411c2a4be0341a4","65576f4485f999a01c1d08d7","null","<p> <font color=""green"" size=""5vw""> Correct category! </font> </p>","null","feedback","","","","","","","0"
"","","","","","html-keyboard-response","34","233973","0.0-4.0-0.6","602ba62750c603308389e87f","65576f040411c2a4be0341a4","65576f4485f999a01c1d08d7","607","
            
        <div style=""text-align: center; position: fixed; top: 5vh; left: 40vw;"">
            <div style=""margin:0 auto; width: 20vw; top: 8vh; font-size: 2vw""> 
            <font color=""green""> Bonus : $0 </font>
            </div>
        </div>
    
            <div> Please press any button to continue to the next trial.</div>
        ","arrowleft","ITI","","","","","","",""
"","","","","","html-keyboard-response","35","234578","0.0-4.0-1.6","602ba62750c603308389e87f","65576f040411c2a4be0341a4","65576f4485f999a01c1d08d7","null","
        
        <div style=""text-align: center; position: fixed; top: 5vh; left: 40vw;"">
            <div style=""margin:0 auto; width: 20vw; top: 8vh; font-size: 2vw""> 
            <font color=""green""> Bonus : $0 </font>
            </div>
        </div>
    
        <img class=""stim"" src=./stimuli//pack_shapes_diff/cat_2/diff_1/ex_2_1_16.png></img>
    ","null","stimulus","","","","","","",""
"","","","","","html-keyboard-response","36","235590","0.0-4.0-2.6","602ba62750c603308389e87f","65576f040411c2a4be0341a4","65576f4485f999a01c1d08d7","null","
        <div style=""text-align: center; position: fixed; top: 5vh; left: 40vw;"">
            <div style=""margin:0 auto; width: 20vw; top: 8vh; font-size: 2vw""> 
            <font color=""green""> Bonus : $0 </font>
            </div>
        </div>
    ","null","","","","","","","",""
"","","","","","html-keyboard-response","37","235998","0.0-4.0-3.6","602ba62750c603308389e87f","65576f040411c2a4be0341a4","65576f4485f999a01c1d08d7","407","./stimuli//pack_shapes_diff/cat_2/diff_1/ex_2_1_16.png","arrowleft","response","ArrowRight","16","2","1","train","false",""
"","","","","","html-keyboard-response","38","237501","0.0-4.0-4.6","602ba62750c603308389e87f","65576f040411c2a4be0341a4","65576f4485f999a01c1d08d7","null","<p> <font color=""red"" size=""5vw""> Wrong category! </font> </p>","null","feedback","","","","","","","0"
"","","","","","html-keyboard-response","39","237981","0.0-4.0-0.7","602ba62750c603308389e87f","65576f040411c2a4be0341a4","65576f4485f999a01c1d08d7","479","
            
        <div style=""text-align: center; position: fixed; top: 5vh; left: 40vw;"">
            <div style=""margin:0 auto; width: 20vw; top: 8vh; font-size: 2vw""> 
            <font color=""green""> Bonus : $0 </font>
            </div>
        </div>
    
            <div> Please press any button to continue to the next trial.</div>
        ","arrowleft","ITI","","","","","","",""
"","","","","","html-keyboard-response","40","238586","0.0-4.0-1.7","602ba62750c603308389e87f","65576f040411c2a4be0341a4","65576f4485f999a01c1d08d7","null","
        
        <div style=""text-align: center; position: fixed; top: 5vh; left: 40vw;"">
            <div style=""margin:0 auto; width: 20vw; top: 8vh; font-size: 2vw""> 
            <font color=""green""> Bonus : $0 </font>
            </div>
        </div>
    
        <img class=""stim"" src=./stimuli//pack_shapes_diff/cat_2/diff_1/ex_2_1_15.png></img>
    ","null","stimulus","","","","","","",""
"","","","","","html-keyboard-response","41","239597","0.0-4.0-2.7","602ba62750c603308389e87f","65576f040411c2a4be0341a4","65576f4485f999a01c1d08d7","null","
        <div style=""text-align: center; position: fixed; top: 5vh; left: 40vw;"">
            <div style=""margin:0 auto; width: 20vw; top: 8vh; font-size: 2vw""> 
            <font color=""green""> Bonus : $0 </font>
            </div>
        </div>
    ","null","","","","","","","",""
"","","","","","html-keyboard-response","42","239863","0.0-4.0-3.7","602ba62750c603308389e87f","65576f040411c2a4be0341a4","65576f4485f999a01c1d08d7","266","./stimuli//pack_shapes_diff/cat_2/diff_1/ex_2_1_15.png","arrowright","response","ArrowRight","15","2","1","train","true",""
"","","","","","html-keyboard-response","43","241378","0.0-4.0-4.7","602ba62750c603308389e87f","65576f040411c2a4be0341a4","65576f4485f999a01c1d08d7","null","<p> <font color=""green"" size=""5vw""> Correct category! </font> </p>","null","feedback","","","","","","","0"
"","","","","","html-keyboard-response","44","241746","0.0-4.0-0.8","602ba62750c603308389e87f","65576f040411c2a4be0341a4","65576f4485f999a01c1d08d7","368","
            
        <div style=""text-align: center; position: fixed; top: 5vh; left: 40vw;"">
            <div style=""margin:0 auto; width: 20vw; top: 8vh; font-size: 2vw""> 
            <font color=""green""> Bonus : $0 </font>
            </div>
        </div>
    
            <div> Please press any button to continue to the next trial.</div>
        ","arrowleft","ITI","","","","","","",""
"","","","","","html-keyboard-response","45","242355","0.0-4.0-1.8","602ba62750c603308389e87f","65576f040411c2a4be0341a4","65576f4485f999a01c1d08d7","null","
        
        <div style=""text-align: center; position: fixed; top: 5vh; left: 40vw;"">
            <div style=""margin:0 auto; width: 20vw; top: 8vh; font-size: 2vw""> 
            <font color=""green""> Bonus : $0 </font>
            </div>
        </div>
    
        <img class=""stim"" src=./stimuli//pack_shapes_diff/cat_1/diff_1/ex_1_1_6.png></img>
    ","null","stimulus","","","","","","",""
"","","","","","html-keyboard-response","46","243361","0.0-4.0-2.8","602ba62750c603308389e87f","65576f040411c2a4be0341a4","65576f4485f999a01c1d08d7","null","
        <div style=""text-align: center; position: fixed; top: 5vh; left: 40vw;"">
            <div style=""margin:0 auto; width: 20vw; top: 8vh; font-size: 2vw""> 
            <font color=""green""> Bonus : $0 </font>
            </div>
        </div>
    ","null","","","","","","","",""
"","","","","","html-keyboard-response","47","243650","0.0-4.0-3.8","602ba62750c603308389e87f","65576f040411c2a4be0341a4","65576f4485f999a01c1d08d7","288","./stimuli//pack_shapes_diff/cat_1/diff_1/ex_1_1_6.png","arrowleft","response","ArrowLeft","6","1","1","train","true",""
"","","","","","html-keyboard-response","48","245161","0.0-4.0-4.8","602ba62750c603308389e87f","65576f040411c2a4be0341a4","65576f4485f999a01c1d08d7","null","<p> <font color=""green"" size=""5vw""> Correct category! </font> </p>","null","feedback","","","","","","","0"
"","","","","","html-keyboard-response","49","245603","0.0-4.0-0.9","602ba62750c603308389e87f","65576f040411c2a4be0341a4","65576f4485f999a01c1d08d7","441","
            
        <div style=""text-align: center; position: fixed; top: 5vh; left: 40vw;"">
            <div style=""margin:0 auto; width: 20vw; top: 8vh; font-size: 2vw""> 
            <font color=""green""> Bonus : $0 </font>
            </div>
        </div>
    
            <div> Please press any button to continue to the next trial.</div>
        ","arrowleft","ITI","","","","","","",""
"","","","","","html-keyboard-response","50","246214","0.0-4.0-1.9","602ba62750c603308389e87f","65576f040411c2a4be0341a4","65576f4485f999a01c1d08d7","null","
        
        <div style=""text-align: center; position: fixed; top: 5vh; left: 40vw;"">
            <div style=""margin:0 auto; width: 20vw; top: 8vh; font-size: 2vw""> 
            <font color=""green""> Bonus : $0 </font>
            </div>
        </div>
    
        <img class=""stim"" src=./stimuli//pack_shapes_diff/cat_2/diff_1/ex_2_1_3.png></img>
    ","null","stimulus","","","","","","",""
"","","","","","html-keyboard-response","51","247225","0.0-4.0-2.9","602ba62750c603308389e87f","65576f040411c2a4be0341a4","65576f4485f999a01c1d08d7","null","
        <div style=""text-align: center; position: fixed; top: 5vh; left: 40vw;"">
            <div style=""margin:0 auto; width: 20vw; top: 8vh; font-size: 2vw""> 
            <font color=""green""> Bonus : $0 </font>
            </div>
        </div>
    ","null","","","","","","","",""
"","","","","","html-keyboard-response","52","247504","0.0-4.0-3.9","602ba62750c603308389e87f","65576f040411c2a4be0341a4","65576f4485f999a01c1d08d7","279","./stimuli//pack_shapes_diff/cat_2/diff_1/ex_2_1_3.png","arrowright","response","ArrowRight","3","2","1","train","true",""
"","","","","","html-keyboard-response","53","249011","0.0-4.0-4.9","602ba62750c603308389e87f","65576f040411c2a4be0341a4","65576f4485f999a01c1d08d7","null","<p> <font color=""green"" size=""5vw""> Correct category! </font> </p>","null","feedback","","","","","","","0"
"","","","","","html-keyboard-response","54","252909","0.0-5.0","602ba62750c603308389e87f","65576f040411c2a4be0341a4","65576f4485f999a01c1d08d7","3898","
            <b> <p> The practice round has finished.</p>
            <b> For the rest of the experiment you will receive a $0.05 bonus for each correct answer!</b>
            <p> Press any key to begin the test. </p>
            "," ","intermission","","","","","","",""
"","","","","","html-keyboard-response","55","254141","0.0-6.0-0.0","602ba62750c603308389e87f","65576f040411c2a4be0341a4","65576f4485f999a01c1d08d7","1232","
            
        <div style=""text-align: center; position: fixed; top: 5vh; left: 40vw;"">
            <div style=""margin:0 auto; width: 20vw; top: 8vh; font-size: 2vw""> 
            <font color=""green""> Bonus : $0 </font>
            </div>
        </div>
    
            <div> Please press any button to continue to the next trial.</div>
        ","arrowleft","ITI","","","","","","",""
"","","","","","html-keyboard-response","56","254755","0.0-6.0-1.0","602ba62750c603308389e87f","65576f040411c2a4be0341a4","65576f4485f999a01c1d08d7","null","
        
        <div style=""text-align: center; position: fixed; top: 5vh; left: 40vw;"">
            <div style=""margin:0 auto; width: 20vw; top: 8vh; font-size: 2vw""> 
            <font color=""green""> Bonus : $0 </font>
            </div>
        </div>
    
        <img class=""stim"" src=./stimuli//pack_shapes_diff/cat_1/diff_1/ex_1_1_4.png></img>
    ","null","stimulus","","","","","","",""
"","","","","","html-keyboard-response","57","255766","0.0-6.0-2.0","602ba62750c603308389e87f","65576f040411c2a4be0341a4","65576f4485f999a01c1d08d7","null","
        <div style=""text-align: center; position: fixed; top: 5vh; left: 40vw;"">
            <div style=""margin:0 auto; width: 20vw; top: 8vh; font-size: 2vw""> 
            <font color=""green""> Bonus : $0 </font>
            </div>
        </div>
    ","null","","","","","","","",""
"","","","","","html-keyboard-response","58","256084","0.0-6.0-3.0","602ba62750c603308389e87f","65576f040411c2a4be0341a4","65576f4485f999a01c1d08d7","317","./stimuli//pack_shapes_diff/cat_1/diff_1/ex_1_1_4.png","arrowleft","response","ArrowLeft","4","1","1","test","true",""
"","","","","","html-keyboard-response","59","257596","0.0-6.0-4.0","602ba62750c603308389e87f","65576f040411c2a4be0341a4","65576f4485f999a01c1d08d7","null","<p> <font color=""green"" size=""5vw""> Correct category! </font> <br> <br> <font color=""green"" size=""8vw""> + $0.05 </font> </p>","null","feedback","","","","","","","0.05"
"","","","","","html-keyboard-response","60","258178","0.0-6.1-0.1","602ba62750c603308389e87f","65576f040411c2a4be0341a4","65576f4485f999a01c1d08d7","581","
            
        <div style=""text-align: center; position: fixed; top: 5vh; left: 40vw;"">
            <div style=""margin:0 auto; width: 20vw; top: 8vh; font-size: 2vw""> 
            <font color=""green""> Bonus : $0.05 </font>
            </div>
        </div>
    
            <div> Please press any button to continue to the next trial.</div>
        ","arrowleft","ITI","","","","","","",""
"","","","","","html-keyboard-response","61","258791","0.0-6.1-1.1","602ba62750c603308389e87f","65576f040411c2a4be0341a4","65576f4485f999a01c1d08d7","null","
        
        <div style=""text-align: center; position: fixed; top: 5vh; left: 40vw;"">
            <div style=""margin:0 auto; width: 20vw; top: 8vh; font-size: 2vw""> 
            <font color=""green""> Bonus : $0.05 </font>
            </div>
        </div>
    
        <img class=""stim"" src=./stimuli//pack_shapes_diff/cat_2/diff_1/ex_2_1_13.png></img>
    ","null","stimulus","","","","","","",""
"","","","","","html-keyboard-response","62","259798","0.0-6.1-2.1","602ba62750c603308389e87f","65576f040411c2a4be0341a4","65576f4485f999a01c1d08d7","null","
        <div style=""text-align: center; position: fixed; top: 5vh; left: 40vw;"">
            <div style=""margin:0 auto; width: 20vw; top: 8vh; font-size: 2vw""> 
            <font color=""green""> Bonus : $0.05 </font>
            </div>
        </div>
    ","null","","","","","","","",""
"","","","","","html-keyboard-response","63","260122","0.0-6.1-3.1","602ba62750c603308389e87f","65576f040411c2a4be0341a4","65576f4485f999a01c1d08d7","324","./stimuli//pack_shapes_diff/cat_2/diff_1/ex_2_1_13.png","arrowright","response","ArrowRight","13","2","1","test","true",""
"","","","","","html-keyboard-response","64","261637","0.0-6.1-4.1","602ba62750c603308389e87f","65576f040411c2a4be0341a4","65576f4485f999a01c1d08d7","null","<p> <font color=""green"" size=""5vw""> Correct category! </font> <br> <br> <font color=""green"" size=""8vw""> + $0.05 </font> </p>","null","feedback","","","","","","","0.1"
"","","","","","html-keyboard-response","65","262265","0.0-6.2-0.2","602ba62750c603308389e87f","65576f040411c2a4be0341a4","65576f4485f999a01c1d08d7","627","
            
        <div style=""text-align: center; position: fixed; top: 5vh; left: 40vw;"">
            <div style=""margin:0 auto; width: 20vw; top: 8vh; font-size: 2vw""> 
            <font color=""green""> Bonus : $0.1 </font>
            </div>
        </div>
    
            <div> Please press any button to continue to the next trial.</div>
        ","arrowleft","ITI","","","","","","",""
"","","","","","html-keyboard-response","66","262874","0.0-6.2-1.2","602ba62750c603308389e87f","65576f040411c2a4be0341a4","65576f4485f999a01c1d08d7","null","
        
        <div style=""text-align: center; position: fixed; top: 5vh; left: 40vw;"">
            <div style=""margin:0 auto; width: 20vw; top: 8vh; font-size: 2vw""> 
            <font color=""green""> Bonus : $0.1 </font>
            </div>
        </div>
    
        <img class=""stim"" src=./stimuli//pack_shapes_diff/cat_2/diff_1/ex_2_1_4.png></img>
    ","null","stimulus","","","","","","",""
"","","","","","html-keyboard-response","67","263881","0.0-6.2-2.2","602ba62750c603308389e87f","65576f040411c2a4be0341a4","65576f4485f999a01c1d08d7","null","
        <div style=""text-align: center; position: fixed; top: 5vh; left: 40vw;"">
            <div style=""margin:0 auto; width: 20vw; top: 8vh; font-size: 2vw""> 
            <font color=""green""> Bonus : $0.1 </font>
            </div>
        </div>
    ","null","","","","","","","",""
"","","","","","html-keyboard-response","68","264136","0.0-6.2-3.2","602ba62750c603308389e87f","65576f040411c2a4be0341a4","65576f4485f999a01c1d08d7","254","./stimuli//pack_shapes_diff/cat_2/diff_1/ex_2_1_4.png","arrowright","response","ArrowRight","4","2","1","test","true",""
"","","","","","html-keyboard-response","69","265639","0.0-6.2-4.2","602ba62750c603308389e87f","65576f040411c2a4be0341a4","65576f4485f999a01c1d08d7","null","<p> <font color=""green"" size=""5vw""> Correct category! </font> <br> <br> <font color=""green"" size=""8vw""> + $0.05 </font> </p>","null","feedback","","","","","","","0.15"
"","","","","","html-keyboard-response","70","266142","0.0-6.3-0.3","602ba62750c603308389e87f","65576f040411c2a4be0341a4","65576f4485f999a01c1d08d7","502","
            
        <div style=""text-align: center; position: fixed; top: 5vh; left: 40vw;"">
            <div style=""margin:0 auto; width: 20vw; top: 8vh; font-size: 2vw""> 
            <font color=""green""> Bonus : $0.15 </font>
            </div>
        </div>
    
            <div> Please press any button to continue to the next trial.</div>
        ","arrowleft","ITI","","","","","","",""
"","","","","","html-keyboard-response","71","266752","0.0-6.3-1.3","602ba62750c603308389e87f","65576f040411c2a4be0341a4","65576f4485f999a01c1d08d7","null","
        
        <div style=""text-align: center; position: fixed; top: 5vh; left: 40vw;"">
            <div style=""margin:0 auto; width: 20vw; top: 8vh; font-size: 2vw""> 
            <font color=""green""> Bonus : $0.15 </font>
            </div>
        </div>
    
        <img class=""stim"" src=./stimuli//pack_shapes_diff/cat_2/diff_1/ex_2_1_10.png></img>
    ","null","stimulus","","","","","","",""
"","","","","","html-keyboard-response","72","267761","0.0-6.3-2.3","602ba62750c603308389e87f","65576f040411c2a4be0341a4","65576f4485f999a01c1d08d7","null","
        <div style=""text-align: center; position: fixed; top: 5vh; left: 40vw;"">
            <div style=""margin:0 auto; width: 20vw; top: 8vh; font-size: 2vw""> 
            <font color=""green""> Bonus : $0.15 </font>
            </div>
        </div>
    ","null","","","","","","","",""
"","","","","","html-keyboard-response","73","268064","0.0-6.3-3.3","602ba62750c603308389e87f","65576f040411c2a4be0341a4","65576f4485f999a01c1d08d7","303","./stimuli//pack_shapes_diff/cat_2/diff_1/ex_2_1_10.png","arrowright","response","ArrowRight","10","2","1","test","true",""
"","","","","","html-keyboard-response","74","269575","0.0-6.3-4.3","602ba62750c603308389e87f","65576f040411c2a4be0341a4","65576f4485f999a01c1d08d7","null","<p> <font color=""green"" size=""5vw""> Correct category! </font> <br> <br> <font color=""green"" size=""8vw""> + $0.05 </font> </p>","null","feedback","","","","","","","0.2"
"","","","","","html-keyboard-response","75","269966","0.0-6.4-0.4","602ba62750c603308389e87f","65576f040411c2a4be0341a4","65576f4485f999a01c1d08d7","390","
            
        <div style=""text-align: center; position: fixed; top: 5vh; left: 40vw;"">
            <div style=""margin:0 auto; width: 20vw; top: 8vh; font-size: 2vw""> 
            <font color=""green""> Bonus : $0.2 </font>
            </div>
        </div>
    
            <div> Please press any button to continue to the next trial.</div>
        ","arrowleft","ITI","","","","","","",""
"","","","","","html-keyboard-response","76","270581","0.0-6.4-1.4","602ba62750c603308389e87f","65576f040411c2a4be0341a4","65576f4485f999a01c1d08d7","null","
        
        <div style=""text-align: center; position: fixed; top: 5vh; left: 40vw;"">
            <div style=""margin:0 auto; width: 20vw; top: 8vh; font-size: 2vw""> 
            <font color=""green""> Bonus : $0.2 </font>
            </div>
        </div>
    
        <img class=""stim"" src=./stimuli//pack_shapes_diff/cat_1/diff_1/ex_1_1_16.png></img>
    ","null","stimulus","","","","","","",""
"","","","","","html-keyboard-response","77","271594","0.0-6.4-2.4","602ba62750c603308389e87f","65576f040411c2a4be0341a4","65576f4485f999a01c1d08d7","null","
        <div style=""text-align: center; position: fixed; top: 5vh; left: 40vw;"">
            <div style=""margin:0 auto; width: 20vw; top: 8vh; font-size: 2vw""> 
            <font color=""green""> Bonus : $0.2 </font>
            </div>
        </div>
    ","null","","","","","","","",""
"","","","","","html-keyboard-response","78","271894","0.0-6.4-3.4","602ba62750c603308389e87f","65576f040411c2a4be0341a4","65576f4485f999a01c1d08d7","299","./stimuli//pack_shapes_diff/cat_1/diff_1/ex_1_1_16.png","arrowright","response","ArrowLeft","16","1","1","test","false",""
"","","","","","html-keyboard-response","79","273409","0.0-6.4-4.4","602ba62750c603308389e87f","65576f040411c2a4be0341a4","65576f4485f999a01c1d08d7","null","<p> <font color=""red"" size=""5vw""> Wrong category! </font> </p>","null","feedback","","","","","","","0.2"
"","","","","","html-keyboard-response","80","273815","0.0-6.5-0.5","602ba62750c603308389e87f","65576f040411c2a4be0341a4","65576f4485f999a01c1d08d7","405","
            
        <div style=""text-align: center; position: fixed; top: 5vh; left: 40vw;"">
            <div style=""margin:0 auto; width: 20vw; top: 8vh; font-size: 2vw""> 
            <font color=""green""> Bonus : $0.2 </font>
            </div>
        </div>
    
            <div> Please press any button to continue to the next trial.</div>
        ","arrowleft","ITI","","","","","","",""
"","","","","","html-keyboard-response","81","274417","0.0-6.5-1.5","602ba62750c603308389e87f","65576f040411c2a4be0341a4","65576f4485f999a01c1d08d7","null","
        
        <div style=""text-align: center; position: fixed; top: 5vh; left: 40vw;"">
            <div style=""margin:0 auto; width: 20vw; top: 8vh; font-size: 2vw""> 
            <font color=""green""> Bonus : $0.2 </font>
            </div>
        </div>
    
        <img class=""stim"" src=./stimuli//pack_shapes_diff/cat_1/diff_2/ex_1_2_12.png></img>
    ","null","stimulus","","","","","","",""
"","","","","","html-keyboard-response","82","275425","0.0-6.5-2.5","602ba62750c603308389e87f","65576f040411c2a4be0341a4","65576f4485f999a01c1d08d7","null","
        <div style=""text-align: center; position: fixed; top: 5vh; left: 40vw;"">
            <div style=""margin:0 auto; width: 20vw; top: 8vh; font-size: 2vw""> 
            <font color=""green""> Bonus : $0.2 </font>
            </div>
        </div>
    ","null","","","","","","","",""
"","","","","","html-keyboard-response","83","275669","0.0-6.5-3.5","602ba62750c603308389e87f","65576f040411c2a4be0341a4","65576f4485f999a01c1d08d7","244","./stimuli//pack_shapes_diff/cat_1/diff_2/ex_1_2_12.png","arrowleft","response","ArrowLeft","12","1","2","test","true",""
"","","","","","html-keyboard-response","84","277174","0.0-6.5-4.5","602ba62750c603308389e87f","65576f040411c2a4be0341a4","65576f4485f999a01c1d08d7","null","<p> <font color=""green"" size=""5vw""> Correct category! </font> <br> <br> <font color=""green"" size=""8vw""> + $0.05 </font> </p>","null","feedback","","","","","","","0.25"
"","","","","","html-keyboard-response","85","277622","0.0-6.6-0.6","602ba62750c603308389e87f","65576f040411c2a4be0341a4","65576f4485f999a01c1d08d7","448","
            
        <div style=""text-align: center; position: fixed; top: 5vh; left: 40vw;"">
            <div style=""margin:0 auto; width: 20vw; top: 8vh; font-size: 2vw""> 
            <font color=""green""> Bonus : $0.25 </font>
            </div>
        </div>
    
            <div> Please press any button to continue to the next trial.</div>
        ","arrowleft","ITI","","","","","","",""
"","","","","","html-keyboard-response","86","278231","0.0-6.6-1.6","602ba62750c603308389e87f","65576f040411c2a4be0341a4","65576f4485f999a01c1d08d7","null","
        
        <div style=""text-align: center; position: fixed; top: 5vh; left: 40vw;"">
            <div style=""margin:0 auto; width: 20vw; top: 8vh; font-size: 2vw""> 
            <font color=""green""> Bonus : $0.25 </font>
            </div>
        </div>
    
        <img class=""stim"" src=./stimuli//pack_shapes_diff/cat_2/diff_2/ex_2_2_12.png></img>
    ","null","stimulus","","","","","","",""
"","","","","","html-keyboard-response","87","279242","0.0-6.6-2.6","602ba62750c603308389e87f","65576f040411c2a4be0341a4","65576f4485f999a01c1d08d7","null","
        <div style=""text-align: center; position: fixed; top: 5vh; left: 40vw;"">
            <div style=""margin:0 auto; width: 20vw; top: 8vh; font-size: 2vw""> 
            <font color=""green""> Bonus : $0.25 </font>
            </div>
        </div>
    ","null","","","","","","","",""
"","","","","","html-keyboard-response","88","279727","0.0-6.6-3.6","602ba62750c603308389e87f","65576f040411c2a4be0341a4","65576f4485f999a01c1d08d7","484","./stimuli//pack_shapes_diff/cat_2/diff_2/ex_2_2_12.png","arrowright","response","ArrowRight","12","2","2","test","true",""
"","","","","","html-keyboard-response","89","281230","0.0-6.6-4.6","602ba62750c603308389e87f","65576f040411c2a4be0341a4","65576f4485f999a01c1d08d7","null","<p> <font color=""green"" size=""5vw""> Correct category! </font> <br> <br> <font color=""green"" size=""8vw""> + $0.05 </font> </p>","null","feedback","","","","","","","0.3"
"","","","","","html-keyboard-response","90","281536","0.0-6.7-0.7","602ba62750c603308389e87f","65576f040411c2a4be0341a4","65576f4485f999a01c1d08d7","306","
            
        <div style=""text-align: center; position: fixed; top: 5vh; left: 40vw;"">
            <div style=""margin:0 auto; width: 20vw; top: 8vh; font-size: 2vw""> 
            <font color=""green""> Bonus : $0.3 </font>
            </div>
        </div>
    
            <div> Please press any button to continue to the next trial.</div>
        ","arrowleft","ITI","","","","","","",""
"","","","","","html-keyboard-response","91","282147","0.0-6.7-1.7","602ba62750c603308389e87f","65576f040411c2a4be0341a4","65576f4485f999a01c1d08d7","null","
        
        <div style=""text-align: center; position: fixed; top: 5vh; left: 40vw;"">
            <div style=""margin:0 auto; width: 20vw; top: 8vh; font-size: 2vw""> 
            <font color=""green""> Bonus : $0.3 </font>
            </div>
        </div>
    
        <img class=""stim"" src=./stimuli//pack_shapes_diff/cat_2/diff_2/ex_2_2_10.png></img>
    ","null","stimulus","","","","","","",""
"","","","","","html-keyboard-response","92","283156","0.0-6.7-2.7","602ba62750c603308389e87f","65576f040411c2a4be0341a4","65576f4485f999a01c1d08d7","null","
        <div style=""text-align: center; position: fixed; top: 5vh; left: 40vw;"">
            <div style=""margin:0 auto; width: 20vw; top: 8vh; font-size: 2vw""> 
            <font color=""green""> Bonus : $0.3 </font>
            </div>
        </div>
    ","null","","","","","","","",""
"","","","","","html-keyboard-response","93","283418","0.0-6.7-3.7","602ba62750c603308389e87f","65576f040411c2a4be0341a4","65576f4485f999a01c1d08d7","263","./stimuli//pack_shapes_diff/cat_2/diff_2/ex_2_2_10.png","arrowright","response","ArrowRight","10","2","2","test","true",""
"","","","","","html-keyboard-response","94","284923","0.0-6.7-4.7","602ba62750c603308389e87f","65576f040411c2a4be0341a4","65576f4485f999a01c1d08d7","null","<p> <font color=""green"" size=""5vw""> Correct category! </font> <br> <br> <font color=""green"" size=""8vw""> + $0.05 </font> </p>","null","feedback","","","","","","","0.35"
"","","","","","html-keyboard-response","95","285217","0.0-6.8-0.8","602ba62750c603308389e87f","65576f040411c2a4be0341a4","65576f4485f999a01c1d08d7","293","
            
        <div style=""text-align: center; position: fixed; top: 5vh; left: 40vw;"">
            <div style=""margin:0 auto; width: 20vw; top: 8vh; font-size: 2vw""> 
            <font color=""green""> Bonus : $0.35 </font>
            </div>
        </div>
    
            <div> Please press any button to continue to the next trial.</div>
        ","arrowleft","ITI","","","","","","",""
"","","","","","html-keyboard-response","96","285824","0.0-6.8-1.8","602ba62750c603308389e87f","65576f040411c2a4be0341a4","65576f4485f999a01c1d08d7","null","
        
        <div style=""text-align: center; position: fixed; top: 5vh; left: 40vw;"">
            <div style=""margin:0 auto; width: 20vw; top: 8vh; font-size: 2vw""> 
            <font color=""green""> Bonus : $0.35 </font>
            </div>
        </div>
    
        <img class=""stim"" src=./stimuli//pack_shapes_diff/cat_2/diff_2/ex_2_2_2.png></img>
    ","null","stimulus","","","","","","",""
"","","","","","html-keyboard-response","97","286833","0.0-6.8-2.8","602ba62750c603308389e87f","65576f040411c2a4be0341a4","65576f4485f999a01c1d08d7","null","
        <div style=""text-align: center; position: fixed; top: 5vh; left: 40vw;"">
            <div style=""margin:0 auto; width: 20vw; top: 8vh; font-size: 2vw""> 
            <font color=""green""> Bonus : $0.35 </font>
            </div>
        </div>
    ","null","","","","","","","",""
"","","","","","html-keyboard-response","98","287082","0.0-6.8-3.8","602ba62750c603308389e87f","65576f040411c2a4be0341a4","65576f4485f999a01c1d08d7","248","./stimuli//pack_shapes_diff/cat_2/diff_2/ex_2_2_2.png","arrowright","response","ArrowRight","2","2","2","test","true",""
"","","","","","html-keyboard-response","99","288593","0.0-6.8-4.8","602ba62750c603308389e87f","65576f040411c2a4be0341a4","65576f4485f999a01c1d08d7","null","<p> <font color=""green"" size=""5vw""> Correct category! </font> <br> <br> <font color=""green"" size=""8vw""> + $0.05 </font> </p>","null","feedback","","","","","","","0.4"
"","","","","","html-keyboard-response","100","288882","0.0-6.9-0.9","602ba62750c603308389e87f","65576f040411c2a4be0341a4","65576f4485f999a01c1d08d7","288","
            
        <div style=""text-align: center; position: fixed; top: 5vh; left: 40vw;"">
            <div style=""margin:0 auto; width: 20vw; top: 8vh; font-size: 2vw""> 
            <font color=""green""> Bonus : $0.4 </font>
            </div>
        </div>
    
            <div> Please press any button to continue to the next trial.</div>
        ","arrowleft","ITI","","","","","","",""
"","","","","","html-keyboard-response","101","289496","0.0-6.9-1.9","602ba62750c603308389e87f","65576f040411c2a4be0341a4","65576f4485f999a01c1d08d7","null","
        
        <div style=""text-align: center; position: fixed; top: 5vh; left: 40vw;"">
            <div style=""margin:0 auto; width: 20vw; top: 8vh; font-size: 2vw""> 
            <font color=""green""> Bonus : $0.4 </font>
            </div>
        </div>
    
        <img class=""stim"" src=./stimuli//pack_shapes_diff/cat_1/diff_2/ex_1_2_15.png></img>
    ","null","stimulus","","","","","","",""
"","","","","","html-keyboard-response","102","290503","0.0-6.9-2.9","602ba62750c603308389e87f","65576f040411c2a4be0341a4","65576f4485f999a01c1d08d7","null","
        <div style=""text-align: center; position: fixed; top: 5vh; left: 40vw;"">
            <div style=""margin:0 auto; width: 20vw; top: 8vh; font-size: 2vw""> 
            <font color=""green""> Bonus : $0.4 </font>
            </div>
        </div>
    ","null","","","","","","","",""
"","","","","","html-keyboard-response","103","290734","0.0-6.9-3.9","602ba62750c603308389e87f","65576f040411c2a4be0341a4","65576f4485f999a01c1d08d7","231","./stimuli//pack_shapes_diff/cat_1/diff_2/ex_1_2_15.png","arrowleft","response","ArrowLeft","15","1","2","test","true",""
"","","","","","html-keyboard-response","104","292236","0.0-6.9-4.9","602ba62750c603308389e87f","65576f040411c2a4be0341a4","65576f4485f999a01c1d08d7","null","<p> <font color=""green"" size=""5vw""> Correct category! </font> <br> <br> <font color=""green"" size=""8vw""> + $0.05 </font> </p>","null","feedback","","","","","","","0.45"
"","","","","","html-keyboard-response","105","292521","0.0-6.10-0.10","602ba62750c603308389e87f","65576f040411c2a4be0341a4","65576f4485f999a01c1d08d7","284","
            
        <div style=""text-align: center; position: fixed; top: 5vh; left: 40vw;"">
            <div style=""margin:0 auto; width: 20vw; top: 8vh; font-size: 2vw""> 
            <font color=""green""> Bonus : $0.45 </font>
            </div>
        </div>
    
            <div> Please press any button to continue to the next trial.</div>
        ","arrowleft","ITI","","","","","","",""
"","","","","","html-keyboard-response","106","293133","0.0-6.10-1.10","602ba62750c603308389e87f","65576f040411c2a4be0341a4","65576f4485f999a01c1d08d7","null","
        
        <div style=""text-align: center; position: fixed; top: 5vh; left: 40vw;"">
            <div style=""margin:0 auto; width: 20vw; top: 8vh; font-size: 2vw""> 
            <font color=""green""> Bonus : $0.45 </font>
            </div>
        </div>
    
        <img class=""stim"" src=./stimuli//pack_shapes_diff/cat_1/diff_3/ex_1_3_4.png></img>
    ","null","stimulus","","","","","","",""
"","","","","","html-keyboard-response","107","294143","0.0-6.10-2.10","602ba62750c603308389e87f","65576f040411c2a4be0341a4","65576f4485f999a01c1d08d7","null","
        <div style=""text-align: center; position: fixed; top: 5vh; left: 40vw;"">
            <div style=""margin:0 auto; width: 20vw; top: 8vh; font-size: 2vw""> 
            <font color=""green""> Bonus : $0.45 </font>
            </div>
        </div>
    ","null","","","","","","","",""
"","","","","","html-keyboard-response","108","294414","0.0-6.10-3.10","602ba62750c603308389e87f","65576f040411c2a4be0341a4","65576f4485f999a01c1d08d7","270","./stimuli//pack_shapes_diff/cat_1/diff_3/ex_1_3_4.png","arrowright","response","ArrowLeft","4","1","3","test","false",""
"","","","","","html-keyboard-response","109","295927","0.0-6.10-4.10","602ba62750c603308389e87f","65576f040411c2a4be0341a4","65576f4485f999a01c1d08d7","null","<p> <font color=""red"" size=""5vw""> Wrong category! </font> </p>","null","feedback","","","","","","","0.45"
"","","","","","html-keyboard-response","110","296211","0.0-6.11-0.11","602ba62750c603308389e87f","65576f040411c2a4be0341a4","65576f4485f999a01c1d08d7","284","
            
        <div style=""text-align: center; position: fixed; top: 5vh; left: 40vw;"">
            <div style=""margin:0 auto; width: 20vw; top: 8vh; font-size: 2vw""> 
            <font color=""green""> Bonus : $0.45 </font>
            </div>
        </div>
    
            <div> Please press any button to continue to the next trial.</div>
        ","arrowleft","ITI","","","","","","",""
"","","","","","html-keyboard-response","111","296824","0.0-6.11-1.11","602ba62750c603308389e87f","65576f040411c2a4be0341a4","65576f4485f999a01c1d08d7","null","
        
        <div style=""text-align: center; position: fixed; top: 5vh; left: 40vw;"">
            <div style=""margin:0 auto; width: 20vw; top: 8vh; font-size: 2vw""> 
            <font color=""green""> Bonus : $0.45 </font>
            </div>
        </div>
    
        <img class=""stim"" src=./stimuli//pack_shapes_diff/cat_1/diff_3/ex_1_3_6.png></img>
    ","null","stimulus","","","","","","",""
"","","","","","html-keyboard-response","112","297829","0.0-6.11-2.11","602ba62750c603308389e87f","65576f040411c2a4be0341a4","65576f4485f999a01c1d08d7","null","
        <div style=""text-align: center; position: fixed; top: 5vh; left: 40vw;"">
            <div style=""margin:0 auto; width: 20vw; top: 8vh; font-size: 2vw""> 
            <font color=""green""> Bonus : $0.45 </font>
            </div>
        </div>
    ","null","","","","","","","",""
"","","","","","html-keyboard-response","113","298113","0.0-6.11-3.11","602ba62750c603308389e87f","65576f040411c2a4be0341a4","65576f4485f999a01c1d08d7","284","./stimuli//pack_shapes_diff/cat_1/diff_3/ex_1_3_6.png","arrowleft","response","ArrowLeft","6","1","3","test","true",""
"","","","","","html-keyboard-response","114","299625","0.0-6.11-4.11","602ba62750c603308389e87f","65576f040411c2a4be0341a4","65576f4485f999a01c1d08d7","null","<p> <font color=""green"" size=""5vw""> Correct category! </font> <br> <br> <font color=""green"" size=""8vw""> + $0.05 </font> </p>","null","feedback","","","","","","","0.5"
"","","","","","html-keyboard-response","115","299886","0.0-6.12-0.12","602ba62750c603308389e87f","65576f040411c2a4be0341a4","65576f4485f999a01c1d08d7","260","
            
        <div style=""text-align: center; position: fixed; top: 5vh; left: 40vw;"">
            <div style=""margin:0 auto; width: 20vw; top: 8vh; font-size: 2vw""> 
            <font color=""green""> Bonus : $0.5 </font>
            </div>
        </div>
    
            <div> Please press any button to continue to the next trial.</div>
        ","arrowleft","ITI","","","","","","",""
"","","","","","html-keyboard-response","116","300492","0.0-6.12-1.12","602ba62750c603308389e87f","65576f040411c2a4be0341a4","65576f4485f999a01c1d08d7","null","
        
        <div style=""text-align: center; position: fixed; top: 5vh; left: 40vw;"">
            <div style=""margin:0 auto; width: 20vw; top: 8vh; font-size: 2vw""> 
            <font color=""green""> Bonus : $0.5 </font>
            </div>
        </div>
    
        <img class=""stim"" src=./stimuli//pack_shapes_diff/cat_1/diff_3/ex_1_3_17.png></img>
    ","null","stimulus","","","","","","",""
"","","","","","html-keyboard-response","117","301498","0.0-6.12-2.12","602ba62750c603308389e87f","65576f040411c2a4be0341a4","65576f4485f999a01c1d08d7","null","
        <div style=""text-align: center; position: fixed; top: 5vh; left: 40vw;"">
            <div style=""margin:0 auto; width: 20vw; top: 8vh; font-size: 2vw""> 
            <font color=""green""> Bonus : $0.5 </font>
            </div>
        </div>
    ","null","","","","","","","",""
"","","","","","html-keyboard-response","118","301712","0.0-6.12-3.12","602ba62750c603308389e87f","65576f040411c2a4be0341a4","65576f4485f999a01c1d08d7","214","./stimuli//pack_shapes_diff/cat_1/diff_3/ex_1_3_17.png","arrowright","response","ArrowLeft","17","1","3","test","false",""
"","","","","","html-keyboard-response","119","303219","0.0-6.12-4.12","602ba62750c603308389e87f","65576f040411c2a4be0341a4","65576f4485f999a01c1d08d7","null","<p> <font color=""red"" size=""5vw""> Wrong category! </font> </p>","null","feedback","","","","","","","0.5"
"","","","","","html-keyboard-response","120","303480","0.0-6.13-0.13","602ba62750c603308389e87f","65576f040411c2a4be0341a4","65576f4485f999a01c1d08d7","260","
            
        <div style=""text-align: center; position: fixed; top: 5vh; left: 40vw;"">
            <div style=""margin:0 auto; width: 20vw; top: 8vh; font-size: 2vw""> 
            <font color=""green""> Bonus : $0.5 </font>
            </div>
        </div>
    
            <div> Please press any button to continue to the next trial.</div>
        ","arrowleft","ITI","","","","","","",""
"","","","","","html-keyboard-response","121","304094","0.0-6.13-1.13","602ba62750c603308389e87f","65576f040411c2a4be0341a4","65576f4485f999a01c1d08d7","null","
        
        <div style=""text-align: center; position: fixed; top: 5vh; left: 40vw;"">
            <div style=""margin:0 auto; width: 20vw; top: 8vh; font-size: 2vw""> 
            <font color=""green""> Bonus : $0.5 </font>
            </div>
        </div>
    
        <img class=""stim"" src=./stimuli//pack_shapes_diff/cat_1/diff_3/ex_1_3_9.png></img>
    ","null","stimulus","","","","","","",""
"","","","","","html-keyboard-response","122","305098","0.0-6.13-2.13","602ba62750c603308389e87f","65576f040411c2a4be0341a4","65576f4485f999a01c1d08d7","null","
        <div style=""text-align: center; position: fixed; top: 5vh; left: 40vw;"">
            <div style=""margin:0 auto; width: 20vw; top: 8vh; font-size: 2vw""> 
            <font color=""green""> Bonus : $0.5 </font>
            </div>
        </div>
    ","null","","","","","","","",""
"","","","","","html-keyboard-response","123","305305","0.0-6.13-3.13","602ba62750c603308389e87f","65576f040411c2a4be0341a4","65576f4485f999a01c1d08d7","207","./stimuli//pack_shapes_diff/cat_1/diff_3/ex_1_3_9.png","arrowleft","response","ArrowLeft","9","1","3","test","true",""
"","","","","","html-keyboard-response","124","306816","0.0-6.13-4.13","602ba62750c603308389e87f","65576f040411c2a4be0341a4","65576f4485f999a01c1d08d7","null","<p> <font color=""green"" size=""5vw""> Correct category! </font> <br> <br> <font color=""green"" size=""8vw""> + $0.05 </font> </p>","null","feedback","","","","","","","0.55"
"","","","","","html-keyboard-response","125","307140","0.0-6.14-0.14","602ba62750c603308389e87f","65576f040411c2a4be0341a4","65576f4485f999a01c1d08d7","323","
            
        <div style=""text-align: center; position: fixed; top: 5vh; left: 40vw;"">
            <div style=""margin:0 auto; width: 20vw; top: 8vh; font-size: 2vw""> 
            <font color=""green""> Bonus : $0.55 </font>
            </div>
        </div>
    
            <div> Please press any button to continue to the next trial.</div>
        ","arrowleft","ITI","","","","","","",""
"","","","","","html-keyboard-response","126","307747","0.0-6.14-1.14","602ba62750c603308389e87f","65576f040411c2a4be0341a4","65576f4485f999a01c1d08d7","null","
        
        <div style=""text-align: center; position: fixed; top: 5vh; left: 40vw;"">
            <div style=""margin:0 auto; width: 20vw; top: 8vh; font-size: 2vw""> 
            <font color=""green""> Bonus : $0.55 </font>
            </div>
        </div>
    
        <img class=""stim"" src=./stimuli//pack_shapes_diff/cat_2/diff_3/ex_2_3_1.png></img>
    ","null","stimulus","","","","","","",""
"","","","","","html-keyboard-response","127","308758","0.0-6.14-2.14","602ba62750c603308389e87f","65576f040411c2a4be0341a4","65576f4485f999a01c1d08d7","null","
        <div style=""text-align: center; position: fixed; top: 5vh; left: 40vw;"">
            <div style=""margin:0 auto; width: 20vw; top: 8vh; font-size: 2vw""> 
            <font color=""green""> Bonus : $0.55 </font>
            </div>
        </div>
    ","null","","","","","","","",""
"","","","","","html-keyboard-response","128","309006","0.0-6.14-3.14","602ba62750c603308389e87f","65576f040411c2a4be0341a4","65576f4485f999a01c1d08d7","247","./stimuli//pack_shapes_diff/cat_2/diff_3/ex_2_3_1.png","arrowright","response","ArrowRight","1","2","3","test","true",""
"","","","","","html-keyboard-response","129","310519","0.0-6.14-4.14","602ba62750c603308389e87f","65576f040411c2a4be0341a4","65576f4485f999a01c1d08d7","null","<p> <font color=""green"" size=""5vw""> Correct category! </font> <br> <br> <font color=""green"" size=""8vw""> + $0.05 </font> </p>","null","feedback","","","","","","","0.6"
"","","","","","html-keyboard-response","130","310799","0.0-6.15-0.15","602ba62750c603308389e87f","65576f040411c2a4be0341a4","65576f4485f999a01c1d08d7","280","
            
        <div style=""text-align: center; position: fixed; top: 5vh; left: 40vw;"">
            <div style=""margin:0 auto; width: 20vw; top: 8vh; font-size: 2vw""> 
            <font color=""green""> Bonus : $0.6 </font>
            </div>
        </div>
    
            <div> Please press any button to continue to the next trial.</div>
        ","arrowleft","ITI","","","","","","",""
"","","","","","html-keyboard-response","131","311415","0.0-6.15-1.15","602ba62750c603308389e87f","65576f040411c2a4be0341a4","65576f4485f999a01c1d08d7","null","
        
        <div style=""text-align: center; position: fixed; top: 5vh; left: 40vw;"">
            <div style=""margin:0 auto; width: 20vw; top: 8vh; font-size: 2vw""> 
            <font color=""green""> Bonus : $0.6 </font>
            </div>
        </div>
    
        <img class=""stim"" src=./stimuli//pack_shapes_diff/cat_1/diff_2/ex_1_2_5.png></img>
    ","null","stimulus","","","","","","",""
"","","","","","html-keyboard-response","132","312431","0.0-6.15-2.15","602ba62750c603308389e87f","65576f040411c2a4be0341a4","65576f4485f999a01c1d08d7","null","
        <div style=""text-align: center; position: fixed; top: 5vh; left: 40vw;"">
            <div style=""margin:0 auto; width: 20vw; top: 8vh; font-size: 2vw""> 
            <font color=""green""> Bonus : $0.6 </font>
            </div>
        </div>
    ","null","","","","","","","",""
"","","","","","html-keyboard-response","133","312724","0.0-6.15-3.15","602ba62750c603308389e87f","65576f040411c2a4be0341a4","65576f4485f999a01c1d08d7","293","./stimuli//pack_shapes_diff/cat_1/diff_2/ex_1_2_5.png","arrowleft","response","ArrowLeft","5","1","2","test","true",""
"","","","","","html-keyboard-response","134","314229","0.0-6.15-4.15","602ba62750c603308389e87f","65576f040411c2a4be0341a4","65576f4485f999a01c1d08d7","null","<p> <font color=""green"" size=""5vw""> Correct category! </font> <br> <br> <font color=""green"" size=""8vw""> + $0.05 </font> </p>","null","feedback","","","","","","","0.65"
"","","","","","html-keyboard-response","135","314635","0.0-6.16-0.16","602ba62750c603308389e87f","65576f040411c2a4be0341a4","65576f4485f999a01c1d08d7","405","
            
        <div style=""text-align: center; position: fixed; top: 5vh; left: 40vw;"">
            <div style=""margin:0 auto; width: 20vw; top: 8vh; font-size: 2vw""> 
            <font color=""green""> Bonus : $0.65 </font>
            </div>
        </div>
    
            <div> Please press any button to continue to the next trial.</div>
        ","arrowleft","ITI","","","","","","",""
"","","","","","html-keyboard-response","136","315237","0.0-6.16-1.16","602ba62750c603308389e87f","65576f040411c2a4be0341a4","65576f4485f999a01c1d08d7","null","
        
        <div style=""text-align: center; position: fixed; top: 5vh; left: 40vw;"">
            <div style=""margin:0 auto; width: 20vw; top: 8vh; font-size: 2vw""> 
            <font color=""green""> Bonus : $0.65 </font>
            </div>
        </div>
    
        <img class=""stim"" src=./stimuli//pack_shapes_diff/cat_2/diff_2/ex_2_2_4.png></img>
    ","null","stimulus","","","","","","",""
"","","","","","html-keyboard-response","137","316250","0.0-6.16-2.16","602ba62750c603308389e87f","65576f040411c2a4be0341a4","65576f4485f999a01c1d08d7","null","
        <div style=""text-align: center; position: fixed; top: 5vh; left: 40vw;"">
            <div style=""margin:0 auto; width: 20vw; top: 8vh; font-size: 2vw""> 
            <font color=""green""> Bonus : $0.65 </font>
            </div>
        </div>
    ","null","","","","","","","",""
"","","","","","html-keyboard-response","138","316486","0.0-6.16-3.16","602ba62750c603308389e87f","65576f040411c2a4be0341a4","65576f4485f999a01c1d08d7","236","./stimuli//pack_shapes_diff/cat_2/diff_2/ex_2_2_4.png","arrowright","response","ArrowRight","4","2","2","test","true",""
"","","","","","html-keyboard-response","139","318001","0.0-6.16-4.16","602ba62750c603308389e87f","65576f040411c2a4be0341a4","65576f4485f999a01c1d08d7","null","<p> <font color=""green"" size=""5vw""> Correct category! </font> <br> <br> <font color=""green"" size=""8vw""> + $0.05 </font> </p>","null","feedback","","","","","","","0.7"
"","","","","","html-keyboard-response","140","318261","0.0-6.17-0.17","602ba62750c603308389e87f","65576f040411c2a4be0341a4","65576f4485f999a01c1d08d7","260","
            
        <div style=""text-align: center; position: fixed; top: 5vh; left: 40vw;"">
            <div style=""margin:0 auto; width: 20vw; top: 8vh; font-size: 2vw""> 
            <font color=""green""> Bonus : $0.7 </font>
            </div>
        </div>
    
            <div> Please press any button to continue to the next trial.</div>
        ","arrowleft","ITI","","","","","","",""
"","","","","","html-keyboard-response","141","318870","0.0-6.17-1.17","602ba62750c603308389e87f","65576f040411c2a4be0341a4","65576f4485f999a01c1d08d7","null","
        
        <div style=""text-align: center; position: fixed; top: 5vh; left: 40vw;"">
            <div style=""margin:0 auto; width: 20vw; top: 8vh; font-size: 2vw""> 
            <font color=""green""> Bonus : $0.7 </font>
            </div>
        </div>
    
        <img class=""stim"" src=./stimuli//pack_shapes_diff/cat_2/diff_2/ex_2_2_2.png></img>
    ","null","stimulus","","","","","","",""
"","","","","","html-keyboard-response","142","319878","0.0-6.17-2.17","602ba62750c603308389e87f","65576f040411c2a4be0341a4","65576f4485f999a01c1d08d7","null","
        <div style=""text-align: center; position: fixed; top: 5vh; left: 40vw;"">
            <div style=""margin:0 auto; width: 20vw; top: 8vh; font-size: 2vw""> 
            <font color=""green""> Bonus : $0.7 </font>
            </div>
        </div>
    ","null","","","","","","","",""
"","","","","","html-keyboard-response","143","320108","0.0-6.17-3.17","602ba62750c603308389e87f","65576f040411c2a4be0341a4","65576f4485f999a01c1d08d7","229","./stimuli//pack_shapes_diff/cat_2/diff_2/ex_2_2_2.png","arrowright","response","ArrowRight","2","2","2","test","true",""
"","","","","","html-keyboard-response","144","321611","0.0-6.17-4.17","602ba62750c603308389e87f","65576f040411c2a4be0341a4","65576f4485f999a01c1d08d7","null","<p> <font color=""green"" size=""5vw""> Correct category! </font> <br> <br> <font color=""green"" size=""8vw""> + $0.05 </font> </p>","null","feedback","","","","","","","0.75"
"","","","","","html-keyboard-response","145","321919","0.0-6.18-0.18","602ba62750c603308389e87f","65576f040411c2a4be0341a4","65576f4485f999a01c1d08d7","308","
            
        <div style=""text-align: center; position: fixed; top: 5vh; left: 40vw;"">
            <div style=""margin:0 auto; width: 20vw; top: 8vh; font-size: 2vw""> 
            <font color=""green""> Bonus : $0.75 </font>
            </div>
        </div>
    
            <div> Please press any button to continue to the next trial.</div>
        ","arrowleft","ITI","","","","","","",""
"","","","","","html-keyboard-response","146","322525","0.0-6.18-1.18","602ba62750c603308389e87f","65576f040411c2a4be0341a4","65576f4485f999a01c1d08d7","null","
        
        <div style=""text-align: center; position: fixed; top: 5vh; left: 40vw;"">
            <div style=""margin:0 auto; width: 20vw; top: 8vh; font-size: 2vw""> 
            <font color=""green""> Bonus : $0.75 </font>
            </div>
        </div>
    
        <img class=""stim"" src=./stimuli//pack_shapes_diff/cat_1/diff_2/ex_1_2_17.png></img>
    ","null","stimulus","","","","","","",""
"","","","","","html-keyboard-response","147","323533","0.0-6.18-2.18","602ba62750c603308389e87f","65576f040411c2a4be0341a4","65576f4485f999a01c1d08d7","null","
        <div style=""text-align: center; position: fixed; top: 5vh; left: 40vw;"">
            <div style=""margin:0 auto; width: 20vw; top: 8vh; font-size: 2vw""> 
            <font color=""green""> Bonus : $0.75 </font>
            </div>
        </div>
    ","null","","","","","","","",""
"","","","","","html-keyboard-response","148","323803","0.0-6.18-3.18","602ba62750c603308389e87f","65576f040411c2a4be0341a4","65576f4485f999a01c1d08d7","269","./stimuli//pack_shapes_diff/cat_1/diff_2/ex_1_2_17.png","arrowleft","response","ArrowLeft","17","1","2","test","true",""
"","","","","","html-keyboard-response","149","325313","0.0-6.18-4.18","602ba62750c603308389e87f","65576f040411c2a4be0341a4","65576f4485f999a01c1d08d7","null","<p> <font color=""green"" size=""5vw""> Correct category! </font> <br> <br> <font color=""green"" size=""8vw""> + $0.05 </font> </p>","null","feedback","","","","","","","0.8"
"","","","","","html-keyboard-response","150","325618","0.0-6.19-0.19","602ba62750c603308389e87f","65576f040411c2a4be0341a4","65576f4485f999a01c1d08d7","305","
            
        <div style=""text-align: center; position: fixed; top: 5vh; left: 40vw;"">
            <div style=""margin:0 auto; width: 20vw; top: 8vh; font-size: 2vw""> 
            <font color=""green""> Bonus : $0.8 </font>
            </div>
        </div>
    
            <div> Please press any button to continue to the next trial.</div>
        ","arrowleft","ITI","","","","","","",""
"","","","","","html-keyboard-response","151","326227","0.0-6.19-1.19","602ba62750c603308389e87f","65576f040411c2a4be0341a4","65576f4485f999a01c1d08d7","null","
        
        <div style=""text-align: center; position: fixed; top: 5vh; left: 40vw;"">
            <div style=""margin:0 auto; width: 20vw; top: 8vh; font-size: 2vw""> 
            <font color=""green""> Bonus : $0.8 </font>
            </div>
        </div>
    
        <img class=""stim"" src=./stimuli//pack_shapes_diff/cat_2/diff_2/ex_2_2_13.png></img>
    ","null","stimulus","","","","","","",""
"","","","","","html-keyboard-response","152","327235","0.0-6.19-2.19","602ba62750c603308389e87f","65576f040411c2a4be0341a4","65576f4485f999a01c1d08d7","null","
        <div style=""text-align: center; position: fixed; top: 5vh; left: 40vw;"">
            <div style=""margin:0 auto; width: 20vw; top: 8vh; font-size: 2vw""> 
            <font color=""green""> Bonus : $0.8 </font>
            </div>
        </div>
    ","null","","","","","","","",""
"","","","","","html-keyboard-response","153","327479","0.0-6.19-3.19","602ba62750c603308389e87f","65576f040411c2a4be0341a4","65576f4485f999a01c1d08d7","244","./stimuli//pack_shapes_diff/cat_2/diff_2/ex_2_2_13.png","arrowright","response","ArrowRight","13","2","2","test","true",""
"","","","","","html-keyboard-response","154","328988","0.0-6.19-4.19","602ba62750c603308389e87f","65576f040411c2a4be0341a4","65576f4485f999a01c1d08d7","null","<p> <font color=""green"" size=""5vw""> Correct category! </font> <br> <br> <font color=""green"" size=""8vw""> + $0.05 </font> </p>","null","feedback","","","","","","","0.85"
"","","","","","html-keyboard-response","155","329275","0.0-6.20-0.20","602ba62750c603308389e87f","65576f040411c2a4be0341a4","65576f4485f999a01c1d08d7","286","
            
        <div style=""text-align: center; position: fixed; top: 5vh; left: 40vw;"">
            <div style=""margin:0 auto; width: 20vw; top: 8vh; font-size: 2vw""> 
            <font color=""green""> Bonus : $0.85 </font>
            </div>
        </div>
    
            <div> Please press any button to continue to the next trial.</div>
        ","arrowleft","ITI","","","","","","",""
"","","","","","html-keyboard-response","156","329885","0.0-6.20-1.20","602ba62750c603308389e87f","65576f040411c2a4be0341a4","65576f4485f999a01c1d08d7","null","
        
        <div style=""text-align: center; position: fixed; top: 5vh; left: 40vw;"">
            <div style=""margin:0 auto; width: 20vw; top: 8vh; font-size: 2vw""> 
            <font color=""green""> Bonus : $0.85 </font>
            </div>
        </div>
    
        <img class=""stim"" src=./stimuli//pack_shapes_diff/cat_2/diff_3/ex_2_3_10.png></img>
    ","null","stimulus","","","","","","",""
"","","","","","html-keyboard-response","157","330892","0.0-6.20-2.20","602ba62750c603308389e87f","65576f040411c2a4be0341a4","65576f4485f999a01c1d08d7","null","
        <div style=""text-align: center; position: fixed; top: 5vh; left: 40vw;"">
            <div style=""margin:0 auto; width: 20vw; top: 8vh; font-size: 2vw""> 
            <font color=""green""> Bonus : $0.85 </font>
            </div>
        </div>
    ","null","","","","","","","",""
"","","","","","html-keyboard-response","158","331137","0.0-6.20-3.20","602ba62750c603308389e87f","65576f040411c2a4be0341a4","65576f4485f999a01c1d08d7","245","./stimuli//pack_shapes_diff/cat_2/diff_3/ex_2_3_10.png","arrowright","response","ArrowRight","10","2","3","test","true",""
"","","","","","html-keyboard-response","159","332649","0.0-6.20-4.20","602ba62750c603308389e87f","65576f040411c2a4be0341a4","65576f4485f999a01c1d08d7","null","<p> <font color=""green"" size=""5vw""> Correct category! </font> <br> <br> <font color=""green"" size=""8vw""> + $0.05 </font> </p>","null","feedback","","","","","","","0.9"
"","","","","","html-keyboard-response","160","332971","0.0-6.21-0.21","602ba62750c603308389e87f","65576f040411c2a4be0341a4","65576f4485f999a01c1d08d7","321","
            
        <div style=""text-align: center; position: fixed; top: 5vh; left: 40vw;"">
            <div style=""margin:0 auto; width: 20vw; top: 8vh; font-size: 2vw""> 
            <font color=""green""> Bonus : $0.9 </font>
            </div>
        </div>
    
            <div> Please press any button to continue to the next trial.</div>
        ","arrowleft","ITI","","","","","","",""
"","","","","","html-keyboard-response","161","333581","0.0-6.21-1.21","602ba62750c603308389e87f","65576f040411c2a4be0341a4","65576f4485f999a01c1d08d7","null","
        
        <div style=""text-align: center; position: fixed; top: 5vh; left: 40vw;"">
            <div style=""margin:0 auto; width: 20vw; top: 8vh; font-size: 2vw""> 
            <font color=""green""> Bonus : $0.9 </font>
            </div>
        </div>
    
        <img class=""stim"" src=./stimuli//pack_shapes_diff/cat_1/diff_3/ex_1_3_12.png></img>
    ","null","stimulus","","","","","","",""
"","","","","","html-keyboard-response","162","334590","0.0-6.21-2.21","602ba62750c603308389e87f","65576f040411c2a4be0341a4","65576f4485f999a01c1d08d7","null","
        <div style=""text-align: center; position: fixed; top: 5vh; left: 40vw;"">
            <div style=""margin:0 auto; width: 20vw; top: 8vh; font-size: 2vw""> 
            <font color=""green""> Bonus : $0.9 </font>
            </div>
        </div>
    ","null","","","","","","","",""
"","","","","","html-keyboard-response","163","334807","0.0-6.21-3.21","602ba62750c603308389e87f","65576f040411c2a4be0341a4","65576f4485f999a01c1d08d7","217","./stimuli//pack_shapes_diff/cat_1/diff_3/ex_1_3_12.png","arrowleft","response","ArrowLeft","12","1","3","test","true",""
"","","","","","html-keyboard-response","164","336313","0.0-6.21-4.21","602ba62750c603308389e87f","65576f040411c2a4be0341a4","65576f4485f999a01c1d08d7","null","<p> <font color=""green"" size=""5vw""> Correct category! </font> <br> <br> <font color=""green"" size=""8vw""> + $0.05 </font> </p>","null","feedback","","","","","","","0.95"
"","","","","","html-keyboard-response","165","336578","0.0-6.22-0.22","602ba62750c603308389e87f","65576f040411c2a4be0341a4","65576f4485f999a01c1d08d7","265","
            
        <div style=""text-align: center; position: fixed; top: 5vh; left: 40vw;"">
            <div style=""margin:0 auto; width: 20vw; top: 8vh; font-size: 2vw""> 
            <font color=""green""> Bonus : $0.95 </font>
            </div>
        </div>
    
            <div> Please press any button to continue to the next trial.</div>
        ","arrowleft","ITI","","","","","","",""
"","","","","","html-keyboard-response","166","337194","0.0-6.22-1.22","602ba62750c603308389e87f","65576f040411c2a4be0341a4","65576f4485f999a01c1d08d7","null","
        
        <div style=""text-align: center; position: fixed; top: 5vh; left: 40vw;"">
            <div style=""margin:0 auto; width: 20vw; top: 8vh; font-size: 2vw""> 
            <font color=""green""> Bonus : $0.95 </font>
            </div>
        </div>
    
        <img class=""stim"" src=./stimuli//pack_shapes_diff/cat_2/diff_3/ex_2_3_4.png></img>
    ","null","stimulus","","","","","","",""
"","","","","","html-keyboard-response","167","338197","0.0-6.22-2.22","602ba62750c603308389e87f","65576f040411c2a4be0341a4","65576f4485f999a01c1d08d7","null","
        <div style=""text-align: center; position: fixed; top: 5vh; left: 40vw;"">
            <div style=""margin:0 auto; width: 20vw; top: 8vh; font-size: 2vw""> 
            <font color=""green""> Bonus : $0.95 </font>
            </div>
        </div>
    ","null","","","","","","","",""
"","","","","","html-keyboard-response","168","338426","0.0-6.22-3.22","602ba62750c603308389e87f","65576f040411c2a4be0341a4","65576f4485f999a01c1d08d7","229","./stimuli//pack_shapes_diff/cat_2/diff_3/ex_2_3_4.png","arrowright","response","ArrowRight","4","2","3","test","true",""
"","","","","","html-keyboard-response","169","339932","0.0-6.22-4.22","602ba62750c603308389e87f","65576f040411c2a4be0341a4","65576f4485f999a01c1d08d7","null","<p> <font color=""green"" size=""5vw""> Correct category! </font> <br> <br> <font color=""green"" size=""8vw""> + $0.05 </font> </p>","null","feedback","","","","","","","1"
"","","","","","html-keyboard-response","170","340239","0.0-6.23-0.23","602ba62750c603308389e87f","65576f040411c2a4be0341a4","65576f4485f999a01c1d08d7","306","
            
        <div style=""text-align: center; position: fixed; top: 5vh; left: 40vw;"">
            <div style=""margin:0 auto; width: 20vw; top: 8vh; font-size: 2vw""> 
            <font color=""green""> Bonus : $1 </font>
            </div>
        </div>
    
            <div> Please press any button to continue to the next trial.</div>
        ","arrowleft","ITI","","","","","","",""
"","","","","","html-keyboard-response","171","340848","0.0-6.23-1.23","602ba62750c603308389e87f","65576f040411c2a4be0341a4","65576f4485f999a01c1d08d7","null","
        
        <div style=""text-align: center; position: fixed; top: 5vh; left: 40vw;"">
            <div style=""margin:0 auto; width: 20vw; top: 8vh; font-size: 2vw""> 
            <font color=""green""> Bonus : $1 </font>
            </div>
        </div>
    
        <img class=""stim"" src=./stimuli//pack_shapes_diff/cat_2/diff_3/ex_2_3_2.png></img>
    ","null","stimulus","","","","","","",""
"","","","","","html-keyboard-response","172","341858","0.0-6.23-2.23","602ba62750c603308389e87f","65576f040411c2a4be0341a4","65576f4485f999a01c1d08d7","null","
        <div style=""text-align: center; position: fixed; top: 5vh; left: 40vw;"">
            <div style=""margin:0 auto; width: 20vw; top: 8vh; font-size: 2vw""> 
            <font color=""green""> Bonus : $1 </font>
            </div>
        </div>
    ","null","","","","","","","",""
"","","","","","html-keyboard-response","173","342089","0.0-6.23-3.23","602ba62750c603308389e87f","65576f040411c2a4be0341a4","65576f4485f999a01c1d08d7","230","./stimuli//pack_shapes_diff/cat_2/diff_3/ex_2_3_2.png","arrowright","response","ArrowRight","2","2","3","test","true",""
"","","","","","html-keyboard-response","174","343604","0.0-6.23-4.23","602ba62750c603308389e87f","65576f040411c2a4be0341a4","65576f4485f999a01c1d08d7","null","<p> <font color=""green"" size=""5vw""> Correct category! </font> <br> <br> <font color=""green"" size=""8vw""> + $0.05 </font> </p>","null","feedback","","","","","","","1.05"
"","","","","","html-keyboard-response","175","343887","0.0-6.24-0.24","602ba62750c603308389e87f","65576f040411c2a4be0341a4","65576f4485f999a01c1d08d7","283","
            
        <div style=""text-align: center; position: fixed; top: 5vh; left: 40vw;"">
            <div style=""margin:0 auto; width: 20vw; top: 8vh; font-size: 2vw""> 
            <font color=""green""> Bonus : $1.05 </font>
            </div>
        </div>
    
            <div> Please press any button to continue to the next trial.</div>
        ","arrowleft","ITI","","","","","","",""
"","","","","","html-keyboard-response","176","344493","0.0-6.24-1.24","602ba62750c603308389e87f","65576f040411c2a4be0341a4","65576f4485f999a01c1d08d7","null","
        
        <div style=""text-align: center; position: fixed; top: 5vh; left: 40vw;"">
            <div style=""margin:0 auto; width: 20vw; top: 8vh; font-size: 2vw""> 
            <font color=""green""> Bonus : $1.05 </font>
            </div>
        </div>
    
        <img class=""stim"" src=./stimuli//pack_shapes_diff/cat_2/diff_3/ex_2_3_7.png></img>
    ","null","stimulus","","","","","","",""
"","","","","","html-keyboard-response","177","345502","0.0-6.24-2.24","602ba62750c603308389e87f","65576f040411c2a4be0341a4","65576f4485f999a01c1d08d7","null","
        <div style=""text-align: center; position: fixed; top: 5vh; left: 40vw;"">
            <div style=""margin:0 auto; width: 20vw; top: 8vh; font-size: 2vw""> 
            <font color=""green""> Bonus : $1.05 </font>
            </div>
        </div>
    ","null","","","","","","","",""
"","","","","","html-keyboard-response","178","345725","0.0-6.24-3.24","602ba62750c603308389e87f","65576f040411c2a4be0341a4","65576f4485f999a01c1d08d7","223","./stimuli//pack_shapes_diff/cat_2/diff_3/ex_2_3_7.png","arrowright","response","ArrowRight","7","2","3","test","true",""
"","","","","","html-keyboard-response","179","347237","0.0-6.24-4.24","602ba62750c603308389e87f","65576f040411c2a4be0341a4","65576f4485f999a01c1d08d7","null","<p> <font color=""green"" size=""5vw""> Correct category! </font> <br> <br> <font color=""green"" size=""8vw""> + $0.05 </font> </p>","null","feedback","","","","","","","1.1"
"","","","","","html-keyboard-response","180","347548","0.0-6.25-0.25","602ba62750c603308389e87f","65576f040411c2a4be0341a4","65576f4485f999a01c1d08d7","310","
            
        <div style=""text-align: center; position: fixed; top: 5vh; left: 40vw;"">
            <div style=""margin:0 auto; width: 20vw; top: 8vh; font-size: 2vw""> 
            <font color=""green""> Bonus : $1.1 </font>
            </div>
        </div>
    
            <div> Please press any button to continue to the next trial.</div>
        ","arrowleft","ITI","","","","","","",""
"","","","","","html-keyboard-response","181","348150","0.0-6.25-1.25","602ba62750c603308389e87f","65576f040411c2a4be0341a4","65576f4485f999a01c1d08d7","null","
        
        <div style=""text-align: center; position: fixed; top: 5vh; left: 40vw;"">
            <div style=""margin:0 auto; width: 20vw; top: 8vh; font-size: 2vw""> 
            <font color=""green""> Bonus : $1.1 </font>
            </div>
        </div>
    
        <img class=""stim"" src=./stimuli//pack_shapes_diff/cat_2/diff_4/ex_2_4_14.png></img>
    ","null","stimulus","","","","","","",""
"","","","","","html-keyboard-response","182","349157","0.0-6.25-2.25","602ba62750c603308389e87f","65576f040411c2a4be0341a4","65576f4485f999a01c1d08d7","null","
        <div style=""text-align: center; position: fixed; top: 5vh; left: 40vw;"">
            <div style=""margin:0 auto; width: 20vw; top: 8vh; font-size: 2vw""> 
            <font color=""green""> Bonus : $1.1 </font>
            </div>
        </div>
    ","null","","","","","","","",""
"","","","","","html-keyboard-response","183","349383","0.0-6.25-3.25","602ba62750c603308389e87f","65576f040411c2a4be0341a4","65576f4485f999a01c1d08d7","226","./stimuli//pack_shapes_diff/cat_2/diff_4/ex_2_4_14.png","arrowleft","response","ArrowRight","14","2","4","test","false",""
"","","","","","html-keyboard-response","184","350897","0.0-6.25-4.25","602ba62750c603308389e87f","65576f040411c2a4be0341a4","65576f4485f999a01c1d08d7","null","<p> <font color=""red"" size=""5vw""> Wrong category! </font> </p>","null","feedback","","","","","","","1.1"
"","","","","","html-keyboard-response","185","351239","0.0-6.26-0.26","602ba62750c603308389e87f","65576f040411c2a4be0341a4","65576f4485f999a01c1d08d7","342","
            
        <div style=""text-align: center; position: fixed; top: 5vh; left: 40vw;"">
            <div style=""margin:0 auto; width: 20vw; top: 8vh; font-size: 2vw""> 
            <font color=""green""> Bonus : $1.1 </font>
            </div>
        </div>
    
            <div> Please press any button to continue to the next trial.</div>
        ","arrowleft","ITI","","","","","","",""
"","","","","","html-keyboard-response","186","351842","0.0-6.26-1.26","602ba62750c603308389e87f","65576f040411c2a4be0341a4","65576f4485f999a01c1d08d7","null","
        
        <div style=""text-align: center; position: fixed; top: 5vh; left: 40vw;"">
            <div style=""margin:0 auto; width: 20vw; top: 8vh; font-size: 2vw""> 
            <font color=""green""> Bonus : $1.1 </font>
            </div>
        </div>
    
        <img class=""stim"" src=./stimuli//pack_shapes_diff/cat_2/diff_4/ex_2_4_5.png></img>
    ","null","stimulus","","","","","","",""
"","","","","","html-keyboard-response","187","352850","0.0-6.26-2.26","602ba62750c603308389e87f","65576f040411c2a4be0341a4","65576f4485f999a01c1d08d7","null","
        <div style=""text-align: center; position: fixed; top: 5vh; left: 40vw;"">
            <div style=""margin:0 auto; width: 20vw; top: 8vh; font-size: 2vw""> 
            <font color=""green""> Bonus : $1.1 </font>
            </div>
        </div>
    ","null","","","","","","","",""
"","","","","","html-keyboard-response","188","353074","0.0-6.26-3.26","602ba62750c603308389e87f","65576f040411c2a4be0341a4","65576f4485f999a01c1d08d7","224","./stimuli//pack_shapes_diff/cat_2/diff_4/ex_2_4_5.png","arrowright","response","ArrowRight","5","2","4","test","true",""
"","","","","","html-keyboard-response","189","354584","0.0-6.26-4.26","602ba62750c603308389e87f","65576f040411c2a4be0341a4","65576f4485f999a01c1d08d7","null","<p> <font color=""green"" size=""5vw""> Correct category! </font> <br> <br> <font color=""green"" size=""8vw""> + $0.05 </font> </p>","null","feedback","","","","","","","1.15"
"","","","","","html-keyboard-response","190","354867","0.0-6.27-0.27","602ba62750c603308389e87f","65576f040411c2a4be0341a4","65576f4485f999a01c1d08d7","283","
            
        <div style=""text-align: center; position: fixed; top: 5vh; left: 40vw;"">
            <div style=""margin:0 auto; width: 20vw; top: 8vh; font-size: 2vw""> 
            <font color=""green""> Bonus : $1.15 </font>
            </div>
        </div>
    
            <div> Please press any button to continue to the next trial.</div>
        ","arrowleft","ITI","","","","","","",""
"","","","","","html-keyboard-response","191","355480","0.0-6.27-1.27","602ba62750c603308389e87f","65576f040411c2a4be0341a4","65576f4485f999a01c1d08d7","null","
        
        <div style=""text-align: center; position: fixed; top: 5vh; left: 40vw;"">
            <div style=""margin:0 auto; width: 20vw; top: 8vh; font-size: 2vw""> 
            <font color=""green""> Bonus : $1.15 </font>
            </div>
        </div>
    
        <img class=""stim"" src=./stimuli//pack_shapes_diff/cat_2/diff_4/ex_2_4_15.png></img>
    ","null","stimulus","","","","","","",""
"","","","","","html-keyboard-response","192","356489","0.0-6.27-2.27","602ba62750c603308389e87f","65576f040411c2a4be0341a4","65576f4485f999a01c1d08d7","null","
        <div style=""text-align: center; position: fixed; top: 5vh; left: 40vw;"">
            <div style=""margin:0 auto; width: 20vw; top: 8vh; font-size: 2vw""> 
            <font color=""green""> Bonus : $1.15 </font>
            </div>
        </div>
    ","null","","","","","","","",""
"","","","","","html-keyboard-response","193","356724","0.0-6.27-3.27","602ba62750c603308389e87f","65576f040411c2a4be0341a4","65576f4485f999a01c1d08d7","235","./stimuli//pack_shapes_diff/cat_2/diff_4/ex_2_4_15.png","arrowright","response","ArrowRight","15","2","4","test","true",""
"","","","","","html-keyboard-response","194","358235","0.0-6.27-4.27","602ba62750c603308389e87f","65576f040411c2a4be0341a4","65576f4485f999a01c1d08d7","null","<p> <font color=""green"" size=""5vw""> Correct category! </font> <br> <br> <font color=""green"" size=""8vw""> + $0.05 </font> </p>","null","feedback","","","","","","","1.2"
"","","","","","html-keyboard-response","195","358547","0.0-6.28-0.28","602ba62750c603308389e87f","65576f040411c2a4be0341a4","65576f4485f999a01c1d08d7","312","
            
        <div style=""text-align: center; position: fixed; top: 5vh; left: 40vw;"">
            <div style=""margin:0 auto; width: 20vw; top: 8vh; font-size: 2vw""> 
            <font color=""green""> Bonus : $1.2 </font>
            </div>
        </div>
    
            <div> Please press any button to continue to the next trial.</div>
        ","arrowleft","ITI","","","","","","",""
"","","","","","html-keyboard-response","196","359150","0.0-6.28-1.28","602ba62750c603308389e87f","65576f040411c2a4be0341a4","65576f4485f999a01c1d08d7","null","
        
        <div style=""text-align: center; position: fixed; top: 5vh; left: 40vw;"">
            <div style=""margin:0 auto; width: 20vw; top: 8vh; font-size: 2vw""> 
            <font color=""green""> Bonus : $1.2 </font>
            </div>
        </div>
    
        <img class=""stim"" src=./stimuli//pack_shapes_diff/cat_1/diff_4/ex_1_4_10.png></img>
    ","null","stimulus","","","","","","",""
"","","","","","html-keyboard-response","197","360156","0.0-6.28-2.28","602ba62750c603308389e87f","65576f040411c2a4be0341a4","65576f4485f999a01c1d08d7","null","
        <div style=""text-align: center; position: fixed; top: 5vh; left: 40vw;"">
            <div style=""margin:0 auto; width: 20vw; top: 8vh; font-size: 2vw""> 
            <font color=""green""> Bonus : $1.2 </font>
            </div>
        </div>
    ","null","","","","","","","",""
"","","","","","html-keyboard-response","198","360402","0.0-6.28-3.28","602ba62750c603308389e87f","65576f040411c2a4be0341a4","65576f4485f999a01c1d08d7","245","./stimuli//pack_shapes_diff/cat_1/diff_4/ex_1_4_10.png","arrowleft","response","ArrowLeft","10","1","4","test","true",""
"","","","","","html-keyboard-response","199","361905","0.0-6.28-4.28","602ba62750c603308389e87f","65576f040411c2a4be0341a4","65576f4485f999a01c1d08d7","null","<p> <font color=""green"" size=""5vw""> Correct category! </font> <br> <br> <font color=""green"" size=""8vw""> + $0.05 </font> </p>","null","feedback","","","","","","","1.25"
"","","","","","html-keyboard-response","200","362130","0.0-6.29-0.29","602ba62750c603308389e87f","65576f040411c2a4be0341a4","65576f4485f999a01c1d08d7","225","
            
        <div style=""text-align: center; position: fixed; top: 5vh; left: 40vw;"">
            <div style=""margin:0 auto; width: 20vw; top: 8vh; font-size: 2vw""> 
            <font color=""green""> Bonus : $1.25 </font>
            </div>
        </div>
    
            <div> Please press any button to continue to the next trial.</div>
        ","arrowleft","ITI","","","","","","",""
"","","","","","html-keyboard-response","201","362731","0.0-6.29-1.29","602ba62750c603308389e87f","65576f040411c2a4be0341a4","65576f4485f999a01c1d08d7","null","
        
        <div style=""text-align: center; position: fixed; top: 5vh; left: 40vw;"">
            <div style=""margin:0 auto; width: 20vw; top: 8vh; font-size: 2vw""> 
            <font color=""green""> Bonus : $1.25 </font>
            </div>
        </div>
    
        <img class=""stim"" src=./stimuli//pack_shapes_diff/cat_1/diff_4/ex_1_4_6.png></img>
    ","null","stimulus","","","","","","",""
"","","","","","html-keyboard-response","202","363739","0.0-6.29-2.29","602ba62750c603308389e87f","65576f040411c2a4be0341a4","65576f4485f999a01c1d08d7","null","
        <div style=""text-align: center; position: fixed; top: 5vh; left: 40vw;"">
            <div style=""margin:0 auto; width: 20vw; top: 8vh; font-size: 2vw""> 
            <font color=""green""> Bonus : $1.25 </font>
            </div>
        </div>
    ","null","","","","","","","",""
"","","","","","html-keyboard-response","203","364067","0.0-6.29-3.29","602ba62750c603308389e87f","65576f040411c2a4be0341a4","65576f4485f999a01c1d08d7","327","./stimuli//pack_shapes_diff/cat_1/diff_4/ex_1_4_6.png","arrowright","response","ArrowLeft","6","1","4","test","false",""
"","","","","","html-keyboard-response","204","365580","0.0-6.29-4.29","602ba62750c603308389e87f","65576f040411c2a4be0341a4","65576f4485f999a01c1d08d7","null","<p> <font color=""red"" size=""5vw""> Wrong category! </font> </p>","null","feedback","","","","","","","1.25"
"","","","","","html-keyboard-response","205","365805","0.0-6.30-0.30","602ba62750c603308389e87f","65576f040411c2a4be0341a4","65576f4485f999a01c1d08d7","224","
            
        <div style=""text-align: center; position: fixed; top: 5vh; left: 40vw;"">
            <div style=""margin:0 auto; width: 20vw; top: 8vh; font-size: 2vw""> 
            <font color=""green""> Bonus : $1.25 </font>
            </div>
        </div>
    
            <div> Please press any button to continue to the next trial.</div>
        ","arrowleft","ITI","","","","","","",""
"","","","","","html-keyboard-response","206","366417","0.0-6.30-1.30","602ba62750c603308389e87f","65576f040411c2a4be0341a4","65576f4485f999a01c1d08d7","null","
        
        <div style=""text-align: center; position: fixed; top: 5vh; left: 40vw;"">
            <div style=""margin:0 auto; width: 20vw; top: 8vh; font-size: 2vw""> 
            <font color=""green""> Bonus : $1.25 </font>
            </div>
        </div>
    
        <img class=""stim"" src=./stimuli//pack_shapes_diff/cat_2/diff_3/ex_2_3_7.png></img>
    ","null","stimulus","","","","","","",""
"","","","","","html-keyboard-response","207","367419","0.0-6.30-2.30","602ba62750c603308389e87f","65576f040411c2a4be0341a4","65576f4485f999a01c1d08d7","null","
        <div style=""text-align: center; position: fixed; top: 5vh; left: 40vw;"">
            <div style=""margin:0 auto; width: 20vw; top: 8vh; font-size: 2vw""> 
            <font color=""green""> Bonus : $1.25 </font>
            </div>
        </div>
    ","null","","","","","","","",""
"","","","","","html-keyboard-response","208","367530","0.0-6.30-3.30","602ba62750c603308389e87f","65576f040411c2a4be0341a4","65576f4485f999a01c1d08d7","111","./stimuli//pack_shapes_diff/cat_2/diff_3/ex_2_3_7.png","arrowright","response","ArrowRight","7","2","3","test","true",""
"","","","","","html-keyboard-response","209","369035","0.0-6.30-4.30","602ba62750c603308389e87f","65576f040411c2a4be0341a4","65576f4485f999a01c1d08d7","null","<p> <font color=""green"" size=""5vw""> Correct category! </font> <br> <br> <font color=""green"" size=""8vw""> + $0.05 </font> </p>","null","feedback","","","","","","","1.3"
"","","","","","html-keyboard-response","210","369411","0.0-6.31-0.31","602ba62750c603308389e87f","65576f040411c2a4be0341a4","65576f4485f999a01c1d08d7","376","
            
        <div style=""text-align: center; position: fixed; top: 5vh; left: 40vw;"">
            <div style=""margin:0 auto; width: 20vw; top: 8vh; font-size: 2vw""> 
            <font color=""green""> Bonus : $1.3 </font>
            </div>
        </div>
    
            <div> Please press any button to continue to the next trial.</div>
        ","arrowleft","ITI","","","","","","",""
"","","","","","html-keyboard-response","211","370014","0.0-6.31-1.31","602ba62750c603308389e87f","65576f040411c2a4be0341a4","65576f4485f999a01c1d08d7","null","
        
        <div style=""text-align: center; position: fixed; top: 5vh; left: 40vw;"">
            <div style=""margin:0 auto; width: 20vw; top: 8vh; font-size: 2vw""> 
            <font color=""green""> Bonus : $1.3 </font>
            </div>
        </div>
    
        <img class=""stim"" src=./stimuli//pack_shapes_diff/cat_1/diff_3/ex_1_3_2.png></img>
    ","null","stimulus","","","","","","",""
"","","","","","html-keyboard-response","212","371017","0.0-6.31-2.31","602ba62750c603308389e87f","65576f040411c2a4be0341a4","65576f4485f999a01c1d08d7","null","
        <div style=""text-align: center; position: fixed; top: 5vh; left: 40vw;"">
            <div style=""margin:0 auto; width: 20vw; top: 8vh; font-size: 2vw""> 
            <font color=""green""> Bonus : $1.3 </font>
            </div>
        </div>
    ","null","","","","","","","",""
"","","","","","html-keyboard-response","213","371215","0.0-6.31-3.31","602ba62750c603308389e87f","65576f040411c2a4be0341a4","65576f4485f999a01c1d08d7","198","./stimuli//pack_shapes_diff/cat_1/diff_3/ex_1_3_2.png","arrowleft","response","ArrowLeft","2","1","3","test","true",""
"","","","","","html-keyboard-response","214","372723","0.0-6.31-4.31","602ba62750c603308389e87f","65576f040411c2a4be0341a4","65576f4485f999a01c1d08d7","null","<p> <font color=""green"" size=""5vw""> Correct category! </font> <br> <br> <font color=""green"" size=""8vw""> + $0.05 </font> </p>","null","feedback","","","","","","","1.35"
"","","","","","html-keyboard-response","215","372979","0.0-6.32-0.32","602ba62750c603308389e87f","65576f040411c2a4be0341a4","65576f4485f999a01c1d08d7","257","
            
        <div style=""text-align: center; position: fixed; top: 5vh; left: 40vw;"">
            <div style=""margin:0 auto; width: 20vw; top: 8vh; font-size: 2vw""> 
            <font color=""green""> Bonus : $1.35 </font>
            </div>
        </div>
    
            <div> Please press any button to continue to the next trial.</div>
        ","arrowleft","ITI","","","","","","",""
"","","","","","html-keyboard-response","216","373593","0.0-6.32-1.32","602ba62750c603308389e87f","65576f040411c2a4be0341a4","65576f4485f999a01c1d08d7","null","
        
        <div style=""text-align: center; position: fixed; top: 5vh; left: 40vw;"">
            <div style=""margin:0 auto; width: 20vw; top: 8vh; font-size: 2vw""> 
            <font color=""green""> Bonus : $1.35 </font>
            </div>
        </div>
    
        <img class=""stim"" src=./stimuli//pack_shapes_diff/cat_1/diff_3/ex_1_3_16.png></img>
    ","null","stimulus","","","","","","",""
"","","","","","html-keyboard-response","217","374603","0.0-6.32-2.32","602ba62750c603308389e87f","65576f040411c2a4be0341a4","65576f4485f999a01c1d08d7","null","
        <div style=""text-align: center; position: fixed; top: 5vh; left: 40vw;"">
            <div style=""margin:0 auto; width: 20vw; top: 8vh; font-size: 2vw""> 
            <font color=""green""> Bonus : $1.35 </font>
            </div>
        </div>
    ","null","","","","","","","",""
"","","","","","html-keyboard-response","218","374836","0.0-6.32-3.32","602ba62750c603308389e87f","65576f040411c2a4be0341a4","65576f4485f999a01c1d08d7","232","./stimuli//pack_shapes_diff/cat_1/diff_3/ex_1_3_16.png","arrowleft","response","ArrowLeft","16","1","3","test","true",""
"","","","","","html-keyboard-response","219","376340","0.0-6.32-4.32","602ba62750c603308389e87f","65576f040411c2a4be0341a4","65576f4485f999a01c1d08d7","null","<p> <font color=""green"" size=""5vw""> Correct category! </font> <br> <br> <font color=""green"" size=""8vw""> + $0.05 </font> </p>","null","feedback","","","","","","","1.4"
"","","","","","html-keyboard-response","220","376670","0.0-6.33-0.33","602ba62750c603308389e87f","65576f040411c2a4be0341a4","65576f4485f999a01c1d08d7","330","
            
        <div style=""text-align: center; position: fixed; top: 5vh; left: 40vw;"">
            <div style=""margin:0 auto; width: 20vw; top: 8vh; font-size: 2vw""> 
            <font color=""green""> Bonus : $1.4 </font>
            </div>
        </div>
    
            <div> Please press any button to continue to the next trial.</div>
        ","arrowleft","ITI","","","","","","",""
"","","","","","html-keyboard-response","221","377284","0.0-6.33-1.33","602ba62750c603308389e87f","65576f040411c2a4be0341a4","65576f4485f999a01c1d08d7","null","
        
        <div style=""text-align: center; position: fixed; top: 5vh; left: 40vw;"">
            <div style=""margin:0 auto; width: 20vw; top: 8vh; font-size: 2vw""> 
            <font color=""green""> Bonus : $1.4 </font>
            </div>
        </div>
    
        <img class=""stim"" src=./stimuli//pack_shapes_diff/cat_2/diff_3/ex_2_3_15.png></img>
    ","null","stimulus","","","","","","",""
"","","","","","html-keyboard-response","222","378291","0.0-6.33-2.33","602ba62750c603308389e87f","65576f040411c2a4be0341a4","65576f4485f999a01c1d08d7","null","
        <div style=""text-align: center; position: fixed; top: 5vh; left: 40vw;"">
            <div style=""margin:0 auto; width: 20vw; top: 8vh; font-size: 2vw""> 
            <font color=""green""> Bonus : $1.4 </font>
            </div>
        </div>
    ","null","","","","","","","",""
"","","","","","html-keyboard-response","223","378566","0.0-6.33-3.33","602ba62750c603308389e87f","65576f040411c2a4be0341a4","65576f4485f999a01c1d08d7","274","./stimuli//pack_shapes_diff/cat_2/diff_3/ex_2_3_15.png","arrowright","response","ArrowRight","15","2","3","test","true",""
"","","","","","html-keyboard-response","224","380077","0.0-6.33-4.33","602ba62750c603308389e87f","65576f040411c2a4be0341a4","65576f4485f999a01c1d08d7","null","<p> <font color=""green"" size=""5vw""> Correct category! </font> <br> <br> <font color=""green"" size=""8vw""> + $0.05 </font> </p>","null","feedback","","","","","","","1.45"
"","","","","","html-keyboard-response","225","380341","0.0-6.34-0.34","602ba62750c603308389e87f","65576f040411c2a4be0341a4","65576f4485f999a01c1d08d7","263","
            
        <div style=""text-align: center; position: fixed; top: 5vh; left: 40vw;"">
            <div style=""margin:0 auto; width: 20vw; top: 8vh; font-size: 2vw""> 
            <font color=""green""> Bonus : $1.45 </font>
            </div>
        </div>
    
            <div> Please press any button to continue to the next trial.</div>
        ","arrowleft","ITI","","","","","","",""
"","","","","","html-keyboard-response","226","380942","0.0-6.34-1.34","602ba62750c603308389e87f","65576f040411c2a4be0341a4","65576f4485f999a01c1d08d7","null","
        
        <div style=""text-align: center; position: fixed; top: 5vh; left: 40vw;"">
            <div style=""margin:0 auto; width: 20vw; top: 8vh; font-size: 2vw""> 
            <font color=""green""> Bonus : $1.45 </font>
            </div>
        </div>
    
        <img class=""stim"" src=./stimuli//pack_shapes_diff/cat_2/diff_3/ex_2_3_1.png></img>
    ","null","stimulus","","","","","","",""
"","","","","","html-keyboard-response","227","381945","0.0-6.34-2.34","602ba62750c603308389e87f","65576f040411c2a4be0341a4","65576f4485f999a01c1d08d7","null","
        <div style=""text-align: center; position: fixed; top: 5vh; left: 40vw;"">
            <div style=""margin:0 auto; width: 20vw; top: 8vh; font-size: 2vw""> 
            <font color=""green""> Bonus : $1.45 </font>
            </div>
        </div>
    ","null","","","","","","","",""
"","","","","","html-keyboard-response","228","382166","0.0-6.34-3.34","602ba62750c603308389e87f","65576f040411c2a4be0341a4","65576f4485f999a01c1d08d7","220","./stimuli//pack_shapes_diff/cat_2/diff_3/ex_2_3_1.png","arrowright","response","ArrowRight","1","2","3","test","true",""
