success,timeout,failed_images,failed_audio,failed_video,trial_type,trial_index,time_elapsed,internal_node_id,rt,stimulus,response,task,correct_response,exemplar_ID,category,difficulty,phase,correct,bonus,subject_id
TRUE,FALSE,[],[],[],preload,0,14,0.0-0.0,,,,,,,,,,,,7
,,,,,html-keyboard-response,1,4207,0.0-1.0,4191,Welcome to the Category Learning experiment! Press any key to continue., ,welcome,,,,,,,,7
,,,,,html-keyboard-response,2,23151,0.0-2.0,18941,"
            <p>You will be shown images of black shapes. Some are category A, some are category B.
            <br>You will not know in advance which category a specific shape belongs to.</p>
            <p>After you see an image, you will be asked to guess its category <b>(left arrow for category A, right arrow for category B)</b></p>
            <p>After you choose, the screen will show you whether you were correct or not.</p>
            <p><b>You will receive a bonus payment of $0.05 for each correct answer!</b></p>
            <p> So you can increase your bonus by guessing correctly, and by guessing as quickly as possible so you move on to the next image sooner.</p>
            <p>Press any key to continue.</p>
            ", ,introduction_1,,,,,,,,7
,,,,,html-keyboard-response,3,29379,0.0-3.0,6226,"
            <p> <b>The first 10 trials are a practice round that will not count towards your bonus payment.</b></p>
            <p> You will be notified when practice finishes and the test begins. </p>
            <p> Press any key to begin the practice round.</p>
            ", ,introduction_2,,,,,,,,7
,,,,,html-keyboard-response,4,31424,0.0-4.0-0.0,2042,"
            
        <div style=""text-align: center; position: fixed; top: 5vh; left: 40vw;"">
            <div style=""margin:0 auto; width: 20vw; top: 8vh; font-size: 2vw""> 
            <font color=""green""> Bonus : $0 </font>
            </div>
        </div>
    
            <div> Please press any button to continue to the next trial.</div>
        ", ,ITI,,,,,,,,7
,,,,,html-keyboard-response,5,32035,0.0-4.0-1.0,null,"
        
        <div style=""text-align: center; position: fixed; top: 5vh; left: 40vw;"">
            <div style=""margin:0 auto; width: 20vw; top: 8vh; font-size: 2vw""> 
            <font color=""green""> Bonus : $0 </font>
            </div>
        </div>
    
        <img class=""stim"" src=./stimuli//pack_shapes_diff/cat_1/diff_1/ex_1_1_12.png></img>
    ",null,stimulus,,,,,,,,7
,,,,,html-keyboard-response,6,33043,0.0-4.0-2.0,null,"
        <div style=""text-align: center; position: fixed; top: 5vh; left: 40vw;"">
            <div style=""margin:0 auto; width: 20vw; top: 8vh; font-size: 2vw""> 
            <font color=""green""> Bonus : $0 </font>
            </div>
        </div>
    ",null,,,,,,,,,7
,,,,,html-keyboard-response,7,34839,0.0-4.0-3.0,1793,./stimuli//pack_shapes_diff/cat_1/diff_1/ex_1_1_12.png,arrowleft,response,ArrowLeft,12,1,1,train,TRUE,,7
,,,,,html-keyboard-response,8,36348,0.0-4.0-4.0,null,"<p> <font color=""green"" size=""5vw""> Correct category! </font> </p>",null,feedback,,,,,,,0,7
,,,,,html-keyboard-response,9,37864,0.0-4.0-0.1,1513,"
            
        <div style=""text-align: center; position: fixed; top: 5vh; left: 40vw;"">
            <div style=""margin:0 auto; width: 20vw; top: 8vh; font-size: 2vw""> 
            <font color=""green""> Bonus : $0 </font>
            </div>
        </div>
    
            <div> Please press any button to continue to the next trial.</div>
        ", ,ITI,,,,,,,,7
,,,,,html-keyboard-response,10,38468,0.0-4.0-1.1,null,"
        
        <div style=""text-align: center; position: fixed; top: 5vh; left: 40vw;"">
            <div style=""margin:0 auto; width: 20vw; top: 8vh; font-size: 2vw""> 
            <font color=""green""> Bonus : $0 </font>
            </div>
        </div>
    
        <img class=""stim"" src=./stimuli//pack_shapes_diff/cat_2/diff_1/ex_2_1_14.png></img>
    ",null,stimulus,,,,,,,,7
,,,,,html-keyboard-response,11,39475,0.0-4.0-2.1,null,"
        <div style=""text-align: center; position: fixed; top: 5vh; left: 40vw;"">
            <div style=""margin:0 auto; width: 20vw; top: 8vh; font-size: 2vw""> 
            <font color=""green""> Bonus : $0 </font>
            </div>
        </div>
    ",null,,,,,,,,,7
,,,,,html-keyboard-response,12,40041,0.0-4.0-3.1,564,./stimuli//pack_shapes_diff/cat_2/diff_1/ex_2_1_14.png,arrowright,response,ArrowRight,14,2,1,train,TRUE,,7
,,,,,html-keyboard-response,13,41546,0.0-4.0-4.1,null,"<p> <font color=""green"" size=""5vw""> Correct category! </font> </p>",null,feedback,,,,,,,0,7
,,,,,html-keyboard-response,14,43324,0.0-4.0-0.2,1776,"
            
        <div style=""text-align: center; position: fixed; top: 5vh; left: 40vw;"">
            <div style=""margin:0 auto; width: 20vw; top: 8vh; font-size: 2vw""> 
            <font color=""green""> Bonus : $0 </font>
            </div>
        </div>
    
            <div> Please press any button to continue to the next trial.</div>
        ", ,ITI,,,,,,,,7
,,,,,html-keyboard-response,15,43930,0.0-4.0-1.2,null,"
        
        <div style=""text-align: center; position: fixed; top: 5vh; left: 40vw;"">
            <div style=""margin:0 auto; width: 20vw; top: 8vh; font-size: 2vw""> 
            <font color=""green""> Bonus : $0 </font>
            </div>
        </div>
    
        <img class=""stim"" src=./stimuli//pack_shapes_diff/cat_2/diff_2/ex_2_2_6.png></img>
    ",null,stimulus,,,,,,,,7
,,,,,html-keyboard-response,16,44938,0.0-4.0-2.2,null,"
        <div style=""text-align: center; position: fixed; top: 5vh; left: 40vw;"">
            <div style=""margin:0 auto; width: 20vw; top: 8vh; font-size: 2vw""> 
            <font color=""green""> Bonus : $0 </font>
            </div>
        </div>
    ",null,,,,,,,,,7
,,,,,html-keyboard-response,17,45150,0.0-4.0-3.2,210,./stimuli//pack_shapes_diff/cat_2/diff_2/ex_2_2_6.png,arrowright,response,ArrowRight,6,2,2,train,TRUE,,7
,,,,,html-keyboard-response,18,46658,0.0-4.0-4.2,null,"<p> <font color=""green"" size=""5vw""> Correct category! </font> </p>",null,feedback,,,,,,,0,7
,,,,,html-keyboard-response,19,47936,0.0-4.0-0.3,1276,"
            
        <div style=""text-align: center; position: fixed; top: 5vh; left: 40vw;"">
            <div style=""margin:0 auto; width: 20vw; top: 8vh; font-size: 2vw""> 
            <font color=""green""> Bonus : $0 </font>
            </div>
        </div>
    
            <div> Please press any button to continue to the next trial.</div>
        ", ,ITI,,,,,,,,7
,,,,,html-keyboard-response,20,48546,0.0-4.0-1.3,null,"
        
        <div style=""text-align: center; position: fixed; top: 5vh; left: 40vw;"">
            <div style=""margin:0 auto; width: 20vw; top: 8vh; font-size: 2vw""> 
            <font color=""green""> Bonus : $0 </font>
            </div>
        </div>
    
        <img class=""stim"" src=./stimuli//pack_shapes_diff/cat_2/diff_1/ex_2_1_5.png></img>
    ",null,stimulus,,,,,,,,7
,,,,,html-keyboard-response,21,49555,0.0-4.0-2.3,null,"
        <div style=""text-align: center; position: fixed; top: 5vh; left: 40vw;"">
            <div style=""margin:0 auto; width: 20vw; top: 8vh; font-size: 2vw""> 
            <font color=""green""> Bonus : $0 </font>
            </div>
        </div>
    ",null,,,,,,,,,7
,,,,,html-keyboard-response,22,51243,0.0-4.0-3.3,1685,./stimuli//pack_shapes_diff/cat_2/diff_1/ex_2_1_5.png,arrowright,response,ArrowRight,5,2,1,train,TRUE,,7
,,,,,html-keyboard-response,23,52748,0.0-4.0-4.3,null,"<p> <font color=""green"" size=""5vw""> Correct category! </font> </p>",null,feedback,,,,,,,0,7
,,,,,html-keyboard-response,24,53419,0.0-4.0-0.4,669,"
            
        <div style=""text-align: center; position: fixed; top: 5vh; left: 40vw;"">
            <div style=""margin:0 auto; width: 20vw; top: 8vh; font-size: 2vw""> 
            <font color=""green""> Bonus : $0 </font>
            </div>
        </div>
    
            <div> Please press any button to continue to the next trial.</div>
        ", ,ITI,,,,,,,,7
,,,,,html-keyboard-response,25,54028,0.0-4.0-1.4,null,"
        
        <div style=""text-align: center; position: fixed; top: 5vh; left: 40vw;"">
            <div style=""margin:0 auto; width: 20vw; top: 8vh; font-size: 2vw""> 
            <font color=""green""> Bonus : $0 </font>
            </div>
        </div>
    
        <img class=""stim"" src=./stimuli//pack_shapes_diff/cat_1/diff_1/ex_1_1_5.png></img>
    ",null,stimulus,,,,,,,,7
,,,,,html-keyboard-response,26,55036,0.0-4.0-2.4,null,"
        <div style=""text-align: center; position: fixed; top: 5vh; left: 40vw;"">
            <div style=""margin:0 auto; width: 20vw; top: 8vh; font-size: 2vw""> 
            <font color=""green""> Bonus : $0 </font>
            </div>
        </div>
    ",null,,,,,,,,,7
,,,,,html-keyboard-response,27,56057,0.0-4.0-3.4,1019,./stimuli//pack_shapes_diff/cat_1/diff_1/ex_1_1_5.png,arrowleft,response,ArrowLeft,5,1,1,train,TRUE,,7
,,,,,html-keyboard-response,28,57564,0.0-4.0-4.4,null,"<p> <font color=""green"" size=""5vw""> Correct category! </font> </p>",null,feedback,,,,,,,0,7
,,,,,html-keyboard-response,29,58111,0.0-4.0-0.5,546,"
            
        <div style=""text-align: center; position: fixed; top: 5vh; left: 40vw;"">
            <div style=""margin:0 auto; width: 20vw; top: 8vh; font-size: 2vw""> 
            <font color=""green""> Bonus : $0 </font>
            </div>
        </div>
    
            <div> Please press any button to continue to the next trial.</div>
        ", ,ITI,,,,,,,,7
,,,,,html-keyboard-response,30,58716,0.0-4.0-1.5,null,"
        
        <div style=""text-align: center; position: fixed; top: 5vh; left: 40vw;"">
            <div style=""margin:0 auto; width: 20vw; top: 8vh; font-size: 2vw""> 
            <font color=""green""> Bonus : $0 </font>
            </div>
        </div>
    
        <img class=""stim"" src=./stimuli//pack_shapes_diff/cat_1/diff_2/ex_1_2_16.png></img>
    ",null,stimulus,,,,,,,,7
,,,,,html-keyboard-response,31,59724,0.0-4.0-2.5,null,"
        <div style=""text-align: center; position: fixed; top: 5vh; left: 40vw;"">
            <div style=""margin:0 auto; width: 20vw; top: 8vh; font-size: 2vw""> 
            <font color=""green""> Bonus : $0 </font>
            </div>
        </div>
    ",null,,,,,,,,,7
,,,,,html-keyboard-response,32,60117,0.0-4.0-3.5,391,./stimuli//pack_shapes_diff/cat_1/diff_2/ex_1_2_16.png,arrowleft,response,ArrowLeft,16,1,2,train,TRUE,,7
,,,,,html-keyboard-response,33,61628,0.0-4.0-4.5,null,"<p> <font color=""green"" size=""5vw""> Correct category! </font> </p>",null,feedback,,,,,,,0,7
,,,,,html-keyboard-response,34,62286,0.0-4.0-0.6,656,"
            
        <div style=""text-align: center; position: fixed; top: 5vh; left: 40vw;"">
            <div style=""margin:0 auto; width: 20vw; top: 8vh; font-size: 2vw""> 
            <font color=""green""> Bonus : $0 </font>
            </div>
        </div>
    
            <div> Please press any button to continue to the next trial.</div>
        ", ,ITI,,,,,,,,7
,,,,,html-keyboard-response,35,62892,0.0-4.0-1.6,null,"
        
        <div style=""text-align: center; position: fixed; top: 5vh; left: 40vw;"">
            <div style=""margin:0 auto; width: 20vw; top: 8vh; font-size: 2vw""> 
            <font color=""green""> Bonus : $0 </font>
            </div>
        </div>
    
        <img class=""stim"" src=./stimuli//pack_shapes_diff/cat_2/diff_1/ex_2_1_7.png></img>
    ",null,stimulus,,,,,,,,7
,,,,,html-keyboard-response,36,63900,0.0-4.0-2.6,null,"
        <div style=""text-align: center; position: fixed; top: 5vh; left: 40vw;"">
            <div style=""margin:0 auto; width: 20vw; top: 8vh; font-size: 2vw""> 
            <font color=""green""> Bonus : $0 </font>
            </div>
        </div>
    ",null,,,,,,,,,7
,,,,,html-keyboard-response,37,63935,0.0-4.0-3.6,33,./stimuli//pack_shapes_diff/cat_2/diff_1/ex_2_1_7.png,arrowright,response,ArrowRight,7,2,1,train,TRUE,,7
,,,,,html-keyboard-response,38,65444,0.0-4.0-4.6,null,"<p> <font color=""green"" size=""5vw""> Correct category! </font> </p>",null,feedback,,,,,,,0,7
,,,,,html-keyboard-response,39,65987,0.0-4.0-0.7,542,"
            
        <div style=""text-align: center; position: fixed; top: 5vh; left: 40vw;"">
            <div style=""margin:0 auto; width: 20vw; top: 8vh; font-size: 2vw""> 
            <font color=""green""> Bonus : $0 </font>
            </div>
        </div>
    
            <div> Please press any button to continue to the next trial.</div>
        ", ,ITI,,,,,,,,7
,,,,,html-keyboard-response,40,66596,0.0-4.0-1.7,null,"
        
        <div style=""text-align: center; position: fixed; top: 5vh; left: 40vw;"">
            <div style=""margin:0 auto; width: 20vw; top: 8vh; font-size: 2vw""> 
            <font color=""green""> Bonus : $0 </font>
            </div>
        </div>
    
        <img class=""stim"" src=./stimuli//pack_shapes_diff/cat_2/diff_2/ex_2_2_3.png></img>
    ",null,stimulus,,,,,,,,7
,,,,,html-keyboard-response,41,67604,0.0-4.0-2.7,null,"
        <div style=""text-align: center; position: fixed; top: 5vh; left: 40vw;"">
            <div style=""margin:0 auto; width: 20vw; top: 8vh; font-size: 2vw""> 
            <font color=""green""> Bonus : $0 </font>
            </div>
        </div>
    ",null,,,,,,,,,7
,,,,,html-keyboard-response,42,68014,0.0-4.0-3.7,408,./stimuli//pack_shapes_diff/cat_2/diff_2/ex_2_2_3.png,arrowright,response,ArrowRight,3,2,2,train,TRUE,,7
,,,,,html-keyboard-response,43,69524,0.0-4.0-4.7,null,"<p> <font color=""green"" size=""5vw""> Correct category! </font> </p>",null,feedback,,,,,,,0,7
,,,,,html-keyboard-response,44,70150,0.0-4.0-0.8,625,"
            
        <div style=""text-align: center; position: fixed; top: 5vh; left: 40vw;"">
            <div style=""margin:0 auto; width: 20vw; top: 8vh; font-size: 2vw""> 
            <font color=""green""> Bonus : $0 </font>
            </div>
        </div>
    
            <div> Please press any button to continue to the next trial.</div>
        ", ,ITI,,,,,,,,7
,,,,,html-keyboard-response,45,70757,0.0-4.0-1.8,null,"
        
        <div style=""text-align: center; position: fixed; top: 5vh; left: 40vw;"">
            <div style=""margin:0 auto; width: 20vw; top: 8vh; font-size: 2vw""> 
            <font color=""green""> Bonus : $0 </font>
            </div>
        </div>
    
        <img class=""stim"" src=./stimuli//pack_shapes_diff/cat_1/diff_2/ex_1_2_4.png></img>
    ",null,stimulus,,,,,,,,7
,,,,,html-keyboard-response,46,71764,0.0-4.0-2.8,null,"
        <div style=""text-align: center; position: fixed; top: 5vh; left: 40vw;"">
            <div style=""margin:0 auto; width: 20vw; top: 8vh; font-size: 2vw""> 
            <font color=""green""> Bonus : $0 </font>
            </div>
        </div>
    ",null,,,,,,,,,7
,,,,,html-keyboard-response,47,72036,0.0-4.0-3.8,270,./stimuli//pack_shapes_diff/cat_1/diff_2/ex_1_2_4.png,arrowright,response,ArrowLeft,4,1,2,train,FALSE,,7
,,,,,html-keyboard-response,48,73539,0.0-4.0-4.8,null,"<p> <font color=""red"" size=""5vw""> Wrong category! </font> </p>",null,feedback,,,,,,,0,7
,,,,,html-keyboard-response,49,74173,0.0-4.0-0.9,632,"
            
        <div style=""text-align: center; position: fixed; top: 5vh; left: 40vw;"">
            <div style=""margin:0 auto; width: 20vw; top: 8vh; font-size: 2vw""> 
            <font color=""green""> Bonus : $0 </font>
            </div>
        </div>
    
            <div> Please press any button to continue to the next trial.</div>
        ", ,ITI,,,,,,,,7
,,,,,html-keyboard-response,50,74788,0.0-4.0-1.9,null,"
        
        <div style=""text-align: center; position: fixed; top: 5vh; left: 40vw;"">
            <div style=""margin:0 auto; width: 20vw; top: 8vh; font-size: 2vw""> 
            <font color=""green""> Bonus : $0 </font>
            </div>
        </div>
    
        <img class=""stim"" src=./stimuli//pack_shapes_diff/cat_1/diff_1/ex_1_1_15.png></img>
    ",null,stimulus,,,,,,,,7
,,,,,html-keyboard-response,51,75796,0.0-4.0-2.9,null,"
        <div style=""text-align: center; position: fixed; top: 5vh; left: 40vw;"">
            <div style=""margin:0 auto; width: 20vw; top: 8vh; font-size: 2vw""> 
            <font color=""green""> Bonus : $0 </font>
            </div>
        </div>
    ",null,,,,,,,,,7
,,,,,html-keyboard-response,52,76199,0.0-4.0-3.9,402,./stimuli//pack_shapes_diff/cat_1/diff_1/ex_1_1_15.png,arrowright,response,ArrowLeft,15,1,1,train,FALSE,,7
,,,,,html-keyboard-response,53,77708,0.0-4.0-4.9,null,"<p> <font color=""red"" size=""5vw""> Wrong category! </font> </p>",null,feedback,,,,,,,0,7
,,,,,html-keyboard-response,54,82510,0.0-5.0,4800,"
            <b> <p> The practice round has finished.</p>
            <b> For the rest of the experiment you will receive a $0.05 bonus for each correct answer!</b>
            <p> Press any key to begin the test. </p>
            ", ,intermission,,,,,,,,7
,,,,,html-keyboard-response,55,85484,0.0-6.0-0.0,2973,"
            
        <div style=""text-align: center; position: fixed; top: 5vh; left: 40vw;"">
            <div style=""margin:0 auto; width: 20vw; top: 8vh; font-size: 2vw""> 
            <font color=""green""> Bonus : $0 </font>
            </div>
        </div>
    
            <div> Please press any button to continue to the next trial.</div>
        ", ,ITI,,,,,,,,7
,,,,,html-keyboard-response,56,86092,0.0-6.0-1.0,null,"
        
        <div style=""text-align: center; position: fixed; top: 5vh; left: 40vw;"">
            <div style=""margin:0 auto; width: 20vw; top: 8vh; font-size: 2vw""> 
            <font color=""green""> Bonus : $0 </font>
            </div>
        </div>
    
        <img class=""stim"" src=./stimuli//pack_shapes_diff/cat_2/diff_1/ex_2_1_17.png></img>
    ",null,stimulus,,,,,,,,7
,,,,,html-keyboard-response,57,87100,0.0-6.0-2.0,null,"
        <div style=""text-align: center; position: fixed; top: 5vh; left: 40vw;"">
            <div style=""margin:0 auto; width: 20vw; top: 8vh; font-size: 2vw""> 
            <font color=""green""> Bonus : $0 </font>
            </div>
        </div>
    ",null,,,,,,,,,7
,,,,,html-keyboard-response,58,87230,0.0-6.0-3.0,128,./stimuli//pack_shapes_diff/cat_2/diff_1/ex_2_1_17.png,arrowleft,response,ArrowRight,17,2,1,test,FALSE,,7
,,,,,html-keyboard-response,59,88740,0.0-6.0-4.0,null,"<p> <font color=""red"" size=""5vw""> Wrong category! </font> </p>",null,feedback,,,,,,,0,7
,,,,,html-keyboard-response,60,90724,0.0-6.1-0.1,1976,"
            
        <div style=""text-align: center; position: fixed; top: 5vh; left: 40vw;"">
            <div style=""margin:0 auto; width: 20vw; top: 8vh; font-size: 2vw""> 
            <font color=""green""> Bonus : $0 </font>
            </div>
        </div>
    
            <div> Please press any button to continue to the next trial.</div>
        ", ,ITI,,,,,,,,7
,,,,,html-keyboard-response,61,91332,0.0-6.1-1.1,null,"
        
        <div style=""text-align: center; position: fixed; top: 5vh; left: 40vw;"">
            <div style=""margin:0 auto; width: 20vw; top: 8vh; font-size: 2vw""> 
            <font color=""green""> Bonus : $0 </font>
            </div>
        </div>
    
        <img class=""stim"" src=./stimuli//pack_shapes_diff/cat_2/diff_1/ex_2_1_12.png></img>
    ",null,stimulus,,,,,,,,7
,,,,,html-keyboard-response,62,92340,0.0-6.1-2.1,null,"
        <div style=""text-align: center; position: fixed; top: 5vh; left: 40vw;"">
            <div style=""margin:0 auto; width: 20vw; top: 8vh; font-size: 2vw""> 
            <font color=""green""> Bonus : $0 </font>
            </div>
        </div>
    ",null,,,,,,,,,7
,,,,,html-keyboard-response,63,93000,0.0-6.1-3.1,658,./stimuli//pack_shapes_diff/cat_2/diff_1/ex_2_1_12.png,arrowleft,response,ArrowRight,12,2,1,test,FALSE,,7
,,,,,html-keyboard-response,64,94508,0.0-6.1-4.1,null,"<p> <font color=""red"" size=""5vw""> Wrong category! </font> </p>",null,feedback,,,,,,,0,7
,,,,,html-keyboard-response,65,96684,0.0-6.2-0.2,2174,"
            
        <div style=""text-align: center; position: fixed; top: 5vh; left: 40vw;"">
            <div style=""margin:0 auto; width: 20vw; top: 8vh; font-size: 2vw""> 
            <font color=""green""> Bonus : $0 </font>
            </div>
        </div>
    
            <div> Please press any button to continue to the next trial.</div>
        ", ,ITI,,,,,,,,7
,,,,,html-keyboard-response,66,97292,0.0-6.2-1.2,null,"
        
        <div style=""text-align: center; position: fixed; top: 5vh; left: 40vw;"">
            <div style=""margin:0 auto; width: 20vw; top: 8vh; font-size: 2vw""> 
            <font color=""green""> Bonus : $0 </font>
            </div>
        </div>
    
        <img class=""stim"" src=./stimuli//pack_shapes_diff/cat_1/diff_1/ex_1_1_14.png></img>
    ",null,stimulus,,,,,,,,7
,,,,,html-keyboard-response,67,98300,0.0-6.2-2.2,null,"
        <div style=""text-align: center; position: fixed; top: 5vh; left: 40vw;"">
            <div style=""margin:0 auto; width: 20vw; top: 8vh; font-size: 2vw""> 
            <font color=""green""> Bonus : $0 </font>
            </div>
        </div>
    ",null,,,,,,,,,7
,,,,,html-keyboard-response,68,98768,0.0-6.2-3.2,467,./stimuli//pack_shapes_diff/cat_1/diff_1/ex_1_1_14.png,arrowright,response,ArrowLeft,14,1,1,test,FALSE,,7
,,,,,html-keyboard-response,69,100276,0.0-6.2-4.2,null,"<p> <font color=""red"" size=""5vw""> Wrong category! </font> </p>",null,feedback,,,,,,,0,7
,,,,,html-keyboard-response,70,100836,0.0-6.3-0.3,558,"
            
        <div style=""text-align: center; position: fixed; top: 5vh; left: 40vw;"">
            <div style=""margin:0 auto; width: 20vw; top: 8vh; font-size: 2vw""> 
            <font color=""green""> Bonus : $0 </font>
            </div>
        </div>
    
            <div> Please press any button to continue to the next trial.</div>
        ", ,ITI,,,,,,,,7
,,,,,html-keyboard-response,71,101444,0.0-6.3-1.3,null,"
        
        <div style=""text-align: center; position: fixed; top: 5vh; left: 40vw;"">
            <div style=""margin:0 auto; width: 20vw; top: 8vh; font-size: 2vw""> 
            <font color=""green""> Bonus : $0 </font>
            </div>
        </div>
    
        <img class=""stim"" src=./stimuli//pack_shapes_diff/cat_2/diff_1/ex_2_1_1.png></img>
    ",null,stimulus,,,,,,,,7
,,,,,html-keyboard-response,72,102452,0.0-6.3-2.3,null,"
        <div style=""text-align: center; position: fixed; top: 5vh; left: 40vw;"">
            <div style=""margin:0 auto; width: 20vw; top: 8vh; font-size: 2vw""> 
            <font color=""green""> Bonus : $0 </font>
            </div>
        </div>
    ",null,,,,,,,,,7
,,,,,html-keyboard-response,73,102892,0.0-6.3-3.3,437,./stimuli//pack_shapes_diff/cat_2/diff_1/ex_2_1_1.png,arrowright,response,ArrowRight,1,2,1,test,TRUE,,7
,,,,,html-keyboard-response,74,104397,0.0-6.3-4.3,null,"<p> <font color=""green"" size=""5vw""> Correct category! </font> <br> <br> <font color=""green"" size=""8vw""> + $0.05 </font> </p>",null,feedback,,,,,,,0.05,7
,,,,,html-keyboard-response,75,105273,0.0-6.4-0.4,873,"
            
        <div style=""text-align: center; position: fixed; top: 5vh; left: 40vw;"">
            <div style=""margin:0 auto; width: 20vw; top: 8vh; font-size: 2vw""> 
            <font color=""green""> Bonus : $0.05 </font>
            </div>
        </div>
    
            <div> Please press any button to continue to the next trial.</div>
        ", ,ITI,,,,,,,,7
,,,,,html-keyboard-response,76,105884,0.0-6.4-1.4,null,"
        
        <div style=""text-align: center; position: fixed; top: 5vh; left: 40vw;"">
            <div style=""margin:0 auto; width: 20vw; top: 8vh; font-size: 2vw""> 
            <font color=""green""> Bonus : $0.05 </font>
            </div>
        </div>
    
        <img class=""stim"" src=./stimuli//pack_shapes_diff/cat_1/diff_1/ex_1_1_8.png></img>
    ",null,stimulus,,,,,,,,7
,,,,,html-keyboard-response,77,106893,0.0-6.4-2.4,null,"
        <div style=""text-align: center; position: fixed; top: 5vh; left: 40vw;"">
            <div style=""margin:0 auto; width: 20vw; top: 8vh; font-size: 2vw""> 
            <font color=""green""> Bonus : $0.05 </font>
            </div>
        </div>
    ",null,,,,,,,,,7
,,,,,html-keyboard-response,78,106956,0.0-6.4-3.4,61,./stimuli//pack_shapes_diff/cat_1/diff_1/ex_1_1_8.png,arrowleft,response,ArrowLeft,8,1,1,test,TRUE,,7
,,,,,html-keyboard-response,79,108460,0.0-6.4-4.4,null,"<p> <font color=""green"" size=""5vw""> Correct category! </font> <br> <br> <font color=""green"" size=""8vw""> + $0.05 </font> </p>",null,feedback,,,,,,,0.1,7
,,,,,html-keyboard-response,80,109173,0.0-6.5-0.5,711,"
            
        <div style=""text-align: center; position: fixed; top: 5vh; left: 40vw;"">
            <div style=""margin:0 auto; width: 20vw; top: 8vh; font-size: 2vw""> 
            <font color=""green""> Bonus : $0.1 </font>
            </div>
        </div>
    
            <div> Please press any button to continue to the next trial.</div>
        ", ,ITI,,,,,,,,7
,,,,,html-keyboard-response,81,109780,0.0-6.5-1.5,null,"
        
        <div style=""text-align: center; position: fixed; top: 5vh; left: 40vw;"">
            <div style=""margin:0 auto; width: 20vw; top: 8vh; font-size: 2vw""> 
            <font color=""green""> Bonus : $0.1 </font>
            </div>
        </div>
    
        <img class=""stim"" src=./stimuli//pack_shapes_diff/cat_1/diff_1/ex_1_1_11.png></img>
    ",null,stimulus,,,,,,,,7
,,,,,html-keyboard-response,82,110788,0.0-6.5-2.5,null,"
        <div style=""text-align: center; position: fixed; top: 5vh; left: 40vw;"">
            <div style=""margin:0 auto; width: 20vw; top: 8vh; font-size: 2vw""> 
            <font color=""green""> Bonus : $0.1 </font>
            </div>
        </div>
    ",null,,,,,,,,,7
,,,,,html-keyboard-response,83,111178,0.0-6.5-3.5,389,./stimuli//pack_shapes_diff/cat_1/diff_1/ex_1_1_11.png,arrowleft,response,ArrowLeft,11,1,1,test,TRUE,,7
,,,,,html-keyboard-response,84,112685,0.0-6.5-4.5,null,"<p> <font color=""green"" size=""5vw""> Correct category! </font> <br> <br> <font color=""green"" size=""8vw""> + $0.05 </font> </p>",null,feedback,,,,,,,0.15,7
,,,,,html-keyboard-response,85,113427,0.0-6.6-0.6,740,"
            
        <div style=""text-align: center; position: fixed; top: 5vh; left: 40vw;"">
            <div style=""margin:0 auto; width: 20vw; top: 8vh; font-size: 2vw""> 
            <font color=""green""> Bonus : $0.15 </font>
            </div>
        </div>
    
            <div> Please press any button to continue to the next trial.</div>
        ", ,ITI,,,,,,,,7
,,,,,html-keyboard-response,86,114037,0.0-6.6-1.6,null,"
        
        <div style=""text-align: center; position: fixed; top: 5vh; left: 40vw;"">
            <div style=""margin:0 auto; width: 20vw; top: 8vh; font-size: 2vw""> 
            <font color=""green""> Bonus : $0.15 </font>
            </div>
        </div>
    
        <img class=""stim"" src=./stimuli//pack_shapes_diff/cat_2/diff_1/ex_2_1_16.png></img>
    ",null,stimulus,,,,,,,,7
,,,,,html-keyboard-response,87,115045,0.0-6.6-2.6,null,"
        <div style=""text-align: center; position: fixed; top: 5vh; left: 40vw;"">
            <div style=""margin:0 auto; width: 20vw; top: 8vh; font-size: 2vw""> 
            <font color=""green""> Bonus : $0.15 </font>
            </div>
        </div>
    ",null,,,,,,,,,7
,,,,,html-keyboard-response,88,115433,0.0-6.6-3.6,387,./stimuli//pack_shapes_diff/cat_2/diff_1/ex_2_1_16.png,arrowright,response,ArrowRight,16,2,1,test,TRUE,,7
,,,,,html-keyboard-response,89,116941,0.0-6.6-4.6,null,"<p> <font color=""green"" size=""5vw""> Correct category! </font> <br> <br> <font color=""green"" size=""8vw""> + $0.05 </font> </p>",null,feedback,,,,,,,0.2,7
,,,,,html-keyboard-response,90,117492,0.0-6.7-0.7,549,"
            
        <div style=""text-align: center; position: fixed; top: 5vh; left: 40vw;"">
            <div style=""margin:0 auto; width: 20vw; top: 8vh; font-size: 2vw""> 
            <font color=""green""> Bonus : $0.2 </font>
            </div>
        </div>
    
            <div> Please press any button to continue to the next trial.</div>
        ", ,ITI,,,,,,,,7
,,,,,html-keyboard-response,91,118101,0.0-6.7-1.7,null,"
        
        <div style=""text-align: center; position: fixed; top: 5vh; left: 40vw;"">
            <div style=""margin:0 auto; width: 20vw; top: 8vh; font-size: 2vw""> 
            <font color=""green""> Bonus : $0.2 </font>
            </div>
        </div>
    
        <img class=""stim"" src=./stimuli//pack_shapes_diff/cat_1/diff_2/ex_1_2_6.png></img>
    ",null,stimulus,,,,,,,,7
,,,,,html-keyboard-response,92,119110,0.0-6.7-2.7,null,"
        <div style=""text-align: center; position: fixed; top: 5vh; left: 40vw;"">
            <div style=""margin:0 auto; width: 20vw; top: 8vh; font-size: 2vw""> 
            <font color=""green""> Bonus : $0.2 </font>
            </div>
        </div>
    ",null,,,,,,,,,7
,,,,,html-keyboard-response,93,119546,0.0-6.7-3.7,435,./stimuli//pack_shapes_diff/cat_1/diff_2/ex_1_2_6.png,arrowleft,response,ArrowLeft,6,1,2,test,TRUE,,7
,,,,,html-keyboard-response,94,121053,0.0-6.7-4.7,null,"<p> <font color=""green"" size=""5vw""> Correct category! </font> <br> <br> <font color=""green"" size=""8vw""> + $0.05 </font> </p>",null,feedback,,,,,,,0.25,7
,,,,,html-keyboard-response,95,121534,0.0-6.8-0.8,479,"
            
        <div style=""text-align: center; position: fixed; top: 5vh; left: 40vw;"">
            <div style=""margin:0 auto; width: 20vw; top: 8vh; font-size: 2vw""> 
            <font color=""green""> Bonus : $0.25 </font>
            </div>
        </div>
    
            <div> Please press any button to continue to the next trial.</div>
        ", ,ITI,,,,,,,,7
,,,,,html-keyboard-response,96,122141,0.0-6.8-1.8,null,"
        
        <div style=""text-align: center; position: fixed; top: 5vh; left: 40vw;"">
            <div style=""margin:0 auto; width: 20vw; top: 8vh; font-size: 2vw""> 
            <font color=""green""> Bonus : $0.25 </font>
            </div>
        </div>
    
        <img class=""stim"" src=./stimuli//pack_shapes_diff/cat_2/diff_2/ex_2_2_7.png></img>
    ",null,stimulus,,,,,,,,7
,,,,,html-keyboard-response,97,123150,0.0-6.8-2.8,null,"
        <div style=""text-align: center; position: fixed; top: 5vh; left: 40vw;"">
            <div style=""margin:0 auto; width: 20vw; top: 8vh; font-size: 2vw""> 
            <font color=""green""> Bonus : $0.25 </font>
            </div>
        </div>
    ",null,,,,,,,,,7
,,,,,html-keyboard-response,98,123729,0.0-6.8-3.8,578,./stimuli//pack_shapes_diff/cat_2/diff_2/ex_2_2_7.png,arrowright,response,ArrowRight,7,2,2,test,TRUE,,7
,,,,,html-keyboard-response,99,125238,0.0-6.8-4.8,null,"<p> <font color=""green"" size=""5vw""> Correct category! </font> <br> <br> <font color=""green"" size=""8vw""> + $0.05 </font> </p>",null,feedback,,,,,,,0.3,7
,,,,,html-keyboard-response,100,125751,0.0-6.9-0.9,512,"
            
        <div style=""text-align: center; position: fixed; top: 5vh; left: 40vw;"">
            <div style=""margin:0 auto; width: 20vw; top: 8vh; font-size: 2vw""> 
            <font color=""green""> Bonus : $0.3 </font>
            </div>
        </div>
    
            <div> Please press any button to continue to the next trial.</div>
        ", ,ITI,,,,,,,,7
,,,,,html-keyboard-response,101,126358,0.0-6.9-1.9,null,"
        
        <div style=""text-align: center; position: fixed; top: 5vh; left: 40vw;"">
            <div style=""margin:0 auto; width: 20vw; top: 8vh; font-size: 2vw""> 
            <font color=""green""> Bonus : $0.3 </font>
            </div>
        </div>
    
        <img class=""stim"" src=./stimuli//pack_shapes_diff/cat_2/diff_2/ex_2_2_5.png></img>
    ",null,stimulus,,,,,,,,7
,,,,,html-keyboard-response,102,127366,0.0-6.9-2.9,null,"
        <div style=""text-align: center; position: fixed; top: 5vh; left: 40vw;"">
            <div style=""margin:0 auto; width: 20vw; top: 8vh; font-size: 2vw""> 
            <font color=""green""> Bonus : $0.3 </font>
            </div>
        </div>
    ",null,,,,,,,,,7
,,,,,html-keyboard-response,103,127733,0.0-6.9-3.9,365,./stimuli//pack_shapes_diff/cat_2/diff_2/ex_2_2_5.png,arrowright,response,ArrowRight,5,2,2,test,TRUE,,7
,,,,,html-keyboard-response,104,129238,0.0-6.9-4.9,null,"<p> <font color=""green"" size=""5vw""> Correct category! </font> <br> <br> <font color=""green"" size=""8vw""> + $0.05 </font> </p>",null,feedback,,,,,,,0.35,7
,,,,,html-keyboard-response,105,129840,0.0-6.10-0.10,600,"
            
        <div style=""text-align: center; position: fixed; top: 5vh; left: 40vw;"">
            <div style=""margin:0 auto; width: 20vw; top: 8vh; font-size: 2vw""> 
            <font color=""green""> Bonus : $0.35 </font>
            </div>
        </div>
    
            <div> Please press any button to continue to the next trial.</div>
        ", ,ITI,,,,,,,,7
,,,,,html-keyboard-response,106,130446,0.0-6.10-1.10,null,"
        
        <div style=""text-align: center; position: fixed; top: 5vh; left: 40vw;"">
            <div style=""margin:0 auto; width: 20vw; top: 8vh; font-size: 2vw""> 
            <font color=""green""> Bonus : $0.35 </font>
            </div>
        </div>
    
        <img class=""stim"" src=./stimuli//pack_shapes_diff/cat_2/diff_2/ex_2_2_4.png></img>
    ",null,stimulus,,,,,,,,7
,,,,,html-keyboard-response,107,131454,0.0-6.10-2.10,null,"
        <div style=""text-align: center; position: fixed; top: 5vh; left: 40vw;"">
            <div style=""margin:0 auto; width: 20vw; top: 8vh; font-size: 2vw""> 
            <font color=""green""> Bonus : $0.35 </font>
            </div>
        </div>
    ",null,,,,,,,,,7
,,,,,html-keyboard-response,108,131868,0.0-6.10-3.10,412,./stimuli//pack_shapes_diff/cat_2/diff_2/ex_2_2_4.png,arrowleft,response,ArrowRight,4,2,2,test,FALSE,,7
,,,,,html-keyboard-response,109,133374,0.0-6.10-4.10,null,"<p> <font color=""red"" size=""5vw""> Wrong category! </font> </p>",null,feedback,,,,,,,0.35,7
,,,,,html-keyboard-response,110,133813,0.0-6.11-0.11,438,"
            
        <div style=""text-align: center; position: fixed; top: 5vh; left: 40vw;"">
            <div style=""margin:0 auto; width: 20vw; top: 8vh; font-size: 2vw""> 
            <font color=""green""> Bonus : $0.35 </font>
            </div>
        </div>
    
            <div> Please press any button to continue to the next trial.</div>
        ", ,ITI,,,,,,,,7
,,,,,html-keyboard-response,111,134422,0.0-6.11-1.11,null,"
        
        <div style=""text-align: center; position: fixed; top: 5vh; left: 40vw;"">
            <div style=""margin:0 auto; width: 20vw; top: 8vh; font-size: 2vw""> 
            <font color=""green""> Bonus : $0.35 </font>
            </div>
        </div>
    
        <img class=""stim"" src=./stimuli//pack_shapes_diff/cat_2/diff_2/ex_2_2_17.png></img>
    ",null,stimulus,,,,,,,,7
,,,,,html-keyboard-response,112,135430,0.0-6.11-2.11,null,"
        <div style=""text-align: center; position: fixed; top: 5vh; left: 40vw;"">
            <div style=""margin:0 auto; width: 20vw; top: 8vh; font-size: 2vw""> 
            <font color=""green""> Bonus : $0.35 </font>
            </div>
        </div>
    ",null,,,,,,,,,7
,,,,,html-keyboard-response,113,135867,0.0-6.11-3.11,436,./stimuli//pack_shapes_diff/cat_2/diff_2/ex_2_2_17.png,arrowleft,response,ArrowRight,17,2,2,test,FALSE,,7
,,,,,html-keyboard-response,114,137374,0.0-6.11-4.11,null,"<p> <font color=""red"" size=""5vw""> Wrong category! </font> </p>",null,feedback,,,,,,,0.35,7
,,,,,html-keyboard-response,115,137927,0.0-6.12-0.12,552,"
            
        <div style=""text-align: center; position: fixed; top: 5vh; left: 40vw;"">
            <div style=""margin:0 auto; width: 20vw; top: 8vh; font-size: 2vw""> 
            <font color=""green""> Bonus : $0.35 </font>
            </div>
        </div>
    
            <div> Please press any button to continue to the next trial.</div>
        ", ,ITI,,,,,,,,7
,,,,,html-keyboard-response,116,138534,0.0-6.12-1.12,null,"
        
        <div style=""text-align: center; position: fixed; top: 5vh; left: 40vw;"">
            <div style=""margin:0 auto; width: 20vw; top: 8vh; font-size: 2vw""> 
            <font color=""green""> Bonus : $0.35 </font>
            </div>
        </div>
    
        <img class=""stim"" src=./stimuli//pack_shapes_diff/cat_2/diff_1/ex_2_1_17.png></img>
    ",null,stimulus,,,,,,,,7
,,,,,html-keyboard-response,117,139542,0.0-6.12-2.12,null,"
        <div style=""text-align: center; position: fixed; top: 5vh; left: 40vw;"">
            <div style=""margin:0 auto; width: 20vw; top: 8vh; font-size: 2vw""> 
            <font color=""green""> Bonus : $0.35 </font>
            </div>
        </div>
    ",null,,,,,,,,,7
,,,,,html-keyboard-response,118,139923,0.0-6.12-3.12,379,./stimuli//pack_shapes_diff/cat_2/diff_1/ex_2_1_17.png,arrowright,response,ArrowRight,17,2,1,test,TRUE,,7
,,,,,html-keyboard-response,119,141429,0.0-6.12-4.12,null,"<p> <font color=""green"" size=""5vw""> Correct category! </font> <br> <br> <font color=""green"" size=""8vw""> + $0.05 </font> </p>",null,feedback,,,,,,,0.4,7
,,,,,html-keyboard-response,120,141879,0.0-6.13-0.13,449,"
            
        <div style=""text-align: center; position: fixed; top: 5vh; left: 40vw;"">
            <div style=""margin:0 auto; width: 20vw; top: 8vh; font-size: 2vw""> 
            <font color=""green""> Bonus : $0.4 </font>
            </div>
        </div>
    
            <div> Please press any button to continue to the next trial.</div>
        ", ,ITI,,,,,,,,7
,,,,,html-keyboard-response,121,142485,0.0-6.13-1.13,null,"
        
        <div style=""text-align: center; position: fixed; top: 5vh; left: 40vw;"">
            <div style=""margin:0 auto; width: 20vw; top: 8vh; font-size: 2vw""> 
            <font color=""green""> Bonus : $0.4 </font>
            </div>
        </div>
    
        <img class=""stim"" src=./stimuli//pack_shapes_diff/cat_1/diff_1/ex_1_1_10.png></img>
    ",null,stimulus,,,,,,,,7
,,,,,html-keyboard-response,122,143493,0.0-6.13-2.13,null,"
        <div style=""text-align: center; position: fixed; top: 5vh; left: 40vw;"">
            <div style=""margin:0 auto; width: 20vw; top: 8vh; font-size: 2vw""> 
            <font color=""green""> Bonus : $0.4 </font>
            </div>
        </div>
    ",null,,,,,,,,,7
,,,,,html-keyboard-response,123,143875,0.0-6.13-3.13,380,./stimuli//pack_shapes_diff/cat_1/diff_1/ex_1_1_10.png,arrowleft,response,ArrowLeft,10,1,1,test,TRUE,,7
,,,,,html-keyboard-response,124,145345,0.0-6.13-4.13,1468,"<p> <font color=""green"" size=""5vw""> Correct category! </font> <br> <br> <font color=""green"" size=""8vw""> + $0.05 </font> </p>", ,feedback,,,,,,,0.45,7
,,,,,html-keyboard-response,125,147048,0.0-6.14-0.14,1702,"
            
        <div style=""text-align: center; position: fixed; top: 5vh; left: 40vw;"">
            <div style=""margin:0 auto; width: 20vw; top: 8vh; font-size: 2vw""> 
            <font color=""green""> Bonus : $0.45 </font>
            </div>
        </div>
    
            <div> Please press any button to continue to the next trial.</div>
        ", ,ITI,,,,,,,,7
,,,,,html-keyboard-response,126,147653,0.0-6.14-1.14,null,"
        
        <div style=""text-align: center; position: fixed; top: 5vh; left: 40vw;"">
            <div style=""margin:0 auto; width: 20vw; top: 8vh; font-size: 2vw""> 
            <font color=""green""> Bonus : $0.45 </font>
            </div>
        </div>
    
        <img class=""stim"" src=./stimuli//pack_shapes_diff/cat_1/diff_1/ex_1_1_2.png></img>
    ",null,stimulus,,,,,,,,7
,,,,,html-keyboard-response,127,148661,0.0-6.14-2.14,null,"
        <div style=""text-align: center; position: fixed; top: 5vh; left: 40vw;"">
            <div style=""margin:0 auto; width: 20vw; top: 8vh; font-size: 2vw""> 
            <font color=""green""> Bonus : $0.45 </font>
            </div>
        </div>
    ",null,,,,,,,,,7
,,,,,html-keyboard-response,128,149186,0.0-6.14-3.14,523,./stimuli//pack_shapes_diff/cat_1/diff_1/ex_1_1_2.png,arrowleft,response,ArrowLeft,2,1,1,test,TRUE,,7
,,,,,html-keyboard-response,129,150693,0.0-6.14-4.14,null,"<p> <font color=""green"" size=""5vw""> Correct category! </font> <br> <br> <font color=""green"" size=""8vw""> + $0.05 </font> </p>",null,feedback,,,,,,,0.5,7
,,,,,html-keyboard-response,130,151334,0.0-6.15-0.15,638,"
            
        <div style=""text-align: center; position: fixed; top: 5vh; left: 40vw;"">
            <div style=""margin:0 auto; width: 20vw; top: 8vh; font-size: 2vw""> 
            <font color=""green""> Bonus : $0.5 </font>
            </div>
        </div>
    
            <div> Please press any button to continue to the next trial.</div>
        ", ,ITI,,,,,,,,7
,,,,,html-keyboard-response,131,151941,0.0-6.15-1.15,null,"
        
        <div style=""text-align: center; position: fixed; top: 5vh; left: 40vw;"">
            <div style=""margin:0 auto; width: 20vw; top: 8vh; font-size: 2vw""> 
            <font color=""green""> Bonus : $0.5 </font>
            </div>
        </div>
    
        <img class=""stim"" src=./stimuli//pack_shapes_diff/cat_1/diff_1/ex_1_1_9.png></img>
    ",null,stimulus,,,,,,,,7
,,,,,html-keyboard-response,132,152949,0.0-6.15-2.15,null,"
        <div style=""text-align: center; position: fixed; top: 5vh; left: 40vw;"">
            <div style=""margin:0 auto; width: 20vw; top: 8vh; font-size: 2vw""> 
            <font color=""green""> Bonus : $0.5 </font>
            </div>
        </div>
    ",null,,,,,,,,,7
,,,,,html-keyboard-response,133,153721,0.0-6.15-3.15,770,./stimuli//pack_shapes_diff/cat_1/diff_1/ex_1_1_9.png,arrowleft,response,ArrowLeft,9,1,1,test,TRUE,,7
,,,,,html-keyboard-response,134,155229,0.0-6.15-4.15,null,"<p> <font color=""green"" size=""5vw""> Correct category! </font> <br> <br> <font color=""green"" size=""8vw""> + $0.05 </font> </p>",null,feedback,,,,,,,0.55,7
,,,,,html-keyboard-response,135,155844,0.0-6.16-0.16,613,"
            
        <div style=""text-align: center; position: fixed; top: 5vh; left: 40vw;"">
            <div style=""margin:0 auto; width: 20vw; top: 8vh; font-size: 2vw""> 
            <font color=""green""> Bonus : $0.55 </font>
            </div>
        </div>
    
            <div> Please press any button to continue to the next trial.</div>
        ", ,ITI,,,,,,,,7
,,,,,html-keyboard-response,136,156453,0.0-6.16-1.16,null,"
        
        <div style=""text-align: center; position: fixed; top: 5vh; left: 40vw;"">
            <div style=""margin:0 auto; width: 20vw; top: 8vh; font-size: 2vw""> 
            <font color=""green""> Bonus : $0.55 </font>
            </div>
        </div>
    
        <img class=""stim"" src=./stimuli//pack_shapes_diff/cat_1/diff_1/ex_1_1_4.png></img>
    ",null,stimulus,,,,,,,,7
,,,,,html-keyboard-response,137,157461,0.0-6.16-2.16,null,"
        <div style=""text-align: center; position: fixed; top: 5vh; left: 40vw;"">
            <div style=""margin:0 auto; width: 20vw; top: 8vh; font-size: 2vw""> 
            <font color=""green""> Bonus : $0.55 </font>
            </div>
        </div>
    ",null,,,,,,,,,7
,,,,,html-keyboard-response,138,157970,0.0-6.16-3.16,507,./stimuli//pack_shapes_diff/cat_1/diff_1/ex_1_1_4.png,arrowleft,response,ArrowLeft,4,1,1,test,TRUE,,7
,,,,,html-keyboard-response,139,159477,0.0-6.16-4.16,null,"<p> <font color=""green"" size=""5vw""> Correct category! </font> <br> <br> <font color=""green"" size=""8vw""> + $0.05 </font> </p>",null,feedback,,,,,,,0.6,7
,,,,,html-keyboard-response,140,160088,0.0-6.17-0.17,609,"
            
        <div style=""text-align: center; position: fixed; top: 5vh; left: 40vw;"">
            <div style=""margin:0 auto; width: 20vw; top: 8vh; font-size: 2vw""> 
            <font color=""green""> Bonus : $0.6 </font>
            </div>
        </div>
    
            <div> Please press any button to continue to the next trial.</div>
        ", ,ITI,,,,,,,,7
,,,,,html-keyboard-response,141,160694,0.0-6.17-1.17,null,"
        
        <div style=""text-align: center; position: fixed; top: 5vh; left: 40vw;"">
            <div style=""margin:0 auto; width: 20vw; top: 8vh; font-size: 2vw""> 
            <font color=""green""> Bonus : $0.6 </font>
            </div>
        </div>
    
        <img class=""stim"" src=./stimuli//pack_shapes_diff/cat_1/diff_2/ex_1_2_11.png></img>
    ",null,stimulus,,,,,,,,7
,,,,,html-keyboard-response,142,161702,0.0-6.17-2.17,null,"
        <div style=""text-align: center; position: fixed; top: 5vh; left: 40vw;"">
            <div style=""margin:0 auto; width: 20vw; top: 8vh; font-size: 2vw""> 
            <font color=""green""> Bonus : $0.6 </font>
            </div>
        </div>
    ",null,,,,,,,,,7
,,,,,html-keyboard-response,143,161893,0.0-6.17-3.17,189,./stimuli//pack_shapes_diff/cat_1/diff_2/ex_1_2_11.png,arrowleft,response,ArrowLeft,11,1,2,test,TRUE,,7
,,,,,html-keyboard-response,144,163397,0.0-6.17-4.17,null,"<p> <font color=""green"" size=""5vw""> Correct category! </font> <br> <br> <font color=""green"" size=""8vw""> + $0.05 </font> </p>",null,feedback,,,,,,,0.65,7
,,,,,html-keyboard-response,145,163919,0.0-6.18-0.18,520,"
            
        <div style=""text-align: center; position: fixed; top: 5vh; left: 40vw;"">
            <div style=""margin:0 auto; width: 20vw; top: 8vh; font-size: 2vw""> 
            <font color=""green""> Bonus : $0.65 </font>
            </div>
        </div>
    
            <div> Please press any button to continue to the next trial.</div>
        ", ,ITI,,,,,,,,7
,,,,,html-keyboard-response,146,164526,0.0-6.18-1.18,null,"
        
        <div style=""text-align: center; position: fixed; top: 5vh; left: 40vw;"">
            <div style=""margin:0 auto; width: 20vw; top: 8vh; font-size: 2vw""> 
            <font color=""green""> Bonus : $0.65 </font>
            </div>
        </div>
    
        <img class=""stim"" src=./stimuli//pack_shapes_diff/cat_2/diff_2/ex_2_2_17.png></img>
    ",null,stimulus,,,,,,,,7
,,,,,html-keyboard-response,147,165534,0.0-6.18-2.18,null,"
        <div style=""text-align: center; position: fixed; top: 5vh; left: 40vw;"">
            <div style=""margin:0 auto; width: 20vw; top: 8vh; font-size: 2vw""> 
            <font color=""green""> Bonus : $0.65 </font>
            </div>
        </div>
    ",null,,,,,,,,,7
,,,,,html-keyboard-response,148,165927,0.0-6.18-3.18,391,./stimuli//pack_shapes_diff/cat_2/diff_2/ex_2_2_17.png,arrowright,response,ArrowRight,17,2,2,test,TRUE,,7
,,,,,html-keyboard-response,149,167438,0.0-6.18-4.18,null,"<p> <font color=""green"" size=""5vw""> Correct category! </font> <br> <br> <font color=""green"" size=""8vw""> + $0.05 </font> </p>",null,feedback,,,,,,,0.7,7
,,,,,html-keyboard-response,150,168803,0.0-6.19-0.19,1364,"
            
        <div style=""text-align: center; position: fixed; top: 5vh; left: 40vw;"">
            <div style=""margin:0 auto; width: 20vw; top: 8vh; font-size: 2vw""> 
            <font color=""green""> Bonus : $0.7 </font>
            </div>
        </div>
    
            <div> Please press any button to continue to the next trial.</div>
        ", ,ITI,,,,,,,,7
,,,,,html-keyboard-response,151,169407,0.0-6.19-1.19,null,"
        
        <div style=""text-align: center; position: fixed; top: 5vh; left: 40vw;"">
            <div style=""margin:0 auto; width: 20vw; top: 8vh; font-size: 2vw""> 
            <font color=""green""> Bonus : $0.7 </font>
            </div>
        </div>
    
        <img class=""stim"" src=./stimuli//pack_shapes_diff/cat_1/diff_2/ex_1_2_14.png></img>
    ",null,stimulus,,,,,,,,7
,,,,,html-keyboard-response,152,170413,0.0-6.19-2.19,null,"
        <div style=""text-align: center; position: fixed; top: 5vh; left: 40vw;"">
            <div style=""margin:0 auto; width: 20vw; top: 8vh; font-size: 2vw""> 
            <font color=""green""> Bonus : $0.7 </font>
            </div>
        </div>
    ",null,,,,,,,,,7
,,,,,html-keyboard-response,153,171006,0.0-6.19-3.19,592,./stimuli//pack_shapes_diff/cat_1/diff_2/ex_1_2_14.png,arrowright,response,ArrowLeft,14,1,2,test,FALSE,,7
,,,,,html-keyboard-response,154,172510,0.0-6.19-4.19,null,"<p> <font color=""red"" size=""5vw""> Wrong category! </font> </p>",null,feedback,,,,,,,0.7,7
,,,,,html-keyboard-response,155,172746,0.0-6.20-0.20,233,"
            
        <div style=""text-align: center; position: fixed; top: 5vh; left: 40vw;"">
            <div style=""margin:0 auto; width: 20vw; top: 8vh; font-size: 2vw""> 
            <font color=""green""> Bonus : $0.7 </font>
            </div>
        </div>
    
            <div> Please press any button to continue to the next trial.</div>
        ", ,ITI,,,,,,,,7
,,,,,html-keyboard-response,156,173351,0.0-6.20-1.20,null,"
        
        <div style=""text-align: center; position: fixed; top: 5vh; left: 40vw;"">
            <div style=""margin:0 auto; width: 20vw; top: 8vh; font-size: 2vw""> 
            <font color=""green""> Bonus : $0.7 </font>
            </div>
        </div>
    
        <img class=""stim"" src=./stimuli//pack_shapes_diff/cat_2/diff_2/ex_2_2_4.png></img>
    ",null,stimulus,,,,,,,,7
,,,,,html-keyboard-response,157,174360,0.0-6.20-2.20,null,"
        <div style=""text-align: center; position: fixed; top: 5vh; left: 40vw;"">
            <div style=""margin:0 auto; width: 20vw; top: 8vh; font-size: 2vw""> 
            <font color=""green""> Bonus : $0.7 </font>
            </div>
        </div>
    ",null,,,,,,,,,7
,,,,,html-keyboard-response,158,174622,0.0-6.20-3.20,261,./stimuli//pack_shapes_diff/cat_2/diff_2/ex_2_2_4.png,arrowright,response,ArrowRight,4,2,2,test,TRUE,,7
,,,,,html-keyboard-response,159,176126,0.0-6.20-4.20,null,"<p> <font color=""green"" size=""5vw""> Correct category! </font> <br> <br> <font color=""green"" size=""8vw""> + $0.05 </font> </p>",null,feedback,,,,,,,0.75,7
,,,,,html-keyboard-response,160,176639,0.0-6.21-0.21,510,"
            
        <div style=""text-align: center; position: fixed; top: 5vh; left: 40vw;"">
            <div style=""margin:0 auto; width: 20vw; top: 8vh; font-size: 2vw""> 
            <font color=""green""> Bonus : $0.75 </font>
            </div>
        </div>
    
            <div> Please press any button to continue to the next trial.</div>
        ", ,ITI,,,,,,,,7
,,,,,html-keyboard-response,161,177247,0.0-6.21-1.21,null,"
        
        <div style=""text-align: center; position: fixed; top: 5vh; left: 40vw;"">
            <div style=""margin:0 auto; width: 20vw; top: 8vh; font-size: 2vw""> 
            <font color=""green""> Bonus : $0.75 </font>
            </div>
        </div>
    
        <img class=""stim"" src=./stimuli//pack_shapes_diff/cat_1/diff_2/ex_1_2_1.png></img>
    ",null,stimulus,,,,,,,,7
,,,,,html-keyboard-response,162,178254,0.0-6.21-2.21,null,"
        <div style=""text-align: center; position: fixed; top: 5vh; left: 40vw;"">
            <div style=""margin:0 auto; width: 20vw; top: 8vh; font-size: 2vw""> 
            <font color=""green""> Bonus : $0.75 </font>
            </div>
        </div>
    ",null,,,,,,,,,7
,,,,,html-keyboard-response,163,178866,0.0-6.21-3.21,609,./stimuli//pack_shapes_diff/cat_1/diff_2/ex_1_2_1.png,arrowleft,response,ArrowLeft,1,1,2,test,TRUE,,7
,,,,,html-keyboard-response,164,180374,0.0-6.21-4.21,null,"<p> <font color=""green"" size=""5vw""> Correct category! </font> <br> <br> <font color=""green"" size=""8vw""> + $0.05 </font> </p>",null,feedback,,,,,,,0.8,7
,,,,,html-keyboard-response,165,181082,0.0-6.22-0.22,707,"
            
        <div style=""text-align: center; position: fixed; top: 5vh; left: 40vw;"">
            <div style=""margin:0 auto; width: 20vw; top: 8vh; font-size: 2vw""> 
            <font color=""green""> Bonus : $0.8 </font>
            </div>
        </div>
    
            <div> Please press any button to continue to the next trial.</div>
        ", ,ITI,,,,,,,,7
,,,,,html-keyboard-response,166,181687,0.0-6.22-1.22,null,"
        
        <div style=""text-align: center; position: fixed; top: 5vh; left: 40vw;"">
            <div style=""margin:0 auto; width: 20vw; top: 8vh; font-size: 2vw""> 
            <font color=""green""> Bonus : $0.8 </font>
            </div>
        </div>
    
        <img class=""stim"" src=./stimuli//pack_shapes_diff/cat_1/diff_3/ex_1_3_10.png></img>
    ",null,stimulus,,,,,,,,7
,,,,,html-keyboard-response,167,182695,0.0-6.22-2.22,null,"
        <div style=""text-align: center; position: fixed; top: 5vh; left: 40vw;"">
            <div style=""margin:0 auto; width: 20vw; top: 8vh; font-size: 2vw""> 
            <font color=""green""> Bonus : $0.8 </font>
            </div>
        </div>
    ",null,,,,,,,,,7
,,,,,html-keyboard-response,168,183358,0.0-6.22-3.22,662,./stimuli//pack_shapes_diff/cat_1/diff_3/ex_1_3_10.png,arrowleft,response,ArrowLeft,10,1,3,test,TRUE,,7
,,,,,html-keyboard-response,169,184026,0.0-6.22-4.22,667,"<p> <font color=""green"" size=""5vw""> Correct category! </font> <br> <br> <font color=""green"" size=""8vw""> + $0.05 </font> </p>", ,feedback,,,,,,,0.85,7
,,,,,html-keyboard-response,170,184934,0.0-6.23-0.23,905,"
            
        <div style=""text-align: center; position: fixed; top: 5vh; left: 40vw;"">
            <div style=""margin:0 auto; width: 20vw; top: 8vh; font-size: 2vw""> 
            <font color=""green""> Bonus : $0.85 </font>
            </div>
        </div>
    
            <div> Please press any button to continue to the next trial.</div>
        ", ,ITI,,,,,,,,7
,,,,,html-keyboard-response,171,185543,0.0-6.23-1.23,null,"
        
        <div style=""text-align: center; position: fixed; top: 5vh; left: 40vw;"">
            <div style=""margin:0 auto; width: 20vw; top: 8vh; font-size: 2vw""> 
            <font color=""green""> Bonus : $0.85 </font>
            </div>
        </div>
    
        <img class=""stim"" src=./stimuli//pack_shapes_diff/cat_1/diff_3/ex_1_3_14.png></img>
    ",null,stimulus,,,,,,,,7
,,,,,html-keyboard-response,172,186551,0.0-6.23-2.23,null,"
        <div style=""text-align: center; position: fixed; top: 5vh; left: 40vw;"">
            <div style=""margin:0 auto; width: 20vw; top: 8vh; font-size: 2vw""> 
            <font color=""green""> Bonus : $0.85 </font>
            </div>
        </div>
    ",null,,,,,,,,,7
,,,,,html-keyboard-response,173,186990,0.0-6.23-3.23,437,./stimuli//pack_shapes_diff/cat_1/diff_3/ex_1_3_14.png,arrowleft,response,ArrowLeft,14,1,3,test,TRUE,,7
,,,,,html-keyboard-response,174,187590,0.0-6.23-4.23,599,"<p> <font color=""green"" size=""5vw""> Correct category! </font> <br> <br> <font color=""green"" size=""8vw""> + $0.05 </font> </p>", ,feedback,,,,,,,0.9,7
,,,,,html-keyboard-response,175,188860,0.0-6.24-0.24,1268,"
            
        <div style=""text-align: center; position: fixed; top: 5vh; left: 40vw;"">
            <div style=""margin:0 auto; width: 20vw; top: 8vh; font-size: 2vw""> 
            <font color=""green""> Bonus : $0.9 </font>
            </div>
        </div>
    
            <div> Please press any button to continue to the next trial.</div>
        ", ,ITI,,,,,,,,7
,,,,,html-keyboard-response,176,189463,0.0-6.24-1.24,null,"
        
        <div style=""text-align: center; position: fixed; top: 5vh; left: 40vw;"">
            <div style=""margin:0 auto; width: 20vw; top: 8vh; font-size: 2vw""> 
            <font color=""green""> Bonus : $0.9 </font>
            </div>
        </div>
    
        <img class=""stim"" src=./stimuli//pack_shapes_diff/cat_1/diff_3/ex_1_3_11.png></img>
    ",null,stimulus,,,,,,,,7
,,,,,html-keyboard-response,177,190471,0.0-6.24-2.24,null,"
        <div style=""text-align: center; position: fixed; top: 5vh; left: 40vw;"">
            <div style=""margin:0 auto; width: 20vw; top: 8vh; font-size: 2vw""> 
            <font color=""green""> Bonus : $0.9 </font>
            </div>
        </div>
    ",null,,,,,,,,,7
,,,,,html-keyboard-response,178,191143,0.0-6.24-3.24,671,./stimuli//pack_shapes_diff/cat_1/diff_3/ex_1_3_11.png,arrowleft,response,ArrowLeft,11,1,3,test,TRUE,,7
,,,,,html-keyboard-response,179,192647,0.0-6.24-4.24,null,"<p> <font color=""green"" size=""5vw""> Correct category! </font> <br> <br> <font color=""green"" size=""8vw""> + $0.05 </font> </p>",null,feedback,,,,,,,0.95,7
,,,,,html-keyboard-response,180,193310,0.0-6.25-0.25,661,"
            
        <div style=""text-align: center; position: fixed; top: 5vh; left: 40vw;"">
            <div style=""margin:0 auto; width: 20vw; top: 8vh; font-size: 2vw""> 
            <font color=""green""> Bonus : $0.95 </font>
            </div>
        </div>
    
            <div> Please press any button to continue to the next trial.</div>
        ", ,ITI,,,,,,,,7
,,,,,html-keyboard-response,181,193919,0.0-6.25-1.25,null,"
        
        <div style=""text-align: center; position: fixed; top: 5vh; left: 40vw;"">
            <div style=""margin:0 auto; width: 20vw; top: 8vh; font-size: 2vw""> 
            <font color=""green""> Bonus : $0.95 </font>
            </div>
        </div>
    
        <img class=""stim"" src=./stimuli//pack_shapes_diff/cat_1/diff_3/ex_1_3_6.png></img>
    ",null,stimulus,,,,,,,,7
,,,,,html-keyboard-response,182,194927,0.0-6.25-2.25,null,"
        <div style=""text-align: center; position: fixed; top: 5vh; left: 40vw;"">
            <div style=""margin:0 auto; width: 20vw; top: 8vh; font-size: 2vw""> 
            <font color=""green""> Bonus : $0.95 </font>
            </div>
        </div>
    ",null,,,,,,,,,7
,,,,,html-keyboard-response,183,195605,0.0-6.25-3.25,676,./stimuli//pack_shapes_diff/cat_1/diff_3/ex_1_3_6.png,arrowleft,response,ArrowLeft,6,1,3,test,TRUE,,7
,,,,,html-keyboard-response,184,197111,0.0-6.25-4.25,null,"<p> <font color=""green"" size=""5vw""> Correct category! </font> <br> <br> <font color=""green"" size=""8vw""> + $0.05 </font> </p>",null,feedback,,,,,,,1,7
,,,,,html-keyboard-response,185,198530,0.0-6.26-0.26,1418,"
            
        <div style=""text-align: center; position: fixed; top: 5vh; left: 40vw;"">
            <div style=""margin:0 auto; width: 20vw; top: 8vh; font-size: 2vw""> 
            <font color=""green""> Bonus : $1 </font>
            </div>
        </div>
    
            <div> Please press any button to continue to the next trial.</div>
        ", ,ITI,,,,,,,,7
,,,,,html-keyboard-response,186,199141,0.0-6.26-1.26,null,"
        
        <div style=""text-align: center; position: fixed; top: 5vh; left: 40vw;"">
            <div style=""margin:0 auto; width: 20vw; top: 8vh; font-size: 2vw""> 
            <font color=""green""> Bonus : $1 </font>
            </div>
        </div>
    
        <img class=""stim"" src=./stimuli//pack_shapes_diff/cat_1/diff_3/ex_1_3_7.png></img>
    ",null,stimulus,,,,,,,,7
,,,,,html-keyboard-response,187,200151,0.0-6.26-2.26,null,"
        <div style=""text-align: center; position: fixed; top: 5vh; left: 40vw;"">
            <div style=""margin:0 auto; width: 20vw; top: 8vh; font-size: 2vw""> 
            <font color=""green""> Bonus : $1 </font>
            </div>
        </div>
    ",null,,,,,,,,,7
,,,,,html-keyboard-response,188,201125,0.0-6.26-3.26,972,./stimuli//pack_shapes_diff/cat_1/diff_3/ex_1_3_7.png,arrowleft,response,ArrowLeft,7,1,3,test,TRUE,,7
,,,,,html-keyboard-response,189,202631,0.0-6.26-4.26,null,"<p> <font color=""green"" size=""5vw""> Correct category! </font> <br> <br> <font color=""green"" size=""8vw""> + $0.05 </font> </p>",null,feedback,,,,,,,1.05,7
,,,,,html-keyboard-response,190,203290,0.0-6.27-0.27,657,"
            
        <div style=""text-align: center; position: fixed; top: 5vh; left: 40vw;"">
            <div style=""margin:0 auto; width: 20vw; top: 8vh; font-size: 2vw""> 
            <font color=""green""> Bonus : $1.05 </font>
            </div>
        </div>
    
            <div> Please press any button to continue to the next trial.</div>
        ", ,ITI,,,,,,,,7
,,,,,html-keyboard-response,191,203895,0.0-6.27-1.27,null,"
        
        <div style=""text-align: center; position: fixed; top: 5vh; left: 40vw;"">
            <div style=""margin:0 auto; width: 20vw; top: 8vh; font-size: 2vw""> 
            <font color=""green""> Bonus : $1.05 </font>
            </div>
        </div>
    
        <img class=""stim"" src=./stimuli//pack_shapes_diff/cat_1/diff_4/ex_1_4_16.png></img>
    ",null,stimulus,,,,,,,,7
,,,,,html-keyboard-response,192,204903,0.0-6.27-2.27,null,"
        <div style=""text-align: center; position: fixed; top: 5vh; left: 40vw;"">
            <div style=""margin:0 auto; width: 20vw; top: 8vh; font-size: 2vw""> 
            <font color=""green""> Bonus : $1.05 </font>
            </div>
        </div>
    ",null,,,,,,,,,7
,,,,,html-keyboard-response,193,205687,0.0-6.27-3.27,782,./stimuli//pack_shapes_diff/cat_1/diff_4/ex_1_4_16.png,arrowleft,response,ArrowLeft,16,1,4,test,TRUE,,7
,,,,,html-keyboard-response,194,207191,0.0-6.27-4.27,null,"<p> <font color=""green"" size=""5vw""> Correct category! </font> <br> <br> <font color=""green"" size=""8vw""> + $0.05 </font> </p>",null,feedback,,,,,,,1.1,7
,,,,,html-keyboard-response,195,207904,0.0-6.28-0.28,711,"
            
        <div style=""text-align: center; position: fixed; top: 5vh; left: 40vw;"">
            <div style=""margin:0 auto; width: 20vw; top: 8vh; font-size: 2vw""> 
            <font color=""green""> Bonus : $1.1 </font>
            </div>
        </div>
    
            <div> Please press any button to continue to the next trial.</div>
        ", ,ITI,,,,,,,,7
,,,,,html-keyboard-response,196,208511,0.0-6.28-1.28,null,"
        
        <div style=""text-align: center; position: fixed; top: 5vh; left: 40vw;"">
            <div style=""margin:0 auto; width: 20vw; top: 8vh; font-size: 2vw""> 
            <font color=""green""> Bonus : $1.1 </font>
            </div>
        </div>
    
        <img class=""stim"" src=./stimuli//pack_shapes_diff/cat_2/diff_4/ex_2_4_2.png></img>
    ",null,stimulus,,,,,,,,7
,,,,,html-keyboard-response,197,209518,0.0-6.28-2.28,null,"
        <div style=""text-align: center; position: fixed; top: 5vh; left: 40vw;"">
            <div style=""margin:0 auto; width: 20vw; top: 8vh; font-size: 2vw""> 
            <font color=""green""> Bonus : $1.1 </font>
            </div>
        </div>
    ",null,,,,,,,,,7
,,,,,html-keyboard-response,198,209970,0.0-6.28-3.28,450,./stimuli//pack_shapes_diff/cat_2/diff_4/ex_2_4_2.png,arrowright,response,ArrowRight,2,2,4,test,TRUE,,7
,,,,,html-keyboard-response,199,211478,0.0-6.28-4.28,null,"<p> <font color=""green"" size=""5vw""> Correct category! </font> <br> <br> <font color=""green"" size=""8vw""> + $0.05 </font> </p>",null,feedback,,,,,,,1.15,7
,,,,,html-keyboard-response,200,212257,0.0-6.29-0.29,777,"
            
        <div style=""text-align: center; position: fixed; top: 5vh; left: 40vw;"">
            <div style=""margin:0 auto; width: 20vw; top: 8vh; font-size: 2vw""> 
            <font color=""green""> Bonus : $1.15 </font>
            </div>
        </div>
    
            <div> Please press any button to continue to the next trial.</div>
        ", ,ITI,,,,,,,,7
,,,,,html-keyboard-response,201,212862,0.0-6.29-1.29,null,"
        
        <div style=""text-align: center; position: fixed; top: 5vh; left: 40vw;"">
            <div style=""margin:0 auto; width: 20vw; top: 8vh; font-size: 2vw""> 
            <font color=""green""> Bonus : $1.15 </font>
            </div>
        </div>
    
        <img class=""stim"" src=./stimuli//pack_shapes_diff/cat_1/diff_4/ex_1_4_9.png></img>
    ",null,stimulus,,,,,,,,7
,,,,,html-keyboard-response,202,213871,0.0-6.29-2.29,null,"
        <div style=""text-align: center; position: fixed; top: 5vh; left: 40vw;"">
            <div style=""margin:0 auto; width: 20vw; top: 8vh; font-size: 2vw""> 
            <font color=""green""> Bonus : $1.15 </font>
            </div>
        </div>
    ",null,,,,,,,,,7
,,,,,html-keyboard-response,203,214441,0.0-6.29-3.29,569,./stimuli//pack_shapes_diff/cat_1/diff_4/ex_1_4_9.png,arrowright,response,ArrowLeft,9,1,4,test,FALSE,,7
,,,,,html-keyboard-response,204,215950,0.0-6.29-4.29,null,"<p> <font color=""red"" size=""5vw""> Wrong category! </font> </p>",null,feedback,,,,,,,1.15,7
,,,,,html-keyboard-response,205,216050,0.0-6.30-0.30,98,"
            
        <div style=""text-align: center; position: fixed; top: 5vh; left: 40vw;"">
            <div style=""margin:0 auto; width: 20vw; top: 8vh; font-size: 2vw""> 
            <font color=""green""> Bonus : $1.15 </font>
            </div>
        </div>
    
            <div> Please press any button to continue to the next trial.</div>
        ", ,ITI,,,,,,,,7
,,,,,html-keyboard-response,206,216655,0.0-6.30-1.30,null,"
        
        <div style=""text-align: center; position: fixed; top: 5vh; left: 40vw;"">
            <div style=""margin:0 auto; width: 20vw; top: 8vh; font-size: 2vw""> 
            <font color=""green""> Bonus : $1.15 </font>
            </div>
        </div>
    
        <img class=""stim"" src=./stimuli//pack_shapes_diff/cat_1/diff_4/ex_1_4_11.png></img>
    ",null,stimulus,,,,,,,,7
,,,,,html-keyboard-response,207,217663,0.0-6.30-2.30,null,"
        <div style=""text-align: center; position: fixed; top: 5vh; left: 40vw;"">
            <div style=""margin:0 auto; width: 20vw; top: 8vh; font-size: 2vw""> 
            <font color=""green""> Bonus : $1.15 </font>
            </div>
        </div>
    ",null,,,,,,,,,7
,,,,,html-keyboard-response,208,218853,0.0-6.30-3.30,1189,./stimuli//pack_shapes_diff/cat_1/diff_4/ex_1_4_11.png,arrowleft,response,ArrowLeft,11,1,4,test,TRUE,,7
,,,,,html-keyboard-response,209,220358,0.0-6.30-4.30,null,"<p> <font color=""green"" size=""5vw""> Correct category! </font> <br> <br> <font color=""green"" size=""8vw""> + $0.05 </font> </p>",null,feedback,,,,,,,1.2,7
,,,,,html-keyboard-response,210,221010,0.0-6.31-0.31,650,"
            
        <div style=""text-align: center; position: fixed; top: 5vh; left: 40vw;"">
            <div style=""margin:0 auto; width: 20vw; top: 8vh; font-size: 2vw""> 
            <font color=""green""> Bonus : $1.2 </font>
            </div>
        </div>
    
            <div> Please press any button to continue to the next trial.</div>
        ", ,ITI,,,,,,,,7
,,,,,html-keyboard-response,211,221615,0.0-6.31-1.31,null,"
        
        <div style=""text-align: center; position: fixed; top: 5vh; left: 40vw;"">
            <div style=""margin:0 auto; width: 20vw; top: 8vh; font-size: 2vw""> 
            <font color=""green""> Bonus : $1.2 </font>
            </div>
        </div>
    
        <img class=""stim"" src=./stimuli//pack_shapes_diff/cat_2/diff_4/ex_2_4_16.png></img>
    ",null,stimulus,,,,,,,,7
,,,,,html-keyboard-response,212,222623,0.0-6.31-2.31,null,"
        <div style=""text-align: center; position: fixed; top: 5vh; left: 40vw;"">
            <div style=""margin:0 auto; width: 20vw; top: 8vh; font-size: 2vw""> 
            <font color=""green""> Bonus : $1.2 </font>
            </div>
        </div>
    ",null,,,,,,,,,7
,,,,,html-keyboard-response,213,223165,0.0-6.31-3.31,540,./stimuli//pack_shapes_diff/cat_2/diff_4/ex_2_4_16.png,arrowright,response,ArrowRight,16,2,4,test,TRUE,,7
,,,,,html-keyboard-response,214,224671,0.0-6.31-4.31,null,"<p> <font color=""green"" size=""5vw""> Correct category! </font> <br> <br> <font color=""green"" size=""8vw""> + $0.05 </font> </p>",null,feedback,,,,,,,1.25,7
,,,,,html-keyboard-response,215,225212,0.0-6.32-0.32,540,"
            
        <div style=""text-align: center; position: fixed; top: 5vh; left: 40vw;"">
            <div style=""margin:0 auto; width: 20vw; top: 8vh; font-size: 2vw""> 
            <font color=""green""> Bonus : $1.25 </font>
            </div>
        </div>
    
            <div> Please press any button to continue to the next trial.</div>
        ", ,ITI,,,,,,,,7
,,,,,html-keyboard-response,216,225814,0.0-6.32-1.32,null,"
        
        <div style=""text-align: center; position: fixed; top: 5vh; left: 40vw;"">
            <div style=""margin:0 auto; width: 20vw; top: 8vh; font-size: 2vw""> 
            <font color=""green""> Bonus : $1.25 </font>
            </div>
        </div>
    
        <img class=""stim"" src=./stimuli//pack_shapes_diff/cat_1/diff_5/ex_1_5_5.png></img>
    ",null,stimulus,,,,,,,,7
,,,,,html-keyboard-response,217,226823,0.0-6.32-2.32,null,"
        <div style=""text-align: center; position: fixed; top: 5vh; left: 40vw;"">
            <div style=""margin:0 auto; width: 20vw; top: 8vh; font-size: 2vw""> 
            <font color=""green""> Bonus : $1.25 </font>
            </div>
        </div>
    ",null,,,,,,,,,7
,,,,,html-keyboard-response,218,227357,0.0-6.32-3.32,533,./stimuli//pack_shapes_diff/cat_1/diff_5/ex_1_5_5.png,arrowright,response,ArrowLeft,5,1,5,test,FALSE,,7
,,,,,html-keyboard-response,219,228863,0.0-6.32-4.32,null,"<p> <font color=""red"" size=""5vw""> Wrong category! </font> </p>",null,feedback,,,,,,,1.25,7
,,,,,html-keyboard-response,220,229454,0.0-6.33-0.33,589,"
            
        <div style=""text-align: center; position: fixed; top: 5vh; left: 40vw;"">
            <div style=""margin:0 auto; width: 20vw; top: 8vh; font-size: 2vw""> 
            <font color=""green""> Bonus : $1.25 </font>
            </div>
        </div>
    
            <div> Please press any button to continue to the next trial.</div>
        ", ,ITI,,,,,,,,7
,,,,,html-keyboard-response,221,230063,0.0-6.33-1.33,null,"
        
        <div style=""text-align: center; position: fixed; top: 5vh; left: 40vw;"">
            <div style=""margin:0 auto; width: 20vw; top: 8vh; font-size: 2vw""> 
            <font color=""green""> Bonus : $1.25 </font>
            </div>
        </div>
    
        <img class=""stim"" src=./stimuli//pack_shapes_diff/cat_1/diff_5/ex_1_5_6.png></img>
    ",null,stimulus,,,,,,,,7
,,,,,html-keyboard-response,222,231071,0.0-6.33-2.33,null,"
        <div style=""text-align: center; position: fixed; top: 5vh; left: 40vw;"">
            <div style=""margin:0 auto; width: 20vw; top: 8vh; font-size: 2vw""> 
            <font color=""green""> Bonus : $1.25 </font>
            </div>
        </div>
    ",null,,,,,,,,,7
,,,,,html-keyboard-response,223,231350,0.0-6.33-3.33,277,./stimuli//pack_shapes_diff/cat_1/diff_5/ex_1_5_6.png,arrowleft,response,ArrowLeft,6,1,5,test,TRUE,,7
,,,,,html-keyboard-response,224,232858,0.0-6.33-4.33,null,"<p> <font color=""green"" size=""5vw""> Correct category! </font> <br> <br> <font color=""green"" size=""8vw""> + $0.05 </font> </p>",null,feedback,,,,,,,1.3,7
,,,,,html-keyboard-response,225,233990,0.0-6.34-0.34,1130,"
            
        <div style=""text-align: center; position: fixed; top: 5vh; left: 40vw;"">
            <div style=""margin:0 auto; width: 20vw; top: 8vh; font-size: 2vw""> 
            <font color=""green""> Bonus : $1.3 </font>
            </div>
        </div>
    
            <div> Please press any button to continue to the next trial.</div>
        ", ,ITI,,,,,,,,7
,,,,,html-keyboard-response,226,234593,0.0-6.34-1.34,null,"
        
        <div style=""text-align: center; position: fixed; top: 5vh; left: 40vw;"">
            <div style=""margin:0 auto; width: 20vw; top: 8vh; font-size: 2vw""> 
            <font color=""green""> Bonus : $1.3 </font>
            </div>
        </div>
    
        <img class=""stim"" src=./stimuli//pack_shapes_diff/cat_2/diff_5/ex_2_5_12.png></img>
    ",null,stimulus,,,,,,,,7
,,,,,html-keyboard-response,227,235601,0.0-6.34-2.34,null,"
        <div style=""text-align: center; position: fixed; top: 5vh; left: 40vw;"">
            <div style=""margin:0 auto; width: 20vw; top: 8vh; font-size: 2vw""> 
            <font color=""green""> Bonus : $1.3 </font>
            </div>
        </div>
    ",null,,,,,,,,,7
,,,,,html-keyboard-response,228,236045,0.0-6.34-3.34,443,./stimuli//pack_shapes_diff/cat_2/diff_5/ex_2_5_12.png,arrowleft,response,ArrowRight,12,2,5,test,FALSE,,7
,,,,,html-keyboard-response,229,237553,0.0-6.34-4.34,null,"<p> <font color=""red"" size=""5vw""> Wrong category! </font> </p>",null,feedback,,,,,,,1.3,7
,,,,,html-keyboard-response,230,238051,0.0-6.35-0.35,496,"
            
        <div style=""text-align: center; position: fixed; top: 5vh; left: 40vw;"">
            <div style=""margin:0 auto; width: 20vw; top: 8vh; font-size: 2vw""> 
            <font color=""green""> Bonus : $1.3 </font>
            </div>
        </div>
    
            <div> Please press any button to continue to the next trial.</div>
        ", ,ITI,,,,,,,,7
,,,,,html-keyboard-response,231,238658,0.0-6.35-1.35,null,"
        
        <div style=""text-align: center; position: fixed; top: 5vh; left: 40vw;"">
            <div style=""margin:0 auto; width: 20vw; top: 8vh; font-size: 2vw""> 
            <font color=""green""> Bonus : $1.3 </font>
            </div>
        </div>
    
        <img class=""stim"" src=./stimuli//pack_shapes_diff/cat_2/diff_5/ex_2_5_11.png></img>
    ",null,stimulus,,,,,,,,7
,,,,,html-keyboard-response,232,239665,0.0-6.35-2.35,null,"
        <div style=""text-align: center; position: fixed; top: 5vh; left: 40vw;"">
            <div style=""margin:0 auto; width: 20vw; top: 8vh; font-size: 2vw""> 
            <font color=""green""> Bonus : $1.3 </font>
            </div>
        </div>
    ",null,,,,,,,,,7
,,,,,html-keyboard-response,233,240086,0.0-6.35-3.35,420,./stimuli//pack_shapes_diff/cat_2/diff_5/ex_2_5_11.png,arrowright,response,ArrowRight,11,2,5,test,TRUE,,7
,,,,,html-keyboard-response,234,241593,0.0-6.35-4.35,null,"<p> <font color=""green"" size=""5vw""> Correct category! </font> <br> <br> <font color=""green"" size=""8vw""> + $0.05 </font> </p>",null,feedback,,,,,,,1.35,7
,,,,,html-keyboard-response,235,242653,0.0-6.36-0.36,1058,"
            
        <div style=""text-align: center; position: fixed; top: 5vh; left: 40vw;"">
            <div style=""margin:0 auto; width: 20vw; top: 8vh; font-size: 2vw""> 
            <font color=""green""> Bonus : $1.35 </font>
            </div>
        </div>
    
            <div> Please press any button to continue to the next trial.</div>
        ", ,ITI,,,,,,,,7
,,,,,html-keyboard-response,236,243258,0.0-6.36-1.36,null,"
        
        <div style=""text-align: center; position: fixed; top: 5vh; left: 40vw;"">
            <div style=""margin:0 auto; width: 20vw; top: 8vh; font-size: 2vw""> 
            <font color=""green""> Bonus : $1.35 </font>
            </div>
        </div>
    
        <img class=""stim"" src=./stimuli//pack_shapes_diff/cat_2/diff_5/ex_2_5_17.png></img>
    ",null,stimulus,,,,,,,,7
,,,,,html-keyboard-response,237,244266,0.0-6.36-2.36,null,"
        <div style=""text-align: center; position: fixed; top: 5vh; left: 40vw;"">
            <div style=""margin:0 auto; width: 20vw; top: 8vh; font-size: 2vw""> 
            <font color=""green""> Bonus : $1.35 </font>
            </div>
        </div>
    ",null,,,,,,,,,7
,,,,,html-keyboard-response,238,244839,0.0-6.36-3.36,571,./stimuli//pack_shapes_diff/cat_2/diff_5/ex_2_5_17.png,arrowright,response,ArrowRight,17,2,5,test,TRUE,,7
,,,,,html-keyboard-response,239,246345,0.0-6.36-4.36,null,"<p> <font color=""green"" size=""5vw""> Correct category! </font> <br> <br> <font color=""green"" size=""8vw""> + $0.05 </font> </p>",null,feedback,,,,,,,1.4,7
,,,,,html-keyboard-response,240,247206,0.0-6.37-0.37,860,"
            
        <div style=""text-align: center; position: fixed; top: 5vh; left: 40vw;"">
            <div style=""margin:0 auto; width: 20vw; top: 8vh; font-size: 2vw""> 
            <font color=""green""> Bonus : $1.4 </font>
            </div>
        </div>
    
            <div> Please press any button to continue to the next trial.</div>
        ", ,ITI,,,,,,,,7
,,,,,html-keyboard-response,241,247818,0.0-6.37-1.37,null,"
        
        <div style=""text-align: center; position: fixed; top: 5vh; left: 40vw;"">
            <div style=""margin:0 auto; width: 20vw; top: 8vh; font-size: 2vw""> 
            <font color=""green""> Bonus : $1.4 </font>
            </div>
        </div>
    
        <img class=""stim"" src=./stimuli//pack_shapes_diff/cat_2/diff_4/ex_2_4_7.png></img>
    ",null,stimulus,,,,,,,,7
,,,,,html-keyboard-response,242,248825,0.0-6.37-2.37,null,"
        <div style=""text-align: center; position: fixed; top: 5vh; left: 40vw;"">
            <div style=""margin:0 auto; width: 20vw; top: 8vh; font-size: 2vw""> 
            <font color=""green""> Bonus : $1.4 </font>
            </div>
        </div>
    ",null,,,,,,,,,7
,,,,,html-keyboard-response,243,249222,0.0-6.37-3.37,396,./stimuli//pack_shapes_diff/cat_2/diff_4/ex_2_4_7.png,arrowleft,response,ArrowRight,7,2,4,test,FALSE,,7
,,,,,html-keyboard-response,244,250729,0.0-6.37-4.37,null,"<p> <font color=""red"" size=""5vw""> Wrong category! </font> </p>",null,feedback,,,,,,,1.4,7
,,,,,html-keyboard-response,245,250999,0.0-6.38-0.38,269,"
            
        <div style=""text-align: center; position: fixed; top: 5vh; left: 40vw;"">
            <div style=""margin:0 auto; width: 20vw; top: 8vh; font-size: 2vw""> 
            <font color=""green""> Bonus : $1.4 </font>
            </div>
        </div>
    
            <div> Please press any button to continue to the next trial.</div>
        ", ,ITI,,,,,,,,7
,,,,,html-keyboard-response,246,251609,0.0-6.38-1.38,null,"
        
        <div style=""text-align: center; position: fixed; top: 5vh; left: 40vw;"">
            <div style=""margin:0 auto; width: 20vw; top: 8vh; font-size: 2vw""> 
            <font color=""green""> Bonus : $1.4 </font>
            </div>
        </div>
    
        <img class=""stim"" src=./stimuli//pack_shapes_diff/cat_1/diff_4/ex_1_4_2.png></img>
    ",null,stimulus,,,,,,,,7
,,,,,html-keyboard-response,247,252618,0.0-6.38-2.38,null,"
        <div style=""text-align: center; position: fixed; top: 5vh; left: 40vw;"">
            <div style=""margin:0 auto; width: 20vw; top: 8vh; font-size: 2vw""> 
            <font color=""green""> Bonus : $1.4 </font>
            </div>
        </div>
    ",null,,,,,,,,,7
,,,,,html-keyboard-response,248,252946,0.0-6.38-3.38,326,./stimuli//pack_shapes_diff/cat_1/diff_4/ex_1_4_2.png,arrowright,response,ArrowLeft,2,1,4,test,FALSE,,7
,,,,,html-keyboard-response,249,254449,0.0-6.38-4.38,null,"<p> <font color=""red"" size=""5vw""> Wrong category! </font> </p>",null,feedback,,,,,,,1.4,7
,,,,,html-keyboard-response,250,255743,0.0-6.39-0.39,1293,"
            
        <div style=""text-align: center; position: fixed; top: 5vh; left: 40vw;"">
            <div style=""margin:0 auto; width: 20vw; top: 8vh; font-size: 2vw""> 
            <font color=""green""> Bonus : $1.4 </font>
            </div>
        </div>
    
            <div> Please press any button to continue to the next trial.</div>
        ", ,ITI,,,,,,,,7
,,,,,html-keyboard-response,251,256353,0.0-6.39-1.39,null,"
        
        <div style=""text-align: center; position: fixed; top: 5vh; left: 40vw;"">
            <div style=""margin:0 auto; width: 20vw; top: 8vh; font-size: 2vw""> 
            <font color=""green""> Bonus : $1.4 </font>
            </div>
        </div>
    
        <img class=""stim"" src=./stimuli//pack_shapes_diff/cat_2/diff_4/ex_2_4_1.png></img>
    ",null,stimulus,,,,,,,,7
,,,,,html-keyboard-response,252,257361,0.0-6.39-2.39,null,"
        <div style=""text-align: center; position: fixed; top: 5vh; left: 40vw;"">
            <div style=""margin:0 auto; width: 20vw; top: 8vh; font-size: 2vw""> 
            <font color=""green""> Bonus : $1.4 </font>
            </div>
        </div>
    ",null,,,,,,,,,7
,,,,,html-keyboard-response,253,257837,0.0-6.39-3.39,474,./stimuli//pack_shapes_diff/cat_2/diff_4/ex_2_4_1.png,arrowleft,response,ArrowRight,1,2,4,test,FALSE,,7
,,,,,html-keyboard-response,254,259345,0.0-6.39-4.39,null,"<p> <font color=""red"" size=""5vw""> Wrong category! </font> </p>",null,feedback,,,,,,,1.4,7
,,,,,html-keyboard-response,255,259944,0.0-6.40-0.40,598,"
            
        <div style=""text-align: center; position: fixed; top: 5vh; left: 40vw;"">
            <div style=""margin:0 auto; width: 20vw; top: 8vh; font-size: 2vw""> 
            <font color=""green""> Bonus : $1.4 </font>
            </div>
        </div>
    
            <div> Please press any button to continue to the next trial.</div>
        ", ,ITI,,,,,,,,7
,,,,,html-keyboard-response,256,260553,0.0-6.40-1.40,null,"
        
        <div style=""text-align: center; position: fixed; top: 5vh; left: 40vw;"">
            <div style=""margin:0 auto; width: 20vw; top: 8vh; font-size: 2vw""> 
            <font color=""green""> Bonus : $1.4 </font>
            </div>
        </div>
    
        <img class=""stim"" src=./stimuli//pack_shapes_diff/cat_1/diff_4/ex_1_4_14.png></img>
    ",null,stimulus,,,,,,,,7
,,,,,html-keyboard-response,257,261562,0.0-6.40-2.40,null,"
        <div style=""text-align: center; position: fixed; top: 5vh; left: 40vw;"">
            <div style=""margin:0 auto; width: 20vw; top: 8vh; font-size: 2vw""> 
            <font color=""green""> Bonus : $1.4 </font>
            </div>
        </div>
    ",null,,,,,,,,,7
,,,,,html-keyboard-response,258,262059,0.0-6.40-3.40,496,./stimuli//pack_shapes_diff/cat_1/diff_4/ex_1_4_14.png,arrowright,response,ArrowLeft,14,1,4,test,FALSE,,7
,,,,,html-keyboard-response,259,263569,0.0-6.40-4.40,null,"<p> <font color=""red"" size=""5vw""> Wrong category! </font> </p>",null,feedback,,,,,,,1.4,7
,,,,,html-keyboard-response,260,264525,0.0-6.41-0.41,954,"
            
        <div style=""text-align: center; position: fixed; top: 5vh; left: 40vw;"">
            <div style=""margin:0 auto; width: 20vw; top: 8vh; font-size: 2vw""> 
            <font color=""green""> Bonus : $1.4 </font>
            </div>
        </div>
    
            <div> Please press any button to continue to the next trial.</div>
        ", ,ITI,,,,,,,,7
,,,,,html-keyboard-response,261,265129,0.0-6.41-1.41,null,"
        
        <div style=""text-align: center; position: fixed; top: 5vh; left: 40vw;"">
            <div style=""margin:0 auto; width: 20vw; top: 8vh; font-size: 2vw""> 
            <font color=""green""> Bonus : $1.4 </font>
            </div>
        </div>
    
        <img class=""stim"" src=./stimuli//pack_shapes_diff/cat_1/diff_4/ex_1_4_13.png></img>
    ",null,stimulus,,,,,,,,7
,,,,,html-keyboard-response,262,266137,0.0-6.41-2.41,null,"
        <div style=""text-align: center; position: fixed; top: 5vh; left: 40vw;"">
            <div style=""margin:0 auto; width: 20vw; top: 8vh; font-size: 2vw""> 
            <font color=""green""> Bonus : $1.4 </font>
            </div>
        </div>
    ",null,,,,,,,,,7
,,,,,html-keyboard-response,263,266551,0.0-6.41-3.41,412,./stimuli//pack_shapes_diff/cat_1/diff_4/ex_1_4_13.png,arrowleft,response,ArrowLeft,13,1,4,test,TRUE,,7
,,,,,html-keyboard-response,264,268057,0.0-6.41-4.41,null,"<p> <font color=""green"" size=""5vw""> Correct category! </font> <br> <br> <font color=""green"" size=""8vw""> + $0.05 </font> </p>",null,feedback,,,,,,,1.45,7
,,,,,html-keyboard-response,265,268968,0.0-6.42-0.42,909,"
            
        <div style=""text-align: center; position: fixed; top: 5vh; left: 40vw;"">
            <div style=""margin:0 auto; width: 20vw; top: 8vh; font-size: 2vw""> 
            <font color=""green""> Bonus : $1.45 </font>
            </div>
        </div>
    
            <div> Please press any button to continue to the next trial.</div>
        ", ,ITI,,,,,,,,7
,,,,,html-keyboard-response,266,269577,0.0-6.42-1.42,null,"
        
        <div style=""text-align: center; position: fixed; top: 5vh; left: 40vw;"">
            <div style=""margin:0 auto; width: 20vw; top: 8vh; font-size: 2vw""> 
            <font color=""green""> Bonus : $1.45 </font>
            </div>
        </div>
    
        <img class=""stim"" src=./stimuli//pack_shapes_diff/cat_1/diff_3/ex_1_3_3.png></img>
    ",null,stimulus,,,,,,,,7
,,,,,html-keyboard-response,267,270587,0.0-6.42-2.42,null,"
        <div style=""text-align: center; position: fixed; top: 5vh; left: 40vw;"">
            <div style=""margin:0 auto; width: 20vw; top: 8vh; font-size: 2vw""> 
            <font color=""green""> Bonus : $1.45 </font>
            </div>
        </div>
    ",null,,,,,,,,,7
,,,,,html-keyboard-response,268,271033,0.0-6.42-3.42,444,./stimuli//pack_shapes_diff/cat_1/diff_3/ex_1_3_3.png,arrowleft,response,ArrowLeft,3,1,3,test,TRUE,,7
,,,,,html-keyboard-response,269,272537,0.0-6.42-4.42,null,"<p> <font color=""green"" size=""5vw""> Correct category! </font> <br> <br> <font color=""green"" size=""8vw""> + $0.05 </font> </p>",null,feedback,,,,,,,1.5,7
,,,,,html-keyboard-response,270,273259,0.0-6.43-0.43,720,"
            
        <div style=""text-align: center; position: fixed; top: 5vh; left: 40vw;"">
            <div style=""margin:0 auto; width: 20vw; top: 8vh; font-size: 2vw""> 
            <font color=""green""> Bonus : $1.5 </font>
            </div>
        </div>
    
            <div> Please press any button to continue to the next trial.</div>
        ", ,ITI,,,,,,,,7
,,,,,html-keyboard-response,271,273866,0.0-6.43-1.43,null,"
        
        <div style=""text-align: center; position: fixed; top: 5vh; left: 40vw;"">
            <div style=""margin:0 auto; width: 20vw; top: 8vh; font-size: 2vw""> 
            <font color=""green""> Bonus : $1.5 </font>
            </div>
        </div>
    
        <img class=""stim"" src=./stimuli//pack_shapes_diff/cat_2/diff_3/ex_2_3_4.png></img>
    ",null,stimulus,,,,,,,,7
,,,,,html-keyboard-response,272,274873,0.0-6.43-2.43,null,"
        <div style=""text-align: center; position: fixed; top: 5vh; left: 40vw;"">
            <div style=""margin:0 auto; width: 20vw; top: 8vh; font-size: 2vw""> 
            <font color=""green""> Bonus : $1.5 </font>
            </div>
        </div>
    ",null,,,,,,,,,7
,,,,,html-keyboard-response,273,275336,0.0-6.43-3.43,461,./stimuli//pack_shapes_diff/cat_2/diff_3/ex_2_3_4.png,arrowright,response,ArrowRight,4,2,3,test,TRUE,,7
,,,,,html-keyboard-response,274,276841,0.0-6.43-4.43,null,"<p> <font color=""green"" size=""5vw""> Correct category! </font> <br> <br> <font color=""green"" size=""8vw""> + $0.05 </font> </p>",null,feedback,,,,,,,1.55,7
,,,,,html-keyboard-response,275,277542,0.0-6.44-0.44,699,"
            
        <div style=""text-align: center; position: fixed; top: 5vh; left: 40vw;"">
            <div style=""margin:0 auto; width: 20vw; top: 8vh; font-size: 2vw""> 
            <font color=""green""> Bonus : $1.55 </font>
            </div>
        </div>
    
            <div> Please press any button to continue to the next trial.</div>
        ", ,ITI,,,,,,,,7
,,,,,html-keyboard-response,276,278146,0.0-6.44-1.44,null,"
        
        <div style=""text-align: center; position: fixed; top: 5vh; left: 40vw;"">
            <div style=""margin:0 auto; width: 20vw; top: 8vh; font-size: 2vw""> 
            <font color=""green""> Bonus : $1.55 </font>
            </div>
        </div>
    
        <img class=""stim"" src=./stimuli//pack_shapes_diff/cat_2/diff_3/ex_2_3_2.png></img>
    ",null,stimulus,,,,,,,,7
,,,,,html-keyboard-response,277,279153,0.0-6.44-2.44,null,"
        <div style=""text-align: center; position: fixed; top: 5vh; left: 40vw;"">
            <div style=""margin:0 auto; width: 20vw; top: 8vh; font-size: 2vw""> 
            <font color=""green""> Bonus : $1.55 </font>
            </div>
        </div>
    ",null,,,,,,,,,7
,,,,,html-keyboard-response,278,279857,0.0-6.44-3.44,703,./stimuli//pack_shapes_diff/cat_2/diff_3/ex_2_3_2.png,arrowleft,response,ArrowRight,2,2,3,test,FALSE,,7
,,,,,html-keyboard-response,279,281145,0.0-6.44-4.44,1286,"<p> <font color=""red"" size=""5vw""> Wrong category! </font> </p>", ,feedback,,,,,,,1.55,7
,,,,,html-keyboard-response,280,282553,0.0-6.45-0.45,1407,"
            
        <div style=""text-align: center; position: fixed; top: 5vh; left: 40vw;"">
            <div style=""margin:0 auto; width: 20vw; top: 8vh; font-size: 2vw""> 
            <font color=""green""> Bonus : $1.55 </font>
            </div>
        </div>
    
            <div> Please press any button to continue to the next trial.</div>
        ", ,ITI,,,,,,,,7
,,,,,html-keyboard-response,281,283161,0.0-6.45-1.45,null,"
        
        <div style=""text-align: center; position: fixed; top: 5vh; left: 40vw;"">
            <div style=""margin:0 auto; width: 20vw; top: 8vh; font-size: 2vw""> 
            <font color=""green""> Bonus : $1.55 </font>
            </div>
        </div>
    
        <img class=""stim"" src=./stimuli//pack_shapes_diff/cat_1/diff_3/ex_1_3_6.png></img>
    ",null,stimulus,,,,,,,,7
,,,,,html-keyboard-response,282,284169,0.0-6.45-2.45,null,"
        <div style=""text-align: center; position: fixed; top: 5vh; left: 40vw;"">
            <div style=""margin:0 auto; width: 20vw; top: 8vh; font-size: 2vw""> 
            <font color=""green""> Bonus : $1.55 </font>
            </div>
        </div>
    ",null,,,,,,,,,7
,,,,,html-keyboard-response,283,284728,0.0-6.45-3.45,557,./stimuli//pack_shapes_diff/cat_1/diff_3/ex_1_3_6.png,arrowleft,response,ArrowLeft,6,1,3,test,TRUE,,7
,,,,,html-keyboard-response,284,285977,0.0-6.45-4.45,1247,"<p> <font color=""green"" size=""5vw""> Correct category! </font> <br> <br> <font color=""green"" size=""8vw""> + $0.05 </font> </p>", ,feedback,,,,,,,1.6,7
,,,,,html-keyboard-response,285,286605,0.0-6.46-0.46,626,"
            
        <div style=""text-align: center; position: fixed; top: 5vh; left: 40vw;"">
            <div style=""margin:0 auto; width: 20vw; top: 8vh; font-size: 2vw""> 
            <font color=""green""> Bonus : $1.6 </font>
            </div>
        </div>
    
            <div> Please press any button to continue to the next trial.</div>
        ", ,ITI,,,,,,,,7
,,,,,html-keyboard-response,286,287209,0.0-6.46-1.46,null,"
        
        <div style=""text-align: center; position: fixed; top: 5vh; left: 40vw;"">
            <div style=""margin:0 auto; width: 20vw; top: 8vh; font-size: 2vw""> 
            <font color=""green""> Bonus : $1.6 </font>
            </div>
        </div>
    
        <img class=""stim"" src=./stimuli//pack_shapes_diff/cat_2/diff_3/ex_2_3_9.png></img>
    ",null,stimulus,,,,,,,,7
,,,,,html-keyboard-response,287,288217,0.0-6.46-2.46,null,"
        <div style=""text-align: center; position: fixed; top: 5vh; left: 40vw;"">
            <div style=""margin:0 auto; width: 20vw; top: 8vh; font-size: 2vw""> 
            <font color=""green""> Bonus : $1.6 </font>
            </div>
        </div>
    ",null,,,,,,,,,7
,,,,,html-keyboard-response,288,288531,0.0-6.46-3.46,312,./stimuli//pack_shapes_diff/cat_2/diff_3/ex_2_3_9.png,arrowright,response,ArrowRight,9,2,3,test,TRUE,,7
,,,,,html-keyboard-response,289,289081,0.0-6.46-4.46,549,"<p> <font color=""green"" size=""5vw""> Correct category! </font> <br> <br> <font color=""green"" size=""8vw""> + $0.05 </font> </p>", ,feedback,,,,,,,1.65,7
,,,,,html-keyboard-response,290,289699,0.0-6.47-0.47,617,"
            
        <div style=""text-align: center; position: fixed; top: 5vh; left: 40vw;"">
            <div style=""margin:0 auto; width: 20vw; top: 8vh; font-size: 2vw""> 
            <font color=""green""> Bonus : $1.65 </font>
            </div>
        </div>
    
            <div> Please press any button to continue to the next trial.</div>
        ", ,ITI,,,,,,,,7
,,,,,html-keyboard-response,291,290306,0.0-6.47-1.47,null,"
        
        <div style=""text-align: center; position: fixed; top: 5vh; left: 40vw;"">
            <div style=""margin:0 auto; width: 20vw; top: 8vh; font-size: 2vw""> 
            <font color=""green""> Bonus : $1.65 </font>
            </div>
        </div>
    
        <img class=""stim"" src=./stimuli//pack_shapes_diff/cat_2/diff_4/ex_2_4_10.png></img>
    ",null,stimulus,,,,,,,,7
,,,,,html-keyboard-response,292,291313,0.0-6.47-2.47,null,"
        <div style=""text-align: center; position: fixed; top: 5vh; left: 40vw;"">
            <div style=""margin:0 auto; width: 20vw; top: 8vh; font-size: 2vw""> 
            <font color=""green""> Bonus : $1.65 </font>
            </div>
        </div>
    ",null,,,,,,,,,7
,,,,,html-keyboard-response,293,291437,0.0-6.47-3.47,122,./stimuli//pack_shapes_diff/cat_2/diff_4/ex_2_4_10.png,arrowright,response,ArrowRight,10,2,4,test,TRUE,,7
,,,,,html-keyboard-response,294,292087,0.0-6.47-4.47,649,"<p> <font color=""green"" size=""5vw""> Correct category! </font> <br> <br> <font color=""green"" size=""8vw""> + $0.05 </font> </p>", ,feedback,,,,,,,1.7,7
,,,,,html-keyboard-response,295,292925,0.0-6.48-0.48,835,"
            
        <div style=""text-align: center; position: fixed; top: 5vh; left: 40vw;"">
            <div style=""margin:0 auto; width: 20vw; top: 8vh; font-size: 2vw""> 
            <font color=""green""> Bonus : $1.7 </font>
            </div>
        </div>
    
            <div> Please press any button to continue to the next trial.</div>
        ", ,ITI,,,,,,,,7
,,,,,html-keyboard-response,296,293531,0.0-6.48-1.48,null,"
        
        <div style=""text-align: center; position: fixed; top: 5vh; left: 40vw;"">
            <div style=""margin:0 auto; width: 20vw; top: 8vh; font-size: 2vw""> 
            <font color=""green""> Bonus : $1.7 </font>
            </div>
        </div>
    
        <img class=""stim"" src=./stimuli//pack_shapes_diff/cat_1/diff_4/ex_1_4_3.png></img>
    ",null,stimulus,,,,,,,,7
,,,,,html-keyboard-response,297,294539,0.0-6.48-2.48,null,"
        <div style=""text-align: center; position: fixed; top: 5vh; left: 40vw;"">
            <div style=""margin:0 auto; width: 20vw; top: 8vh; font-size: 2vw""> 
            <font color=""green""> Bonus : $1.7 </font>
            </div>
        </div>
    ",null,,,,,,,,,7
,,,,,html-keyboard-response,298,294962,0.0-6.48-3.48,421,./stimuli//pack_shapes_diff/cat_1/diff_4/ex_1_4_3.png,arrowleft,response,ArrowLeft,3,1,4,test,TRUE,,7
,,,,,html-keyboard-response,299,295530,0.0-6.48-4.48,567,"<p> <font color=""green"" size=""5vw""> Correct category! </font> <br> <br> <font color=""green"" size=""8vw""> + $0.05 </font> </p>", ,feedback,,,,,,,1.75,7
,,,,,html-keyboard-response,300,296250,0.0-6.49-0.49,717,"
            
        <div style=""text-align: center; position: fixed; top: 5vh; left: 40vw;"">
            <div style=""margin:0 auto; width: 20vw; top: 8vh; font-size: 2vw""> 
            <font color=""green""> Bonus : $1.75 </font>
            </div>
        </div>
    
            <div> Please press any button to continue to the next trial.</div>
        ", ,ITI,,,,,,,,7
,,,,,html-keyboard-response,301,296859,0.0-6.49-1.49,null,"
        
        <div style=""text-align: center; position: fixed; top: 5vh; left: 40vw;"">
            <div style=""margin:0 auto; width: 20vw; top: 8vh; font-size: 2vw""> 
            <font color=""green""> Bonus : $1.75 </font>
            </div>
        </div>
    
        <img class=""stim"" src=./stimuli//pack_shapes_diff/cat_2/diff_4/ex_2_4_11.png></img>
    ",null,stimulus,,,,,,,,7
,,,,,html-keyboard-response,302,297868,0.0-6.49-2.49,null,"
        <div style=""text-align: center; position: fixed; top: 5vh; left: 40vw;"">
            <div style=""margin:0 auto; width: 20vw; top: 8vh; font-size: 2vw""> 
            <font color=""green""> Bonus : $1.75 </font>
            </div>
        </div>
    ",null,,,,,,,,,7
,,,,,html-keyboard-response,303,297897,0.0-6.49-3.49,27,./stimuli//pack_shapes_diff/cat_2/diff_4/ex_2_4_11.png,arrowleft,response,ArrowRight,11,2,4,test,FALSE,,7
,,,,,html-keyboard-response,304,298654,0.0-6.49-4.49,755,"<p> <font color=""red"" size=""5vw""> Wrong category! </font> </p>", ,feedback,,,,,,,1.75,7
,,,,,html-keyboard-response,305,299303,0.0-6.50-0.50,647,"
            
        <div style=""text-align: center; position: fixed; top: 5vh; left: 40vw;"">
            <div style=""margin:0 auto; width: 20vw; top: 8vh; font-size: 2vw""> 
            <font color=""green""> Bonus : $1.75 </font>
            </div>
        </div>
    
            <div> Please press any button to continue to the next trial.</div>
        ", ,ITI,,,,,,,,7
,,,,,html-keyboard-response,306,299908,0.0-6.50-1.50,null,"
        
        <div style=""text-align: center; position: fixed; top: 5vh; left: 40vw;"">
            <div style=""margin:0 auto; width: 20vw; top: 8vh; font-size: 2vw""> 
            <font color=""green""> Bonus : $1.75 </font>
            </div>
        </div>
    
        <img class=""stim"" src=./stimuli//pack_shapes_diff/cat_2/diff_4/ex_2_4_15.png></img>
    ",null,stimulus,,,,,,,,7
,,,,,html-keyboard-response,307,300915,0.0-6.50-2.50,null,"
        <div style=""text-align: center; position: fixed; top: 5vh; left: 40vw;"">
            <div style=""margin:0 auto; width: 20vw; top: 8vh; font-size: 2vw""> 
            <font color=""green""> Bonus : $1.75 </font>
            </div>
        </div>
    ",null,,,,,,,,,7
,,,,,html-keyboard-response,308,301341,0.0-6.50-3.50,424,./stimuli//pack_shapes_diff/cat_2/diff_4/ex_2_4_15.png,arrowright,response,ArrowRight,15,2,4,test,TRUE,,7
,,,,,html-keyboard-response,309,301809,0.0-6.50-4.50,467,"<p> <font color=""green"" size=""5vw""> Correct category! </font> <br> <br> <font color=""green"" size=""8vw""> + $0.05 </font> </p>", ,feedback,,,,,,,1.8,7
,,,,,html-keyboard-response,310,302428,0.0-6.51-0.51,617,"
            
        <div style=""text-align: center; position: fixed; top: 5vh; left: 40vw;"">
            <div style=""margin:0 auto; width: 20vw; top: 8vh; font-size: 2vw""> 
            <font color=""green""> Bonus : $1.8 </font>
            </div>
        </div>
    
            <div> Please press any button to continue to the next trial.</div>
        ", ,ITI,,,,,,,,7
,,,,,html-keyboard-response,311,303035,0.0-6.51-1.51,null,"
        
        <div style=""text-align: center; position: fixed; top: 5vh; left: 40vw;"">
            <div style=""margin:0 auto; width: 20vw; top: 8vh; font-size: 2vw""> 
            <font color=""green""> Bonus : $1.8 </font>
            </div>
        </div>
    
        <img class=""stim"" src=./stimuli//pack_shapes_diff/cat_2/diff_4/ex_2_4_9.png></img>
    ",null,stimulus,,,,,,,,7
,,,,,html-keyboard-response,312,304043,0.0-6.51-2.51,null,"
        <div style=""text-align: center; position: fixed; top: 5vh; left: 40vw;"">
            <div style=""margin:0 auto; width: 20vw; top: 8vh; font-size: 2vw""> 
            <font color=""green""> Bonus : $1.8 </font>
            </div>
        </div>
    ",null,,,,,,,,,7
,,,,,html-keyboard-response,313,304473,0.0-6.51-3.51,429,./stimuli//pack_shapes_diff/cat_2/diff_4/ex_2_4_9.png,arrowright,response,ArrowRight,9,2,4,test,TRUE,,7
,,,,,html-keyboard-response,314,304994,0.0-6.51-4.51,519,"<p> <font color=""green"" size=""5vw""> Correct category! </font> <br> <br> <font color=""green"" size=""8vw""> + $0.05 </font> </p>", ,feedback,,,,,,,1.85,7
,,,,,html-keyboard-response,315,305593,0.0-6.52-0.52,597,"
            
        <div style=""text-align: center; position: fixed; top: 5vh; left: 40vw;"">
            <div style=""margin:0 auto; width: 20vw; top: 8vh; font-size: 2vw""> 
            <font color=""green""> Bonus : $1.85 </font>
            </div>
        </div>
    
            <div> Please press any button to continue to the next trial.</div>
        ", ,ITI,,,,,,,,7
,,,,,html-keyboard-response,316,306203,0.0-6.52-1.52,null,"
        
        <div style=""text-align: center; position: fixed; top: 5vh; left: 40vw;"">
            <div style=""margin:0 auto; width: 20vw; top: 8vh; font-size: 2vw""> 
