success,timeout,failed_images,failed_audio,failed_video,trial_type,trial_index,time_elapsed,internal_node_id,rt,stimulus,response,task,correct_response,exemplar_ID,category,difficulty,phase,correct,bonus,subject_id
,,,,,,,,,,,,,,,,,,,,4
TRUE,FALSE,[],[],[],preload,0,12,0.0-0.0,,,,,,,,,,,,4
,,,,,,,,,,,,,,,,,,,,4
,,,,,html-keyboard-response,1,4701,0.0-1.0,4687,Welcome to the Category Learning experiment! Press any key to continue., ,welcome,,,,,,,,4
,,,,,,,,,,,,,,,,,,,,4
,,,,,html-keyboard-response,2,63408,0.0-2.0,58702,"
            <p>You will be shown images of black shapes. Some are category A, some are category B.
            <br>You will not know in advance which category a specific shape belongs to.</p>
            <p>After you see an image, you will be asked to guess its category <b>(left arrow for category A, right arrow for category B)</b></p>
            <p>After you choose, the screen will show you whether you were correct or not.</p>
            <p><b>You will receive a bonus payment of $0.05 for each correct answer!</b></p>
            <p> So you can increase your bonus by guessing correctly, and by guessing as quickly as possible so you move on to the next image sooner.</p>
            <p>Press any key to continue.</p>
            ", ,introduction_1,,,,,,,,4
,,,,,,,,,,,,,,,,,,,,4
,,,,,html-keyboard-response,3,69845,0.0-3.0,6436,"
            <p> <b>The first 10 trials are a practice round that will not count towards your bonus payment.</b></p>
            <p> You will be notified when practice finishes and the test begins. </p>
            <p> Press any key to begin the practice round.</p>
            ", ,introduction_2,,,,,,,,4
,,,,,,,,,,,,,,,,,,,,4
,,,,,html-keyboard-response,4,78779,0.0-4.0-0.0,8932,"
            
        <div style=""text-align: center; position: fixed; top: 5vh; left: 40vw;"">
            <div style=""margin:0 auto; width: 20vw; top: 8vh; font-size: 2vw""> 
            <font color=""green""> Bonus : $0 </font>
            </div>
        </div>
    
            <div> Please press any button to continue to the next trial.</div>
        ", ,ITI,,,,,,,,4
,,,,,,,,,,,,,,,,,,,,4
,,,,,html-keyboard-response,5,79391,0.0-4.0-1.0,null,"
        
        <div style=""text-align: center; position: fixed; top: 5vh; left: 40vw;"">
            <div style=""margin:0 auto; width: 20vw; top: 8vh; font-size: 2vw""> 
            <font color=""green""> Bonus : $0 </font>
            </div>
        </div>
    
        <img class=""stim"" src=./stimuli//pack_shapes_diff/cat_2/diff_1/ex_2_1_16.png></img>
    ",null,stimulus,,,,,,,,4
,,,,,,,,,,,,,,,,,,,,4
,,,,,html-keyboard-response,6,80411,0.0-4.0-2.0,null,"
        <div style=""text-align: center; position: fixed; top: 5vh; left: 40vw;"">
            <div style=""margin:0 auto; width: 20vw; top: 8vh; font-size: 2vw""> 
            <font color=""green""> Bonus : $0 </font>
            </div>
        </div>
    ",null,,,,,,,,,4
,,,,,,,,,,,,,,,,,,,,4
,,,,,html-keyboard-response,7,84420,0.0-4.0-3.0,null,./stimuli//pack_shapes_diff/cat_2/diff_1/ex_2_1_16.png,null,response,ArrowRight,16,2,1,train,FALSE,,4
,,,,,,,,,,,,,,,,,,,,4
,,,,,html-keyboard-response,8,85927,0.0-4.0-4.0,null,"<p> <font color=""red"" size=""5vw""> Time out! </font> <br> Please try to respond as quickly as possible. </p>",null,feedback,,,,,,,0,4
,,,,,,,,,,,,,,,,,,,,4
,,,,,html-keyboard-response,9,95669,0.0-4.0-0.1,9740,"
            
        <div style=""text-align: center; position: fixed; top: 5vh; left: 40vw;"">
            <div style=""margin:0 auto; width: 20vw; top: 8vh; font-size: 2vw""> 
            <font color=""green""> Bonus : $0 </font>
            </div>
        </div>
    
            <div> Please press any button to continue to the next trial.</div>
        ", ,ITI,,,,,,,,4
,,,,,,,,,,,,,,,,,,,,4
,,,,,html-keyboard-response,10,96281,0.0-4.0-1.1,null,"
        
        <div style=""text-align: center; position: fixed; top: 5vh; left: 40vw;"">
            <div style=""margin:0 auto; width: 20vw; top: 8vh; font-size: 2vw""> 
            <font color=""green""> Bonus : $0 </font>
            </div>
        </div>
    
        <img class=""stim"" src=./stimuli//pack_shapes_diff/cat_2/diff_2/ex_2_2_16.png></img>
    ",null,stimulus,,,,,,,,4
,,,,,,,,,,,,,,,,,,,,4
,,,,,html-keyboard-response,11,97288,0.0-4.0-2.1,null,"
        <div style=""text-align: center; position: fixed; top: 5vh; left: 40vw;"">
            <div style=""margin:0 auto; width: 20vw; top: 8vh; font-size: 2vw""> 
            <font color=""green""> Bonus : $0 </font>
            </div>
        </div>
    ",null,,,,,,,,,4
,,,,,,,,,,,,,,,,,,,,4
,,,,,html-keyboard-response,12,97581,0.0-4.0-3.1,292,./stimuli//pack_shapes_diff/cat_2/diff_2/ex_2_2_16.png,arrowleft,response,ArrowRight,16,2,2,train,FALSE,,4
,,,,,,,,,,,,,,,,,,,,4
,,,,,html-keyboard-response,13,99091,0.0-4.0-4.1,null,"<p> <font color=""red"" size=""5vw""> Wrong category! </font> </p>",null,feedback,,,,,,,0,4
,,,,,,,,,,,,,,,,,,,,4
,,,,,html-keyboard-response,14,99972,0.0-4.0-0.2,880,"
            
        <div style=""text-align: center; position: fixed; top: 5vh; left: 40vw;"">
            <div style=""margin:0 auto; width: 20vw; top: 8vh; font-size: 2vw""> 
            <font color=""green""> Bonus : $0 </font>
            </div>
        </div>
    
            <div> Please press any button to continue to the next trial.</div>
        ", ,ITI,,,,,,,,4
,,,,,,,,,,,,,,,,,,,,4
,,,,,html-keyboard-response,15,100577,0.0-4.0-1.2,null,"
        
        <div style=""text-align: center; position: fixed; top: 5vh; left: 40vw;"">
            <div style=""margin:0 auto; width: 20vw; top: 8vh; font-size: 2vw""> 
            <font color=""green""> Bonus : $0 </font>
            </div>
        </div>
    
        <img class=""stim"" src=./stimuli//pack_shapes_diff/cat_1/diff_2/ex_1_2_6.png></img>
    ",null,stimulus,,,,,,,,4
,,,,,,,,,,,,,,,,,,,,4
,,,,,html-keyboard-response,16,101583,0.0-4.0-2.2,null,"
        <div style=""text-align: center; position: fixed; top: 5vh; left: 40vw;"">
            <div style=""margin:0 auto; width: 20vw; top: 8vh; font-size: 2vw""> 
            <font color=""green""> Bonus : $0 </font>
            </div>
        </div>
    ",null,,,,,,,,,4
,,,,,,,,,,,,,,,,,,,,4
,,,,,html-keyboard-response,17,102434,0.0-4.0-3.2,848,./stimuli//pack_shapes_diff/cat_1/diff_2/ex_1_2_6.png,arrowleft,response,ArrowLeft,6,1,2,train,TRUE,,4
,,,,,,,,,,,,,,,,,,,,4
,,,,,html-keyboard-response,18,103948,0.0-4.0-4.2,null,"<p> <font color=""green"" size=""5vw""> Correct category! </font> </p>",null,feedback,,,,,,,0,4
,,,,,,,,,,,,,,,,,,,,4
,,,,,html-keyboard-response,19,104911,0.0-4.0-0.3,962,"
            
        <div style=""text-align: center; position: fixed; top: 5vh; left: 40vw;"">
            <div style=""margin:0 auto; width: 20vw; top: 8vh; font-size: 2vw""> 
            <font color=""green""> Bonus : $0 </font>
            </div>
        </div>
    
            <div> Please press any button to continue to the next trial.</div>
        ", ,ITI,,,,,,,,4
,,,,,,,,,,,,,,,,,,,,4
,,,,,html-keyboard-response,20,105523,0.0-4.0-1.3,null,"
        
        <div style=""text-align: center; position: fixed; top: 5vh; left: 40vw;"">
            <div style=""margin:0 auto; width: 20vw; top: 8vh; font-size: 2vw""> 
            <font color=""green""> Bonus : $0 </font>
            </div>
        </div>
    
        <img class=""stim"" src=./stimuli//pack_shapes_diff/cat_2/diff_1/ex_2_1_9.png></img>
    ",null,stimulus,,,,,,,,4
,,,,,,,,,,,,,,,,,,,,4
,,,,,html-keyboard-response,21,106527,0.0-4.0-2.3,null,"
        <div style=""text-align: center; position: fixed; top: 5vh; left: 40vw;"">
            <div style=""margin:0 auto; width: 20vw; top: 8vh; font-size: 2vw""> 
            <font color=""green""> Bonus : $0 </font>
            </div>
        </div>
    ",null,,,,,,,,,4
,,,,,,,,,,,,,,,,,,,,4
,,,,,html-keyboard-response,22,107045,0.0-4.0-3.3,517,./stimuli//pack_shapes_diff/cat_2/diff_1/ex_2_1_9.png,arrowleft,response,ArrowRight,9,2,1,train,FALSE,,4
,,,,,,,,,,,,,,,,,,,,4
,,,,,html-keyboard-response,23,108557,0.0-4.0-4.3,null,"<p> <font color=""red"" size=""5vw""> Wrong category! </font> </p>",null,feedback,,,,,,,0,4
,,,,,,,,,,,,,,,,,,,,4
,,,,,html-keyboard-response,24,110133,0.0-4.0-0.4,1575,"
            
        <div style=""text-align: center; position: fixed; top: 5vh; left: 40vw;"">
            <div style=""margin:0 auto; width: 20vw; top: 8vh; font-size: 2vw""> 
            <font color=""green""> Bonus : $0 </font>
            </div>
        </div>
    
            <div> Please press any button to continue to the next trial.</div>
        ", ,ITI,,,,,,,,4
,,,,,,,,,,,,,,,,,,,,4
,,,,,html-keyboard-response,25,110743,0.0-4.0-1.4,null,"
        
        <div style=""text-align: center; position: fixed; top: 5vh; left: 40vw;"">
            <div style=""margin:0 auto; width: 20vw; top: 8vh; font-size: 2vw""> 
            <font color=""green""> Bonus : $0 </font>
            </div>
        </div>
    
        <img class=""stim"" src=./stimuli//pack_shapes_diff/cat_1/diff_1/ex_1_1_11.png></img>
    ",null,stimulus,,,,,,,,4
,,,,,,,,,,,,,,,,,,,,4
,,,,,html-keyboard-response,26,111753,0.0-4.0-2.4,null,"
        <div style=""text-align: center; position: fixed; top: 5vh; left: 40vw;"">
            <div style=""margin:0 auto; width: 20vw; top: 8vh; font-size: 2vw""> 
            <font color=""green""> Bonus : $0 </font>
            </div>
        </div>
    ",null,,,,,,,,,4
,,,,,,,,,,,,,,,,,,,,4
,,,,,html-keyboard-response,27,112388,0.0-4.0-3.4,634,./stimuli//pack_shapes_diff/cat_1/diff_1/ex_1_1_11.png,arrowleft,response,ArrowLeft,11,1,1,train,TRUE,,4
,,,,,,,,,,,,,,,,,,,,4
,,,,,html-keyboard-response,28,113901,0.0-4.0-4.4,null,"<p> <font color=""green"" size=""5vw""> Correct category! </font> </p>",null,feedback,,,,,,,0,4
,,,,,,,,,,,,,,,,,,,,4
,,,,,html-keyboard-response,29,115276,0.0-4.0-0.5,1375,"
            
        <div style=""text-align: center; position: fixed; top: 5vh; left: 40vw;"">
            <div style=""margin:0 auto; width: 20vw; top: 8vh; font-size: 2vw""> 
            <font color=""green""> Bonus : $0 </font>
            </div>
        </div>
    
            <div> Please press any button to continue to the next trial.</div>
        ", ,ITI,,,,,,,,4
,,,,,,,,,,,,,,,,,,,,4
,,,,,html-keyboard-response,30,115885,0.0-4.0-1.5,null,"
        
        <div style=""text-align: center; position: fixed; top: 5vh; left: 40vw;"">
            <div style=""margin:0 auto; width: 20vw; top: 8vh; font-size: 2vw""> 
            <font color=""green""> Bonus : $0 </font>
            </div>
        </div>
    
        <img class=""stim"" src=./stimuli//pack_shapes_diff/cat_1/diff_1/ex_1_1_9.png></img>
    ",null,stimulus,,,,,,,,4
,,,,,,,,,,,,,,,,,,,,4
,,,,,html-keyboard-response,31,116899,0.0-4.0-2.5,null,"
        <div style=""text-align: center; position: fixed; top: 5vh; left: 40vw;"">
            <div style=""margin:0 auto; width: 20vw; top: 8vh; font-size: 2vw""> 
            <font color=""green""> Bonus : $0 </font>
            </div>
        </div>
    ",null,,,,,,,,,4
,,,,,,,,,,,,,,,,,,,,4
,,,,,html-keyboard-response,32,117295,0.0-4.0-3.5,394,./stimuli//pack_shapes_diff/cat_1/diff_1/ex_1_1_9.png,arrowleft,response,ArrowLeft,9,1,1,train,TRUE,,4
,,,,,,,,,,,,,,,,,,,,4
,,,,,html-keyboard-response,33,118800,0.0-4.0-4.5,null,"<p> <font color=""green"" size=""5vw""> Correct category! </font> </p>",null,feedback,,,,,,,0,4
,,,,,,,,,,,,,,,,,,,,4
,,,,,html-keyboard-response,34,119607,0.0-4.0-0.6,806,"
            
        <div style=""text-align: center; position: fixed; top: 5vh; left: 40vw;"">
            <div style=""margin:0 auto; width: 20vw; top: 8vh; font-size: 2vw""> 
            <font color=""green""> Bonus : $0 </font>
            </div>
        </div>
    
            <div> Please press any button to continue to the next trial.</div>
        ", ,ITI,,,,,,,,4
,,,,,,,,,,,,,,,,,,,,4
,,,,,html-keyboard-response,35,120218,0.0-4.0-1.6,null,"
        
        <div style=""text-align: center; position: fixed; top: 5vh; left: 40vw;"">
            <div style=""margin:0 auto; width: 20vw; top: 8vh; font-size: 2vw""> 
            <font color=""green""> Bonus : $0 </font>
            </div>
        </div>
    
        <img class=""stim"" src=./stimuli//pack_shapes_diff/cat_2/diff_2/ex_2_2_2.png></img>
    ",null,stimulus,,,,,,,,4
,,,,,,,,,,,,,,,,,,,,4
,,,,,html-keyboard-response,36,121227,0.0-4.0-2.6,null,"
        <div style=""text-align: center; position: fixed; top: 5vh; left: 40vw;"">
            <div style=""margin:0 auto; width: 20vw; top: 8vh; font-size: 2vw""> 
            <font color=""green""> Bonus : $0 </font>
            </div>
        </div>
    ",null,,,,,,,,,4
,,,,,,,,,,,,,,,,,,,,4
,,,,,html-keyboard-response,37,121799,0.0-4.0-3.6,572,./stimuli//pack_shapes_diff/cat_2/diff_2/ex_2_2_2.png,arrowright,response,ArrowRight,2,2,2,train,TRUE,,4
,,,,,,,,,,,,,,,,,,,,4
,,,,,html-keyboard-response,38,123314,0.0-4.0-4.6,null,"<p> <font color=""green"" size=""5vw""> Correct category! </font> </p>",null,feedback,,,,,,,0,4
,,,,,,,,,,,,,,,,,,,,4
,,,,,html-keyboard-response,39,124078,0.0-4.0-0.7,763,"
            
        <div style=""text-align: center; position: fixed; top: 5vh; left: 40vw;"">
            <div style=""margin:0 auto; width: 20vw; top: 8vh; font-size: 2vw""> 
            <font color=""green""> Bonus : $0 </font>
            </div>
        </div>
    
            <div> Please press any button to continue to the next trial.</div>
        ", ,ITI,,,,,,,,4
,,,,,,,,,,,,,,,,,,,,4
,,,,,html-keyboard-response,40,124688,0.0-4.0-1.7,null,"
        
        <div style=""text-align: center; position: fixed; top: 5vh; left: 40vw;"">
            <div style=""margin:0 auto; width: 20vw; top: 8vh; font-size: 2vw""> 
            <font color=""green""> Bonus : $0 </font>
            </div>
        </div>
    
        <img class=""stim"" src=./stimuli//pack_shapes_diff/cat_1/diff_1/ex_1_1_8.png></img>
    ",null,stimulus,,,,,,,,4
,,,,,,,,,,,,,,,,,,,,4
,,,,,html-keyboard-response,41,125694,0.0-4.0-2.7,null,"
        <div style=""text-align: center; position: fixed; top: 5vh; left: 40vw;"">
            <div style=""margin:0 auto; width: 20vw; top: 8vh; font-size: 2vw""> 
            <font color=""green""> Bonus : $0 </font>
            </div>
        </div>
    ",null,,,,,,,,,4
,,,,,,,,,,,,,,,,,,,,4
,,,,,html-keyboard-response,42,126235,0.0-4.0-3.7,540,./stimuli//pack_shapes_diff/cat_1/diff_1/ex_1_1_8.png,arrowleft,response,ArrowLeft,8,1,1,train,TRUE,,4
,,,,,,,,,,,,,,,,,,,,4
,,,,,html-keyboard-response,43,127750,0.0-4.0-4.7,null,"<p> <font color=""green"" size=""5vw""> Correct category! </font> </p>",null,feedback,,,,,,,0,4
,,,,,,,,,,,,,,,,,,,,4
,,,,,html-keyboard-response,44,128828,0.0-4.0-0.8,1077,"
            
        <div style=""text-align: center; position: fixed; top: 5vh; left: 40vw;"">
            <div style=""margin:0 auto; width: 20vw; top: 8vh; font-size: 2vw""> 
            <font color=""green""> Bonus : $0 </font>
            </div>
        </div>
    
            <div> Please press any button to continue to the next trial.</div>
        ", ,ITI,,,,,,,,4
,,,,,,,,,,,,,,,,,,,,4
,,,,,html-keyboard-response,45,129434,0.0-4.0-1.8,null,"
        
        <div style=""text-align: center; position: fixed; top: 5vh; left: 40vw;"">
            <div style=""margin:0 auto; width: 20vw; top: 8vh; font-size: 2vw""> 
            <font color=""green""> Bonus : $0 </font>
            </div>
        </div>
    
        <img class=""stim"" src=./stimuli//pack_shapes_diff/cat_1/diff_2/ex_1_2_10.png></img>
    ",null,stimulus,,,,,,,,4
,,,,,,,,,,,,,,,,,,,,4
,,,,,html-keyboard-response,46,130438,0.0-4.0-2.8,null,"
        <div style=""text-align: center; position: fixed; top: 5vh; left: 40vw;"">
            <div style=""margin:0 auto; width: 20vw; top: 8vh; font-size: 2vw""> 
            <font color=""green""> Bonus : $0 </font>
            </div>
        </div>
    ",null,,,,,,,,,4
,,,,,,,,,,,,,,,,,,,,4
,,,,,html-keyboard-response,47,130822,0.0-4.0-3.8,383,./stimuli//pack_shapes_diff/cat_1/diff_2/ex_1_2_10.png,arrowleft,response,ArrowLeft,10,1,2,train,TRUE,,4
,,,,,,,,,,,,,,,,,,,,4
,,,,,html-keyboard-response,48,132327,0.0-4.0-4.8,null,"<p> <font color=""green"" size=""5vw""> Correct category! </font> </p>",null,feedback,,,,,,,0,4
,,,,,,,,,,,,,,,,,,,,4
,,,,,html-keyboard-response,49,132995,0.0-4.0-0.9,668,"
            
        <div style=""text-align: center; position: fixed; top: 5vh; left: 40vw;"">
            <div style=""margin:0 auto; width: 20vw; top: 8vh; font-size: 2vw""> 
            <font color=""green""> Bonus : $0 </font>
            </div>
        </div>
    
            <div> Please press any button to continue to the next trial.</div>
        ", ,ITI,,,,,,,,4
,,,,,,,,,,,,,,,,,,,,4
,,,,,html-keyboard-response,50,133600,0.0-4.0-1.9,null,"
        
        <div style=""text-align: center; position: fixed; top: 5vh; left: 40vw;"">
            <div style=""margin:0 auto; width: 20vw; top: 8vh; font-size: 2vw""> 
            <font color=""green""> Bonus : $0 </font>
            </div>
        </div>
    
        <img class=""stim"" src=./stimuli//pack_shapes_diff/cat_2/diff_1/ex_2_1_1.png></img>
    ",null,stimulus,,,,,,,,4
,,,,,,,,,,,,,,,,,,,,4
,,,,,html-keyboard-response,51,134609,0.0-4.0-2.9,null,"
        <div style=""text-align: center; position: fixed; top: 5vh; left: 40vw;"">
            <div style=""margin:0 auto; width: 20vw; top: 8vh; font-size: 2vw""> 
            <font color=""green""> Bonus : $0 </font>
            </div>
        </div>
    ",null,,,,,,,,,4
,,,,,,,,,,,,,,,,,,,,4
,,,,,html-keyboard-response,52,134920,0.0-4.0-3.9,310,./stimuli//pack_shapes_diff/cat_2/diff_1/ex_2_1_1.png,arrowright,response,ArrowRight,1,2,1,train,TRUE,,4
,,,,,,,,,,,,,,,,,,,,4
,,,,,html-keyboard-response,53,136423,0.0-4.0-4.9,null,"<p> <font color=""green"" size=""5vw""> Correct category! </font> </p>",null,feedback,,,,,,,0,4
,,,,,,,,,,,,,,,,,,,,4
,,,,,html-keyboard-response,54,142709,0.0-5.0,6284,"
            <b> <p> The practice round has finished.</p>
            <b> For the rest of the experiment you will receive a $0.05 bonus for each correct answer!</b>
            <p> Press any key to begin the test. </p>
            ", ,intermission,,,,,,,,4
,,,,,,,,,,,,,,,,,,,,4
,,,,,html-keyboard-response,55,145748,0.0-6.0-0.0,3038,"
            
        <div style=""text-align: center; position: fixed; top: 5vh; left: 40vw;"">
            <div style=""margin:0 auto; width: 20vw; top: 8vh; font-size: 2vw""> 
            <font color=""green""> Bonus : $0 </font>
            </div>
        </div>
    
            <div> Please press any button to continue to the next trial.</div>
        ", ,ITI,,,,,,,,4
,,,,,,,,,,,,,,,,,,,,4
,,,,,html-keyboard-response,56,146361,0.0-6.0-1.0,null,"
        
        <div style=""text-align: center; position: fixed; top: 5vh; left: 40vw;"">
            <div style=""margin:0 auto; width: 20vw; top: 8vh; font-size: 2vw""> 
            <font color=""green""> Bonus : $0 </font>
            </div>
        </div>
    
        <img class=""stim"" src=./stimuli//pack_shapes_diff/cat_1/diff_1/ex_1_1_13.png></img>
    ",null,stimulus,,,,,,,,4
,,,,,,,,,,,,,,,,,,,,4
,,,,,html-keyboard-response,57,147369,0.0-6.0-2.0,null,"
        <div style=""text-align: center; position: fixed; top: 5vh; left: 40vw;"">
            <div style=""margin:0 auto; width: 20vw; top: 8vh; font-size: 2vw""> 
            <font color=""green""> Bonus : $0 </font>
            </div>
        </div>
    ",null,,,,,,,,,4
,,,,,,,,,,,,,,,,,,,,4
,,,,,html-keyboard-response,58,147660,0.0-6.0-3.0,290,./stimuli//pack_shapes_diff/cat_1/diff_1/ex_1_1_13.png,arrowleft,response,ArrowLeft,13,1,1,test,TRUE,,4
,,,,,,,,,,,,,,,,,,,,4
,,,,,html-keyboard-response,59,149172,0.0-6.0-4.0,null,"<p> <font color=""green"" size=""5vw""> Correct category! </font> <br> <br> <font color=""green"" size=""8vw""> + $0.05 </font> </p>",null,feedback,,,,,,,0.05,4
,,,,,,,,,,,,,,,,,,,,4
,,,,,html-keyboard-response,60,150590,0.0-6.1-0.1,1416,"
            
        <div style=""text-align: center; position: fixed; top: 5vh; left: 40vw;"">
            <div style=""margin:0 auto; width: 20vw; top: 8vh; font-size: 2vw""> 
            <font color=""green""> Bonus : $0.05 </font>
            </div>
        </div>
    
            <div> Please press any button to continue to the next trial.</div>
        ", ,ITI,,,,,,,,4
,,,,,,,,,,,,,,,,,,,,4
,,,,,html-keyboard-response,61,151193,0.0-6.1-1.1,null,"
        
        <div style=""text-align: center; position: fixed; top: 5vh; left: 40vw;"">
            <div style=""margin:0 auto; width: 20vw; top: 8vh; font-size: 2vw""> 
            <font color=""green""> Bonus : $0.05 </font>
            </div>
        </div>
    
        <img class=""stim"" src=./stimuli//pack_shapes_diff/cat_2/diff_1/ex_2_1_5.png></img>
    ",null,stimulus,,,,,,,,4
,,,,,,,,,,,,,,,,,,,,4
,,,,,html-keyboard-response,62,152201,0.0-6.1-2.1,null,"
        <div style=""text-align: center; position: fixed; top: 5vh; left: 40vw;"">
            <div style=""margin:0 auto; width: 20vw; top: 8vh; font-size: 2vw""> 
            <font color=""green""> Bonus : $0.05 </font>
            </div>
        </div>
    ",null,,,,,,,,,4
,,,,,,,,,,,,,,,,,,,,4
,,,,,html-keyboard-response,63,152814,0.0-6.1-3.1,612,./stimuli//pack_shapes_diff/cat_2/diff_1/ex_2_1_5.png,arrowright,response,ArrowRight,5,2,1,test,TRUE,,4
,,,,,,,,,,,,,,,,,,,,4
,,,,,html-keyboard-response,64,154320,0.0-6.1-4.1,null,"<p> <font color=""green"" size=""5vw""> Correct category! </font> <br> <br> <font color=""green"" size=""8vw""> + $0.05 </font> </p>",null,feedback,,,,,,,0.1,4
,,,,,,,,,,,,,,,,,,,,4
,,,,,html-keyboard-response,65,155555,0.0-6.2-0.2,1234,"
            
        <div style=""text-align: center; position: fixed; top: 5vh; left: 40vw;"">
            <div style=""margin:0 auto; width: 20vw; top: 8vh; font-size: 2vw""> 
            <font color=""green""> Bonus : $0.1 </font>
            </div>
        </div>
    
            <div> Please press any button to continue to the next trial.</div>
        ", ,ITI,,,,,,,,4
,,,,,,,,,,,,,,,,,,,,4
,,,,,html-keyboard-response,66,156160,0.0-6.2-1.2,null,"
        
        <div style=""text-align: center; position: fixed; top: 5vh; left: 40vw;"">
            <div style=""margin:0 auto; width: 20vw; top: 8vh; font-size: 2vw""> 
            <font color=""green""> Bonus : $0.1 </font>
            </div>
        </div>
    
        <img class=""stim"" src=./stimuli//pack_shapes_diff/cat_1/diff_1/ex_1_1_15.png></img>
    ",null,stimulus,,,,,,,,4
,,,,,,,,,,,,,,,,,,,,4
,,,,,html-keyboard-response,67,157170,0.0-6.2-2.2,null,"
        <div style=""text-align: center; position: fixed; top: 5vh; left: 40vw;"">
            <div style=""margin:0 auto; width: 20vw; top: 8vh; font-size: 2vw""> 
            <font color=""green""> Bonus : $0.1 </font>
            </div>
        </div>
    ",null,,,,,,,,,4
,,,,,,,,,,,,,,,,,,,,4
,,,,,html-keyboard-response,68,157692,0.0-6.2-3.2,520,./stimuli//pack_shapes_diff/cat_1/diff_1/ex_1_1_15.png,arrowleft,response,ArrowLeft,15,1,1,test,TRUE,,4
,,,,,,,,,,,,,,,,,,,,4
,,,,,html-keyboard-response,69,159199,0.0-6.2-4.2,null,"<p> <font color=""green"" size=""5vw""> Correct category! </font> <br> <br> <font color=""green"" size=""8vw""> + $0.05 </font> </p>",null,feedback,,,,,,,0.15,4
,,,,,,,,,,,,,,,,,,,,4
,,,,,html-keyboard-response,70,159910,0.0-6.3-0.3,711,"
            
        <div style=""text-align: center; position: fixed; top: 5vh; left: 40vw;"">
            <div style=""margin:0 auto; width: 20vw; top: 8vh; font-size: 2vw""> 
            <font color=""green""> Bonus : $0.15 </font>
            </div>
        </div>
    
            <div> Please press any button to continue to the next trial.</div>
        ", ,ITI,,,,,,,,4
,,,,,,,,,,,,,,,,,,,,4
,,,,,html-keyboard-response,71,160522,0.0-6.3-1.3,null,"
        
        <div style=""text-align: center; position: fixed; top: 5vh; left: 40vw;"">
            <div style=""margin:0 auto; width: 20vw; top: 8vh; font-size: 2vw""> 
            <font color=""green""> Bonus : $0.15 </font>
            </div>
        </div>
    
        <img class=""stim"" src=./stimuli//pack_shapes_diff/cat_1/diff_1/ex_1_1_6.png></img>
    ",null,stimulus,,,,,,,,4
,,,,,,,,,,,,,,,,,,,,4
,,,,,html-keyboard-response,72,161527,0.0-6.3-2.3,null,"
        <div style=""text-align: center; position: fixed; top: 5vh; left: 40vw;"">
            <div style=""margin:0 auto; width: 20vw; top: 8vh; font-size: 2vw""> 
            <font color=""green""> Bonus : $0.15 </font>
            </div>
        </div>
    ",null,,,,,,,,,4
,,,,,,,,,,,,,,,,,,,,4
,,,,,html-keyboard-response,73,162239,0.0-6.3-3.3,712,./stimuli//pack_shapes_diff/cat_1/diff_1/ex_1_1_6.png,arrowleft,response,ArrowLeft,6,1,1,test,TRUE,,4
,,,,,,,,,,,,,,,,,,,,4
,,,,,html-keyboard-response,74,163742,0.0-6.3-4.3,null,"<p> <font color=""green"" size=""5vw""> Correct category! </font> <br> <br> <font color=""green"" size=""8vw""> + $0.05 </font> </p>",null,feedback,,,,,,,0.2,4
,,,,,,,,,,,,,,,,,,,,4
,,,,,html-keyboard-response,75,164531,0.0-6.4-0.4,789,"
            
        <div style=""text-align: center; position: fixed; top: 5vh; left: 40vw;"">
            <div style=""margin:0 auto; width: 20vw; top: 8vh; font-size: 2vw""> 
            <font color=""green""> Bonus : $0.2 </font>
            </div>
        </div>
    
            <div> Please press any button to continue to the next trial.</div>
        ", ,ITI,,,,,,,,4
,,,,,,,,,,,,,,,,,,,,4
,,,,,html-keyboard-response,76,165146,0.0-6.4-1.4,null,"
        
        <div style=""text-align: center; position: fixed; top: 5vh; left: 40vw;"">
            <div style=""margin:0 auto; width: 20vw; top: 8vh; font-size: 2vw""> 
            <font color=""green""> Bonus : $0.2 </font>
            </div>
        </div>
    
        <img class=""stim"" src=./stimuli//pack_shapes_diff/cat_1/diff_1/ex_1_1_16.png></img>
    ",null,stimulus,,,,,,,,4
,,,,,,,,,,,,,,,,,,,,4
,,,,,html-keyboard-response,77,166153,0.0-6.4-2.4,null,"
        <div style=""text-align: center; position: fixed; top: 5vh; left: 40vw;"">
            <div style=""margin:0 auto; width: 20vw; top: 8vh; font-size: 2vw""> 
            <font color=""green""> Bonus : $0.2 </font>
            </div>
        </div>
    ",null,,,,,,,,,4
,,,,,,,,,,,,,,,,,,,,4
,,,,,html-keyboard-response,78,167154,0.0-6.4-3.4,1001,./stimuli//pack_shapes_diff/cat_1/diff_1/ex_1_1_16.png,arrowleft,response,ArrowLeft,16,1,1,test,TRUE,,4
,,,,,,,,,,,,,,,,,,,,4
,,,,,html-keyboard-response,79,168664,0.0-6.4-4.4,null,"<p> <font color=""green"" size=""5vw""> Correct category! </font> <br> <br> <font color=""green"" size=""8vw""> + $0.05 </font> </p>",null,feedback,,,,,,,0.25,4
,,,,,,,,,,,,,,,,,,,,4
,,,,,html-keyboard-response,80,169351,0.0-6.5-0.5,686,"
            
        <div style=""text-align: center; position: fixed; top: 5vh; left: 40vw;"">
            <div style=""margin:0 auto; width: 20vw; top: 8vh; font-size: 2vw""> 
            <font color=""green""> Bonus : $0.25 </font>
            </div>
        </div>
    
            <div> Please press any button to continue to the next trial.</div>
        ", ,ITI,,,,,,,,4
,,,,,,,,,,,,,,,,,,,,4
,,,,,html-keyboard-response,81,169960,0.0-6.5-1.5,null,"
        
        <div style=""text-align: center; position: fixed; top: 5vh; left: 40vw;"">
            <div style=""margin:0 auto; width: 20vw; top: 8vh; font-size: 2vw""> 
            <font color=""green""> Bonus : $0.25 </font>
            </div>
        </div>
    
        <img class=""stim"" src=./stimuli//pack_shapes_diff/cat_1/diff_2/ex_1_2_5.png></img>
    ",null,stimulus,,,,,,,,4
,,,,,,,,,,,,,,,,,,,,4
,,,,,html-keyboard-response,82,170968,0.0-6.5-2.5,null,"
        <div style=""text-align: center; position: fixed; top: 5vh; left: 40vw;"">
            <div style=""margin:0 auto; width: 20vw; top: 8vh; font-size: 2vw""> 
            <font color=""green""> Bonus : $0.25 </font>
            </div>
        </div>
    ",null,,,,,,,,,4
,,,,,,,,,,,,,,,,,,,,4
,,,,,html-keyboard-response,83,171467,0.0-6.5-3.5,498,./stimuli//pack_shapes_diff/cat_1/diff_2/ex_1_2_5.png,arrowright,response,ArrowLeft,5,1,2,test,FALSE,,4
,,,,,,,,,,,,,,,,,,,,4
,,,,,html-keyboard-response,84,172977,0.0-6.5-4.5,null,"<p> <font color=""red"" size=""5vw""> Wrong category! </font> </p>",null,feedback,,,,,,,0.25,4
,,,,,,,,,,,,,,,,,,,,4
,,,,,html-keyboard-response,85,173907,0.0-6.6-0.6,929,"
            
        <div style=""text-align: center; position: fixed; top: 5vh; left: 40vw;"">
            <div style=""margin:0 auto; width: 20vw; top: 8vh; font-size: 2vw""> 
            <font color=""green""> Bonus : $0.25 </font>
            </div>
        </div>
    
            <div> Please press any button to continue to the next trial.</div>
        ", ,ITI,,,,,,,,4
,,,,,,,,,,,,,,,,,,,,4
,,,,,html-keyboard-response,86,174521,0.0-6.6-1.6,null,"
        
        <div style=""text-align: center; position: fixed; top: 5vh; left: 40vw;"">
            <div style=""margin:0 auto; width: 20vw; top: 8vh; font-size: 2vw""> 
            <font color=""green""> Bonus : $0.25 </font>
            </div>
        </div>
    
        <img class=""stim"" src=./stimuli//pack_shapes_diff/cat_2/diff_2/ex_2_2_8.png></img>
    ",null,stimulus,,,,,,,,4
,,,,,,,,,,,,,,,,,,,,4
,,,,,html-keyboard-response,87,175533,0.0-6.6-2.6,null,"
        <div style=""text-align: center; position: fixed; top: 5vh; left: 40vw;"">
            <div style=""margin:0 auto; width: 20vw; top: 8vh; font-size: 2vw""> 
            <font color=""green""> Bonus : $0.25 </font>
            </div>
        </div>
    ",null,,,,,,,,,4
,,,,,,,,,,,,,,,,,,,,4
,,,,,html-keyboard-response,88,175963,0.0-6.6-3.6,429,./stimuli//pack_shapes_diff/cat_2/diff_2/ex_2_2_8.png,arrowright,response,ArrowRight,8,2,2,test,TRUE,,4
,,,,,,,,,,,,,,,,,,,,4
,,,,,html-keyboard-response,89,177472,0.0-6.6-4.6,null,"<p> <font color=""green"" size=""5vw""> Correct category! </font> <br> <br> <font color=""green"" size=""8vw""> + $0.05 </font> </p>",null,feedback,,,,,,,0.3,4
,,,,,,,,,,,,,,,,,,,,4
,,,,,html-keyboard-response,90,178146,0.0-6.7-0.7,673,"
            
        <div style=""text-align: center; position: fixed; top: 5vh; left: 40vw;"">
            <div style=""margin:0 auto; width: 20vw; top: 8vh; font-size: 2vw""> 
            <font color=""green""> Bonus : $0.3 </font>
            </div>
        </div>
    
            <div> Please press any button to continue to the next trial.</div>
        ", ,ITI,,,,,,,,4
,,,,,,,,,,,,,,,,,,,,4
,,,,,html-keyboard-response,91,178755,0.0-6.7-1.7,null,"
        
        <div style=""text-align: center; position: fixed; top: 5vh; left: 40vw;"">
            <div style=""margin:0 auto; width: 20vw; top: 8vh; font-size: 2vw""> 
            <font color=""green""> Bonus : $0.3 </font>
            </div>
        </div>
    
        <img class=""stim"" src=./stimuli//pack_shapes_diff/cat_1/diff_2/ex_1_2_15.png></img>
    ",null,stimulus,,,,,,,,4
,,,,,,,,,,,,,,,,,,,,4
,,,,,html-keyboard-response,92,179760,0.0-6.7-2.7,null,"
        <div style=""text-align: center; position: fixed; top: 5vh; left: 40vw;"">
            <div style=""margin:0 auto; width: 20vw; top: 8vh; font-size: 2vw""> 
            <font color=""green""> Bonus : $0.3 </font>
            </div>
        </div>
    ",null,,,,,,,,,4
,,,,,,,,,,,,,,,,,,,,4
,,,,,html-keyboard-response,93,180163,0.0-6.7-3.7,403,./stimuli//pack_shapes_diff/cat_1/diff_2/ex_1_2_15.png,arrowleft,response,ArrowLeft,15,1,2,test,TRUE,,4
,,,,,,,,,,,,,,,,,,,,4
,,,,,html-keyboard-response,94,181675,0.0-6.7-4.7,null,"<p> <font color=""green"" size=""5vw""> Correct category! </font> <br> <br> <font color=""green"" size=""8vw""> + $0.05 </font> </p>",null,feedback,,,,,,,0.35,4
,,,,,,,,,,,,,,,,,,,,4
,,,,,html-keyboard-response,95,182258,0.0-6.8-0.8,582,"
            
        <div style=""text-align: center; position: fixed; top: 5vh; left: 40vw;"">
            <div style=""margin:0 auto; width: 20vw; top: 8vh; font-size: 2vw""> 
            <font color=""green""> Bonus : $0.35 </font>
            </div>
        </div>
    
            <div> Please press any button to continue to the next trial.</div>
        ", ,ITI,,,,,,,,4
,,,,,,,,,,,,,,,,,,,,4
,,,,,html-keyboard-response,96,182864,0.0-6.8-1.8,null,"
        
        <div style=""text-align: center; position: fixed; top: 5vh; left: 40vw;"">
            <div style=""margin:0 auto; width: 20vw; top: 8vh; font-size: 2vw""> 
            <font color=""green""> Bonus : $0.35 </font>
            </div>
        </div>
    
        <img class=""stim"" src=./stimuli//pack_shapes_diff/cat_2/diff_2/ex_2_2_9.png></img>
    ",null,stimulus,,,,,,,,4
,,,,,,,,,,,,,,,,,,,,4
,,,,,html-keyboard-response,97,183873,0.0-6.8-2.8,null,"
        <div style=""text-align: center; position: fixed; top: 5vh; left: 40vw;"">
            <div style=""margin:0 auto; width: 20vw; top: 8vh; font-size: 2vw""> 
            <font color=""green""> Bonus : $0.35 </font>
            </div>
        </div>
    ",null,,,,,,,,,4
,,,,,,,,,,,,,,,,,,,,4
,,,,,html-keyboard-response,98,184919,0.0-6.8-3.8,1045,./stimuli//pack_shapes_diff/cat_2/diff_2/ex_2_2_9.png,arrowright,response,ArrowRight,9,2,2,test,TRUE,,4
,,,,,,,,,,,,,,,,,,,,4
,,,,,html-keyboard-response,99,186424,0.0-6.8-4.8,null,"<p> <font color=""green"" size=""5vw""> Correct category! </font> <br> <br> <font color=""green"" size=""8vw""> + $0.05 </font> </p>",null,feedback,,,,,,,0.4,4
,,,,,,,,,,,,,,,,,,,,4
,,,,,html-keyboard-response,100,187056,0.0-6.9-0.9,631,"
            
        <div style=""text-align: center; position: fixed; top: 5vh; left: 40vw;"">
            <div style=""margin:0 auto; width: 20vw; top: 8vh; font-size: 2vw""> 
            <font color=""green""> Bonus : $0.4 </font>
            </div>
        </div>
    
            <div> Please press any button to continue to the next trial.</div>
        ", ,ITI,,,,,,,,4
,,,,,,,,,,,,,,,,,,,,4
,,,,,html-keyboard-response,101,187667,0.0-6.9-1.9,null,"
        
        <div style=""text-align: center; position: fixed; top: 5vh; left: 40vw;"">
            <div style=""margin:0 auto; width: 20vw; top: 8vh; font-size: 2vw""> 
            <font color=""green""> Bonus : $0.4 </font>
            </div>
        </div>
    
        <img class=""stim"" src=./stimuli//pack_shapes_diff/cat_1/diff_2/ex_1_2_9.png></img>
    ",null,stimulus,,,,,,,,4
,,,,,,,,,,,,,,,,,,,,4
,,,,,html-keyboard-response,102,188671,0.0-6.9-2.9,null,"
        <div style=""text-align: center; position: fixed; top: 5vh; left: 40vw;"">
            <div style=""margin:0 auto; width: 20vw; top: 8vh; font-size: 2vw""> 
            <font color=""green""> Bonus : $0.4 </font>
            </div>
        </div>
    ",null,,,,,,,,,4
,,,,,,,,,,,,,,,,,,,,4
,,,,,html-keyboard-response,103,189108,0.0-6.9-3.9,436,./stimuli//pack_shapes_diff/cat_1/diff_2/ex_1_2_9.png,arrowleft,response,ArrowLeft,9,1,2,test,TRUE,,4
,,,,,,,,,,,,,,,,,,,,4
,,,,,html-keyboard-response,104,190620,0.0-6.9-4.9,null,"<p> <font color=""green"" size=""5vw""> Correct category! </font> <br> <br> <font color=""green"" size=""8vw""> + $0.05 </font> </p>",null,feedback,,,,,,,0.45,4
,,,,,,,,,,,,,,,,,,,,4
,,,,,html-keyboard-response,105,191308,0.0-6.10-0.10,688,"
            
        <div style=""text-align: center; position: fixed; top: 5vh; left: 40vw;"">
            <div style=""margin:0 auto; width: 20vw; top: 8vh; font-size: 2vw""> 
            <font color=""green""> Bonus : $0.45 </font>
            </div>
        </div>
    
            <div> Please press any button to continue to the next trial.</div>
        ", ,ITI,,,,,,,,4
,,,,,,,,,,,,,,,,,,,,4
,,,,,html-keyboard-response,106,191918,0.0-6.10-1.10,null,"
        
        <div style=""text-align: center; position: fixed; top: 5vh; left: 40vw;"">
            <div style=""margin:0 auto; width: 20vw; top: 8vh; font-size: 2vw""> 
            <font color=""green""> Bonus : $0.45 </font>
            </div>
        </div>
    
        <img class=""stim"" src=./stimuli//pack_shapes_diff/cat_1/diff_3/ex_1_3_1.png></img>
    ",null,stimulus,,,,,,,,4
,,,,,,,,,,,,,,,,,,,,4
,,,,,html-keyboard-response,107,192929,0.0-6.10-2.10,null,"
        <div style=""text-align: center; position: fixed; top: 5vh; left: 40vw;"">
            <div style=""margin:0 auto; width: 20vw; top: 8vh; font-size: 2vw""> 
            <font color=""green""> Bonus : $0.45 </font>
            </div>
        </div>
    ",null,,,,,,,,,4
,,,,,,,,,,,,,,,,,,,,4
,,,,,html-keyboard-response,108,193268,0.0-6.10-3.10,338,./stimuli//pack_shapes_diff/cat_1/diff_3/ex_1_3_1.png,arrowleft,response,ArrowLeft,1,1,3,test,TRUE,,4
,,,,,,,,,,,,,,,,,,,,4
,,,,,html-keyboard-response,109,194770,0.0-6.10-4.10,null,"<p> <font color=""green"" size=""5vw""> Correct category! </font> <br> <br> <font color=""green"" size=""8vw""> + $0.05 </font> </p>",null,feedback,,,,,,,0.5,4
,,,,,,,,,,,,,,,,,,,,4
,,,,,html-keyboard-response,110,195437,0.0-6.11-0.11,666,"
            
        <div style=""text-align: center; position: fixed; top: 5vh; left: 40vw;"">
            <div style=""margin:0 auto; width: 20vw; top: 8vh; font-size: 2vw""> 
            <font color=""green""> Bonus : $0.5 </font>
            </div>
        </div>
    
            <div> Please press any button to continue to the next trial.</div>
        ", ,ITI,,,,,,,,4
,,,,,,,,,,,,,,,,,,,,4
,,,,,html-keyboard-response,111,196048,0.0-6.11-1.11,null,"
        
        <div style=""text-align: center; position: fixed; top: 5vh; left: 40vw;"">
            <div style=""margin:0 auto; width: 20vw; top: 8vh; font-size: 2vw""> 
            <font color=""green""> Bonus : $0.5 </font>
            </div>
        </div>
    
        <img class=""stim"" src=./stimuli//pack_shapes_diff/cat_1/diff_3/ex_1_3_7.png></img>
    ",null,stimulus,,,,,,,,4
,,,,,,,,,,,,,,,,,,,,4
,,,,,html-keyboard-response,112,197058,0.0-6.11-2.11,null,"
        <div style=""text-align: center; position: fixed; top: 5vh; left: 40vw;"">
            <div style=""margin:0 auto; width: 20vw; top: 8vh; font-size: 2vw""> 
            <font color=""green""> Bonus : $0.5 </font>
            </div>
        </div>
    ",null,,,,,,,,,4
,,,,,,,,,,,,,,,,,,,,4
,,,,,html-keyboard-response,113,197417,0.0-6.11-3.11,359,./stimuli//pack_shapes_diff/cat_1/diff_3/ex_1_3_7.png,arrowleft,response,ArrowLeft,7,1,3,test,TRUE,,4
,,,,,,,,,,,,,,,,,,,,4
,,,,,html-keyboard-response,114,198927,0.0-6.11-4.11,null,"<p> <font color=""green"" size=""5vw""> Correct category! </font> <br> <br> <font color=""green"" size=""8vw""> + $0.05 </font> </p>",null,feedback,,,,,,,0.55,4
,,,,,,,,,,,,,,,,,,,,4
,,,,,html-keyboard-response,115,199685,0.0-6.12-0.12,757,"
            
        <div style=""text-align: center; position: fixed; top: 5vh; left: 40vw;"">
            <div style=""margin:0 auto; width: 20vw; top: 8vh; font-size: 2vw""> 
            <font color=""green""> Bonus : $0.55 </font>
            </div>
        </div>
    
            <div> Please press any button to continue to the next trial.</div>
        ", ,ITI,,,,,,,,4
,,,,,,,,,,,,,,,,,,,,4
,,,,,html-keyboard-response,116,200297,0.0-6.12-1.12,null,"
        
        <div style=""text-align: center; position: fixed; top: 5vh; left: 40vw;"">
            <div style=""margin:0 auto; width: 20vw; top: 8vh; font-size: 2vw""> 
            <font color=""green""> Bonus : $0.55 </font>
            </div>
        </div>
    
        <img class=""stim"" src=./stimuli//pack_shapes_diff/cat_2/diff_3/ex_2_3_8.png></img>
    ",null,stimulus,,,,,,,,4
,,,,,,,,,,,,,,,,,,,,4
,,,,,html-keyboard-response,117,201305,0.0-6.12-2.12,null,"
        <div style=""text-align: center; position: fixed; top: 5vh; left: 40vw;"">
            <div style=""margin:0 auto; width: 20vw; top: 8vh; font-size: 2vw""> 
            <font color=""green""> Bonus : $0.55 </font>
            </div>
        </div>
    ",null,,,,,,,,,4
,,,,,,,,,,,,,,,,,,,,4
,,,,,html-keyboard-response,118,201946,0.0-6.12-3.12,641,./stimuli//pack_shapes_diff/cat_2/diff_3/ex_2_3_8.png,arrowright,response,ArrowRight,8,2,3,test,TRUE,,4
,,,,,,,,,,,,,,,,,,,,4
,,,,,html-keyboard-response,119,203455,0.0-6.12-4.12,null,"<p> <font color=""green"" size=""5vw""> Correct category! </font> <br> <br> <font color=""green"" size=""8vw""> + $0.05 </font> </p>",null,feedback,,,,,,,0.6,4
,,,,,,,,,,,,,,,,,,,,4
,,,,,html-keyboard-response,120,204051,0.0-6.13-0.13,596,"
            
        <div style=""text-align: center; position: fixed; top: 5vh; left: 40vw;"">
            <div style=""margin:0 auto; width: 20vw; top: 8vh; font-size: 2vw""> 
            <font color=""green""> Bonus : $0.6 </font>
            </div>
        </div>
    
            <div> Please press any button to continue to the next trial.</div>
        ", ,ITI,,,,,,,,4
,,,,,,,,,,,,,,,,,,,,4
,,,,,html-keyboard-response,121,204655,0.0-6.13-1.13,null,"
        
        <div style=""text-align: center; position: fixed; top: 5vh; left: 40vw;"">
            <div style=""margin:0 auto; width: 20vw; top: 8vh; font-size: 2vw""> 
            <font color=""green""> Bonus : $0.6 </font>
            </div>
        </div>
    
        <img class=""stim"" src=./stimuli//pack_shapes_diff/cat_1/diff_3/ex_1_3_16.png></img>
    ",null,stimulus,,,,,,,,4
,,,,,,,,,,,,,,,,,,,,4
,,,,,html-keyboard-response,122,205665,0.0-6.13-2.13,null,"
        <div style=""text-align: center; position: fixed; top: 5vh; left: 40vw;"">
            <div style=""margin:0 auto; width: 20vw; top: 8vh; font-size: 2vw""> 
            <font color=""green""> Bonus : $0.6 </font>
            </div>
        </div>
    ",null,,,,,,,,,4
,,,,,,,,,,,,,,,,,,,,4
,,,,,html-keyboard-response,123,206052,0.0-6.13-3.13,386,./stimuli//pack_shapes_diff/cat_1/diff_3/ex_1_3_16.png,arrowleft,response,ArrowLeft,16,1,3,test,TRUE,,4
,,,,,,,,,,,,,,,,,,,,4
,,,,,html-keyboard-response,124,207561,0.0-6.13-4.13,null,"<p> <font color=""green"" size=""5vw""> Correct category! </font> <br> <br> <font color=""green"" size=""8vw""> + $0.05 </font> </p>",null,feedback,,,,,,,0.65,4
,,,,,,,,,,,,,,,,,,,,4
,,,,,html-keyboard-response,125,208179,0.0-6.14-0.14,618,"
            
        <div style=""text-align: center; position: fixed; top: 5vh; left: 40vw;"">
            <div style=""margin:0 auto; width: 20vw; top: 8vh; font-size: 2vw""> 
            <font color=""green""> Bonus : $0.65 </font>
            </div>
        </div>
    
            <div> Please press any button to continue to the next trial.</div>
        ", ,ITI,,,,,,,,4
,,,,,,,,,,,,,,,,,,,,4
,,,,,html-keyboard-response,126,208794,0.0-6.14-1.14,null,"
        
        <div style=""text-align: center; position: fixed; top: 5vh; left: 40vw;"">
            <div style=""margin:0 auto; width: 20vw; top: 8vh; font-size: 2vw""> 
            <font color=""green""> Bonus : $0.65 </font>
            </div>
        </div>
    
        <img class=""stim"" src=./stimuli//pack_shapes_diff/cat_2/diff_3/ex_2_3_4.png></img>
    ",null,stimulus,,,,,,,,4
,,,,,,,,,,,,,,,,,,,,4
,,,,,html-keyboard-response,127,209800,0.0-6.14-2.14,null,"
        <div style=""text-align: center; position: fixed; top: 5vh; left: 40vw;"">
            <div style=""margin:0 auto; width: 20vw; top: 8vh; font-size: 2vw""> 
            <font color=""green""> Bonus : $0.65 </font>
            </div>
        </div>
    ",null,,,,,,,,,4
,,,,,,,,,,,,,,,,,,,,4
,,,,,html-keyboard-response,128,210100,0.0-6.14-3.14,299,./stimuli//pack_shapes_diff/cat_2/diff_3/ex_2_3_4.png,arrowright,response,ArrowRight,4,2,3,test,TRUE,,4
,,,,,,,,,,,,,,,,,,,,4
,,,,,html-keyboard-response,129,211605,0.0-6.14-4.14,null,"<p> <font color=""green"" size=""5vw""> Correct category! </font> <br> <br> <font color=""green"" size=""8vw""> + $0.05 </font> </p>",null,feedback,,,,,,,0.7,4
,,,,,,,,,,,,,,,,,,,,4
,,,,,html-keyboard-response,130,212245,0.0-6.15-0.15,640,"
            
        <div style=""text-align: center; position: fixed; top: 5vh; left: 40vw;"">
            <div style=""margin:0 auto; width: 20vw; top: 8vh; font-size: 2vw""> 
            <font color=""green""> Bonus : $0.7 </font>
            </div>
        </div>
    
            <div> Please press any button to continue to the next trial.</div>
        ", ,ITI,,,,,,,,4
,,,,,,,,,,,,,,,,,,,,4
,,,,,html-keyboard-response,131,212857,0.0-6.15-1.15,null,"
        
        <div style=""text-align: center; position: fixed; top: 5vh; left: 40vw;"">
            <div style=""margin:0 auto; width: 20vw; top: 8vh; font-size: 2vw""> 
            <font color=""green""> Bonus : $0.7 </font>
            </div>
        </div>
    
        <img class=""stim"" src=./stimuli//pack_shapes_diff/cat_2/diff_4/ex_2_4_1.png></img>
    ",null,stimulus,,,,,,,,4
,,,,,,,,,,,,,,,,,,,,4
,,,,,html-keyboard-response,132,213865,0.0-6.15-2.15,null,"
        <div style=""text-align: center; position: fixed; top: 5vh; left: 40vw;"">
            <div style=""margin:0 auto; width: 20vw; top: 8vh; font-size: 2vw""> 
            <font color=""green""> Bonus : $0.7 </font>
            </div>
        </div>
    ",null,,,,,,,,,4
,,,,,,,,,,,,,,,,,,,,4
,,,,,html-keyboard-response,133,214157,0.0-6.15-3.15,290,./stimuli//pack_shapes_diff/cat_2/diff_4/ex_2_4_1.png,arrowright,response,ArrowRight,1,2,4,test,TRUE,,4
,,,,,,,,,,,,,,,,,,,,4
,,,,,html-keyboard-response,134,215663,0.0-6.15-4.15,null,"<p> <font color=""green"" size=""5vw""> Correct category! </font> <br> <br> <font color=""green"" size=""8vw""> + $0.05 </font> </p>",null,feedback,,,,,,,0.75,4
,,,,,,,,,,,,,,,,,,,,4
,,,,,html-keyboard-response,135,216333,0.0-6.16-0.16,670,"
            
        <div style=""text-align: center; position: fixed; top: 5vh; left: 40vw;"">
            <div style=""margin:0 auto; width: 20vw; top: 8vh; font-size: 2vw""> 
            <font color=""green""> Bonus : $0.75 </font>
            </div>
        </div>
    
            <div> Please press any button to continue to the next trial.</div>
        ", ,ITI,,,,,,,,4
,,,,,,,,,,,,,,,,,,,,4
,,,,,html-keyboard-response,136,216945,0.0-6.16-1.16,null,"
        
        <div style=""text-align: center; position: fixed; top: 5vh; left: 40vw;"">
            <div style=""margin:0 auto; width: 20vw; top: 8vh; font-size: 2vw""> 
            <font color=""green""> Bonus : $0.75 </font>
            </div>
        </div>
    
        <img class=""stim"" src=./stimuli//pack_shapes_diff/cat_2/diff_4/ex_2_4_6.png></img>
    ",null,stimulus,,,,,,,,4
,,,,,,,,,,,,,,,,,,,,4
,,,,,html-keyboard-response,137,217955,0.0-6.16-2.16,null,"
        <div style=""text-align: center; position: fixed; top: 5vh; left: 40vw;"">
            <div style=""margin:0 auto; width: 20vw; top: 8vh; font-size: 2vw""> 
            <font color=""green""> Bonus : $0.75 </font>
            </div>
        </div>
    ",null,,,,,,,,,4
,,,,,,,,,,,,,,,,,,,,4
,,,,,html-keyboard-response,138,218284,0.0-6.16-3.16,329,./stimuli//pack_shapes_diff/cat_2/diff_4/ex_2_4_6.png,arrowright,response,ArrowRight,6,2,4,test,TRUE,,4
,,,,,,,,,,,,,,,,,,,,4
,,,,,html-keyboard-response,139,219791,0.0-6.16-4.16,null,"<p> <font color=""green"" size=""5vw""> Correct category! </font> <br> <br> <font color=""green"" size=""8vw""> + $0.05 </font> </p>",null,feedback,,,,,,,0.8,4
,,,,,,,,,,,,,,,,,,,,4
,,,,,html-keyboard-response,140,220333,0.0-6.17-0.17,541,"
            
        <div style=""text-align: center; position: fixed; top: 5vh; left: 40vw;"">
            <div style=""margin:0 auto; width: 20vw; top: 8vh; font-size: 2vw""> 
            <font color=""green""> Bonus : $0.8 </font>
            </div>
        </div>
    
            <div> Please press any button to continue to the next trial.</div>
        ", ,ITI,,,,,,,,4
,,,,,,,,,,,,,,,,,,,,4
,,,,,html-keyboard-response,141,220943,0.0-6.17-1.17,null,"
        
        <div style=""text-align: center; position: fixed; top: 5vh; left: 40vw;"">
            <div style=""margin:0 auto; width: 20vw; top: 8vh; font-size: 2vw""> 
            <font color=""green""> Bonus : $0.8 </font>
            </div>
        </div>
    
        <img class=""stim"" src=./stimuli//pack_shapes_diff/cat_1/diff_4/ex_1_4_15.png></img>
    ",null,stimulus,,,,,,,,4
,,,,,,,,,,,,,,,,,,,,4
,,,,,html-keyboard-response,142,221949,0.0-6.17-2.17,null,"
        <div style=""text-align: center; position: fixed; top: 5vh; left: 40vw;"">
            <div style=""margin:0 auto; width: 20vw; top: 8vh; font-size: 2vw""> 
            <font color=""green""> Bonus : $0.8 </font>
            </div>
        </div>
    ",null,,,,,,,,,4
,,,,,,,,,,,,,,,,,,,,4
,,,,,html-keyboard-response,143,222300,0.0-6.17-3.17,351,./stimuli//pack_shapes_diff/cat_1/diff_4/ex_1_4_15.png,arrowleft,response,ArrowLeft,15,1,4,test,TRUE,,4
,,,,,,,,,,,,,,,,,,,,4
,,,,,html-keyboard-response,144,223807,0.0-6.17-4.17,null,"<p> <font color=""green"" size=""5vw""> Correct category! </font> <br> <br> <font color=""green"" size=""8vw""> + $0.05 </font> </p>",null,feedback,,,,,,,0.85,4
,,,,,,,,,,,,,,,,,,,,4
,,,,,html-keyboard-response,145,224380,0.0-6.18-0.18,572,"
            
        <div style=""text-align: center; position: fixed; top: 5vh; left: 40vw;"">
            <div style=""margin:0 auto; width: 20vw; top: 8vh; font-size: 2vw""> 
            <font color=""green""> Bonus : $0.85 </font>
            </div>
        </div>
    
            <div> Please press any button to continue to the next trial.</div>
        ", ,ITI,,,,,,,,4
,,,,,,,,,,,,,,,,,,,,4
,,,,,html-keyboard-response,146,224989,0.0-6.18-1.18,null,"
        
        <div style=""text-align: center; position: fixed; top: 5vh; left: 40vw;"">
            <div style=""margin:0 auto; width: 20vw; top: 8vh; font-size: 2vw""> 
            <font color=""green""> Bonus : $0.85 </font>
            </div>
        </div>
    
        <img class=""stim"" src=./stimuli//pack_shapes_diff/cat_1/diff_4/ex_1_4_11.png></img>
    ",null,stimulus,,,,,,,,4
,,,,,,,,,,,,,,,,,,,,4
,,,,,html-keyboard-response,147,225999,0.0-6.18-2.18,null,"
        <div style=""text-align: center; position: fixed; top: 5vh; left: 40vw;"">
            <div style=""margin:0 auto; width: 20vw; top: 8vh; font-size: 2vw""> 
            <font color=""green""> Bonus : $0.85 </font>
            </div>
        </div>
    ",null,,,,,,,,,4
,,,,,,,,,,,,,,,,,,,,4
,,,,,html-keyboard-response,148,226306,0.0-6.18-3.18,306,./stimuli//pack_shapes_diff/cat_1/diff_4/ex_1_4_11.png,arrowleft,response,ArrowLeft,11,1,4,test,TRUE,,4
,,,,,,,,,,,,,,,,,,,,4
,,,,,html-keyboard-response,149,227818,0.0-6.18-4.18,null,"<p> <font color=""green"" size=""5vw""> Correct category! </font> <br> <br> <font color=""green"" size=""8vw""> + $0.05 </font> </p>",null,feedback,,,,,,,0.9,4
,,,,,,,,,,,,,,,,,,,,4
,,,,,html-keyboard-response,150,228500,0.0-6.19-0.19,682,"
            
        <div style=""text-align: center; position: fixed; top: 5vh; left: 40vw;"">
            <div style=""margin:0 auto; width: 20vw; top: 8vh; font-size: 2vw""> 
            <font color=""green""> Bonus : $0.9 </font>
            </div>
        </div>
    
            <div> Please press any button to continue to the next trial.</div>
        ", ,ITI,,,,,,,,4
,,,,,,,,,,,,,,,,,,,,4
,,,,,html-keyboard-response,151,229111,0.0-6.19-1.19,null,"
        
        <div style=""text-align: center; position: fixed; top: 5vh; left: 40vw;"">
            <div style=""margin:0 auto; width: 20vw; top: 8vh; font-size: 2vw""> 
            <font color=""green""> Bonus : $0.9 </font>
            </div>
        </div>
    
        <img class=""stim"" src=./stimuli//pack_shapes_diff/cat_1/diff_4/ex_1_4_16.png></img>
    ",null,stimulus,,,,,,,,4
,,,,,,,,,,,,,,,,,,,,4
,,,,,html-keyboard-response,152,230121,0.0-6.19-2.19,null,"
        <div style=""text-align: center; position: fixed; top: 5vh; left: 40vw;"">
            <div style=""margin:0 auto; width: 20vw; top: 8vh; font-size: 2vw""> 
            <font color=""green""> Bonus : $0.9 </font>
            </div>
        </div>
    ",null,,,,,,,,,4
,,,,,,,,,,,,,,,,,,,,4
,,,,,html-keyboard-response,153,230445,0.0-6.19-3.19,322,./stimuli//pack_shapes_diff/cat_1/diff_4/ex_1_4_16.png,arrowleft,response,ArrowLeft,16,1,4,test,TRUE,,4
,,,,,,,,,,,,,,,,,,,,4
,,,,,html-keyboard-response,154,231950,0.0-6.19-4.19,null,"<p> <font color=""green"" size=""5vw""> Correct category! </font> <br> <br> <font color=""green"" size=""8vw""> + $0.05 </font> </p>",null,feedback,,,,,,,0.95,4
,,,,,,,,,,,,,,,,,,,,4
,,,,,html-keyboard-response,155,232574,0.0-6.20-0.20,623,"
            
        <div style=""text-align: center; position: fixed; top: 5vh; left: 40vw;"">
            <div style=""margin:0 auto; width: 20vw; top: 8vh; font-size: 2vw""> 
            <font color=""green""> Bonus : $0.95 </font>
            </div>
        </div>
    
            <div> Please press any button to continue to the next trial.</div>
        ", ,ITI,,,,,,,,4
,,,,,,,,,,,,,,,,,,,,4
,,,,,html-keyboard-response,156,233184,0.0-6.20-1.20,null,"
        
        <div style=""text-align: center; position: fixed; top: 5vh; left: 40vw;"">
            <div style=""margin:0 auto; width: 20vw; top: 8vh; font-size: 2vw""> 
            <font color=""green""> Bonus : $0.95 </font>
            </div>
        </div>
    
        <img class=""stim"" src=./stimuli//pack_shapes_diff/cat_2/diff_5/ex_2_5_12.png></img>
    ",null,stimulus,,,,,,,,4
,,,,,,,,,,,,,,,,,,,,4
,,,,,html-keyboard-response,157,234192,0.0-6.20-2.20,null,"
        <div style=""text-align: center; position: fixed; top: 5vh; left: 40vw;"">
            <div style=""margin:0 auto; width: 20vw; top: 8vh; font-size: 2vw""> 
            <font color=""green""> Bonus : $0.95 </font>
            </div>
        </div>
    ",null,,,,,,,,,4
,,,,,,,,,,,,,,,,,,,,4
,,,,,html-keyboard-response,158,234497,0.0-6.20-3.20,304,./stimuli//pack_shapes_diff/cat_2/diff_5/ex_2_5_12.png,arrowright,response,ArrowRight,12,2,5,test,TRUE,,4
,,,,,,,,,,,,,,,,,,,,4
,,,,,html-keyboard-response,159,236008,0.0-6.20-4.20,null,"<p> <font color=""green"" size=""5vw""> Correct category! </font> <br> <br> <font color=""green"" size=""8vw""> + $0.05 </font> </p>",null,feedback,,,,,,,1,4
,,,,,,,,,,,,,,,,,,,,4
,,,,,html-keyboard-response,160,236578,0.0-6.21-0.21,569,"
            
        <div style=""text-align: center; position: fixed; top: 5vh; left: 40vw;"">
            <div style=""margin:0 auto; width: 20vw; top: 8vh; font-size: 2vw""> 
            <font color=""green""> Bonus : $1 </font>
            </div>
        </div>
    
            <div> Please press any button to continue to the next trial.</div>
        ", ,ITI,,,,,,,,4
,,,,,,,,,,,,,,,,,,,,4
,,,,,html-keyboard-response,161,237196,0.0-6.21-1.21,null,"
        
        <div style=""text-align: center; position: fixed; top: 5vh; left: 40vw;"">
            <div style=""margin:0 auto; width: 20vw; top: 8vh; font-size: 2vw""> 
            <font color=""green""> Bonus : $1 </font>
            </div>
        </div>
    
        <img class=""stim"" src=./stimuli//pack_shapes_diff/cat_1/diff_5/ex_1_5_3.png></img>
    ",null,stimulus,,,,,,,,4
,,,,,,,,,,,,,,,,,,,,4
,,,,,html-keyboard-response,162,238208,0.0-6.21-2.21,null,"
        <div style=""text-align: center; position: fixed; top: 5vh; left: 40vw;"">
            <div style=""margin:0 auto; width: 20vw; top: 8vh; font-size: 2vw""> 
            <font color=""green""> Bonus : $1 </font>
            </div>
        </div>
    ",null,,,,,,,,,4
,,,,,,,,,,,,,,,,,,,,4
,,,,,html-keyboard-response,163,238539,0.0-6.21-3.21,330,./stimuli//pack_shapes_diff/cat_1/diff_5/ex_1_5_3.png,arrowleft,response,ArrowLeft,3,1,5,test,TRUE,,4
,,,,,,,,,,,,,,,,,,,,4
,,,,,html-keyboard-response,164,240051,0.0-6.21-4.21,null,"<p> <font color=""green"" size=""5vw""> Correct category! </font> <br> <br> <font color=""green"" size=""8vw""> + $0.05 </font> </p>",null,feedback,,,,,,,1.05,4
,,,,,,,,,,,,,,,,,,,,4
,,,,,html-keyboard-response,165,240668,0.0-6.22-0.22,616,"
            
        <div style=""text-align: center; position: fixed; top: 5vh; left: 40vw;"">
            <div style=""margin:0 auto; width: 20vw; top: 8vh; font-size: 2vw""> 
            <font color=""green""> Bonus : $1.05 </font>
            </div>
        </div>
    
            <div> Please press any button to continue to the next trial.</div>
        ", ,ITI,,,,,,,,4
,,,,,,,,,,,,,,,,,,,,4
,,,,,html-keyboard-response,166,241279,0.0-6.22-1.22,null,"
        
        <div style=""text-align: center; position: fixed; top: 5vh; left: 40vw;"">
            <div style=""margin:0 auto; width: 20vw; top: 8vh; font-size: 2vw""> 
            <font color=""green""> Bonus : $1.05 </font>
            </div>
        </div>
    
        <img class=""stim"" src=./stimuli//pack_shapes_diff/cat_2/diff_5/ex_2_5_1.png></img>
    ",null,stimulus,,,,,,,,4
,,,,,,,,,,,,,,,,,,,,4
,,,,,html-keyboard-response,167,242288,0.0-6.22-2.22,null,"
        <div style=""text-align: center; position: fixed; top: 5vh; left: 40vw;"">
            <div style=""margin:0 auto; width: 20vw; top: 8vh; font-size: 2vw""> 
            <font color=""green""> Bonus : $1.05 </font>
            </div>
        </div>
    ",null,,,,,,,,,4
,,,,,,,,,,,,,,,,,,,,4
,,,,,html-keyboard-response,168,242657,0.0-6.22-3.22,369,./stimuli//pack_shapes_diff/cat_2/diff_5/ex_2_5_1.png,arrowright,response,ArrowRight,1,2,5,test,TRUE,,4
,,,,,,,,,,,,,,,,,,,,4
,,,,,html-keyboard-response,169,244164,0.0-6.22-4.22,null,"<p> <font color=""green"" size=""5vw""> Correct category! </font> <br> <br> <font color=""green"" size=""8vw""> + $0.05 </font> </p>",null,feedback,,,,,,,1.1,4
,,,,,,,,,,,,,,,,,,,,4
,,,,,html-keyboard-response,170,244699,0.0-6.23-0.23,534,"
            
        <div style=""text-align: center; position: fixed; top: 5vh; left: 40vw;"">
            <div style=""margin:0 auto; width: 20vw; top: 8vh; font-size: 2vw""> 
            <font color=""green""> Bonus : $1.1 </font>
            </div>
        </div>
    
            <div> Please press any button to continue to the next trial.</div>
        ", ,ITI,,,,,,,,4
,,,,,,,,,,,,,,,,,,,,4
,,,,,html-keyboard-response,171,245309,0.0-6.23-1.23,null,"
        
        <div style=""text-align: center; position: fixed; top: 5vh; left: 40vw;"">
            <div style=""margin:0 auto; width: 20vw; top: 8vh; font-size: 2vw""> 
            <font color=""green""> Bonus : $1.1 </font>
            </div>
        </div>
    
        <img class=""stim"" src=./stimuli//pack_shapes_diff/cat_2/diff_5/ex_2_5_15.png></img>
    ",null,stimulus,,,,,,,,4
,,,,,,,,,,,,,,,,,,,,4
,,,,,html-keyboard-response,172,246319,0.0-6.23-2.23,null,"
        <div style=""text-align: center; position: fixed; top: 5vh; left: 40vw;"">
            <div style=""margin:0 auto; width: 20vw; top: 8vh; font-size: 2vw""> 
            <font color=""green""> Bonus : $1.1 </font>
            </div>
        </div>
    ",null,,,,,,,,,4
,,,,,,,,,,,,,,,,,,,,4
,,,,,html-keyboard-response,173,246937,0.0-6.23-3.23,617,./stimuli//pack_shapes_diff/cat_2/diff_5/ex_2_5_15.png,arrowright,response,ArrowRight,15,2,5,test,TRUE,,4
,,,,,,,,,,,,,,,,,,,,4
,,,,,html-keyboard-response,174,248446,0.0-6.23-4.23,null,"<p> <font color=""green"" size=""5vw""> Correct category! </font> <br> <br> <font color=""green"" size=""8vw""> + $0.05 </font> </p>",null,feedback,,,,,,,1.15,4
,,,,,,,,,,,,,,,,,,,,4
,,,,,html-keyboard-response,175,249244,0.0-6.24-0.24,797,"
            
        <div style=""text-align: center; position: fixed; top: 5vh; left: 40vw;"">
            <div style=""margin:0 auto; width: 20vw; top: 8vh; font-size: 2vw""> 
            <font color=""green""> Bonus : $1.15 </font>
            </div>
        </div>
    
            <div> Please press any button to continue to the next trial.</div>
        ", ,ITI,,,,,,,,4
,,,,,,,,,,,,,,,,,,,,4
,,,,,html-keyboard-response,176,249855,0.0-6.24-1.24,null,"
        
        <div style=""text-align: center; position: fixed; top: 5vh; left: 40vw;"">
            <div style=""margin:0 auto; width: 20vw; top: 8vh; font-size: 2vw""> 
            <font color=""green""> Bonus : $1.15 </font>
            </div>
        </div>
    
        <img class=""stim"" src=./stimuli//pack_shapes_diff/cat_2/diff_5/ex_2_5_12.png></img>
    ",null,stimulus,,,,,,,,4
,,,,,,,,,,,,,,,,,,,,4
,,,,,html-keyboard-response,177,250864,0.0-6.24-2.24,null,"
        <div style=""text-align: center; position: fixed; top: 5vh; left: 40vw;"">
            <div style=""margin:0 auto; width: 20vw; top: 8vh; font-size: 2vw""> 
            <font color=""green""> Bonus : $1.15 </font>
            </div>
        </div>
    ",null,,,,,,,,,4
,,,,,,,,,,,,,,,,,,,,4
,,,,,html-keyboard-response,178,251218,0.0-6.24-3.24,354,./stimuli//pack_shapes_diff/cat_2/diff_5/ex_2_5_12.png,arrowright,response,ArrowRight,12,2,5,test,TRUE,,4
,,,,,,,,,,,,,,,,,,,,4
,,,,,html-keyboard-response,179,252725,0.0-6.24-4.24,null,"<p> <font color=""green"" size=""5vw""> Correct category! </font> <br> <br> <font color=""green"" size=""8vw""> + $0.05 </font> </p>",null,feedback,,,,,,,1.2,4
,,,,,,,,,,,,,,,,,,,,4
,,,,,html-keyboard-response,180,253522,0.0-6.25-0.25,796,"
            
        <div style=""text-align: center; position: fixed; top: 5vh; left: 40vw;"">
            <div style=""margin:0 auto; width: 20vw; top: 8vh; font-size: 2vw""> 
            <font color=""green""> Bonus : $1.2 </font>
            </div>
        </div>
    
            <div> Please press any button to continue to the next trial.</div>
        ", ,ITI,,,,,,,,4
,,,,,,,,,,,,,,,,,,,,4
,,,,,html-keyboard-response,181,254127,0.0-6.25-1.25,null,"
        
        <div style=""text-align: center; position: fixed; top: 5vh; left: 40vw;"">
            <div style=""margin:0 auto; width: 20vw; top: 8vh; font-size: 2vw""> 
            <font color=""green""> Bonus : $1.2 </font>
            </div>
        </div>
    
        <img class=""stim"" src=./stimuli//pack_shapes_diff/cat_2/diff_5/ex_2_5_10.png></img>
    ",null,stimulus,,,,,,,,4
,,,,,,,,,,,,,,,,,,,,4
,,,,,html-keyboard-response,182,255132,0.0-6.25-2.25,null,"
        <div style=""text-align: center; position: fixed; top: 5vh; left: 40vw;"">
            <div style=""margin:0 auto; width: 20vw; top: 8vh; font-size: 2vw""> 
            <font color=""green""> Bonus : $1.2 </font>
            </div>
        </div>
    ",null,,,,,,,,,4
,,,,,,,,,,,,,,,,,,,,4
,,,,,html-keyboard-response,183,255705,0.0-6.25-3.25,573,./stimuli//pack_shapes_diff/cat_2/diff_5/ex_2_5_10.png,arrowright,response,ArrowRight,10,2,5,test,TRUE,,4
,,,,,,,,,,,,,,,,,,,,4
,,,,,html-keyboard-response,184,257214,0.0-6.25-4.25,null,"<p> <font color=""green"" size=""5vw""> Correct category! </font> <br> <br> <font color=""green"" size=""8vw""> + $0.05 </font> </p>",null,feedback,,,,,,,1.25,4
,,,,,,,,,,,,,,,,,,,,4
,,,,,html-keyboard-response,185,257733,0.0-6.26-0.26,518,"
            
        <div style=""text-align: center; position: fixed; top: 5vh; left: 40vw;"">
            <div style=""margin:0 auto; width: 20vw; top: 8vh; font-size: 2vw""> 
            <font color=""green""> Bonus : $1.25 </font>
            </div>
        </div>
    
            <div> Please press any button to continue to the next trial.</div>
        ", ,ITI,,,,,,,,4
,,,,,,,,,,,,,,,,,,,,4
,,,,,html-keyboard-response,186,258345,0.0-6.26-1.26,null,"
        
        <div style=""text-align: center; position: fixed; top: 5vh; left: 40vw;"">
            <div style=""margin:0 auto; width: 20vw; top: 8vh; font-size: 2vw""> 
            <font color=""green""> Bonus : $1.25 </font>
            </div>
        </div>
    
        <img class=""stim"" src=./stimuli//pack_shapes_diff/cat_1/diff_5/ex_1_5_6.png></img>
    ",null,stimulus,,,,,,,,4
,,,,,,,,,,,,,,,,,,,,4
,,,,,html-keyboard-response,187,259349,0.0-6.26-2.26,null,"
        <div style=""text-align: center; position: fixed; top: 5vh; left: 40vw;"">
            <div style=""margin:0 auto; width: 20vw; top: 8vh; font-size: 2vw""> 
            <font color=""green""> Bonus : $1.25 </font>
            </div>
        </div>
    ",null,,,,,,,,,4
,,,,,,,,,,,,,,,,,,,,4
,,,,,html-keyboard-response,188,259734,0.0-6.26-3.26,385,./stimuli//pack_shapes_diff/cat_1/diff_5/ex_1_5_6.png,arrowright,response,ArrowLeft,6,1,5,test,FALSE,,4
,,,,,,,,,,,,,,,,,,,,4
,,,,,html-keyboard-response,189,261243,0.0-6.26-4.26,null,"<p> <font color=""red"" size=""5vw""> Wrong category! </font> </p>",null,feedback,,,,,,,1.25,4
,,,,,,,,,,,,,,,,,,,,4
,,,,,html-keyboard-response,190,261938,0.0-6.27-0.27,695,"
            
        <div style=""text-align: center; position: fixed; top: 5vh; left: 40vw;"">
            <div style=""margin:0 auto; width: 20vw; top: 8vh; font-size: 2vw""> 
            <font color=""green""> Bonus : $1.25 </font>
            </div>
        </div>
    
            <div> Please press any button to continue to the next trial.</div>
        ", ,ITI,,,,,,,,4
,,,,,,,,,,,,,,,,,,,,4
,,,,,html-keyboard-response,191,262553,0.0-6.27-1.27,null,"
        
        <div style=""text-align: center; position: fixed; top: 5vh; left: 40vw;"">
            <div style=""margin:0 auto; width: 20vw; top: 8vh; font-size: 2vw""> 
            <font color=""green""> Bonus : $1.25 </font>
            </div>
        </div>
    
        <img class=""stim"" src=./stimuli//pack_shapes_diff/cat_1/diff_5/ex_1_5_10.png></img>
    ",null,stimulus,,,,,,,,4
,,,,,,,,,,,,,,,,,,,,4
,,,,,html-keyboard-response,192,263558,0.0-6.27-2.27,null,"
        <div style=""text-align: center; position: fixed; top: 5vh; left: 40vw;"">
            <div style=""margin:0 auto; width: 20vw; top: 8vh; font-size: 2vw""> 
            <font color=""green""> Bonus : $1.25 </font>
            </div>
        </div>
    ",null,,,,,,,,,4
,,,,,,,,,,,,,,,,,,,,4
,,,,,html-keyboard-response,193,263947,0.0-6.27-3.27,388,./stimuli//pack_shapes_diff/cat_1/diff_5/ex_1_5_10.png,arrowright,response,ArrowLeft,10,1,5,test,FALSE,,4
,,,,,,,,,,,,,,,,,,,,4
,,,,,html-keyboard-response,194,265455,0.0-6.27-4.27,null,"<p> <font color=""red"" size=""5vw""> Wrong category! </font> </p>",null,feedback,,,,,,,1.25,4
,,,,,,,,,,,,,,,,,,,,4
,,,,,html-keyboard-response,195,266089,0.0-6.28-0.28,633,"
            
        <div style=""text-align: center; position: fixed; top: 5vh; left: 40vw;"">
            <div style=""margin:0 auto; width: 20vw; top: 8vh; font-size: 2vw""> 
            <font color=""green""> Bonus : $1.25 </font>
            </div>
        </div>
    
            <div> Please press any button to continue to the next trial.</div>
        ", ,ITI,,,,,,,,4
,,,,,,,,,,,,,,,,,,,,4
,,,,,html-keyboard-response,196,266696,0.0-6.28-1.28,null,"
        
        <div style=""text-align: center; position: fixed; top: 5vh; left: 40vw;"">
            <div style=""margin:0 auto; width: 20vw; top: 8vh; font-size: 2vw""> 
            <font color=""green""> Bonus : $1.25 </font>
            </div>
        </div>
    
        <img class=""stim"" src=./stimuli//pack_shapes_diff/cat_1/diff_4/ex_1_4_3.png></img>
    ",null,stimulus,,,,,,,,4
,,,,,,,,,,,,,,,,,,,,4
,,,,,html-keyboard-response,197,267703,0.0-6.28-2.28,null,"
        <div style=""text-align: center; position: fixed; top: 5vh; left: 40vw;"">
            <div style=""margin:0 auto; width: 20vw; top: 8vh; font-size: 2vw""> 
            <font color=""green""> Bonus : $1.25 </font>
            </div>
        </div>
    ",null,,,,,,,,,4
,,,,,,,,,,,,,,,,,,,,4
,,,,,html-keyboard-response,198,268052,0.0-6.28-3.28,348,./stimuli//pack_shapes_diff/cat_1/diff_4/ex_1_4_3.png,arrowleft,response,ArrowLeft,3,1,4,test,TRUE,,4
,,,,,,,,,,,,,,,,,,,,4
,,,,,html-keyboard-response,199,269560,0.0-6.28-4.28,null,"<p> <font color=""green"" size=""5vw""> Correct category! </font> <br> <br> <font color=""green"" size=""8vw""> + $0.05 </font> </p>",null,feedback,,,,,,,1.3,4
,,,,,,,,,,,,,,,,,,,,4
,,,,,html-keyboard-response,200,270489,0.0-6.29-0.29,928,"
            
        <div style=""text-align: center; position: fixed; top: 5vh; left: 40vw;"">
            <div style=""margin:0 auto; width: 20vw; top: 8vh; font-size: 2vw""> 
            <font color=""green""> Bonus : $1.3 </font>
            </div>
        </div>
    
            <div> Please press any button to continue to the next trial.</div>
        ", ,ITI,,,,,,,,4
,,,,,,,,,,,,,,,,,,,,4
,,,,,html-keyboard-response,201,271103,0.0-6.29-1.29,null,"
        
        <div style=""text-align: center; position: fixed; top: 5vh; left: 40vw;"">
            <div style=""margin:0 auto; width: 20vw; top: 8vh; font-size: 2vw""> 
            <font color=""green""> Bonus : $1.3 </font>
            </div>
        </div>
    
        <img class=""stim"" src=./stimuli//pack_shapes_diff/cat_1/diff_4/ex_1_4_3.png></img>
    ",null,stimulus,,,,,,,,4
,,,,,,,,,,,,,,,,,,,,4
,,,,,html-keyboard-response,202,272112,0.0-6.29-2.29,null,"
        <div style=""text-align: center; position: fixed; top: 5vh; left: 40vw;"">
            <div style=""margin:0 auto; width: 20vw; top: 8vh; font-size: 2vw""> 
            <font color=""green""> Bonus : $1.3 </font>
            </div>
        </div>
    ",null,,,,,,,,,4
,,,,,,,,,,,,,,,,,,,,4
,,,,,html-keyboard-response,203,272483,0.0-6.29-3.29,370,./stimuli//pack_shapes_diff/cat_1/diff_4/ex_1_4_3.png,arrowleft,response,ArrowLeft,3,1,4,test,TRUE,,4
,,,,,,,,,,,,,,,,,,,,4
,,,,,html-keyboard-response,204,273988,0.0-6.29-4.29,null,"<p> <font color=""green"" size=""5vw""> Correct category! </font> <br> <br> <font color=""green"" size=""8vw""> + $0.05 </font> </p>",null,feedback,,,,,,,1.35,4
,,,,,,,,,,,,,,,,,,,,4
,,,,,html-keyboard-response,205,274697,0.0-6.30-0.30,709,"
            
        <div style=""text-align: center; position: fixed; top: 5vh; left: 40vw;"">
            <div style=""margin:0 auto; width: 20vw; top: 8vh; font-size: 2vw""> 
            <font color=""green""> Bonus : $1.35 </font>
            </div>
        </div>
    
            <div> Please press any button to continue to the next trial.</div>
        ", ,ITI,,,,,,,,4
,,,,,,,,,,,,,,,,,,,,4
,,,,,html-keyboard-response,206,275300,0.0-6.30-1.30,null,"
        
        <div style=""text-align: center; position: fixed; top: 5vh; left: 40vw;"">
            <div style=""margin:0 auto; width: 20vw; top: 8vh; font-size: 2vw""> 
            <font color=""green""> Bonus : $1.35 </font>
            </div>
        </div>
    
        <img class=""stim"" src=./stimuli//pack_shapes_diff/cat_2/diff_4/ex_2_4_9.png></img>
    ",null,stimulus,,,,,,,,4
,,,,,,,,,,,,,,,,,,,,4
,,,,,html-keyboard-response,207,276301,0.0-6.30-2.30,null,"
        <div style=""text-align: center; position: fixed; top: 5vh; left: 40vw;"">
            <div style=""margin:0 auto; width: 20vw; top: 8vh; font-size: 2vw""> 
            <font color=""green""> Bonus : $1.35 </font>
            </div>
        </div>
    ",null,,,,,,,,,4
,,,,,,,,,,,,,,,,,,,,4
,,,,,html-keyboard-response,208,276691,0.0-6.30-3.30,389,./stimuli//pack_shapes_diff/cat_2/diff_4/ex_2_4_9.png,arrowright,response,ArrowRight,9,2,4,test,TRUE,,4
,,,,,,,,,,,,,,,,,,,,4
,,,,,html-keyboard-response,209,278200,0.0-6.30-4.30,null,"<p> <font color=""green"" size=""5vw""> Correct category! </font> <br> <br> <font color=""green"" size=""8vw""> + $0.05 </font> </p>",null,feedback,,,,,,,1.4,4
,,,,,,,,,,,,,,,,,,,,4
,,,,,html-keyboard-response,210,278641,0.0-6.31-0.31,441,"
            
        <div style=""text-align: center; position: fixed; top: 5vh; left: 40vw;"">
            <div style=""margin:0 auto; width: 20vw; top: 8vh; font-size: 2vw""> 
            <font color=""green""> Bonus : $1.4 </font>
            </div>
        </div>
    
            <div> Please press any button to continue to the next trial.</div>
        ", ,ITI,,,,,,,,4
,,,,,,,,,,,,,,,,,,,,4
,,,,,html-keyboard-response,211,279246,0.0-6.31-1.31,null,"
        
        <div style=""text-align: center; position: fixed; top: 5vh; left: 40vw;"">
            <div style=""margin:0 auto; width: 20vw; top: 8vh; font-size: 2vw""> 
            <font color=""green""> Bonus : $1.4 </font>
            </div>
        </div>
    
        <img class=""stim"" src=./stimuli//pack_shapes_diff/cat_1/diff_4/ex_1_4_11.png></img>
    ",null,stimulus,,,,,,,,4
,,,,,,,,,,,,,,,,,,,,4
,,,,,html-keyboard-response,212,280253,0.0-6.31-2.31,null,"
        <div style=""text-align: center; position: fixed; top: 5vh; left: 40vw;"">
            <div style=""margin:0 auto; width: 20vw; top: 8vh; font-size: 2vw""> 
            <font color=""green""> Bonus : $1.4 </font>
            </div>
        </div>
    ",null,,,,,,,,,4
,,,,,,,,,,,,,,,,,,,,4
,,,,,html-keyboard-response,213,280589,0.0-6.31-3.31,335,./stimuli//pack_shapes_diff/cat_1/diff_4/ex_1_4_11.png,arrowleft,response,ArrowLeft,11,1,4,test,TRUE,,4
,,,,,,,,,,,,,,,,,,,,4
,,,,,html-keyboard-response,214,281824,0.0-6.31-4.31,1232,"<p> <font color=""green"" size=""5vw""> Correct category! </font> <br> <br> <font color=""green"" size=""8vw""> + $0.05 </font> </p>", ,feedback,,,,,,,1.45,4
,,,,,,,,,,,,,,,,,,,,4
,,,,,html-keyboard-response,215,282354,0.0-6.32-0.32,529,"
            
        <div style=""text-align: center; position: fixed; top: 5vh; left: 40vw;"">
            <div style=""margin:0 auto; width: 20vw; top: 8vh; font-size: 2vw""> 
            <font color=""green""> Bonus : $1.45 </font>
            </div>
        </div>
    
            <div> Please press any button to continue to the next trial.</div>
        ", ,ITI,,,,,,,,4
,,,,,,,,,,,,,,,,,,,,4
,,,,,html-keyboard-response,216,282968,0.0-6.32-1.32,null,"
        
        <div style=""text-align: center; position: fixed; top: 5vh; left: 40vw;"">
            <div style=""margin:0 auto; width: 20vw; top: 8vh; font-size: 2vw""> 
            <font color=""green""> Bonus : $1.45 </font>
            </div>
        </div>
    
        <img class=""stim"" src=./stimuli//pack_shapes_diff/cat_2/diff_4/ex_2_4_17.png></img>
    ",null,stimulus,,,,,,,,4
,,,,,,,,,,,,,,,,,,,,4
,,,,,html-keyboard-response,217,283972,0.0-6.32-2.32,null,"
        <div style=""text-align: center; position: fixed; top: 5vh; left: 40vw;"">
            <div style=""margin:0 auto; width: 20vw; top: 8vh; font-size: 2vw""> 
            <font color=""green""> Bonus : $1.45 </font>
            </div>
        </div>
    ",null,,,,,,,,,4
,,,,,,,,,,,,,,,,,,,,4
,,,,,html-keyboard-response,218,284321,0.0-6.32-3.32,349,./stimuli//pack_shapes_diff/cat_2/diff_4/ex_2_4_17.png,arrowright,response,ArrowRight,17,2,4,test,TRUE,,4
,,,,,,,,,,,,,,,,,,,,4
,,,,,html-keyboard-response,219,285838,0.0-6.32-4.32,null,"<p> <font color=""green"" size=""5vw""> Correct category! </font> <br> <br> <font color=""green"" size=""8vw""> + $0.05 </font> </p>",null,feedback,,,,,,,1.5,4
,,,,,,,,,,,,,,,,,,,,4
,,,,,html-keyboard-response,220,286561,0.0-6.33-0.33,722,"
            
        <div style=""text-align: center; position: fixed; top: 5vh; left: 40vw;"">
            <div style=""margin:0 auto; width: 20vw; top: 8vh; font-size: 2vw""> 
            <font color=""green""> Bonus : $1.5 </font>
            </div>
        </div>
    
            <div> Please press any button to continue to the next trial.</div>
        ", ,ITI,,,,,,,,4
,,,,,,,,,,,,,,,,,,,,4
,,,,,html-keyboard-response,221,287165,0.0-6.33-1.33,null,"
        
        <div style=""text-align: center; position: fixed; top: 5vh; left: 40vw;"">
            <div style=""margin:0 auto; width: 20vw; top: 8vh; font-size: 2vw""> 
            <font color=""green""> Bonus : $1.5 </font>
            </div>
        </div>
    
        <img class=""stim"" src=./stimuli//pack_shapes_diff/cat_2/diff_5/ex_2_5_7.png></img>
    ",null,stimulus,,,,,,,,4
,,,,,,,,,,,,,,,,,,,,4
,,,,,html-keyboard-response,222,288175,0.0-6.33-2.33,null,"
        <div style=""text-align: center; position: fixed; top: 5vh; left: 40vw;"">
            <div style=""margin:0 auto; width: 20vw; top: 8vh; font-size: 2vw""> 
            <font color=""green""> Bonus : $1.5 </font>
            </div>
        </div>
    ",null,,,,,,,,,4
,,,,,,,,,,,,,,,,,,,,4
,,,,,html-keyboard-response,223,288529,0.0-6.33-3.33,354,./stimuli//pack_shapes_diff/cat_2/diff_5/ex_2_5_7.png,arrowright,response,ArrowRight,7,2,5,test,TRUE,,4
,,,,,,,,,,,,,,,,,,,,4
,,,,,html-keyboard-response,224,290040,0.0-6.33-4.33,null,"<p> <font color=""green"" size=""5vw""> Correct category! </font> <br> <br> <font color=""green"" size=""8vw""> + $0.05 </font> </p>",null,feedback,,,,,,,1.55,4
,,,,,,,,,,,,,,,,,,,,4
,,,,,html-keyboard-response,225,290625,0.0-6.34-0.34,584,"
            
        <div style=""text-align: center; position: fixed; top: 5vh; left: 40vw;"">
            <div style=""margin:0 auto; width: 20vw; top: 8vh; font-size: 2vw""> 
            <font color=""green""> Bonus : $1.55 </font>
            </div>
        </div>
    
            <div> Please press any button to continue to the next trial.</div>
        ", ,ITI,,,,,,,,4
,,,,,,,,,,,,,,,,,,,,4
,,,,,html-keyboard-response,226,291230,0.0-6.34-1.34,null,"
        
        <div style=""text-align: center; position: fixed; top: 5vh; left: 40vw;"">
            <div style=""margin:0 auto; width: 20vw; top: 8vh; font-size: 2vw""> 
            <font color=""green""> Bonus : $1.55 </font>
            </div>
        </div>
    
        <img class=""stim"" src=./stimuli//pack_shapes_diff/cat_2/diff_5/ex_2_5_16.png></img>
    ",null,stimulus,,,,,,,,4
,,,,,,,,,,,,,,,,,,,,4
,,,,,html-keyboard-response,227,292239,0.0-6.34-2.34,null,"
        <div style=""text-align: center; position: fixed; top: 5vh; left: 40vw;"">
            <div style=""margin:0 auto; width: 20vw; top: 8vh; font-size: 2vw""> 
            <font color=""green""> Bonus : $1.55 </font>
            </div>
        </div>
    ",null,,,,,,,,,4
,,,,,,,,,,,,,,,,,,,,4
,,,,,html-keyboard-response,228,292602,0.0-6.34-3.34,362,./stimuli//pack_shapes_diff/cat_2/diff_5/ex_2_5_16.png,arrowright,response,ArrowRight,16,2,5,test,TRUE,,4
,,,,,,,,,,,,,,,,,,,,4
,,,,,html-keyboard-response,229,294110,0.0-6.34-4.34,null,"<p> <font color=""green"" size=""5vw""> Correct category! </font> <br> <br> <font color=""green"" size=""8vw""> + $0.05 </font> </p>",null,feedback,,,,,,,1.6,4
,,,,,,,,,,,,,,,,,,,,4
,,,,,html-keyboard-response,230,294529,0.0-6.35-0.35,417,"
            
        <div style=""text-align: center; position: fixed; top: 5vh; left: 40vw;"">
            <div style=""margin:0 auto; width: 20vw; top: 8vh; font-size: 2vw""> 
            <font color=""green""> Bonus : $1.6 </font>
            </div>
        </div>
    
            <div> Please press any button to continue to the next trial.</div>
        ", ,ITI,,,,,,,,4
,,,,,,,,,,,,,,,,,,,,4
,,,,,html-keyboard-response,231,295135,0.0-6.35-1.35,null,"
        
        <div style=""text-align: center; position: fixed; top: 5vh; left: 40vw;"">
            <div style=""margin:0 auto; width: 20vw; top: 8vh; font-size: 2vw""> 
            <font color=""green""> Bonus : $1.6 </font>
            </div>
        </div>
    
        <img class=""stim"" src=./stimuli//pack_shapes_diff/cat_1/diff_5/ex_1_5_15.png></img>
    ",null,stimulus,,,,,,,,4
,,,,,,,,,,,,,,,,,,,,4
,,,,,html-keyboard-response,232,296183,0.0-6.35-2.35,null,"
        <div style=""text-align: center; position: fixed; top: 5vh; left: 40vw;"">
            <div style=""margin:0 auto; width: 20vw; top: 8vh; font-size: 2vw""> 
            <font color=""green""> Bonus : $1.6 </font>
            </div>
        </div>
    ",null,,,,,,,,,4
,,,,,,,,,,,,,,,,,,,,4
,,,,,html-keyboard-response,233,296706,0.0-6.35-3.35,522,./stimuli//pack_shapes_diff/cat_1/diff_5/ex_1_5_15.png,arrowleft,response,ArrowLeft,15,1,5,test,TRUE,,4
,,,,,,,,,,,,,,,,,,,,4
,,,,,html-keyboard-response,234,298215,0.0-6.35-4.35,null,"<p> <font color=""green"" size=""5vw""> Correct category! </font> <br> <br> <font color=""green"" size=""8vw""> + $0.05 </font> </p>",null,feedback,,,,,,,1.65,4
,,,,,,,,,,,,,,,,,,,,4
,,,,,html-keyboard-response,235,298839,0.0-6.36-0.36,623,"
            
        <div style=""text-align: center; position: fixed; top: 5vh; left: 40vw;"">
            <div style=""margin:0 auto; width: 20vw; top: 8vh; font-size: 2vw""> 
            <font color=""green""> Bonus : $1.65 </font>
            </div>
        </div>
    
            <div> Please press any button to continue to the next trial.</div>
        ", ,ITI,,,,,,,,4
,,,,,,,,,,,,,,,,,,,,4
,,,,,html-keyboard-response,236,299444,0.0-6.36-1.36,null,"
        
        <div style=""text-align: center; position: fixed; top: 5vh; left: 40vw;"">
            <div style=""margin:0 auto; width: 20vw; top: 8vh; font-size: 2vw""> 
            <font color=""green""> Bonus : $1.65 </font>
            </div>
        </div>
    
        <img class=""stim"" src=./stimuli//pack_shapes_diff/cat_1/diff_5/ex_1_5_2.png></img>
    ",null,stimulus,,,,,,,,4
,,,,,,,,,,,,,,,,,,,,4
,,,,,html-keyboard-response,237,300455,0.0-6.36-2.36,null,"
        <div style=""text-align: center; position: fixed; top: 5vh; left: 40vw;"">
            <div style=""margin:0 auto; width: 20vw; top: 8vh; font-size: 2vw""> 
            <font color=""green""> Bonus : $1.65 </font>
            </div>
        </div>
    ",null,,,,,,,,,4
,,,,,,,,,,,,,,,,,,,,4
,,,,,html-keyboard-response,238,300772,0.0-6.36-3.36,316,./stimuli//pack_shapes_diff/cat_1/diff_5/ex_1_5_2.png,arrowright,response,ArrowLeft,2,1,5,test,FALSE,,4
,,,,,,,,,,,,,,,,,,,,4
,,,,,html-keyboard-response,239,302281,0.0-6.36-4.36,null,"<p> <font color=""red"" size=""5vw""> Wrong category! </font> </p>",null,feedback,,,,,,,1.65,4
,,,,,,,,,,,,,,,,,,,,4
,,,,,html-keyboard-response,240,302721,0.0-6.37-0.37,438,"
            
        <div style=""text-align: center; position: fixed; top: 5vh; left: 40vw;"">
            <div style=""margin:0 auto; width: 20vw; top: 8vh; font-size: 2vw""> 
            <font color=""green""> Bonus : $1.65 </font>
            </div>
        </div>
    
            <div> Please press any button to continue to the next trial.</div>
        ", ,ITI,,,,,,,,4
,,,,,,,,,,,,,,,,,,,,4
,,,,,html-keyboard-response,241,303328,0.0-6.37-1.37,null,"
        
        <div style=""text-align: center; position: fixed; top: 5vh; left: 40vw;"">
            <div style=""margin:0 auto; width: 20vw; top: 8vh; font-size: 2vw""> 
            <font color=""green""> Bonus : $1.65 </font>
            </div>
        </div>
    
        <img class=""stim"" src=./stimuli//pack_shapes_diff/cat_2/diff_5/ex_2_5_15.png></img>
    ",null,stimulus,,,,,,,,4
,,,,,,,,,,,,,,,,,,,,4
,,,,,html-keyboard-response,242,304332,0.0-6.37-2.37,null,"
        <div style=""text-align: center; position: fixed; top: 5vh; left: 40vw;"">
            <div style=""margin:0 auto; width: 20vw; top: 8vh; font-size: 2vw""> 
            <font color=""green""> Bonus : $1.65 </font>
            </div>
        </div>
    ",null,,,,,,,,,4
,,,,,,,,,,,,,,,,,,,,4
,,,,,html-keyboard-response,243,304777,0.0-6.37-3.37,444,./stimuli//pack_shapes_diff/cat_2/diff_5/ex_2_5_15.png,arrowright,response,ArrowRight,15,2,5,test,TRUE,,4
,,,,,,,,,,,,,,,,,,,,4
,,,,,html-keyboard-response,244,306283,0.0-6.37-4.37,null,"<p> <font color=""green"" size=""5vw""> Correct category! </font> <br> <br> <font color=""green"" size=""8vw""> + $0.05 </font> </p>",null,feedback,,,,,,,1.7,4
,,,,,,,,,,,,,,,,,,,,4
,,,,,html-keyboard-response,245,306909,0.0-6.38-0.38,625,"
            
        <div style=""text-align: center; position: fixed; top: 5vh; left: 40vw;"">
            <div style=""margin:0 auto; width: 20vw; top: 8vh; font-size: 2vw""> 
            <font color=""green""> Bonus : $1.7 </font>
            </div>
        </div>
    
            <div> Please press any button to continue to the next trial.</div>
        ", ,ITI,,,,,,,,4
,,,,,,,,,,,,,,,,,,,,4
,,,,,html-keyboard-response,246,307520,0.0-6.38-1.38,null,"
        
        <div style=""text-align: center; position: fixed; top: 5vh; left: 40vw;"">
            <div style=""margin:0 auto; width: 20vw; top: 8vh; font-size: 2vw""> 
            <font color=""green""> Bonus : $1.7 </font>
            </div>
        </div>
    
        <img class=""stim"" src=./stimuli//pack_shapes_diff/cat_1/diff_5/ex_1_5_6.png></img>
    ",null,stimulus,,,,,,,,4
,,,,,,,,,,,,,,,,,,,,4
,,,,,html-keyboard-response,247,308527,0.0-6.38-2.38,null,"
        <div style=""text-align: center; position: fixed; top: 5vh; left: 40vw;"">
            <div style=""margin:0 auto; width: 20vw; top: 8vh; font-size: 2vw""> 
            <font color=""green""> Bonus : $1.7 </font>
            </div>
        </div>
    ",null,,,,,,,,,4
,,,,,,,,,,,,,,,,,,,,4
,,,,,html-keyboard-response,248,308856,0.0-6.38-3.38,328,./stimuli//pack_shapes_diff/cat_1/diff_5/ex_1_5_6.png,arrowright,response,ArrowLeft,6,1,5,test,FALSE,,4
,,,,,,,,,,,,,,,,,,,,4
,,,,,html-keyboard-response,249,310370,0.0-6.38-4.38,null,"<p> <font color=""red"" size=""5vw""> Wrong category! </font> </p>",null,feedback,,,,,,,1.7,4
,,,,,,,,,,,,,,,,,,,,4
,,,,,html-keyboard-response,250,310864,0.0-6.39-0.39,494,"
            
        <div style=""text-align: center; position: fixed; top: 5vh; left: 40vw;"">
            <div style=""margin:0 auto; width: 20vw; top: 8vh; font-size: 2vw""> 
            <font color=""green""> Bonus : $1.7 </font>
            </div>
        </div>
    
            <div> Please press any button to continue to the next trial.</div>
        ", ,ITI,,,,,,,,4
,,,,,,,,,,,,,,,,,,,,4
,,,,,html-keyboard-response,251,311472,0.0-6.39-1.39,null,"
        
        <div style=""text-align: center; position: fixed; top: 5vh; left: 40vw;"">
            <div style=""margin:0 auto; width: 20vw; top: 8vh; font-size: 2vw""> 
            <font color=""green""> Bonus : $1.7 </font>
            </div>
        </div>
    
        <img class=""stim"" src=./stimuli//pack_shapes_diff/cat_1/diff_4/ex_1_4_16.png></img>
    ",null,stimulus,,,,,,,,4
,,,,,,,,,,,,,,,,,,,,4
,,,,,html-keyboard-response,252,312479,0.0-6.39-2.39,null,"
        <div style=""text-align: center; position: fixed; top: 5vh; left: 40vw;"">
            <div style=""margin:0 auto; width: 20vw; top: 8vh; font-size: 2vw""> 
            <font color=""green""> Bonus : $1.7 </font>
            </div>
        </div>
    ",null,,,,,,,,,4
,,,,,,,,,,,,,,,,,,,,4
,,,,,html-keyboard-response,253,312857,0.0-6.39-3.39,377,./stimuli//pack_shapes_diff/cat_1/diff_4/ex_1_4_16.png,arrowleft,response,ArrowLeft,16,1,4,test,TRUE,,4
,,,,,,,,,,,,,,,,,,,,4
,,,,,html-keyboard-response,254,314367,0.0-6.39-4.39,null,"<p> <font color=""green"" size=""5vw""> Correct category! </font> <br> <br> <font color=""green"" size=""8vw""> + $0.05 </font> </p>",null,feedback,,,,,,,1.75,4
,,,,,,,,,,,,,,,,,,,,4
,,,,,html-keyboard-response,255,314904,0.0-6.40-0.40,536,"
            
        <div style=""text-align: center; position: fixed; top: 5vh; left: 40vw;"">
            <div style=""margin:0 auto; width: 20vw; top: 8vh; font-size: 2vw""> 
            <font color=""green""> Bonus : $1.75 </font>
            </div>
        </div>
    
            <div> Please press any button to continue to the next trial.</div>
        ", ,ITI,,,,,,,,4
,,,,,,,,,,,,,,,,,,,,4
,,,,,html-keyboard-response,256,315508,0.0-6.40-1.40,null,"
        
        <div style=""text-align: center; position: fixed; top: 5vh; left: 40vw;"">
            <div style=""margin:0 auto; width: 20vw; top: 8vh; font-size: 2vw""> 
            <font color=""green""> Bonus : $1.75 </font>
            </div>
        </div>
    
        <img class=""stim"" src=./stimuli//pack_shapes_diff/cat_2/diff_4/ex_2_4_16.png></img>
    ",null,stimulus,,,,,,,,4
,,,,,,,,,,,,,,,,,,,,4
,,,,,html-keyboard-response,257,316525,0.0-6.40-2.40,null,"
        <div style=""text-align: center; position: fixed; top: 5vh; left: 40vw;"">
            <div style=""margin:0 auto; width: 20vw; top: 8vh; font-size: 2vw""> 
            <font color=""green""> Bonus : $1.75 </font>
            </div>
        </div>
    ",null,,,,,,,,,4
,,,,,,,,,,,,,,,,,,,,4
,,,,,html-keyboard-response,258,316883,0.0-6.40-3.40,358,./stimuli//pack_shapes_diff/cat_2/diff_4/ex_2_4_16.png,arrowright,response,ArrowRight,16,2,4,test,TRUE,,4
,,,,,,,,,,,,,,,,,,,,4
,,,,,html-keyboard-response,259,318392,0.0-6.40-4.40,null,"<p> <font color=""green"" size=""5vw""> Correct category! </font> <br> <br> <font color=""green"" size=""8vw""> + $0.05 </font> </p>",null,feedback,,,,,,,1.8,4
,,,,,,,,,,,,,,,,,,,,4
,,,,,html-keyboard-response,260,318907,0.0-6.41-0.41,514,"
            
        <div style=""text-align: center; position: fixed; top: 5vh; left: 40vw;"">
            <div style=""margin:0 auto; width: 20vw; top: 8vh; font-size: 2vw""> 
            <font color=""green""> Bonus : $1.8 </font>
            </div>
        </div>
    
            <div> Please press any button to continue to the next trial.</div>
        ", ,ITI,,,,,,,,4
,,,,,,,,,,,,,,,,,,,,4
,,,,,html-keyboard-response,261,319518,0.0-6.41-1.41,null,"
        
        <div style=""text-align: center; position: fixed; top: 5vh; left: 40vw;"">
            <div style=""margin:0 auto; width: 20vw; top: 8vh; font-size: 2vw""> 
            <font color=""green""> Bonus : $1.8 </font>
            </div>
        </div>
    
        <img class=""stim"" src=./stimuli//pack_shapes_diff/cat_2/diff_4/ex_2_4_5.png></img>
    ",null,stimulus,,,,,,,,4
,,,,,,,,,,,,,,,,,,,,4
,,,,,html-keyboard-response,262,320528,0.0-6.41-2.41,null,"
        <div style=""text-align: center; position: fixed; top: 5vh; left: 40vw;"">
            <div style=""margin:0 auto; width: 20vw; top: 8vh; font-size: 2vw""> 
            <font color=""green""> Bonus : $1.8 </font>
            </div>
        </div>
    ",null,,,,,,,,,4
,,,,,,,,,,,,,,,,,,,,4
,,,,,html-keyboard-response,263,320918,0.0-6.41-3.41,389,./stimuli//pack_shapes_diff/cat_2/diff_4/ex_2_4_5.png,arrowright,response,ArrowRight,5,2,4,test,TRUE,,4
,,,,,,,,,,,,,,,,,,,,4
,,,,,html-keyboard-response,264,322430,0.0-6.41-4.41,null,"<p> <font color=""green"" size=""5vw""> Correct category! </font> <br> <br> <font color=""green"" size=""8vw""> + $0.05 </font> </p>",null,feedback,,,,,,,1.85,4
,,,,,,,,,,,,,,,,,,,,4
,,,,,html-keyboard-response,265,323098,0.0-6.42-0.42,667,"
            
        <div style=""text-align: center; position: fixed; top: 5vh; left: 40vw;"">
            <div style=""margin:0 auto; width: 20vw; top: 8vh; font-size: 2vw""> 
            <font color=""green""> Bonus : $1.85 </font>
            </div>
        </div>
    
            <div> Please press any button to continue to the next trial.</div>
        ", ,ITI,,,,,,,,4
,,,,,,,,,,,,,,,,,,,,4
,,,,,html-keyboard-response,266,323709,0.0-6.42-1.42,null,"
        
        <div style=""text-align: center; position: fixed; top: 5vh; left: 40vw;"">
            <div style=""margin:0 auto; width: 20vw; top: 8vh; font-size: 2vw""> 
            <font color=""green""> Bonus : $1.85 </font>
            </div>
        </div>
    
        <img class=""stim"" src=./stimuli//pack_shapes_diff/cat_1/diff_4/ex_1_4_9.png></img>
    ",null,stimulus,,,,,,,,4
,,,,,,,,,,,,,,,,,,,,4
,,,,,html-keyboard-response,267,324719,0.0-6.42-2.42,null,"
        <div style=""text-align: center; position: fixed; top: 5vh; left: 40vw;"">
            <div style=""margin:0 auto; width: 20vw; top: 8vh; font-size: 2vw""> 
            <font color=""green""> Bonus : $1.85 </font>
            </div>
        </div>
    ",null,,,,,,,,,4
,,,,,,,,,,,,,,,,,,,,4
,,,,,html-keyboard-response,268,325025,0.0-6.42-3.42,305,./stimuli//pack_shapes_diff/cat_1/diff_4/ex_1_4_9.png,arrowleft,response,ArrowLeft,9,1,4,test,TRUE,,4
,,,,,,,,,,,,,,,,,,,,4
,,,,,html-keyboard-response,269,326534,0.0-6.42-4.42,null,"<p> <font color=""green"" size=""5vw""> Correct category! </font> <br> <br> <font color=""green"" size=""8vw""> + $0.05 </font> </p>",null,feedback,,,,,,,1.9,4
,,,,,,,,,,,,,,,,,,,,4
,,,,,html-keyboard-response,270,327368,0.0-6.43-0.43,832,"
            
        <div style=""text-align: center; position: fixed; top: 5vh; left: 40vw;"">
            <div style=""margin:0 auto; width: 20vw; top: 8vh; font-size: 2vw""> 
            <font color=""green""> Bonus : $1.9 </font>
            </div>
        </div>
    
            <div> Please press any button to continue to the next trial.</div>
        ", ,ITI,,,,,,,,4
,,,,,,,,,,,,,,,,,,,,4
,,,,,html-keyboard-response,271,327971,0.0-6.43-1.43,null,"
        
        <div style=""text-align: center; position: fixed; top: 5vh; left: 40vw;"">
            <div style=""margin:0 auto; width: 20vw; top: 8vh; font-size: 2vw""> 
            <font color=""green""> Bonus : $1.9 </font>
            </div>
        </div>
    
        <img class=""stim"" src=./stimuli//pack_shapes_diff/cat_1/diff_4/ex_1_4_8.png></img>
    ",null,stimulus,,,,,,,,4
,,,,,,,,,,,,,,,,,,,,4
,,,,,html-keyboard-response,272,328980,0.0-6.43-2.43,null,"
        <div style=""text-align: center; position: fixed; top: 5vh; left: 40vw;"">
            <div style=""margin:0 auto; width: 20vw; top: 8vh; font-size: 2vw""> 
            <font color=""green""> Bonus : $1.9 </font>
            </div>
        </div>
    ",null,,,,,,,,,4
,,,,,,,,,,,,,,,,,,,,4
,,,,,html-keyboard-response,273,329291,0.0-6.43-3.43,310,./stimuli//pack_shapes_diff/cat_1/diff_4/ex_1_4_8.png,arrowleft,response,ArrowLeft,8,1,4,test,TRUE,,4
,,,,,,,,,,,,,,,,,,,,4
,,,,,html-keyboard-response,274,330798,0.0-6.43-4.43,null,"<p> <font color=""green"" size=""5vw""> Correct category! </font> <br> <br> <font color=""green"" size=""8vw""> + $0.05 </font> </p>",null,feedback,,,,,,,1.95,4
,,,,,,,,,,,,,,,,,,,,4
,,,,,html-keyboard-response,275,331217,0.0-6.44-0.44,418,"
            
        <div style=""text-align: center; position: fixed; top: 5vh; left: 40vw;"">
            <div style=""margin:0 auto; width: 20vw; top: 8vh; font-size: 2vw""> 
            <font color=""green""> Bonus : $1.95 </font>
            </div>
        </div>
    
            <div> Please press any button to continue to the next trial.</div>
        ", ,ITI,,,,,,,,4
,,,,,,,,,,,,,,,,,,,,4
,,,,,html-keyboard-response,276,331821,0.0-6.44-1.44,null,"
        
        <div style=""text-align: center; position: fixed; top: 5vh; left: 40vw;"">
            <div style=""margin:0 auto; width: 20vw; top: 8vh; font-size: 2vw""> 
            <font color=""green""> Bonus : $1.95 </font>
            </div>
        </div>
    
        <img class=""stim"" src=./stimuli//pack_shapes_diff/cat_2/diff_5/ex_2_5_7.png></img>
    ",null,stimulus,,,,,,,,4
,,,,,,,,,,,,,,,,,,,,4
,,,,,html-keyboard-response,277,332829,0.0-6.44-2.44,null,"
        <div style=""text-align: center; position: fixed; top: 5vh; left: 40vw;"">
            <div style=""margin:0 auto; width: 20vw; top: 8vh; font-size: 2vw""> 
            <font color=""green""> Bonus : $1.95 </font>
            </div>
        </div>
    ",null,,,,,,,,,4
,,,,,,,,,,,,,,,,,,,,4
,,,,,html-keyboard-response,278,333176,0.0-6.44-3.44,347,./stimuli//pack_shapes_diff/cat_2/diff_5/ex_2_5_7.png,arrowleft,response,ArrowRight,7,2,5,test,FALSE,,4
,,,,,,,,,,,,,,,,,,,,4
,,,,,html-keyboard-response,279,334686,0.0-6.44-4.44,null,"<p> <font color=""red"" size=""5vw""> Wrong category! </font> </p>",null,feedback,,,,,,,1.95,4
,,,,,,,,,,,,,,,,,,,,4
,,,,,html-keyboard-response,280,335167,0.0-6.45-0.45,480,"
            
        <div style=""text-align: center; position: fixed; top: 5vh; left: 40vw;"">
            <div style=""margin:0 auto; width: 20vw; top: 8vh; font-size: 2vw""> 
            <font color=""green""> Bonus : $1.95 </font>
            </div>
        </div>
    
            <div> Please press any button to continue to the next trial.</div>
        ", ,ITI,,,,,,,,4
,,,,,,,,,,,,,,,,,,,,4
,,,,,html-keyboard-response,281,335776,0.0-6.45-1.45,null,"
        
        <div style=""text-align: center; position: fixed; top: 5vh; left: 40vw;"">
            <div style=""margin:0 auto; width: 20vw; top: 8vh; font-size: 2vw""> 
            <font color=""green""> Bonus : $1.95 </font>
            </div>
        </div>
    
        <img class=""stim"" src=./stimuli//pack_shapes_diff/cat_2/diff_5/ex_2_5_16.png></img>
    ",null,stimulus,,,,,,,,4
,,,,,,,,,,,,,,,,,,,,4
,,,,,html-keyboard-response,282,336782,0.0-6.45-2.45,null,"
        <div style=""text-align: center; position: fixed; top: 5vh; left: 40vw;"">
            <div style=""margin:0 auto; width: 20vw; top: 8vh; font-size: 2vw""> 
            <font color=""green""> Bonus : $1.95 </font>
            </div>
        </div>
    ",null,,,,,,,,,4
,,,,,,,,,,,,,,,,,,,,4
,,,,,html-keyboard-response,283,337041,0.0-6.45-3.45,259,./stimuli//pack_shapes_diff/cat_2/diff_5/ex_2_5_16.png,arrowright,response,ArrowRight,16,2,5,test,TRUE,,4
,,,,,,,,,,,,,,,,,,,,4
,,,,,html-keyboard-response,284,338550,0.0-6.45-4.45,null,"<p> <font color=""green"" size=""5vw""> Correct category! </font> <br> <br> <font color=""green"" size=""8vw""> + $0.05 </font> </p>",null,feedback,,,,,,,2,4
,,,,,,,,,,,,,,,,,,,,4
,,,,,html-keyboard-response,285,339180,0.0-6.46-0.46,630,"
            
        <div style=""text-align: center; position: fixed; top: 5vh; left: 40vw;"">
            <div style=""margin:0 auto; width: 20vw; top: 8vh; font-size: 2vw""> 
            <font color=""green""> Bonus : $2 </font>
            </div>
        </div>
    
            <div> Please press any button to continue to the next trial.</div>
        ", ,ITI,,,,,,,,4
,,,,,,,,,,,,,,,,,,,,4
,,,,,html-keyboard-response,286,339792,0.0-6.46-1.46,null,"
        
        <div style=""text-align: center; position: fixed; top: 5vh; left: 40vw;"">
            <div style=""margin:0 auto; width: 20vw; top: 8vh; font-size: 2vw""> 
            <font color=""green""> Bonus : $2 </font>
            </div>
        </div>
    
        <img class=""stim"" src=./stimuli//pack_shapes_diff/cat_2/diff_5/ex_2_5_14.png></img>
    ",null,stimulus,,,,,,,,4
,,,,,,,,,,,,,,,,,,,,4
,,,,,html-keyboard-response,287,340803,0.0-6.46-2.46,null,"
        <div style=""text-align: center; position: fixed; top: 5vh; left: 40vw;"">
            <div style=""margin:0 auto; width: 20vw; top: 8vh; font-size: 2vw""> 
            <font color=""green""> Bonus : $2 </font>
            </div>
        </div>
    ",null,,,,,,,,,4
,,,,,,,,,,,,,,,,,,,,4
,,,,,html-keyboard-response,288,341145,0.0-6.46-3.46,341,./stimuli//pack_shapes_diff/cat_2/diff_5/ex_2_5_14.png,arrowright,response,ArrowRight,14,2,5,test,TRUE,,4
,,,,,,,,,,,,,,,,,,,,4
,,,,,html-keyboard-response,289,342654,0.0-6.46-4.46,null,"<p> <font color=""green"" size=""5vw""> Correct category! </font> <br> <br> <font color=""green"" size=""8vw""> + $0.05 </font> </p>",null,feedback,,,,,,,2.05,4
,,,,,,,,,,,,,,,,,,,,4
,,,,,html-keyboard-response,290,342993,0.0-6.47-0.47,338,"
            
        <div style=""text-align: center; position: fixed; top: 5vh; left: 40vw;"">
            <div style=""margin:0 auto; width: 20vw; top: 8vh; font-size: 2vw""> 
            <font color=""green""> Bonus : $2.05 </font>
            </div>
        </div>
    
            <div> Please press any button to continue to the next trial.</div>
        ", ,ITI,,,,,,,,4
,,,,,,,,,,,,,,,,,,,,4
,,,,,html-keyboard-response,291,343605,0.0-6.47-1.47,null,"
        
        <div style=""text-align: center; position: fixed; top: 5vh; left: 40vw;"">
            <div style=""margin:0 auto; width: 20vw; top: 8vh; font-size: 2vw""> 
            <font color=""green""> Bonus : $2.05 </font>
            </div>
        </div>
    
        <img class=""stim"" src=./stimuli//pack_shapes_diff/cat_1/diff_5/ex_1_5_11.png></img>
    ",null,stimulus,,,,,,,,4
,,,,,,,,,,,,,,,,,,,,4
,,,,,html-keyboard-response,292,344612,0.0-6.47-2.47,null,"
        <div style=""text-align: center; position: fixed; top: 5vh; left: 40vw;"">
            <div style=""margin:0 auto; width: 20vw; top: 8vh; font-size: 2vw""> 
            <font color=""green""> Bonus : $2.05 </font>
            </div>
        </div>
    ",null,,,,,,,,,4
,,,,,,,,,,,,,,,,,,,,4
,,,,,html-keyboard-response,293,344936,0.0-6.47-3.47,323,./stimuli//pack_shapes_diff/cat_1/diff_5/ex_1_5_11.png,arrowleft,response,ArrowLeft,11,1,5,test,TRUE,,4
,,,,,,,,,,,,,,,,,,,,4
