success,timeout,failed_images,failed_audio,failed_video,trial_type,trial_index,time_elapsed,internal_node_id,rt,stimulus,response,task,correct_response,exemplar_ID,category,difficulty,phase,correct,bonus,subject_id
TRUE,FALSE,[],[],[],preload,0,2,0.0-0.0,,,,,,,,,,,,2
,,,,,html-keyboard-response,1,3415,0.0-1.0,3412,Welcome to the Category Learning experiment! Press any key to continue.,',welcome,,,,,,,,2
,,,,,html-keyboard-response,2,52536,0.0-2.0,49121,"<p>You will be shown images of black shapes. Some are category A, some are category B.
            <br>You will not know in advance which category a specific shape belongs to.</p>
            <p>After you see an image, you will be asked to guess its category <b>(left arrow for category A, right arrow for category B)</b></p>
            <p>After you choose, the screen will show you whether you were correct or not.</p>
            <p><b>You will receive a bonus payment of $0.05 for each correct answer!</b></p>
            <p> So you can increase your bonus by guessing correctly, and by guessing as quickly as possible so you move on to the next image sooner.</p>
            <p>Press any key to continue.</p>",e,introduction_1,,,,,,,,2
,,,,,html-keyboard-response,3,58010,0.0-3.0,5483,"<p> <b>The first 10 trials are a practice round that will not count towards your bonus payment.</b></p>
            <p> You will be notified when practice finishes and the test begins. </p>
            <p> Press any key to begin the practice round.</p>",arrowright,introduction_2,,,,,,,,2
,,,,,html-keyboard-response,4,59987,0.0-4.0-0.0,1976,"<div style=""text-align: center; position: fixed; top: 5vh; left: 40vw;"">
            <div style=""margin:0 auto; width: 20vw; top: 8vh; font-size: 2vw""> 
            <font color=""green""> Bonus : $0 </font>
            </div>
        </div>
    
            <div> Please press any button to continue to the next trial.</div>",arrowright,ITI,,,,,,,,2
,,,,,html-keyboard-response,5,60600,0.0-4.0-1.0,null,"<div style=""text-align: center; position: fixed; top: 5vh; left: 40vw;"">
            <div style=""margin:0 auto; width: 20vw; top: 8vh; font-size: 2vw""> 
            <font color=""green""> Bonus : $0 </font>
            </div>
        </div>
    
        <img class=""stim"" src=./stimuli//pack_shapes_diff/cat_1/diff_2/ex_1_2_6.png></img>",null,stimulus,,,,,,,,2
,,,,,html-keyboard-response,6,61606,0.0-4.0-2.0,null,"<div style=""text-align: center; position: fixed; top: 5vh; left: 40vw;"">
            <div style=""margin:0 auto; width: 20vw; top: 8vh; font-size: 2vw""> 
            <font color=""green""> Bonus : $0 </font>
            </div>
        </div>",null,,,,,,,,,2
,,,,,html-keyboard-response,7,62631,0.0-4.0-3.0,1024,./stimuli//pack_shapes_diff/cat_1/diff_2/ex_1_2_6.png,arrowleft,response,ArrowLeft,6,1,2,train,TRUE,,2
,,,,,html-keyboard-response,8,64142,0.0-4.0-4.0,null,"<p> <font color=""green"" size=""5vw""> Correct category! </font> </p>",null,feedback,,,,,,,0,2
,,,,,html-keyboard-response,9,65111,0.0-4.0-0.1,968,"<div style=""text-align: center; position: fixed; top: 5vh; left: 40vw;"">
            <div style=""margin:0 auto; width: 20vw; top: 8vh; font-size: 2vw""> 
            <font color=""green""> Bonus : $0 </font>
            </div>
        </div>
    
            <div> Please press any button to continue to the next trial.</div>",arrowleft,ITI,,,,,,,,2
,,,,,html-keyboard-response,10,65716,0.0-4.0-1.1,null,"<div style=""text-align: center; position: fixed; top: 5vh; left: 40vw;"">
            <div style=""margin:0 auto; width: 20vw; top: 8vh; font-size: 2vw""> 
            <font color=""green""> Bonus : $0 </font>
            </div>
        </div>
    
        <img class=""stim"" src=./stimuli//pack_shapes_diff/cat_2/diff_2/ex_2_2_6.png></img>",null,stimulus,,,,,,,,2
,,,,,html-keyboard-response,11,66723,0.0-4.0-2.1,null,"<div style=""text-align: center; position: fixed; top: 5vh; left: 40vw;"">
            <div style=""margin:0 auto; width: 20vw; top: 8vh; font-size: 2vw""> 
            <font color=""green""> Bonus : $0 </font>
            </div>
        </div>",null,,,,,,,,,2
,,,,,html-keyboard-response,12,67847,0.0-4.0-3.1,1123,./stimuli//pack_shapes_diff/cat_2/diff_2/ex_2_2_6.png,arrowright,response,ArrowRight,6,2,2,train,TRUE,,2
,,,,,html-keyboard-response,13,69354,0.0-4.0-4.1,null,"<p> <font color=""green"" size=""5vw""> Correct category! </font> </p>",null,feedback,,,,,,,0,2
,,,,,html-keyboard-response,14,71084,0.0-4.0-0.2,1729,"<div style=""text-align: center; position: fixed; top: 5vh; left: 40vw;"">
            <div style=""margin:0 auto; width: 20vw; top: 8vh; font-size: 2vw""> 
            <font color=""green""> Bonus : $0 </font>
            </div>
        </div>
    
            <div> Please press any button to continue to the next trial.</div>",arrowup,ITI,,,,,,,,2
,,,,,html-keyboard-response,15,71694,0.0-4.0-1.2,null,"<div style=""text-align: center; position: fixed; top: 5vh; left: 40vw;"">
            <div style=""margin:0 auto; width: 20vw; top: 8vh; font-size: 2vw""> 
            <font color=""green""> Bonus : $0 </font>
            </div>
        </div>
    
        <img class=""stim"" src=./stimuli//pack_shapes_diff/cat_1/diff_2/ex_1_2_12.png></img>",null,stimulus,,,,,,,,2
,,,,,html-keyboard-response,16,72709,0.0-4.0-2.2,null,"<div style=""text-align: center; position: fixed; top: 5vh; left: 40vw;"">
            <div style=""margin:0 auto; width: 20vw; top: 8vh; font-size: 2vw""> 
            <font color=""green""> Bonus : $0 </font>
            </div>
        </div>",null,,,,,,,,,2
,,,,,html-keyboard-response,17,73689,0.0-4.0-3.2,979,./stimuli//pack_shapes_diff/cat_1/diff_2/ex_1_2_12.png,arrowleft,response,ArrowLeft,12,1,2,train,TRUE,,2
,,,,,html-keyboard-response,18,75194,0.0-4.0-4.2,null,"<p> <font color=""green"" size=""5vw""> Correct category! </font> </p>",null,feedback,,,,,,,0,2
,,,,,html-keyboard-response,19,76340,0.0-4.0-0.3,1145,"<div style=""text-align: center; position: fixed; top: 5vh; left: 40vw;"">
            <div style=""margin:0 auto; width: 20vw; top: 8vh; font-size: 2vw""> 
            <font color=""green""> Bonus : $0 </font>
            </div>
        </div>
    
            <div> Please press any button to continue to the next trial.</div>",arrowleft,ITI,,,,,,,,2
,,,,,html-keyboard-response,20,76948,0.0-4.0-1.3,null,"<div style=""text-align: center; position: fixed; top: 5vh; left: 40vw;"">
            <div style=""margin:0 auto; width: 20vw; top: 8vh; font-size: 2vw""> 
            <font color=""green""> Bonus : $0 </font>
            </div>
        </div>
    
        <img class=""stim"" src=./stimuli//pack_shapes_diff/cat_2/diff_1/ex_2_1_9.png></img>",null,stimulus,,,,,,,,2
,,,,,html-keyboard-response,21,77954,0.0-4.0-2.3,null,"<div style=""text-align: center; position: fixed; top: 5vh; left: 40vw;"">
            <div style=""margin:0 auto; width: 20vw; top: 8vh; font-size: 2vw""> 
            <font color=""green""> Bonus : $0 </font>
            </div>
        </div>",null,,,,,,,,,2
,,,,,html-keyboard-response,22,78240,0.0-4.0-3.3,285,./stimuli//pack_shapes_diff/cat_2/diff_1/ex_2_1_9.png,arrowright,response,ArrowRight,9,2,1,train,TRUE,,2
,,,,,html-keyboard-response,23,79743,0.0-4.0-4.3,null,"<p> <font color=""green"" size=""5vw""> Correct category! </font> </p>",null,feedback,,,,,,,0,2
,,,,,html-keyboard-response,24,80395,0.0-4.0-0.4,652,"<div style=""text-align: center; position: fixed; top: 5vh; left: 40vw;"">
            <div style=""margin:0 auto; width: 20vw; top: 8vh; font-size: 2vw""> 
            <font color=""green""> Bonus : $0 </font>
            </div>
        </div>
    
            <div> Please press any button to continue to the next trial.</div>",arrowup,ITI,,,,,,,,2
,,,,,html-keyboard-response,25,80998,0.0-4.0-1.4,null,"<div style=""text-align: center; position: fixed; top: 5vh; left: 40vw;"">
            <div style=""margin:0 auto; width: 20vw; top: 8vh; font-size: 2vw""> 
            <font color=""green""> Bonus : $0 </font>
            </div>
        </div>
    
        <img class=""stim"" src=./stimuli//pack_shapes_diff/cat_1/diff_1/ex_1_1_13.png></img>",null,stimulus,,,,,,,,2
,,,,,html-keyboard-response,26,82004,0.0-4.0-2.4,null,"<div style=""text-align: center; position: fixed; top: 5vh; left: 40vw;"">
            <div style=""margin:0 auto; width: 20vw; top: 8vh; font-size: 2vw""> 
            <font color=""green""> Bonus : $0 </font>
            </div>
        </div>",null,,,,,,,,,2
,,,,,html-keyboard-response,27,82567,0.0-4.0-3.4,562,./stimuli//pack_shapes_diff/cat_1/diff_1/ex_1_1_13.png,arrowleft,response,ArrowLeft,13,1,1,train,TRUE,,2
,,,,,html-keyboard-response,28,84072,0.0-4.0-4.4,null,"<p> <font color=""green"" size=""5vw""> Correct category! </font> </p>",null,feedback,,,,,,,0,2
,,,,,html-keyboard-response,29,84884,0.0-4.0-0.5,811,"<div style=""text-align: center; position: fixed; top: 5vh; left: 40vw;"">
            <div style=""margin:0 auto; width: 20vw; top: 8vh; font-size: 2vw""> 
            <font color=""green""> Bonus : $0 </font>
            </div>
        </div>
    
            <div> Please press any button to continue to the next trial.</div>",arrowup,ITI,,,,,,,,2
,,,,,html-keyboard-response,30,85498,0.0-4.0-1.5,null,"<div style=""text-align: center; position: fixed; top: 5vh; left: 40vw;"">
            <div style=""margin:0 auto; width: 20vw; top: 8vh; font-size: 2vw""> 
            <font color=""green""> Bonus : $0 </font>
            </div>
        </div>
    
        <img class=""stim"" src=./stimuli//pack_shapes_diff/cat_2/diff_1/ex_2_1_14.png></img>",null,stimulus,,,,,,,,2
,,,,,html-keyboard-response,31,86506,0.0-4.0-2.5,null,"<div style=""text-align: center; position: fixed; top: 5vh; left: 40vw;"">
            <div style=""margin:0 auto; width: 20vw; top: 8vh; font-size: 2vw""> 
            <font color=""green""> Bonus : $0 </font>
            </div>
        </div>",null,,,,,,,,,2
,,,,,html-keyboard-response,32,86809,0.0-4.0-3.5,303,./stimuli//pack_shapes_diff/cat_2/diff_1/ex_2_1_14.png,arrowright,response,ArrowRight,14,2,1,train,TRUE,,2
,,,,,html-keyboard-response,33,88321,0.0-4.0-4.5,null,"<p> <font color=""green"" size=""5vw""> Correct category! </font> </p>",null,feedback,,,,,,,0,2
,,,,,html-keyboard-response,34,89140,0.0-4.0-0.6,818,"<div style=""text-align: center; position: fixed; top: 5vh; left: 40vw;"">
            <div style=""margin:0 auto; width: 20vw; top: 8vh; font-size: 2vw""> 
            <font color=""green""> Bonus : $0 </font>
            </div>
        </div>
    
            <div> Please press any button to continue to the next trial.</div>",arrowup,ITI,,,,,,,,2
,,,,,html-keyboard-response,35,89751,0.0-4.0-1.6,null,"<div style=""text-align: center; position: fixed; top: 5vh; left: 40vw;"">
            <div style=""margin:0 auto; width: 20vw; top: 8vh; font-size: 2vw""> 
            <font color=""green""> Bonus : $0 </font>
            </div>
        </div>
    
        <img class=""stim"" src=./stimuli//pack_shapes_diff/cat_1/diff_1/ex_1_1_7.png></img>",null,stimulus,,,,,,,,2
,,,,,html-keyboard-response,36,90752,0.0-4.0-2.6,null,"<div style=""text-align: center; position: fixed; top: 5vh; left: 40vw;"">
            <div style=""margin:0 auto; width: 20vw; top: 8vh; font-size: 2vw""> 
            <font color=""green""> Bonus : $0 </font>
            </div>
        </div>",null,,,,,,,,,2
,,,,,html-keyboard-response,37,91050,0.0-4.0-3.6,297,./stimuli//pack_shapes_diff/cat_1/diff_1/ex_1_1_7.png,arrowleft,response,ArrowLeft,7,1,1,train,TRUE,,2
,,,,,html-keyboard-response,38,92556,0.0-4.0-4.6,null,"<p> <font color=""green"" size=""5vw""> Correct category! </font> </p>",null,feedback,,,,,,,0,2
,,,,,html-keyboard-response,39,93310,0.0-4.0-0.7,753,"<div style=""text-align: center; position: fixed; top: 5vh; left: 40vw;"">
            <div style=""margin:0 auto; width: 20vw; top: 8vh; font-size: 2vw""> 
            <font color=""green""> Bonus : $0 </font>
            </div>
        </div>
    
            <div> Please press any button to continue to the next trial.</div>",arrowup,ITI,,,,,,,,2
,,,,,html-keyboard-response,40,93913,0.0-4.0-1.7,null,"<div style=""text-align: center; position: fixed; top: 5vh; left: 40vw;"">
            <div style=""margin:0 auto; width: 20vw; top: 8vh; font-size: 2vw""> 
            <font color=""green""> Bonus : $0 </font>
            </div>
        </div>
    
        <img class=""stim"" src=./stimuli//pack_shapes_diff/cat_1/diff_1/ex_1_1_15.png></img>",null,stimulus,,,,,,,,2
,,,,,html-keyboard-response,41,94922,0.0-4.0-2.7,null,"<div style=""text-align: center; position: fixed; top: 5vh; left: 40vw;"">
            <div style=""margin:0 auto; width: 20vw; top: 8vh; font-size: 2vw""> 
            <font color=""green""> Bonus : $0 </font>
            </div>
        </div>",null,,,,,,,,,2
,,,,,html-keyboard-response,42,95351,0.0-4.0-3.7,428,./stimuli//pack_shapes_diff/cat_1/diff_1/ex_1_1_15.png,arrowright,response,ArrowLeft,15,1,1,train,FALSE,,2
,,,,,html-keyboard-response,43,96856,0.0-4.0-4.7,null,"<p> <font color=""red"" size=""5vw""> Wrong category! </font> </p>",null,feedback,,,,,,,0,2
,,,,,html-keyboard-response,44,97650,0.0-4.0-0.8,794,"<div style=""text-align: center; position: fixed; top: 5vh; left: 40vw;"">
            <div style=""margin:0 auto; width: 20vw; top: 8vh; font-size: 2vw""> 
            <font color=""green""> Bonus : $0 </font>
            </div>
        </div>
    
            <div> Please press any button to continue to the next trial.</div>",arrowup,ITI,,,,,,,,2
,,,,,html-keyboard-response,45,98260,0.0-4.0-1.8,null,"<div style=""text-align: center; position: fixed; top: 5vh; left: 40vw;"">
            <div style=""margin:0 auto; width: 20vw; top: 8vh; font-size: 2vw""> 
            <font color=""green""> Bonus : $0 </font>
            </div>
        </div>
    
        <img class=""stim"" src=./stimuli//pack_shapes_diff/cat_2/diff_1/ex_2_1_8.png></img>",null,stimulus,,,,,,,,2
,,,,,html-keyboard-response,46,99275,0.0-4.0-2.8,null,"<div style=""text-align: center; position: fixed; top: 5vh; left: 40vw;"">
            <div style=""margin:0 auto; width: 20vw; top: 8vh; font-size: 2vw""> 
            <font color=""green""> Bonus : $0 </font>
            </div>
        </div>",null,,,,,,,,,2
,,,,,html-keyboard-response,47,99675,0.0-4.0-3.8,399,./stimuli//pack_shapes_diff/cat_2/diff_1/ex_2_1_8.png,arrowright,response,ArrowRight,8,2,1,train,TRUE,,2
,,,,,html-keyboard-response,48,101188,0.0-4.0-4.8,null,"<p> <font color=""green"" size=""5vw""> Correct category! </font> </p>",null,feedback,,,,,,,0,2
,,,,,html-keyboard-response,49,101991,0.0-4.0-0.9,803,"<div style=""text-align: center; position: fixed; top: 5vh; left: 40vw;"">
            <div style=""margin:0 auto; width: 20vw; top: 8vh; font-size: 2vw""> 
            <font color=""green""> Bonus : $0 </font>
            </div>
        </div>
    
            <div> Please press any button to continue to the next trial.</div>",arrowup,ITI,,,,,,,,2
,,,,,html-keyboard-response,50,102596,0.0-4.0-1.9,null,"<div style=""text-align: center; position: fixed; top: 5vh; left: 40vw;"">
            <div style=""margin:0 auto; width: 20vw; top: 8vh; font-size: 2vw""> 
            <font color=""green""> Bonus : $0 </font>
            </div>
        </div>
    
        <img class=""stim"" src=./stimuli//pack_shapes_diff/cat_2/diff_2/ex_2_2_15.png></img>",null,stimulus,,,,,,,,2
,,,,,html-keyboard-response,51,103603,0.0-4.0-2.9,null,"<div style=""text-align: center; position: fixed; top: 5vh; left: 40vw;"">
            <div style=""margin:0 auto; width: 20vw; top: 8vh; font-size: 2vw""> 
            <font color=""green""> Bonus : $0 </font>
            </div>
        </div>",null,,,,,,,,,2
,,,,,html-keyboard-response,52,104389,0.0-4.0-3.9,786,./stimuli//pack_shapes_diff/cat_2/diff_2/ex_2_2_15.png,arrowright,response,ArrowRight,15,2,2,train,TRUE,,2
,,,,,html-keyboard-response,53,105904,0.0-4.0-4.9,null,"<p> <font color=""green"" size=""5vw""> Correct category! </font> </p>",null,feedback,,,,,,,0,2
,,,,,html-keyboard-response,54,109560,0.0-5.0,3656,"<b> <p> The practice round has finished.</p>
            <b> For the rest of the experiment you will receive a $0.05 bonus for each correct answer!</b>
            <p> Press any key to begin the test. </p>",arrowup,intermission,,,,,,,,2
,,,,,html-keyboard-response,55,110526,0.0-6.0-0.0,966,"<div style=""text-align: center; position: fixed; top: 5vh; left: 40vw;"">
            <div style=""margin:0 auto; width: 20vw; top: 8vh; font-size: 2vw""> 
            <font color=""green""> Bonus : $0 </font>
            </div>
        </div>
    
            <div> Please press any button to continue to the next trial.</div>",arrowup,ITI,,,,,,,,2
,,,,,html-keyboard-response,56,111129,0.0-6.0-1.0,null,"<div style=""text-align: center; position: fixed; top: 5vh; left: 40vw;"">
            <div style=""margin:0 auto; width: 20vw; top: 8vh; font-size: 2vw""> 
            <font color=""green""> Bonus : $0 </font>
            </div>
        </div>
    
        <img class=""stim"" src=./stimuli//pack_shapes_diff/cat_2/diff_1/ex_2_1_17.png></img>",null,stimulus,,,,,,,,2
,,,,,html-keyboard-response,57,112137,0.0-6.0-2.0,null,"<div style=""text-align: center; position: fixed; top: 5vh; left: 40vw;"">
            <div style=""margin:0 auto; width: 20vw; top: 8vh; font-size: 2vw""> 
            <font color=""green""> Bonus : $0 </font>
            </div>
        </div>",null,,,,,,,,,2
,,,,,html-keyboard-response,58,112913,0.0-6.0-3.0,776,./stimuli//pack_shapes_diff/cat_2/diff_1/ex_2_1_17.png,arrowright,response,ArrowRight,17,2,1,test,TRUE,,2
,,,,,html-keyboard-response,59,114419,0.0-6.0-4.0,null,"<p> <font color=""green"" size=""5vw""> Correct category! </font> <br> <br> <font color=""green"" size=""8vw""> + $0.05 </font> </p>",null,feedback,,,,,,,0.05,2
,,,,,html-keyboard-response,60,117796,0.0-6.1-0.1,3376,"<div style=""text-align: center; position: fixed; top: 5vh; left: 40vw;"">
            <div style=""margin:0 auto; width: 20vw; top: 8vh; font-size: 2vw""> 
            <font color=""green""> Bonus : $0.05 </font>
            </div>
        </div>
    
            <div> Please press any button to continue to the next trial.</div>",arrowup,ITI,,,,,,,,2
,,,,,html-keyboard-response,61,118421,0.0-6.1-1.1,null,"<div style=""text-align: center; position: fixed; top: 5vh; left: 40vw;"">
            <div style=""margin:0 auto; width: 20vw; top: 8vh; font-size: 2vw""> 
            <font color=""green""> Bonus : $0.05 </font>
            </div>
        </div>
    
        <img class=""stim"" src=./stimuli//pack_shapes_diff/cat_2/diff_1/ex_2_1_1.png></img>",null,stimulus,,,,,,,,2
,,,,,html-keyboard-response,62,119428,0.0-6.1-2.1,null,"<div style=""text-align: center; position: fixed; top: 5vh; left: 40vw;"">
            <div style=""margin:0 auto; width: 20vw; top: 8vh; font-size: 2vw""> 
            <font color=""green""> Bonus : $0.05 </font>
            </div>
        </div>",null,,,,,,,,,2
,,,,,html-keyboard-response,63,119899,0.0-6.1-3.1,470,./stimuli//pack_shapes_diff/cat_2/diff_1/ex_2_1_1.png,arrowright,response,ArrowRight,1,2,1,test,TRUE,,2
,,,,,html-keyboard-response,64,121409,0.0-6.1-4.1,null,"<p> <font color=""green"" size=""5vw""> Correct category! </font> <br> <br> <font color=""green"" size=""8vw""> + $0.05 </font> </p>",null,feedback,,,,,,,0.1,2
,,,,,html-keyboard-response,65,122015,0.0-6.2-0.2,606,"<div style=""text-align: center; position: fixed; top: 5vh; left: 40vw;"">
            <div style=""margin:0 auto; width: 20vw; top: 8vh; font-size: 2vw""> 
            <font color=""green""> Bonus : $0.1 </font>
            </div>
        </div>
    
            <div> Please press any button to continue to the next trial.</div>",arrowup,ITI,,,,,,,,2
,,,,,html-keyboard-response,66,122620,0.0-6.2-1.2,null,"<div style=""text-align: center; position: fixed; top: 5vh; left: 40vw;"">
            <div style=""margin:0 auto; width: 20vw; top: 8vh; font-size: 2vw""> 
            <font color=""green""> Bonus : $0.1 </font>
            </div>
        </div>
    
        <img class=""stim"" src=./stimuli//pack_shapes_diff/cat_2/diff_1/ex_2_1_11.png></img>",null,stimulus,,,,,,,,2
,,,,,html-keyboard-response,67,123624,0.0-6.2-2.2,null,"<div style=""text-align: center; position: fixed; top: 5vh; left: 40vw;"">
            <div style=""margin:0 auto; width: 20vw; top: 8vh; font-size: 2vw""> 
            <font color=""green""> Bonus : $0.1 </font>
            </div>
        </div>",null,,,,,,,,,2
,,,,,html-keyboard-response,68,124109,0.0-6.2-3.2,485,./stimuli//pack_shapes_diff/cat_2/diff_1/ex_2_1_11.png,arrowright,response,ArrowRight,11,2,1,test,TRUE,,2
,,,,,html-keyboard-response,69,125621,0.0-6.2-4.2,null,"<p> <font color=""green"" size=""5vw""> Correct category! </font> <br> <br> <font color=""green"" size=""8vw""> + $0.05 </font> </p>",null,feedback,,,,,,,0.15,2
,,,,,html-keyboard-response,70,126362,0.0-6.3-0.3,739,"<div style=""text-align: center; position: fixed; top: 5vh; left: 40vw;"">
            <div style=""margin:0 auto; width: 20vw; top: 8vh; font-size: 2vw""> 
            <font color=""green""> Bonus : $0.15 </font>
            </div>
        </div>
    
            <div> Please press any button to continue to the next trial.</div>",arrowup,ITI,,,,,,,,2
,,,,,html-keyboard-response,71,126968,0.0-6.3-1.3,null,"<div style=""text-align: center; position: fixed; top: 5vh; left: 40vw;"">
            <div style=""margin:0 auto; width: 20vw; top: 8vh; font-size: 2vw""> 
            <font color=""green""> Bonus : $0.15 </font>
            </div>
        </div>
    
        <img class=""stim"" src=./stimuli//pack_shapes_diff/cat_2/diff_1/ex_2_1_11.png></img>",null,stimulus,,,,,,,,2
,,,,,html-keyboard-response,72,127975,0.0-6.3-2.3,null,"<div style=""text-align: center; position: fixed; top: 5vh; left: 40vw;"">
            <div style=""margin:0 auto; width: 20vw; top: 8vh; font-size: 2vw""> 
            <font color=""green""> Bonus : $0.15 </font>
            </div>
        </div>",null,,,,,,,,,2
,,,,,html-keyboard-response,73,128262,0.0-6.3-3.3,286,./stimuli//pack_shapes_diff/cat_2/diff_1/ex_2_1_11.png,arrowright,response,ArrowRight,11,2,1,test,TRUE,,2
,,,,,html-keyboard-response,74,129773,0.0-6.3-4.3,null,"<p> <font color=""green"" size=""5vw""> Correct category! </font> <br> <br> <font color=""green"" size=""8vw""> + $0.05 </font> </p>",null,feedback,,,,,,,0.2,2
,,,,,html-keyboard-response,75,130872,0.0-6.4-0.4,1099,"<div style=""text-align: center; position: fixed; top: 5vh; left: 40vw;"">
            <div style=""margin:0 auto; width: 20vw; top: 8vh; font-size: 2vw""> 
            <font color=""green""> Bonus : $0.2 </font>
            </div>
        </div>
    
            <div> Please press any button to continue to the next trial.</div>",arrowup,ITI,,,,,,,,2
,,,,,html-keyboard-response,76,131483,0.0-6.4-1.4,null,"<div style=""text-align: center; position: fixed; top: 5vh; left: 40vw;"">
            <div style=""margin:0 auto; width: 20vw; top: 8vh; font-size: 2vw""> 
            <font color=""green""> Bonus : $0.2 </font>
            </div>
        </div>
    
        <img class=""stim"" src=./stimuli//pack_shapes_diff/cat_2/diff_1/ex_2_1_17.png></img>",null,stimulus,,,,,,,,2
,,,,,html-keyboard-response,77,132491,0.0-6.4-2.4,null,"<div style=""text-align: center; position: fixed; top: 5vh; left: 40vw;"">
            <div style=""margin:0 auto; width: 20vw; top: 8vh; font-size: 2vw""> 
            <font color=""green""> Bonus : $0.2 </font>
            </div>
        </div>",null,,,,,,,,,2
,,,,,html-keyboard-response,78,132838,0.0-6.4-3.4,347,./stimuli//pack_shapes_diff/cat_2/diff_1/ex_2_1_17.png,arrowright,response,ArrowRight,17,2,1,test,TRUE,,2
,,,,,html-keyboard-response,79,134342,0.0-6.4-4.4,null,"<p> <font color=""green"" size=""5vw""> Correct category! </font> <br> <br> <font color=""green"" size=""8vw""> + $0.05 </font> </p>",null,feedback,,,,,,,0.25,2
,,,,,html-keyboard-response,80,134878,0.0-6.5-0.5,535,"<div style=""text-align: center; position: fixed; top: 5vh; left: 40vw;"">
            <div style=""margin:0 auto; width: 20vw; top: 8vh; font-size: 2vw""> 
            <font color=""green""> Bonus : $0.25 </font>
            </div>
        </div>
    
            <div> Please press any button to continue to the next trial.</div>",arrowup,ITI,,,,,,,,2
,,,,,html-keyboard-response,81,135482,0.0-6.5-1.5,null,"<div style=""text-align: center; position: fixed; top: 5vh; left: 40vw;"">
            <div style=""margin:0 auto; width: 20vw; top: 8vh; font-size: 2vw""> 
            <font color=""green""> Bonus : $0.25 </font>
            </div>
        </div>
    
        <img class=""stim"" src=./stimuli//pack_shapes_diff/cat_1/diff_2/ex_1_2_4.png></img>",null,stimulus,,,,,,,,2
,,,,,html-keyboard-response,82,136492,0.0-6.5-2.5,null,"<div style=""text-align: center; position: fixed; top: 5vh; left: 40vw;"">
            <div style=""margin:0 auto; width: 20vw; top: 8vh; font-size: 2vw""> 
            <font color=""green""> Bonus : $0.25 </font>
            </div>
        </div>",null,,,,,,,,,2
,,,,,html-keyboard-response,83,136834,0.0-6.5-3.5,341,./stimuli//pack_shapes_diff/cat_1/diff_2/ex_1_2_4.png,arrowleft,response,ArrowLeft,4,1,2,test,TRUE,,2
,,,,,html-keyboard-response,84,138339,0.0-6.5-4.5,null,"<p> <font color=""green"" size=""5vw""> Correct category! </font> <br> <br> <font color=""green"" size=""8vw""> + $0.05 </font> </p>",null,feedback,,,,,,,0.3,2
,,,,,html-keyboard-response,85,138969,0.0-6.6-0.6,630,"<div style=""text-align: center; position: fixed; top: 5vh; left: 40vw;"">
            <div style=""margin:0 auto; width: 20vw; top: 8vh; font-size: 2vw""> 
            <font color=""green""> Bonus : $0.3 </font>
            </div>
        </div>
    
            <div> Please press any button to continue to the next trial.</div>",arrowup,ITI,,,,,,,,2
,,,,,html-keyboard-response,86,139584,0.0-6.6-1.6,null,"<div style=""text-align: center; position: fixed; top: 5vh; left: 40vw;"">
            <div style=""margin:0 auto; width: 20vw; top: 8vh; font-size: 2vw""> 
            <font color=""green""> Bonus : $0.3 </font>
            </div>
        </div>
    
        <img class=""stim"" src=./stimuli//pack_shapes_diff/cat_1/diff_2/ex_1_2_15.png></img>",null,stimulus,,,,,,,,2
,,,,,html-keyboard-response,87,140590,0.0-6.6-2.6,null,"<div style=""text-align: center; position: fixed; top: 5vh; left: 40vw;"">
            <div style=""margin:0 auto; width: 20vw; top: 8vh; font-size: 2vw""> 
            <font color=""green""> Bonus : $0.3 </font>
            </div>
        </div>",null,,,,,,,,,2
,,,,,html-keyboard-response,88,140887,0.0-6.6-3.6,297,./stimuli//pack_shapes_diff/cat_1/diff_2/ex_1_2_15.png,arrowleft,response,ArrowLeft,15,1,2,test,TRUE,,2
,,,,,html-keyboard-response,89,142392,0.0-6.6-4.6,null,"<p> <font color=""green"" size=""5vw""> Correct category! </font> <br> <br> <font color=""green"" size=""8vw""> + $0.05 </font> </p>",null,feedback,,,,,,,0.35,2
,,,,,html-keyboard-response,90,143058,0.0-6.7-0.7,665,"<div style=""text-align: center; position: fixed; top: 5vh; left: 40vw;"">
            <div style=""margin:0 auto; width: 20vw; top: 8vh; font-size: 2vw""> 
            <font color=""green""> Bonus : $0.35 </font>
            </div>
        </div>
    
            <div> Please press any button to continue to the next trial.</div>",arrowup,ITI,,,,,,,,2
,,,,,html-keyboard-response,91,143665,0.0-6.7-1.7,null,"<div style=""text-align: center; position: fixed; top: 5vh; left: 40vw;"">
            <div style=""margin:0 auto; width: 20vw; top: 8vh; font-size: 2vw""> 
            <font color=""green""> Bonus : $0.35 </font>
            </div>
        </div>
    
        <img class=""stim"" src=./stimuli//pack_shapes_diff/cat_1/diff_2/ex_1_2_11.png></img>",null,stimulus,,,,,,,,2
,,,,,html-keyboard-response,92,144672,0.0-6.7-2.7,null,"<div style=""text-align: center; position: fixed; top: 5vh; left: 40vw;"">
            <div style=""margin:0 auto; width: 20vw; top: 8vh; font-size: 2vw""> 
            <font color=""green""> Bonus : $0.35 </font>
            </div>
        </div>",null,,,,,,,,,2
,,,,,html-keyboard-response,93,144949,0.0-6.7-3.7,276,./stimuli//pack_shapes_diff/cat_1/diff_2/ex_1_2_11.png,arrowleft,response,ArrowLeft,11,1,2,test,TRUE,,2
,,,,,html-keyboard-response,94,146457,0.0-6.7-4.7,null,"<p> <font color=""green"" size=""5vw""> Correct category! </font> <br> <br> <font color=""green"" size=""8vw""> + $0.05 </font> </p>",null,feedback,,,,,,,0.4,2
,,,,,html-keyboard-response,95,146956,0.0-6.8-0.8,498,"<div style=""text-align: center; position: fixed; top: 5vh; left: 40vw;"">
            <div style=""margin:0 auto; width: 20vw; top: 8vh; font-size: 2vw""> 
            <font color=""green""> Bonus : $0.4 </font>
            </div>
        </div>
    
            <div> Please press any button to continue to the next trial.</div>",arrowup,ITI,,,,,,,,2
,,,,,html-keyboard-response,96,147562,0.0-6.8-1.8,null,"<div style=""text-align: center; position: fixed; top: 5vh; left: 40vw;"">
            <div style=""margin:0 auto; width: 20vw; top: 8vh; font-size: 2vw""> 
            <font color=""green""> Bonus : $0.4 </font>
            </div>
        </div>
    
        <img class=""stim"" src=./stimuli//pack_shapes_diff/cat_1/diff_2/ex_1_2_7.png></img>",null,stimulus,,,,,,,,2
,,,,,html-keyboard-response,97,148570,0.0-6.8-2.8,null,"<div style=""text-align: center; position: fixed; top: 5vh; left: 40vw;"">
            <div style=""margin:0 auto; width: 20vw; top: 8vh; font-size: 2vw""> 
            <font color=""green""> Bonus : $0.4 </font>
            </div>
        </div>",null,,,,,,,,,2
,,,,,html-keyboard-response,98,150066,0.0-6.8-3.8,1495,./stimuli//pack_shapes_diff/cat_1/diff_2/ex_1_2_7.png,arrowright,response,ArrowLeft,7,1,2,test,FALSE,,2
,,,,,html-keyboard-response,99,151576,0.0-6.8-4.8,null,"<p> <font color=""red"" size=""5vw""> Wrong category! </font> </p>",null,feedback,,,,,,,0.4,2
,,,,,html-keyboard-response,100,152387,0.0-6.9-0.9,811,"<div style=""text-align: center; position: fixed; top: 5vh; left: 40vw;"">
            <div style=""margin:0 auto; width: 20vw; top: 8vh; font-size: 2vw""> 
            <font color=""green""> Bonus : $0.4 </font>
            </div>
        </div>
    
            <div> Please press any button to continue to the next trial.</div>",arrowup,ITI,,,,,,,,2
,,,,,html-keyboard-response,101,152996,0.0-6.9-1.9,null,"<div style=""text-align: center; position: fixed; top: 5vh; left: 40vw;"">
            <div style=""margin:0 auto; width: 20vw; top: 8vh; font-size: 2vw""> 
            <font color=""green""> Bonus : $0.4 </font>
            </div>
        </div>
    
        <img class=""stim"" src=./stimuli//pack_shapes_diff/cat_1/diff_2/ex_1_2_16.png></img>",null,stimulus,,,,,,,,2
,,,,,html-keyboard-response,102,154003,0.0-6.9-2.9,null,"<div style=""text-align: center; position: fixed; top: 5vh; left: 40vw;"">
            <div style=""margin:0 auto; width: 20vw; top: 8vh; font-size: 2vw""> 
            <font color=""green""> Bonus : $0.4 </font>
            </div>
        </div>",null,,,,,,,,,2
,,,,,html-keyboard-response,103,154331,0.0-6.9-3.9,328,./stimuli//pack_shapes_diff/cat_1/diff_2/ex_1_2_16.png,arrowleft,response,ArrowLeft,16,1,2,test,TRUE,,2
,,,,,html-keyboard-response,104,155839,0.0-6.9-4.9,null,"<p> <font color=""green"" size=""5vw""> Correct category! </font> <br> <br> <font color=""green"" size=""8vw""> + $0.05 </font> </p>",null,feedback,,,,,,,0.45,2
,,,,,html-keyboard-response,105,156594,0.0-6.10-0.10,755,"<div style=""text-align: center; position: fixed; top: 5vh; left: 40vw;"">
            <div style=""margin:0 auto; width: 20vw; top: 8vh; font-size: 2vw""> 
            <font color=""green""> Bonus : $0.45 </font>
            </div>
        </div>
    
            <div> Please press any button to continue to the next trial.</div>",arrowup,ITI,,,,,,,,2
,,,,,html-keyboard-response,106,157197,0.0-6.10-1.10,null,"<div style=""text-align: center; position: fixed; top: 5vh; left: 40vw;"">
            <div style=""margin:0 auto; width: 20vw; top: 8vh; font-size: 2vw""> 
            <font color=""green""> Bonus : $0.45 </font>
            </div>
        </div>
    
        <img class=""stim"" src=./stimuli//pack_shapes_diff/cat_1/diff_3/ex_1_3_9.png></img>",null,stimulus,,,,,,,,2
,,,,,html-keyboard-response,107,158203,0.0-6.10-2.10,null,"<div style=""text-align: center; position: fixed; top: 5vh; left: 40vw;"">
            <div style=""margin:0 auto; width: 20vw; top: 8vh; font-size: 2vw""> 
            <font color=""green""> Bonus : $0.45 </font>
            </div>
        </div>",null,,,,,,,,,2
,,,,,html-keyboard-response,108,158500,0.0-6.10-3.10,296,./stimuli//pack_shapes_diff/cat_1/diff_3/ex_1_3_9.png,arrowleft,response,ArrowLeft,9,1,3,test,TRUE,,2
,,,,,html-keyboard-response,109,160008,0.0-6.10-4.10,null,"<p> <font color=""green"" size=""5vw""> Correct category! </font> <br> <br> <font color=""green"" size=""8vw""> + $0.05 </font> </p>",null,feedback,,,,,,,0.5,2
,,,,,html-keyboard-response,110,160652,0.0-6.11-0.11,643,"<div style=""text-align: center; position: fixed; top: 5vh; left: 40vw;"">
            <div style=""margin:0 auto; width: 20vw; top: 8vh; font-size: 2vw""> 
            <font color=""green""> Bonus : $0.5 </font>
            </div>
        </div>
    
            <div> Please press any button to continue to the next trial.</div>",arrowup,ITI,,,,,,,,2
,,,,,html-keyboard-response,111,161263,0.0-6.11-1.11,null,"<div style=""text-align: center; position: fixed; top: 5vh; left: 40vw;"">
            <div style=""margin:0 auto; width: 20vw; top: 8vh; font-size: 2vw""> 
            <font color=""green""> Bonus : $0.5 </font>
            </div>
        </div>
    
        <img class=""stim"" src=./stimuli//pack_shapes_diff/cat_2/diff_3/ex_2_3_11.png></img>",null,stimulus,,,,,,,,2
,,,,,html-keyboard-response,112,162268,0.0-6.11-2.11,null,"<div style=""text-align: center; position: fixed; top: 5vh; left: 40vw;"">
            <div style=""margin:0 auto; width: 20vw; top: 8vh; font-size: 2vw""> 
            <font color=""green""> Bonus : $0.5 </font>
            </div>
        </div>",null,,,,,,,,,2
,,,,,html-keyboard-response,113,162976,0.0-6.11-3.11,707,./stimuli//pack_shapes_diff/cat_2/diff_3/ex_2_3_11.png,arrowright,response,ArrowRight,11,2,3,test,TRUE,,2
,,,,,html-keyboard-response,114,164484,0.0-6.11-4.11,null,"<p> <font color=""green"" size=""5vw""> Correct category! </font> <br> <br> <font color=""green"" size=""8vw""> + $0.05 </font> </p>",null,feedback,,,,,,,0.55,2
,,,,,html-keyboard-response,115,164990,0.0-6.12-0.12,504,"<div style=""text-align: center; position: fixed; top: 5vh; left: 40vw;"">
            <div style=""margin:0 auto; width: 20vw; top: 8vh; font-size: 2vw""> 
            <font color=""green""> Bonus : $0.55 </font>
            </div>
        </div>
    
            <div> Please press any button to continue to the next trial.</div>",arrowup,ITI,,,,,,,,2
,,,,,html-keyboard-response,116,165600,0.0-6.12-1.12,null,"<div style=""text-align: center; position: fixed; top: 5vh; left: 40vw;"">
            <div style=""margin:0 auto; width: 20vw; top: 8vh; font-size: 2vw""> 
            <font color=""green""> Bonus : $0.55 </font>
            </div>
        </div>
    
        <img class=""stim"" src=./stimuli//pack_shapes_diff/cat_1/diff_3/ex_1_3_13.png></img>",null,stimulus,,,,,,,,2
,,,,,html-keyboard-response,117,166605,0.0-6.12-2.12,null,"<div style=""text-align: center; position: fixed; top: 5vh; left: 40vw;"">
            <div style=""margin:0 auto; width: 20vw; top: 8vh; font-size: 2vw""> 
            <font color=""green""> Bonus : $0.55 </font>
            </div>
        </div>",null,,,,,,,,,2
,,,,,html-keyboard-response,118,168149,0.0-6.12-3.12,1543,./stimuli//pack_shapes_diff/cat_1/diff_3/ex_1_3_13.png,arrowleft,response,ArrowLeft,13,1,3,test,TRUE,,2
,,,,,html-keyboard-response,119,169652,0.0-6.12-4.12,null,"<p> <font color=""green"" size=""5vw""> Correct category! </font> <br> <br> <font color=""green"" size=""8vw""> + $0.05 </font> </p>",null,feedback,,,,,,,0.6,2
,,,,,html-keyboard-response,120,170246,0.0-6.13-0.13,593,"<div style=""text-align: center; position: fixed; top: 5vh; left: 40vw;"">
            <div style=""margin:0 auto; width: 20vw; top: 8vh; font-size: 2vw""> 
            <font color=""green""> Bonus : $0.6 </font>
            </div>
        </div>
    
            <div> Please press any button to continue to the next trial.</div>",arrowup,ITI,,,,,,,,2
,,,,,html-keyboard-response,121,170856,0.0-6.13-1.13,null,"<div style=""text-align: center; position: fixed; top: 5vh; left: 40vw;"">
            <div style=""margin:0 auto; width: 20vw; top: 8vh; font-size: 2vw""> 
            <font color=""green""> Bonus : $0.6 </font>
            </div>
        </div>
    
        <img class=""stim"" src=./stimuli//pack_shapes_diff/cat_1/diff_3/ex_1_3_4.png></img>",null,stimulus,,,,,,,,2
,,,,,html-keyboard-response,122,171870,0.0-6.13-2.13,null,"<div style=""text-align: center; position: fixed; top: 5vh; left: 40vw;"">
            <div style=""margin:0 auto; width: 20vw; top: 8vh; font-size: 2vw""> 
            <font color=""green""> Bonus : $0.6 </font>
            </div>
        </div>",null,,,,,,,,,2
,,,,,html-keyboard-response,123,172532,0.0-6.13-3.13,662,./stimuli//pack_shapes_diff/cat_1/diff_3/ex_1_3_4.png,arrowleft,response,ArrowLeft,4,1,3,test,TRUE,,2
,,,,,html-keyboard-response,124,174041,0.0-6.13-4.13,null,"<p> <font color=""green"" size=""5vw""> Correct category! </font> <br> <br> <font color=""green"" size=""8vw""> + $0.05 </font> </p>",null,feedback,,,,,,,0.65,2
,,,,,html-keyboard-response,125,176210,0.0-6.14-0.14,2169,"<div style=""text-align: center; position: fixed; top: 5vh; left: 40vw;"">
            <div style=""margin:0 auto; width: 20vw; top: 8vh; font-size: 2vw""> 
            <font color=""green""> Bonus : $0.65 </font>
            </div>
        </div>
    
            <div> Please press any button to continue to the next trial.</div>",arrowup,ITI,,,,,,,,2
,,,,,html-keyboard-response,126,176826,0.0-6.14-1.14,null,"<div style=""text-align: center; position: fixed; top: 5vh; left: 40vw;"">
            <div style=""margin:0 auto; width: 20vw; top: 8vh; font-size: 2vw""> 
            <font color=""green""> Bonus : $0.65 </font>
            </div>
        </div>
    
        <img class=""stim"" src=./stimuli//pack_shapes_diff/cat_1/diff_3/ex_1_3_15.png></img>",null,stimulus,,,,,,,,2
,,,,,html-keyboard-response,127,177835,0.0-6.14-2.14,null,"<div style=""text-align: center; position: fixed; top: 5vh; left: 40vw;"">
            <div style=""margin:0 auto; width: 20vw; top: 8vh; font-size: 2vw""> 
            <font color=""green""> Bonus : $0.65 </font>
            </div>
        </div>",null,,,,,,,,,2
,,,,,html-keyboard-response,128,179603,0.0-6.14-3.14,1773,./stimuli//pack_shapes_diff/cat_1/diff_3/ex_1_3_15.png,arrowright,response,ArrowLeft,15,1,3,test,FALSE,,2
,,,,,html-keyboard-response,129,181112,0.0-6.14-4.14,null,"<p> <font color=""red"" size=""5vw""> Wrong category! </font> </p>",null,feedback,,,,,,,0.65,2
,,,,,html-keyboard-response,130,181401,0.0-6.15-0.15,288,"<div style=""text-align: center; position: fixed; top: 5vh; left: 40vw;"">
            <div style=""margin:0 auto; width: 20vw; top: 8vh; font-size: 2vw""> 
            <font color=""green""> Bonus : $0.65 </font>
            </div>
        </div>
    
            <div> Please press any button to continue to the next trial.</div>",arrowup,ITI,,,,,,,,2
,,,,,html-keyboard-response,131,182016,0.0-6.15-1.15,null,"<div style=""text-align: center; position: fixed; top: 5vh; left: 40vw;"">
            <div style=""margin:0 auto; width: 20vw; top: 8vh; font-size: 2vw""> 
            <font color=""green""> Bonus : $0.65 </font>
            </div>
        </div>
    
        <img class=""stim"" src=./stimuli//pack_shapes_diff/cat_1/diff_4/ex_1_4_8.png></img>",null,stimulus,,,,,,,,2
,,,,,html-keyboard-response,132,183027,0.0-6.15-2.15,null,"<div style=""text-align: center; position: fixed; top: 5vh; left: 40vw;"">
            <div style=""margin:0 auto; width: 20vw; top: 8vh; font-size: 2vw""> 
            <font color=""green""> Bonus : $0.65 </font>
            </div>
        </div>",null,,,,,,,,,2
,,,,,html-keyboard-response,133,183357,0.0-6.15-3.15,329,./stimuli//pack_shapes_diff/cat_1/diff_4/ex_1_4_8.png,arrowleft,response,ArrowLeft,8,1,4,test,TRUE,,2
,,,,,html-keyboard-response,134,184862,0.0-6.15-4.15,null,"<p> <font color=""green"" size=""5vw""> Correct category! </font> <br> <br> <font color=""green"" size=""8vw""> + $0.05 </font> </p>",null,feedback,,,,,,,0.7,2
,,,,,html-keyboard-response,135,185291,0.0-6.16-0.16,428,"<div style=""text-align: center; position: fixed; top: 5vh; left: 40vw;"">
            <div style=""margin:0 auto; width: 20vw; top: 8vh; font-size: 2vw""> 
            <font color=""green""> Bonus : $0.7 </font>
            </div>
        </div>
    
            <div> Please press any button to continue to the next trial.</div>",arrowup,ITI,,,,,,,,2
,,,,,html-keyboard-response,136,185900,0.0-6.16-1.16,null,"<div style=""text-align: center; position: fixed; top: 5vh; left: 40vw;"">
            <div style=""margin:0 auto; width: 20vw; top: 8vh; font-size: 2vw""> 
            <font color=""green""> Bonus : $0.7 </font>
            </div>
        </div>
    
        <img class=""stim"" src=./stimuli//pack_shapes_diff/cat_1/diff_4/ex_1_4_12.png></img>",null,stimulus,,,,,,,,2
,,,,,html-keyboard-response,137,186912,0.0-6.16-2.16,null,"<div style=""text-align: center; position: fixed; top: 5vh; left: 40vw;"">
            <div style=""margin:0 auto; width: 20vw; top: 8vh; font-size: 2vw""> 
            <font color=""green""> Bonus : $0.7 </font>
            </div>
        </div>",null,,,,,,,,,2
,,,,,html-keyboard-response,138,187293,0.0-6.16-3.16,380,./stimuli//pack_shapes_diff/cat_1/diff_4/ex_1_4_12.png,arrowleft,response,ArrowLeft,12,1,4,test,TRUE,,2
,,,,,html-keyboard-response,139,188796,0.0-6.16-4.16,null,"<p> <font color=""green"" size=""5vw""> Correct category! </font> <br> <br> <font color=""green"" size=""8vw""> + $0.05 </font> </p>",null,feedback,,,,,,,0.75,2
,,,,,html-keyboard-response,140,189460,0.0-6.17-0.17,664,"<div style=""text-align: center; position: fixed; top: 5vh; left: 40vw;"">
            <div style=""margin:0 auto; width: 20vw; top: 8vh; font-size: 2vw""> 
            <font color=""green""> Bonus : $0.75 </font>
            </div>
        </div>
    
            <div> Please press any button to continue to the next trial.</div>",arrowup,ITI,,,,,,,,2
,,,,,html-keyboard-response,141,190069,0.0-6.17-1.17,null,"<div style=""text-align: center; position: fixed; top: 5vh; left: 40vw;"">
            <div style=""margin:0 auto; width: 20vw; top: 8vh; font-size: 2vw""> 
            <font color=""green""> Bonus : $0.75 </font>
            </div>
        </div>
    
        <img class=""stim"" src=./stimuli//pack_shapes_diff/cat_1/diff_4/ex_1_4_6.png></img>",null,stimulus,,,,,,,,2
,,,,,html-keyboard-response,142,191085,0.0-6.17-2.17,null,"<div style=""text-align: center; position: fixed; top: 5vh; left: 40vw;"">
            <div style=""margin:0 auto; width: 20vw; top: 8vh; font-size: 2vw""> 
            <font color=""green""> Bonus : $0.75 </font>
            </div>
        </div>",null,,,,,,,,,2
,,,,,html-keyboard-response,143,191467,0.0-6.17-3.17,381,./stimuli//pack_shapes_diff/cat_1/diff_4/ex_1_4_6.png,arrowleft,response,ArrowLeft,6,1,4,test,TRUE,,2
,,,,,html-keyboard-response,144,192976,0.0-6.17-4.17,null,"<p> <font color=""green"" size=""5vw""> Correct category! </font> <br> <br> <font color=""green"" size=""8vw""> + $0.05 </font> </p>",null,feedback,,,,,,,0.8,2
,,,,,html-keyboard-response,145,193772,0.0-6.18-0.18,796,"<div style=""text-align: center; position: fixed; top: 5vh; left: 40vw;"">
            <div style=""margin:0 auto; width: 20vw; top: 8vh; font-size: 2vw""> 
            <font color=""green""> Bonus : $0.8 </font>
            </div>
        </div>
    
            <div> Please press any button to continue to the next trial.</div>",arrowup,ITI,,,,,,,,2
,,,,,html-keyboard-response,146,194380,0.0-6.18-1.18,null,"<div style=""text-align: center; position: fixed; top: 5vh; left: 40vw;"">
            <div style=""margin:0 auto; width: 20vw; top: 8vh; font-size: 2vw""> 
            <font color=""green""> Bonus : $0.8 </font>
            </div>
        </div>
    
        <img class=""stim"" src=./stimuli//pack_shapes_diff/cat_1/diff_4/ex_1_4_14.png></img>",null,stimulus,,,,,,,,2
,,,,,html-keyboard-response,147,195380,0.0-6.18-2.18,null,"<div style=""text-align: center; position: fixed; top: 5vh; left: 40vw;"">
            <div style=""margin:0 auto; width: 20vw; top: 8vh; font-size: 2vw""> 
            <font color=""green""> Bonus : $0.8 </font>
            </div>
        </div>",null,,,,,,,,,2
,,,,,html-keyboard-response,148,195746,0.0-6.18-3.18,365,./stimuli//pack_shapes_diff/cat_1/diff_4/ex_1_4_14.png,arrowleft,response,ArrowLeft,14,1,4,test,TRUE,,2
,,,,,html-keyboard-response,149,197247,0.0-6.18-4.18,null,"<p> <font color=""green"" size=""5vw""> Correct category! </font> <br> <br> <font color=""green"" size=""8vw""> + $0.05 </font> </p>",null,feedback,,,,,,,0.85,2
,,,,,html-keyboard-response,150,197766,0.0-6.19-0.19,518,"<div style=""text-align: center; position: fixed; top: 5vh; left: 40vw;"">
            <div style=""margin:0 auto; width: 20vw; top: 8vh; font-size: 2vw""> 
            <font color=""green""> Bonus : $0.85 </font>
            </div>
        </div>
    
            <div> Please press any button to continue to the next trial.</div>",arrowup,ITI,,,,,,,,2
,,,,,html-keyboard-response,151,198381,0.0-6.19-1.19,null,"<div style=""text-align: center; position: fixed; top: 5vh; left: 40vw;"">
            <div style=""margin:0 auto; width: 20vw; top: 8vh; font-size: 2vw""> 
            <font color=""green""> Bonus : $0.85 </font>
            </div>
        </div>
    
        <img class=""stim"" src=./stimuli//pack_shapes_diff/cat_1/diff_4/ex_1_4_15.png></img>",null,stimulus,,,,,,,,2
,,,,,html-keyboard-response,152,199392,0.0-6.19-2.19,null,"<div style=""text-align: center; position: fixed; top: 5vh; left: 40vw;"">
            <div style=""margin:0 auto; width: 20vw; top: 8vh; font-size: 2vw""> 
            <font color=""green""> Bonus : $0.85 </font>
            </div>
        </div>",null,,,,,,,,,2
,,,,,html-keyboard-response,153,199706,0.0-6.19-3.19,314,./stimuli//pack_shapes_diff/cat_1/diff_4/ex_1_4_15.png,arrowleft,response,ArrowLeft,15,1,4,test,TRUE,,2
,,,,,html-keyboard-response,154,201211,0.0-6.19-4.19,null,"<p> <font color=""green"" size=""5vw""> Correct category! </font> <br> <br> <font color=""green"" size=""8vw""> + $0.05 </font> </p>",null,feedback,,,,,,,0.9,2
,,,,,html-keyboard-response,155,201881,0.0-6.20-0.20,670,"<div style=""text-align: center; position: fixed; top: 5vh; left: 40vw;"">
            <div style=""margin:0 auto; width: 20vw; top: 8vh; font-size: 2vw""> 
            <font color=""green""> Bonus : $0.9 </font>
            </div>
        </div>
    
            <div> Please press any button to continue to the next trial.</div>",arrowup,ITI,,,,,,,,2
,,,,,html-keyboard-response,156,202495,0.0-6.20-1.20,null,"<div style=""text-align: center; position: fixed; top: 5vh; left: 40vw;"">
            <div style=""margin:0 auto; width: 20vw; top: 8vh; font-size: 2vw""> 
            <font color=""green""> Bonus : $0.9 </font>
            </div>
        </div>
    
        <img class=""stim"" src=./stimuli//pack_shapes_diff/cat_1/diff_5/ex_1_5_7.png></img>",null,stimulus,,,,,,,,2
,,,,,html-keyboard-response,157,203509,0.0-6.20-2.20,null,"<div style=""text-align: center; position: fixed; top: 5vh; left: 40vw;"">
            <div style=""margin:0 auto; width: 20vw; top: 8vh; font-size: 2vw""> 
            <font color=""green""> Bonus : $0.9 </font>
            </div>
        </div>",null,,,,,,,,,2
,,,,,html-keyboard-response,158,203794,0.0-6.20-3.20,284,./stimuli//pack_shapes_diff/cat_1/diff_5/ex_1_5_7.png,arrowleft,response,ArrowLeft,7,1,5,test,TRUE,,2
,,,,,html-keyboard-response,159,205295,0.0-6.20-4.20,null,"<p> <font color=""green"" size=""5vw""> Correct category! </font> <br> <br> <font color=""green"" size=""8vw""> + $0.05 </font> </p>",null,feedback,,,,,,,0.95,2
,,,,,html-keyboard-response,160,205899,0.0-6.21-0.21,603,"<div style=""text-align: center; position: fixed; top: 5vh; left: 40vw;"">
            <div style=""margin:0 auto; width: 20vw; top: 8vh; font-size: 2vw""> 
            <font color=""green""> Bonus : $0.95 </font>
            </div>
        </div>
    
            <div> Please press any button to continue to the next trial.</div>",arrowup,ITI,,,,,,,,2
,,,,,html-keyboard-response,161,206513,0.0-6.21-1.21,null,"<div style=""text-align: center; position: fixed; top: 5vh; left: 40vw;"">
            <div style=""margin:0 auto; width: 20vw; top: 8vh; font-size: 2vw""> 
            <font color=""green""> Bonus : $0.95 </font>
            </div>
        </div>
    
        <img class=""stim"" src=./stimuli//pack_shapes_diff/cat_1/diff_5/ex_1_5_1.png></img>",null,stimulus,,,,,,,,2
,,,,,html-keyboard-response,162,207524,0.0-6.21-2.21,null,"<div style=""text-align: center; position: fixed; top: 5vh; left: 40vw;"">
            <div style=""margin:0 auto; width: 20vw; top: 8vh; font-size: 2vw""> 
            <font color=""green""> Bonus : $0.95 </font>
            </div>
        </div>",null,,,,,,,,,2
,,,,,html-keyboard-response,163,207839,0.0-6.21-3.21,315,./stimuli//pack_shapes_diff/cat_1/diff_5/ex_1_5_1.png,arrowleft,response,ArrowLeft,1,1,5,test,TRUE,,2
,,,,,html-keyboard-response,164,209343,0.0-6.21-4.21,null,"<p> <font color=""green"" size=""5vw""> Correct category! </font> <br> <br> <font color=""green"" size=""8vw""> + $0.05 </font> </p>",null,feedback,,,,,,,1,2
,,,,,html-keyboard-response,165,209886,0.0-6.22-0.22,542,"<div style=""text-align: center; position: fixed; top: 5vh; left: 40vw;"">
            <div style=""margin:0 auto; width: 20vw; top: 8vh; font-size: 2vw""> 
            <font color=""green""> Bonus : $1 </font>
            </div>
        </div>
    
            <div> Please press any button to continue to the next trial.</div>",arrowup,ITI,,,,,,,,2
,,,,,html-keyboard-response,166,210501,0.0-6.22-1.22,null,"<div style=""text-align: center; position: fixed; top: 5vh; left: 40vw;"">
            <div style=""margin:0 auto; width: 20vw; top: 8vh; font-size: 2vw""> 
            <font color=""green""> Bonus : $1 </font>
            </div>
        </div>
    
        <img class=""stim"" src=./stimuli//pack_shapes_diff/cat_1/diff_5/ex_1_5_9.png></img>",null,stimulus,,,,,,,,2
,,,,,html-keyboard-response,167,211509,0.0-6.22-2.22,null,"<div style=""text-align: center; position: fixed; top: 5vh; left: 40vw;"">
            <div style=""margin:0 auto; width: 20vw; top: 8vh; font-size: 2vw""> 
            <font color=""green""> Bonus : $1 </font>
            </div>
        </div>",null,,,,,,,,,2
,,,,,html-keyboard-response,168,211811,0.0-6.22-3.22,301,./stimuli//pack_shapes_diff/cat_1/diff_5/ex_1_5_9.png,arrowleft,response,ArrowLeft,9,1,5,test,TRUE,,2
,,,,,html-keyboard-response,169,213312,0.0-6.22-4.22,null,"<p> <font color=""green"" size=""5vw""> Correct category! </font> <br> <br> <font color=""green"" size=""8vw""> + $0.05 </font> </p>",null,feedback,,,,,,,1.05,2
,,,,,html-keyboard-response,170,213749,0.0-6.23-0.23,437,"<div style=""text-align: center; position: fixed; top: 5vh; left: 40vw;"">
            <div style=""margin:0 auto; width: 20vw; top: 8vh; font-size: 2vw""> 
            <font color=""green""> Bonus : $1.05 </font>
            </div>
        </div>
    
            <div> Please press any button to continue to the next trial.</div>",arrowup,ITI,,,,,,,,2
,,,,,html-keyboard-response,171,214352,0.0-6.23-1.23,null,"<div style=""text-align: center; position: fixed; top: 5vh; left: 40vw;"">
            <div style=""margin:0 auto; width: 20vw; top: 8vh; font-size: 2vw""> 
            <font color=""green""> Bonus : $1.05 </font>
            </div>
        </div>
    
        <img class=""stim"" src=./stimuli//pack_shapes_diff/cat_1/diff_5/ex_1_5_11.png></img>",null,stimulus,,,,,,,,2
,,,,,html-keyboard-response,172,215356,0.0-6.23-2.23,null,"<div style=""text-align: center; position: fixed; top: 5vh; left: 40vw;"">
            <div style=""margin:0 auto; width: 20vw; top: 8vh; font-size: 2vw""> 
            <font color=""green""> Bonus : $1.05 </font>
            </div>
        </div>",null,,,,,,,,,2
,,,,,html-keyboard-response,173,215690,0.0-6.23-3.23,333,./stimuli//pack_shapes_diff/cat_1/diff_5/ex_1_5_11.png,arrowright,response,ArrowLeft,11,1,5,test,FALSE,,2
,,,,,html-keyboard-response,174,216961,0.0-6.23-4.23,1270,"<p> <font color=""red"" size=""5vw""> Wrong category! </font> </p>",arrowup,feedback,,,,,,,1.05,2
,,,,,html-keyboard-response,175,217931,0.0-6.24-0.24,970,"<div style=""text-align: center; position: fixed; top: 5vh; left: 40vw;"">
            <div style=""margin:0 auto; width: 20vw; top: 8vh; font-size: 2vw""> 
            <font color=""green""> Bonus : $1.05 </font>
            </div>
        </div>
    
            <div> Please press any button to continue to the next trial.</div>",arrowup,ITI,,,,,,,,2
,,,,,html-keyboard-response,176,218535,0.0-6.24-1.24,null,"<div style=""text-align: center; position: fixed; top: 5vh; left: 40vw;"">
            <div style=""margin:0 auto; width: 20vw; top: 8vh; font-size: 2vw""> 
            <font color=""green""> Bonus : $1.05 </font>
            </div>
        </div>
    
        <img class=""stim"" src=./stimuli//pack_shapes_diff/cat_2/diff_5/ex_2_5_10.png></img>",null,stimulus,,,,,,,,2
,,,,,html-keyboard-response,177,219539,0.0-6.24-2.24,null,"<div style=""text-align: center; position: fixed; top: 5vh; left: 40vw;"">
            <div style=""margin:0 auto; width: 20vw; top: 8vh; font-size: 2vw""> 
            <font color=""green""> Bonus : $1.05 </font>
            </div>
        </div>",null,,,,,,,,,2
,,,,,html-keyboard-response,178,219884,0.0-6.24-3.24,344,./stimuli//pack_shapes_diff/cat_2/diff_5/ex_2_5_10.png,arrowright,response,ArrowRight,10,2,5,test,TRUE,,2
,,,,,html-keyboard-response,179,221391,0.0-6.24-4.24,null,"<p> <font color=""green"" size=""5vw""> Correct category! </font> <br> <br> <font color=""green"" size=""8vw""> + $0.05 </font> </p>",null,feedback,,,,,,,1.1,2
,,,,,html-keyboard-response,180,222089,0.0-6.25-0.25,697,"<div style=""text-align: center; position: fixed; top: 5vh; left: 40vw;"">
            <div style=""margin:0 auto; width: 20vw; top: 8vh; font-size: 2vw""> 
            <font color=""green""> Bonus : $1.1 </font>
            </div>
        </div>
    
            <div> Please press any button to continue to the next trial.</div>",arrowup,ITI,,,,,,,,2
,,,,,html-keyboard-response,181,222699,0.0-6.25-1.25,null,"<div style=""text-align: center; position: fixed; top: 5vh; left: 40vw;"">
            <div style=""margin:0 auto; width: 20vw; top: 8vh; font-size: 2vw""> 
            <font color=""green""> Bonus : $1.1 </font>
            </div>
        </div>
    
        <img class=""stim"" src=./stimuli//pack_shapes_diff/cat_1/diff_5/ex_1_5_12.png></img>",null,stimulus,,,,,,,,2
,,,,,html-keyboard-response,182,223706,0.0-6.25-2.25,null,"<div style=""text-align: center; position: fixed; top: 5vh; left: 40vw;"">
            <div style=""margin:0 auto; width: 20vw; top: 8vh; font-size: 2vw""> 
            <font color=""green""> Bonus : $1.1 </font>
            </div>
        </div>",null,,,,,,,,,2
,,,,,html-keyboard-response,183,224181,0.0-6.25-3.25,474,./stimuli//pack_shapes_diff/cat_1/diff_5/ex_1_5_12.png,arrowright,response,ArrowLeft,12,1,5,test,FALSE,,2
,,,,,html-keyboard-response,184,225691,0.0-6.25-4.25,null,"<p> <font color=""red"" size=""5vw""> Wrong category! </font> </p>",null,feedback,,,,,,,1.1,2
,,,,,html-keyboard-response,185,226267,0.0-6.26-0.26,575,"<div style=""text-align: center; position: fixed; top: 5vh; left: 40vw;"">
            <div style=""margin:0 auto; width: 20vw; top: 8vh; font-size: 2vw""> 
            <font color=""green""> Bonus : $1.1 </font>
            </div>
        </div>
    
            <div> Please press any button to continue to the next trial.</div>",arrowup,ITI,,,,,,,,2
,,,,,html-keyboard-response,186,226882,0.0-6.26-1.26,null,"<div style=""text-align: center; position: fixed; top: 5vh; left: 40vw;"">
            <div style=""margin:0 auto; width: 20vw; top: 8vh; font-size: 2vw""> 
            <font color=""green""> Bonus : $1.1 </font>
            </div>
        </div>
    
        <img class=""stim"" src=./stimuli//pack_shapes_diff/cat_1/diff_4/ex_1_4_1.png></img>",null,stimulus,,,,,,,,2
,,,,,html-keyboard-response,187,227889,0.0-6.26-2.26,null,"<div style=""text-align: center; position: fixed; top: 5vh; left: 40vw;"">
            <div style=""margin:0 auto; width: 20vw; top: 8vh; font-size: 2vw""> 
            <font color=""green""> Bonus : $1.1 </font>
            </div>
        </div>",null,,,,,,,,,2
,,,,,html-keyboard-response,188,228161,0.0-6.26-3.26,272,./stimuli//pack_shapes_diff/cat_1/diff_4/ex_1_4_1.png,arrowleft,response,ArrowLeft,1,1,4,test,TRUE,,2
,,,,,html-keyboard-response,189,229666,0.0-6.26-4.26,null,"<p> <font color=""green"" size=""5vw""> Correct category! </font> <br> <br> <font color=""green"" size=""8vw""> + $0.05 </font> </p>",null,feedback,,,,,,,1.15,2
,,,,,html-keyboard-response,190,230248,0.0-6.27-0.27,581,"<div style=""text-align: center; position: fixed; top: 5vh; left: 40vw;"">
            <div style=""margin:0 auto; width: 20vw; top: 8vh; font-size: 2vw""> 
            <font color=""green""> Bonus : $1.15 </font>
            </div>
        </div>
    
            <div> Please press any button to continue to the next trial.</div>",arrowup,ITI,,,,,,,,2
,,,,,html-keyboard-response,191,230853,0.0-6.27-1.27,null,"<div style=""text-align: center; position: fixed; top: 5vh; left: 40vw;"">
            <div style=""margin:0 auto; width: 20vw; top: 8vh; font-size: 2vw""> 
            <font color=""green""> Bonus : $1.15 </font>
            </div>
        </div>
    
        <img class=""stim"" src=./stimuli//pack_shapes_diff/cat_2/diff_4/ex_2_4_5.png></img>",null,stimulus,,,,,,,,2
,,,,,html-keyboard-response,192,231861,0.0-6.27-2.27,null,"<div style=""text-align: center; position: fixed; top: 5vh; left: 40vw;"">
            <div style=""margin:0 auto; width: 20vw; top: 8vh; font-size: 2vw""> 
            <font color=""green""> Bonus : $1.15 </font>
            </div>
        </div>",null,,,,,,,,,2
,,,,,html-keyboard-response,193,232180,0.0-6.27-3.27,319,./stimuli//pack_shapes_diff/cat_2/diff_4/ex_2_4_5.png,arrowright,response,ArrowRight,5,2,4,test,TRUE,,2
,,,,,html-keyboard-response,194,233691,0.0-6.27-4.27,null,"<p> <font color=""green"" size=""5vw""> Correct category! </font> <br> <br> <font color=""green"" size=""8vw""> + $0.05 </font> </p>",null,feedback,,,,,,,1.2,2
,,,,,html-keyboard-response,195,234200,0.0-6.28-0.28,508,"<div style=""text-align: center; position: fixed; top: 5vh; left: 40vw;"">
            <div style=""margin:0 auto; width: 20vw; top: 8vh; font-size: 2vw""> 
            <font color=""green""> Bonus : $1.2 </font>
            </div>
        </div>
    
            <div> Please press any button to continue to the next trial.</div>",arrowup,ITI,,,,,,,,2
,,,,,html-keyboard-response,196,234812,0.0-6.28-1.28,null,"<div style=""text-align: center; position: fixed; top: 5vh; left: 40vw;"">
            <div style=""margin:0 auto; width: 20vw; top: 8vh; font-size: 2vw""> 
            <font color=""green""> Bonus : $1.2 </font>
            </div>
        </div>
    
        <img class=""stim"" src=./stimuli//pack_shapes_diff/cat_1/diff_4/ex_1_4_5.png></img>",null,stimulus,,,,,,,,2
,,,,,html-keyboard-response,197,235821,0.0-6.28-2.28,null,"<div style=""text-align: center; position: fixed; top: 5vh; left: 40vw;"">
            <div style=""margin:0 auto; width: 20vw; top: 8vh; font-size: 2vw""> 
            <font color=""green""> Bonus : $1.2 </font>
            </div>
        </div>",null,,,,,,,,,2
,,,,,html-keyboard-response,198,236084,0.0-6.28-3.28,263,./stimuli//pack_shapes_diff/cat_1/diff_4/ex_1_4_5.png,arrowleft,response,ArrowLeft,5,1,4,test,TRUE,,2
,,,,,html-keyboard-response,199,237589,0.0-6.28-4.28,null,"<p> <font color=""green"" size=""5vw""> Correct category! </font> <br> <br> <font color=""green"" size=""8vw""> + $0.05 </font> </p>",null,feedback,,,,,,,1.25,2
,,,,,html-keyboard-response,200,238164,0.0-6.29-0.29,575,"<div style=""text-align: center; position: fixed; top: 5vh; left: 40vw;"">
            <div style=""margin:0 auto; width: 20vw; top: 8vh; font-size: 2vw""> 
            <font color=""green""> Bonus : $1.25 </font>
            </div>
        </div>
    
            <div> Please press any button to continue to the next trial.</div>",arrowup,ITI,,,,,,,,2
,,,,,html-keyboard-response,201,238780,0.0-6.29-1.29,null,"<div style=""text-align: center; position: fixed; top: 5vh; left: 40vw;"">
            <div style=""margin:0 auto; width: 20vw; top: 8vh; font-size: 2vw""> 
            <font color=""green""> Bonus : $1.25 </font>
            </div>
        </div>
    
        <img class=""stim"" src=./stimuli//pack_shapes_diff/cat_1/diff_4/ex_1_4_8.png></img>",null,stimulus,,,,,,,,2
,,,,,html-keyboard-response,202,239797,0.0-6.29-2.29,null,"<div style=""text-align: center; position: fixed; top: 5vh; left: 40vw;"">
            <div style=""margin:0 auto; width: 20vw; top: 8vh; font-size: 2vw""> 
            <font color=""green""> Bonus : $1.25 </font>
            </div>
        </div>",null,,,,,,,,,2
,,,,,html-keyboard-response,203,240246,0.0-6.29-3.29,448,./stimuli//pack_shapes_diff/cat_1/diff_4/ex_1_4_8.png,arrowleft,response,ArrowLeft,8,1,4,test,TRUE,,2
,,,,,html-keyboard-response,204,241760,0.0-6.29-4.29,null,"<p> <font color=""green"" size=""5vw""> Correct category! </font> <br> <br> <font color=""green"" size=""8vw""> + $0.05 </font> </p>",null,feedback,,,,,,,1.3,2
,,,,,html-keyboard-response,205,242666,0.0-6.30-0.30,906,"<div style=""text-align: center; position: fixed; top: 5vh; left: 40vw;"">
            <div style=""margin:0 auto; width: 20vw; top: 8vh; font-size: 2vw""> 
            <font color=""green""> Bonus : $1.3 </font>
            </div>
        </div>
    
            <div> Please press any button to continue to the next trial.</div>",arrowup,ITI,,,,,,,,2
,,,,,html-keyboard-response,206,243269,0.0-6.30-1.30,null,"<div style=""text-align: center; position: fixed; top: 5vh; left: 40vw;"">
            <div style=""margin:0 auto; width: 20vw; top: 8vh; font-size: 2vw""> 
            <font color=""green""> Bonus : $1.3 </font>
            </div>
        </div>
    
        <img class=""stim"" src=./stimuli//pack_shapes_diff/cat_1/diff_4/ex_1_4_3.png></img>",null,stimulus,,,,,,,,2
,,,,,html-keyboard-response,207,244279,0.0-6.30-2.30,null,"<div style=""text-align: center; position: fixed; top: 5vh; left: 40vw;"">
            <div style=""margin:0 auto; width: 20vw; top: 8vh; font-size: 2vw""> 
            <font color=""green""> Bonus : $1.3 </font>
            </div>
        </div>",null,,,,,,,,,2
,,,,,html-keyboard-response,208,244574,0.0-6.30-3.30,295,./stimuli//pack_shapes_diff/cat_1/diff_4/ex_1_4_3.png,arrowleft,response,ArrowLeft,3,1,4,test,TRUE,,2
,,,,,html-keyboard-response,209,246090,0.0-6.30-4.30,null,"<p> <font color=""green"" size=""5vw""> Correct category! </font> <br> <br> <font color=""green"" size=""8vw""> + $0.05 </font> </p>",null,feedback,,,,,,,1.35,2
,,,,,html-keyboard-response,210,246815,0.0-6.31-0.31,724,"<div style=""text-align: center; position: fixed; top: 5vh; left: 40vw;"">
            <div style=""margin:0 auto; width: 20vw; top: 8vh; font-size: 2vw""> 
            <font color=""green""> Bonus : $1.35 </font>
            </div>
        </div>
    
            <div> Please press any button to continue to the next trial.</div>",arrowup,ITI,,,,,,,,2
,,,,,html-keyboard-response,211,247432,0.0-6.31-1.31,null,"<div style=""text-align: center; position: fixed; top: 5vh; left: 40vw;"">
            <div style=""margin:0 auto; width: 20vw; top: 8vh; font-size: 2vw""> 
            <font color=""green""> Bonus : $1.35 </font>
            </div>
        </div>
    
        <img class=""stim"" src=./stimuli//pack_shapes_diff/cat_2/diff_5/ex_2_5_2.png></img>",null,stimulus,,,,,,,,2
,,,,,html-keyboard-response,212,248441,0.0-6.31-2.31,null,"<div style=""text-align: center; position: fixed; top: 5vh; left: 40vw;"">
            <div style=""margin:0 auto; width: 20vw; top: 8vh; font-size: 2vw""> 
            <font color=""green""> Bonus : $1.35 </font>
            </div>
        </div>",null,,,,,,,,,2
,,,,,html-keyboard-response,213,248749,0.0-6.31-3.31,307,./stimuli//pack_shapes_diff/cat_2/diff_5/ex_2_5_2.png,arrowright,response,ArrowRight,2,2,5,test,TRUE,,2
,,,,,html-keyboard-response,214,250261,0.0-6.31-4.31,null,"<p> <font color=""green"" size=""5vw""> Correct category! </font> <br> <br> <font color=""green"" size=""8vw""> + $0.05 </font> </p>",null,feedback,,,,,,,1.4,2
,,,,,html-keyboard-response,215,251178,0.0-6.32-0.32,916,"<div style=""text-align: center; position: fixed; top: 5vh; left: 40vw;"">
            <div style=""margin:0 auto; width: 20vw; top: 8vh; font-size: 2vw""> 
            <font color=""green""> Bonus : $1.4 </font>
            </div>
        </div>
    
            <div> Please press any button to continue to the next trial.</div>",arrowup,ITI,,,,,,,,2
,,,,,html-keyboard-response,216,251786,0.0-6.32-1.32,null,"<div style=""text-align: center; position: fixed; top: 5vh; left: 40vw;"">
            <div style=""margin:0 auto; width: 20vw; top: 8vh; font-size: 2vw""> 
            <font color=""green""> Bonus : $1.4 </font>
            </div>
        </div>
    
        <img class=""stim"" src=./stimuli//pack_shapes_diff/cat_1/diff_5/ex_1_5_2.png></img>",null,stimulus,,,,,,,,2
,,,,,html-keyboard-response,217,252796,0.0-6.32-2.32,null,"<div style=""text-align: center; position: fixed; top: 5vh; left: 40vw;"">
            <div style=""margin:0 auto; width: 20vw; top: 8vh; font-size: 2vw""> 
            <font color=""green""> Bonus : $1.4 </font>
            </div>
        </div>",null,,,,,,,,,2
,,,,,html-keyboard-response,218,253583,0.0-6.32-3.32,786,./stimuli//pack_shapes_diff/cat_1/diff_5/ex_1_5_2.png,arrowleft,response,ArrowLeft,2,1,5,test,TRUE,,2
,,,,,html-keyboard-response,219,255093,0.0-6.32-4.32,null,"<p> <font color=""green"" size=""5vw""> Correct category! </font> <br> <br> <font color=""green"" size=""8vw""> + $0.05 </font> </p>",null,feedback,,,,,,,1.45,2
,,,,,html-keyboard-response,220,255626,0.0-6.33-0.33,532,"<div style=""text-align: center; position: fixed; top: 5vh; left: 40vw;"">
            <div style=""margin:0 auto; width: 20vw; top: 8vh; font-size: 2vw""> 
            <font color=""green""> Bonus : $1.45 </font>
            </div>
        </div>
    
            <div> Please press any button to continue to the next trial.</div>",arrowup,ITI,,,,,,,,2
,,,,,html-keyboard-response,221,256233,0.0-6.33-1.33,null,"<div style=""text-align: center; position: fixed; top: 5vh; left: 40vw;"">
            <div style=""margin:0 auto; width: 20vw; top: 8vh; font-size: 2vw""> 
            <font color=""green""> Bonus : $1.45 </font>
            </div>
        </div>
    
        <img class=""stim"" src=./stimuli//pack_shapes_diff/cat_1/diff_5/ex_1_5_1.png></img>",null,stimulus,,,,,,,,2
,,,,,html-keyboard-response,222,257243,0.0-6.33-2.33,null,"<div style=""text-align: center; position: fixed; top: 5vh; left: 40vw;"">
            <div style=""margin:0 auto; width: 20vw; top: 8vh; font-size: 2vw""> 
            <font color=""green""> Bonus : $1.45 </font>
            </div>
        </div>",null,,,,,,,,,2
,,,,,html-keyboard-response,223,257555,0.0-6.33-3.33,311,./stimuli//pack_shapes_diff/cat_1/diff_5/ex_1_5_1.png,arrowright,response,ArrowLeft,1,1,5,test,FALSE,,2
,,,,,html-keyboard-response,224,259063,0.0-6.33-4.33,null,"<p> <font color=""red"" size=""5vw""> Wrong category! </font> </p>",null,feedback,,,,,,,1.45,2
,,,,,html-keyboard-response,225,259333,0.0-6.34-0.34,270,"<div style=""text-align: center; position: fixed; top: 5vh; left: 40vw;"">
            <div style=""margin:0 auto; width: 20vw; top: 8vh; font-size: 2vw""> 
            <font color=""green""> Bonus : $1.45 </font>
            </div>
        </div>
    
            <div> Please press any button to continue to the next trial.</div>",arrowup,ITI,,,,,,,,2
,,,,,html-keyboard-response,226,259949,0.0-6.34-1.34,null,"<div style=""text-align: center; position: fixed; top: 5vh; left: 40vw;"">
            <div style=""margin:0 auto; width: 20vw; top: 8vh; font-size: 2vw""> 
            <font color=""green""> Bonus : $1.45 </font>
            </div>
        </div>
    
        <img class=""stim"" src=./stimuli//pack_shapes_diff/cat_1/diff_5/ex_1_5_5.png></img>",null,stimulus,,,,,,,,2
,,,,,html-keyboard-response,227,260959,0.0-6.34-2.34,null,"<div style=""text-align: center; position: fixed; top: 5vh; left: 40vw;"">
            <div style=""margin:0 auto; width: 20vw; top: 8vh; font-size: 2vw""> 
            <font color=""green""> Bonus : $1.45 </font>
            </div>
        </div>",null,,,,,,,,,2
,,,,,html-keyboard-response,228,261246,0.0-6.34-3.34,286,./stimuli//pack_shapes_diff/cat_1/diff_5/ex_1_5_5.png,arrowleft,response,ArrowLeft,5,1,5,test,TRUE,,2
,,,,,html-keyboard-response,229,262757,0.0-6.34-4.34,null,"<p> <font color=""green"" size=""5vw""> Correct category! </font> <br> <br> <font color=""green"" size=""8vw""> + $0.05 </font> </p>",null,feedback,,,,,,,1.5,2
,,,,,html-keyboard-response,230,264399,0.0-6.35-0.35,1641,"<div style=""text-align: center; position: fixed; top: 5vh; left: 40vw;"">
            <div style=""margin:0 auto; width: 20vw; top: 8vh; font-size: 2vw""> 
            <font color=""green""> Bonus : $1.5 </font>
            </div>
        </div>
    
            <div> Please press any button to continue to the next trial.</div>",arrowup,ITI,,,,,,,,2
,,,,,html-keyboard-response,231,265014,0.0-6.35-1.35,null,"<div style=""text-align: center; position: fixed; top: 5vh; left: 40vw;"">
            <div style=""margin:0 auto; width: 20vw; top: 8vh; font-size: 2vw""> 
            <font color=""green""> Bonus : $1.5 </font>
            </div>
        </div>
    
        <img class=""stim"" src=./stimuli//pack_shapes_diff/cat_2/diff_5/ex_2_5_13.png></img>",null,stimulus,,,,,,,,2
,,,,,html-keyboard-response,232,266023,0.0-6.35-2.35,null,"<div style=""text-align: center; position: fixed; top: 5vh; left: 40vw;"">
            <div style=""margin:0 auto; width: 20vw; top: 8vh; font-size: 2vw""> 
            <font color=""green""> Bonus : $1.5 </font>
            </div>
        </div>",null,,,,,,,,,2
,,,,,html-keyboard-response,233,266388,0.0-6.35-3.35,364,./stimuli//pack_shapes_diff/cat_2/diff_5/ex_2_5_13.png,arrowleft,response,ArrowRight,13,2,5,test,FALSE,,2
,,,,,html-keyboard-response,234,267890,0.0-6.35-4.35,null,"<p> <font color=""red"" size=""5vw""> Wrong category! </font> </p>",null,feedback,,,,,,,1.5,2
,,,,,html-keyboard-response,235,268386,0.0-6.36-0.36,494,"<div style=""text-align: center; position: fixed; top: 5vh; left: 40vw;"">
            <div style=""margin:0 auto; width: 20vw; top: 8vh; font-size: 2vw""> 
            <font color=""green""> Bonus : $1.5 </font>
            </div>
        </div>
    
            <div> Please press any button to continue to the next trial.</div>",arrowup,ITI,,,,,,,,2
,,,,,html-keyboard-response,236,268999,0.0-6.36-1.36,null,"<div style=""text-align: center; position: fixed; top: 5vh; left: 40vw;"">
            <div style=""margin:0 auto; width: 20vw; top: 8vh; font-size: 2vw""> 
            <font color=""green""> Bonus : $1.5 </font>
            </div>
        </div>
    
        <img class=""stim"" src=./stimuli//pack_shapes_diff/cat_1/diff_4/ex_1_4_3.png></img>",null,stimulus,,,,,,,,2
,,,,,html-keyboard-response,237,270009,0.0-6.36-2.36,null,"<div style=""text-align: center; position: fixed; top: 5vh; left: 40vw;"">
            <div style=""margin:0 auto; width: 20vw; top: 8vh; font-size: 2vw""> 
            <font color=""green""> Bonus : $1.5 </font>
            </div>
        </div>",null,,,,,,,,,2
,,,,,html-keyboard-response,238,270299,0.0-6.36-3.36,289,./stimuli//pack_shapes_diff/cat_1/diff_4/ex_1_4_3.png,arrowleft,response,ArrowLeft,3,1,4,test,TRUE,,2
,,,,,html-keyboard-response,239,271809,0.0-6.36-4.36,null,"<p> <font color=""green"" size=""5vw""> Correct category! </font> <br> <br> <font color=""green"" size=""8vw""> + $0.05 </font> </p>",null,feedback,,,,,,,1.55,2
,,,,,html-keyboard-response,240,272625,0.0-6.37-0.37,815,"<div style=""text-align: center; position: fixed; top: 5vh; left: 40vw;"">
            <div style=""margin:0 auto; width: 20vw; top: 8vh; font-size: 2vw""> 
            <font color=""green""> Bonus : $1.55 </font>
            </div>
        </div>
    
            <div> Please press any button to continue to the next trial.</div>",arrowup,ITI,,,,,,,,2
,,,,,html-keyboard-response,241,273232,0.0-6.37-1.37,null,"<div style=""text-align: center; position: fixed; top: 5vh; left: 40vw;"">
            <div style=""margin:0 auto; width: 20vw; top: 8vh; font-size: 2vw""> 
            <font color=""green""> Bonus : $1.55 </font>
            </div>
        </div>
    
        <img class=""stim"" src=./stimuli//pack_shapes_diff/cat_1/diff_4/ex_1_4_8.png></img>",null,stimulus,,,,,,,,2
,,,,,html-keyboard-response,242,274240,0.0-6.37-2.37,null,"<div style=""text-align: center; position: fixed; top: 5vh; left: 40vw;"">
            <div style=""margin:0 auto; width: 20vw; top: 8vh; font-size: 2vw""> 
            <font color=""green""> Bonus : $1.55 </font>
            </div>
        </div>",null,,,,,,,,,2
,,,,,html-keyboard-response,243,274608,0.0-6.37-3.37,368,./stimuli//pack_shapes_diff/cat_1/diff_4/ex_1_4_8.png,arrowright,response,ArrowLeft,8,1,4,test,FALSE,,2
,,,,,html-keyboard-response,244,276120,0.0-6.37-4.37,null,"<p> <font color=""red"" size=""5vw""> Wrong category! </font> </p>",null,feedback,,,,,,,1.55,2
,,,,,html-keyboard-response,245,276785,0.0-6.38-0.38,665,"<div style=""text-align: center; position: fixed; top: 5vh; left: 40vw;"">
            <div style=""margin:0 auto; width: 20vw; top: 8vh; font-size: 2vw""> 
            <font color=""green""> Bonus : $1.55 </font>
            </div>
        </div>
    
            <div> Please press any button to continue to the next trial.</div>",arrowup,ITI,,,,,,,,2
,,,,,html-keyboard-response,246,277392,0.0-6.38-1.38,null,"<div style=""text-align: center; position: fixed; top: 5vh; left: 40vw;"">
            <div style=""margin:0 auto; width: 20vw; top: 8vh; font-size: 2vw""> 
            <font color=""green""> Bonus : $1.55 </font>
            </div>
        </div>
    
        <img class=""stim"" src=./stimuli//pack_shapes_diff/cat_1/diff_4/ex_1_4_13.png></img>",null,stimulus,,,,,,,,2
,,,,,html-keyboard-response,247,278405,0.0-6.38-2.38,null,"<div style=""text-align: center; position: fixed; top: 5vh; left: 40vw;"">
            <div style=""margin:0 auto; width: 20vw; top: 8vh; font-size: 2vw""> 
            <font color=""green""> Bonus : $1.55 </font>
            </div>
        </div>",null,,,,,,,,,2
,,,,,html-keyboard-response,248,278752,0.0-6.38-3.38,347,./stimuli//pack_shapes_diff/cat_1/diff_4/ex_1_4_13.png,arrowleft,response,ArrowLeft,13,1,4,test,TRUE,,2
,,,,,html-keyboard-response,249,280254,0.0-6.38-4.38,null,"<p> <font color=""green"" size=""5vw""> Correct category! </font> <br> <br> <font color=""green"" size=""8vw""> + $0.05 </font> </p>",null,feedback,,,,,,,1.6,2
,,,,,html-keyboard-response,250,281866,0.0-6.39-0.39,1611,"<div style=""text-align: center; position: fixed; top: 5vh; left: 40vw;"">
            <div style=""margin:0 auto; width: 20vw; top: 8vh; font-size: 2vw""> 
            <font color=""green""> Bonus : $1.6 </font>
            </div>
        </div>
    
            <div> Please press any button to continue to the next trial.</div>",arrowup,ITI,,,,,,,,2
,,,,,html-keyboard-response,251,282475,0.0-6.39-1.39,null,"<div style=""text-align: center; position: fixed; top: 5vh; left: 40vw;"">
            <div style=""margin:0 auto; width: 20vw; top: 8vh; font-size: 2vw""> 
            <font color=""green""> Bonus : $1.6 </font>
            </div>
        </div>
    
        <img class=""stim"" src=./stimuli//pack_shapes_diff/cat_1/diff_4/ex_1_4_7.png></img>",null,stimulus,,,,,,,,2
,,,,,html-keyboard-response,252,283485,0.0-6.39-2.39,null,"<div style=""text-align: center; position: fixed; top: 5vh; left: 40vw;"">
            <div style=""margin:0 auto; width: 20vw; top: 8vh; font-size: 2vw""> 
            <font color=""green""> Bonus : $1.6 </font>
            </div>
        </div>",null,,,,,,,,,2
,,,,,html-keyboard-response,253,283930,0.0-6.39-3.39,444,./stimuli//pack_shapes_diff/cat_1/diff_4/ex_1_4_7.png,arrowleft,response,ArrowLeft,7,1,4,test,TRUE,,2
,,,,,html-keyboard-response,254,285440,0.0-6.39-4.39,null,"<p> <font color=""green"" size=""5vw""> Correct category! </font> <br> <br> <font color=""green"" size=""8vw""> + $0.05 </font> </p>",null,feedback,,,,,,,1.65,2
,,,,,html-keyboard-response,255,286283,0.0-6.40-0.40,843,"<div style=""text-align: center; position: fixed; top: 5vh; left: 40vw;"">
            <div style=""margin:0 auto; width: 20vw; top: 8vh; font-size: 2vw""> 
            <font color=""green""> Bonus : $1.65 </font>
            </div>
        </div>
    
            <div> Please press any button to continue to the next trial.</div>",arrowup,ITI,,,,,,,,2
,,,,,html-keyboard-response,256,286900,0.0-6.40-1.40,null,"<div style=""text-align: center; position: fixed; top: 5vh; left: 40vw;"">
            <div style=""margin:0 auto; width: 20vw; top: 8vh; font-size: 2vw""> 
            <font color=""green""> Bonus : $1.65 </font>
            </div>
        </div>
    
        <img class=""stim"" src=./stimuli//pack_shapes_diff/cat_1/diff_4/ex_1_4_13.png></img>",null,stimulus,,,,,,,,2
,,,,,html-keyboard-response,257,287903,0.0-6.40-2.40,null,"<div style=""text-align: center; position: fixed; top: 5vh; left: 40vw;"">
            <div style=""margin:0 auto; width: 20vw; top: 8vh; font-size: 2vw""> 
            <font color=""green""> Bonus : $1.65 </font>
            </div>
        </div>",null,,,,,,,,,2
,,,,,html-keyboard-response,258,288578,0.0-6.40-3.40,675,./stimuli//pack_shapes_diff/cat_1/diff_4/ex_1_4_13.png,arrowleft,response,ArrowLeft,13,1,4,test,TRUE,,2
,,,,,html-keyboard-response,259,290088,0.0-6.40-4.40,null,"<p> <font color=""green"" size=""5vw""> Correct category! </font> <br> <br> <font color=""green"" size=""8vw""> + $0.05 </font> </p>",null,feedback,,,,,,,1.7,2
,,,,,html-keyboard-response,260,291066,0.0-6.41-0.41,978,"<div style=""text-align: center; position: fixed; top: 5vh; left: 40vw;"">
            <div style=""margin:0 auto; width: 20vw; top: 8vh; font-size: 2vw""> 
            <font color=""green""> Bonus : $1.7 </font>
            </div>
        </div>
    
            <div> Please press any button to continue to the next trial.</div>",arrowup,ITI,,,,,,,,2
,,,,,html-keyboard-response,261,291683,0.0-6.41-1.41,null,"<div style=""text-align: center; position: fixed; top: 5vh; left: 40vw;"">
            <div style=""margin:0 auto; width: 20vw; top: 8vh; font-size: 2vw""> 
            <font color=""green""> Bonus : $1.7 </font>
            </div>
        </div>
    
        <img class=""stim"" src=./stimuli//pack_shapes_diff/cat_2/diff_5/ex_2_5_17.png></img>",null,stimulus,,,,,,,,2
,,,,,html-keyboard-response,262,292687,0.0-6.41-2.41,null,"<div style=""text-align: center; position: fixed; top: 5vh; left: 40vw;"">
            <div style=""margin:0 auto; width: 20vw; top: 8vh; font-size: 2vw""> 
            <font color=""green""> Bonus : $1.7 </font>
            </div>
        </div>",null,,,,,,,,,2
,,,,,html-keyboard-response,263,293226,0.0-6.41-3.41,538,./stimuli//pack_shapes_diff/cat_2/diff_5/ex_2_5_17.png,arrowleft,response,ArrowRight,17,2,5,test,FALSE,,2
,,,,,html-keyboard-response,264,294735,0.0-6.41-4.41,null,"<p> <font color=""red"" size=""5vw""> Wrong category! </font> </p>",null,feedback,,,,,,,1.7,2
,,,,,html-keyboard-response,265,295289,0.0-6.42-0.42,554,"<div style=""text-align: center; position: fixed; top: 5vh; left: 40vw;"">
            <div style=""margin:0 auto; width: 20vw; top: 8vh; font-size: 2vw""> 
            <font color=""green""> Bonus : $1.7 </font>
            </div>
        </div>
    
            <div> Please press any button to continue to the next trial.</div>",arrowup,ITI,,,,,,,,2
,,,,,html-keyboard-response,266,295893,0.0-6.42-1.42,null,"<div style=""text-align: center; position: fixed; top: 5vh; left: 40vw;"">
            <div style=""margin:0 auto; width: 20vw; top: 8vh; font-size: 2vw""> 
            <font color=""green""> Bonus : $1.7 </font>
            </div>
        </div>
    
        <img class=""stim"" src=./stimuli//pack_shapes_diff/cat_1/diff_5/ex_1_5_7.png></img>",null,stimulus,,,,,,,,2
,,,,,html-keyboard-response,267,296902,0.0-6.42-2.42,null,"<div style=""text-align: center; position: fixed; top: 5vh; left: 40vw;"">
            <div style=""margin:0 auto; width: 20vw; top: 8vh; font-size: 2vw""> 
            <font color=""green""> Bonus : $1.7 </font>
            </div>
        </div>",null,,,,,,,,,2
,,,,,html-keyboard-response,268,297211,0.0-6.42-3.42,308,./stimuli//pack_shapes_diff/cat_1/diff_5/ex_1_5_7.png,arrowleft,response,ArrowLeft,7,1,5,test,TRUE,,2
,,,,,html-keyboard-response,269,298718,0.0-6.42-4.42,null,"<p> <font color=""green"" size=""5vw""> Correct category! </font> <br> <br> <font color=""green"" size=""8vw""> + $0.05 </font> </p>",null,feedback,,,,,,,1.75,2
,,,,,html-keyboard-response,270,299170,0.0-6.43-0.43,452,"<div style=""text-align: center; position: fixed; top: 5vh; left: 40vw;"">
            <div style=""margin:0 auto; width: 20vw; top: 8vh; font-size: 2vw""> 
            <font color=""green""> Bonus : $1.75 </font>
            </div>
        </div>
    
            <div> Please press any button to continue to the next trial.</div>",arrowup,ITI,,,,,,,,2
,,,,,html-keyboard-response,271,299778,0.0-6.43-1.43,null,"<div style=""text-align: center; position: fixed; top: 5vh; left: 40vw;"">
            <div style=""margin:0 auto; width: 20vw; top: 8vh; font-size: 2vw""> 
            <font color=""green""> Bonus : $1.75 </font>
            </div>
        </div>
    
        <img class=""stim"" src=./stimuli//pack_shapes_diff/cat_2/diff_5/ex_2_5_3.png></img>",null,stimulus,,,,,,,,2
,,,,,html-keyboard-response,272,300787,0.0-6.43-2.43,null,"<div style=""text-align: center; position: fixed; top: 5vh; left: 40vw;"">
            <div style=""margin:0 auto; width: 20vw; top: 8vh; font-size: 2vw""> 
            <font color=""green""> Bonus : $1.75 </font>
            </div>
        </div>",null,,,,,,,,,2
,,,,,html-keyboard-response,273,301563,0.0-6.43-3.43,775,./stimuli//pack_shapes_diff/cat_2/diff_5/ex_2_5_3.png,arrowright,response,ArrowRight,3,2,5,test,TRUE,,2
,,,,,html-keyboard-response,274,303071,0.0-6.43-4.43,null,"<p> <font color=""green"" size=""5vw""> Correct category! </font> <br> <br> <font color=""green"" size=""8vw""> + $0.05 </font> </p>",null,feedback,,,,,,,1.8,2
,,,,,html-keyboard-response,275,303538,0.0-6.44-0.44,466,"<div style=""text-align: center; position: fixed; top: 5vh; left: 40vw;"">
            <div style=""margin:0 auto; width: 20vw; top: 8vh; font-size: 2vw""> 
            <font color=""green""> Bonus : $1.8 </font>
            </div>
        </div>
    
            <div> Please press any button to continue to the next trial.</div>",arrowup,ITI,,,,,,,,2
,,,,,html-keyboard-response,276,304145,0.0-6.44-1.44,null,"<div style=""text-align: center; position: fixed; top: 5vh; left: 40vw;"">
            <div style=""margin:0 auto; width: 20vw; top: 8vh; font-size: 2vw""> 
            <font color=""green""> Bonus : $1.8 </font>
            </div>
        </div>
    
        <img class=""stim"" src=./stimuli//pack_shapes_diff/cat_2/diff_5/ex_2_5_10.png></img>",null,stimulus,,,,,,,,2
,,,,,html-keyboard-response,277,305153,0.0-6.44-2.44,null,"<div style=""text-align: center; position: fixed; top: 5vh; left: 40vw;"">
            <div style=""margin:0 auto; width: 20vw; top: 8vh; font-size: 2vw""> 
            <font color=""green""> Bonus : $1.8 </font>
            </div>
        </div>",null,,,,,,,,,2
,,,,,html-keyboard-response,278,305769,0.0-6.44-3.44,616,./stimuli//pack_shapes_diff/cat_2/diff_5/ex_2_5_10.png,arrowright,response,ArrowRight,10,2,5,test,TRUE,,2
,,,,,html-keyboard-response,279,307286,0.0-6.44-4.44,null,"<p> <font color=""green"" size=""5vw""> Correct category! </font> <br> <br> <font color=""green"" size=""8vw""> + $0.05 </font> </p>",null,feedback,,,,,,,1.85,2
,,,,,html-keyboard-response,280,309145,0.0-6.45-0.45,1859,"<div style=""text-align: center; position: fixed; top: 5vh; left: 40vw;"">
            <div style=""margin:0 auto; width: 20vw; top: 8vh; font-size: 2vw""> 
            <font color=""green""> Bonus : $1.85 </font>
            </div>
        </div>
    
            <div> Please press any button to continue to the next trial.</div>",arrowup,ITI,,,,,,,,2
,,,,,html-keyboard-response,281,309754,0.0-6.45-1.45,null,"<div style=""text-align: center; position: fixed; top: 5vh; left: 40vw;"">
            <div style=""margin:0 auto; width: 20vw; top: 8vh; font-size: 2vw""> 
            <font color=""green""> Bonus : $1.85 </font>
            </div>
        </div>
    
        <img class=""stim"" src=./stimuli//pack_shapes_diff/cat_1/diff_5/ex_1_5_6.png></img>",null,stimulus,,,,,,,,2
,,,,,html-keyboard-response,282,310763,0.0-6.45-2.45,null,"<div style=""text-align: center; position: fixed; top: 5vh; left: 40vw;"">
            <div style=""margin:0 auto; width: 20vw; top: 8vh; font-size: 2vw""> 
            <font color=""green""> Bonus : $1.85 </font>
            </div>
        </div>",null,,,,,,,,,2
,,,,,html-keyboard-response,283,311126,0.0-6.45-3.45,363,./stimuli//pack_shapes_diff/cat_1/diff_5/ex_1_5_6.png,arrowleft,response,ArrowLeft,6,1,5,test,TRUE,,2
,,,,,html-keyboard-response,284,312635,0.0-6.45-4.45,null,"<p> <font color=""green"" size=""5vw""> Correct category! </font> <br> <br> <font color=""green"" size=""8vw""> + $0.05 </font> </p>",null,feedback,,,,,,,1.9,2
,,,,,html-keyboard-response,285,313318,0.0-6.46-0.46,683,"<div style=""text-align: center; position: fixed; top: 5vh; left: 40vw;"">
            <div style=""margin:0 auto; width: 20vw; top: 8vh; font-size: 2vw""> 
            <font color=""green""> Bonus : $1.9 </font>
            </div>
        </div>
    
            <div> Please press any button to continue to the next trial.</div>",arrowup,ITI,,,,,,,,2
,,,,,html-keyboard-response,286,313924,0.0-6.46-1.46,null,"<div style=""text-align: center; position: fixed; top: 5vh; left: 40vw;"">
            <div style=""margin:0 auto; width: 20vw; top: 8vh; font-size: 2vw""> 
            <font color=""green""> Bonus : $1.9 </font>
            </div>
        </div>
    
        <img class=""stim"" src=./stimuli//pack_shapes_diff/cat_1/diff_5/ex_1_5_12.png></img>",null,stimulus,,,,,,,,2
,,,,,html-keyboard-response,287,314938,0.0-6.46-2.46,null,"<div style=""text-align: center; position: fixed; top: 5vh; left: 40vw;"">
            <div style=""margin:0 auto; width: 20vw; top: 8vh; font-size: 2vw""> 
            <font color=""green""> Bonus : $1.9 </font>
            </div>
        </div>",null,,,,,,,,,2
,,,,,html-keyboard-response,288,315330,0.0-6.46-3.46,392,./stimuli//pack_shapes_diff/cat_1/diff_5/ex_1_5_12.png,arrowright,response,ArrowLeft,12,1,5,test,FALSE,,2
,,,,,html-keyboard-response,289,316835,0.0-6.46-4.46,null,"<p> <font color=""red"" size=""5vw""> Wrong category! </font> </p>",null,feedback,,,,,,,1.9,2
,,,,,html-keyboard-response,290,318104,0.0-6.47-0.47,1268,"<div style=""text-align: center; position: fixed; top: 5vh; left: 40vw;"">
            <div style=""margin:0 auto; width: 20vw; top: 8vh; font-size: 2vw""> 
            <font color=""green""> Bonus : $1.9 </font>
            </div>
        </div>
    
            <div> Please press any button to continue to the next trial.</div>",arrowup,ITI,,,,,,,,2
,,,,,html-keyboard-response,291,318708,0.0-6.47-1.47,null,"<div style=""text-align: center; position: fixed; top: 5vh; left: 40vw;"">
            <div style=""margin:0 auto; width: 20vw; top: 8vh; font-size: 2vw""> 
            <font color=""green""> Bonus : $1.9 </font>
            </div>
        </div>
    
        <img class=""stim"" src=./stimuli//pack_shapes_diff/cat_2/diff_5/ex_2_5_16.png></img>",null,stimulus,,,,,,,,2
,,,,,html-keyboard-response,292,319717,0.0-6.47-2.47,null,"<div style=""text-align: center; position: fixed; top: 5vh; left: 40vw;"">
            <div style=""margin:0 auto; width: 20vw; top: 8vh; font-size: 2vw""> 
            <font color=""green""> Bonus : $1.9 </font>
            </div>
        </div>",null,,,,,,,,,2
,,,,,html-keyboard-response,293,320099,0.0-6.47-3.47,382,./stimuli//pack_shapes_diff/cat_2/diff_5/ex_2_5_16.png,arrowright,response,ArrowRight,16,2,5,test,TRUE,,2
,,,,,html-keyboard-response,294,321605,0.0-6.47-4.47,null,"<p> <font color=""green"" size=""5vw""> Correct category! </font> <br> <br> <font color=""green"" size=""8vw""> + $0.05 </font> </p>",null,feedback,,,,,,,1.95,2
,,,,,html-keyboard-response,295,322157,0.0-6.48-0.48,552,"<div style=""text-align: center; position: fixed; top: 5vh; left: 40vw;"">
            <div style=""margin:0 auto; width: 20vw; top: 8vh; font-size: 2vw""> 
            <font color=""green""> Bonus : $1.95 </font>
            </div>
        </div>
    
            <div> Please press any button to continue to the next trial.</div>",arrowup,ITI,,,,,,,,2
,,,,,html-keyboard-response,296,322773,0.0-6.48-1.48,null,"<div style=""text-align: center; position: fixed; top: 5vh; left: 40vw;"">
            <div style=""margin:0 auto; width: 20vw; top: 8vh; font-size: 2vw""> 
            <font color=""green""> Bonus : $1.95 </font>
            </div>
        </div>
    
        <img class=""stim"" src=./stimuli//pack_shapes_diff/cat_1/diff_5/ex_1_5_5.png></img>",null,stimulus,,,,,,,,2
,,,,,html-keyboard-response,297,323782,0.0-6.48-2.48,null,"<div style=""text-align: center; position: fixed; top: 5vh; left: 40vw;"">
            <div style=""margin:0 auto; width: 20vw; top: 8vh; font-size: 2vw""> 
            <font color=""green""> Bonus : $1.95 </font>
            </div>
        </div>",null,,,,,,,,,2
,,,,,html-keyboard-response,298,324120,0.0-6.48-3.48,337,./stimuli//pack_shapes_diff/cat_1/diff_5/ex_1_5_5.png,arrowright,response,ArrowLeft,5,1,5,test,FALSE,,2
,,,,,html-keyboard-response,299,325632,0.0-6.48-4.48,null,"<p> <font color=""red"" size=""5vw""> Wrong category! </font> </p>",null,feedback,,,,,,,1.95,2
,,,,,html-keyboard-response,300,326115,0.0-6.49-0.49,482,"<div style=""text-align: center; position: fixed; top: 5vh; left: 40vw;"">
            <div style=""margin:0 auto; width: 20vw; top: 8vh; font-size: 2vw""> 
            <font color=""green""> Bonus : $1.95 </font>
            </div>
        </div>
    
            <div> Please press any button to continue to the next trial.</div>",arrowup,ITI,,,,,,,,2
,,,,,html-keyboard-response,301,326725,0.0-6.49-1.49,null,"<div style=""text-align: center; position: fixed; top: 5vh; left: 40vw;"">
            <div style=""margin:0 auto; width: 20vw; top: 8vh; font-size: 2vw""> 
            <font color=""green""> Bonus : $1.95 </font>
            </div>
        </div>
    
        <img class=""stim"" src=./stimuli//pack_shapes_diff/cat_1/diff_4/ex_1_4_14.png></img>",null,stimulus,,,,,,,,2
,,,,,html-keyboard-response,302,327733,0.0-6.49-2.49,null,"<div style=""text-align: center; position: fixed; top: 5vh; left: 40vw;"">
            <div style=""margin:0 auto; width: 20vw; top: 8vh; font-size: 2vw""> 
            <font color=""green""> Bonus : $1.95 </font>
            </div>
        </div>",null,,,,,,,,,2
,,,,,html-keyboard-response,303,328039,0.0-6.49-3.49,305,./stimuli//pack_shapes_diff/cat_1/diff_4/ex_1_4_14.png,arrowleft,response,ArrowLeft,14,1,4,test,TRUE,,2
,,,,,html-keyboard-response,304,329547,0.0-6.49-4.49,null,"<p> <font color=""green"" size=""5vw""> Correct category! </font> <br> <br> <font color=""green"" size=""8vw""> + $0.05 </font> </p>",null,feedback,,,,,,,2,2
,,,,,html-keyboard-response,305,331036,0.0-6.50-0.50,1489,"<div style=""text-align: center; position: fixed; top: 5vh; left: 40vw;"">
            <div style=""margin:0 auto; width: 20vw; top: 8vh; font-size: 2vw""> 
            <font color=""green""> Bonus : $2 </font>
            </div>
        </div>
    
            <div> Please press any button to continue to the next trial.</div>",arrowup,ITI,,,,,,,,2
,,,,,html-keyboard-response,306,331642,0.0-6.50-1.50,null,"<div style=""text-align: center; position: fixed; top: 5vh; left: 40vw;"">
            <div style=""margin:0 auto; width: 20vw; top: 8vh; font-size: 2vw""> 
            <font color=""green""> Bonus : $2 </font>
            </div>
        </div>
    
        <img class=""stim"" src=./stimuli//pack_shapes_diff/cat_2/diff_4/ex_2_4_2.png></img>",null,stimulus,,,,,,,,2
,,,,,html-keyboard-response,307,332659,0.0-6.50-2.50,null,"<div style=""text-align: center; position: fixed; top: 5vh; left: 40vw;"">
            <div style=""margin:0 auto; width: 20vw; top: 8vh; font-size: 2vw""> 
            <font color=""green""> Bonus : $2 </font>
            </div>
        </div>",null,,,,,,,,,2
,,,,,html-keyboard-response,308,332992,0.0-6.50-3.50,333,./stimuli//pack_shapes_diff/cat_2/diff_4/ex_2_4_2.png,arrowright,response,ArrowRight,2,2,4,test,TRUE,,2
,,,,,html-keyboard-response,309,334497,0.0-6.50-4.50,null,"<p> <font color=""green"" size=""5vw""> Correct category! </font> <br> <br> <font color=""green"" size=""8vw""> + $0.05 </font> </p>",null,feedback,,,,,,,2.05,2
,,,,,html-keyboard-response,310,335194,0.0-6.51-0.51,695,"<div style=""text-align: center; position: fixed; top: 5vh; left: 40vw;"">
            <div style=""margin:0 auto; width: 20vw; top: 8vh; font-size: 2vw""> 
            <font color=""green""> Bonus : $2.05 </font>
            </div>
        </div>
    
            <div> Please press any button to continue to the next trial.</div>",arrowup,ITI,,,,,,,,2
,,,,,html-keyboard-response,311,335800,0.0-6.51-1.51,null,"<div style=""text-align: center; position: fixed; top: 5vh; left: 40vw;"">
            <div style=""margin:0 auto; width: 20vw; top: 8vh; font-size: 2vw""> 
            <font color=""green""> Bonus : $2.05 </font>
            </div>
        </div>
    
        <img class=""stim"" src=./stimuli//pack_shapes_diff/cat_2/diff_4/ex_2_4_14.png></img>",null,stimulus,,,,,,,,2
,,,,,html-keyboard-response,312,336814,0.0-6.51-2.51,null,"<div style=""text-align: center; position: fixed; top: 5vh; left: 40vw;"">
            <div style=""margin:0 auto; width: 20vw; top: 8vh; font-size: 2vw""> 
            <font color=""green""> Bonus : $2.05 </font>
            </div>
        </div>",null,,,,,,,,,2
,,,,,html-keyboard-response,313,337089,0.0-6.51-3.51,274,./stimuli//pack_shapes_diff/cat_2/diff_4/ex_2_4_14.png,arrowleft,response,ArrowRight,14,2,4,test,FALSE,,2
,,,,,html-keyboard-response,314,338598,0.0-6.51-4.51,null,"<p> <font color=""red"" size=""5vw""> Wrong category! </font> </p>",null,feedback,,,,,,,2.05,2
,,,,,html-keyboard-response,315,339017,0.0-6.52-0.52,419,"<div style=""text-align: center; position: fixed; top: 5vh; left: 40vw;"">
            <div style=""margin:0 auto; width: 20vw; top: 8vh; font-size: 2vw""> 
            <font color=""green""> Bonus : $2.05 </font>
            </div>
        </div>
    
            <div> Please press any button to continue to the next trial.</div>",arrowup,ITI,,,,,,,,2
,,,,,html-keyboard-response,316,339622,0.0-6.52-1.52,null,"<div style=""text-align: center; position: fixed; top: 5vh; left: 40vw;"">
            <div style=""margin:0 auto; width: 20vw; top: 8vh; font-size: 2vw""> 
            <font color=""green""> Bonus : $2.05 </font>
            </div>
        </div>
    
        <img class=""stim"" src=./stimuli//pack_shapes_diff/cat_2/diff_4/ex_2_4_1.png></img>",null,stimulus,,,,,,,,2
,,,,,html-keyboard-response,317,340633,0.0-6.52-2.52,null,"<div style=""text-align: center; position: fixed; top: 5vh; left: 40vw;"">
            <div style=""margin:0 auto; width: 20vw; top: 8vh; font-size: 2vw""> 
            <font color=""green""> Bonus : $2.05 </font>
            </div>
        </div>",null,,,,,,,,,2
,,,,,html-keyboard-response,318,341053,0.0-6.52-3.52,420,./stimuli//pack_shapes_diff/cat_2/diff_4/ex_2_4_1.png,arrowright,response,ArrowRight,1,2,4,test,TRUE,,2
,,,,,html-keyboard-response,319,342564,0.0-6.52-4.52,null,"<p> <font color=""green"" size=""5vw""> Correct category! </font> <br> <br> <font color=""green"" size=""8vw""> + $0.05 </font> </p>",null,feedback,,,,,,,2.1,2
,,,,,html-keyboard-response,320,343105,0.0-6.53-0.53,539,"<div style=""text-align: center; position: fixed; top: 5vh; left: 40vw;"">
            <div style=""margin:0 auto; width: 20vw; top: 8vh; font-size: 2vw""> 
            <font color=""green""> Bonus : $2.1 </font>
            </div>
        </div>
    
            <div> Please press any button to continue to the next trial.</div>",arrowup,ITI,,,,,,,,2
,,,,,html-keyboard-response,321,343717,0.0-6.53-1.53,null,"<div style=""text-align: center; position: fixed; top: 5vh; left: 40vw;"">
            <div style=""margin:0 auto; width: 20vw; top: 8vh; font-size: 2vw""> 
            <font color=""green""> Bonus : $2.1 </font>
            </div>
        </div>
    
        <img class=""stim"" src=./stimuli//pack_shapes_diff/cat_2/diff_4/ex_2_4_6.png></img>",null,stimulus,,,,,,,,2
,,,,,html-keyboard-response,322,344730,0.0-6.53-2.53,null,"<div style=""text-align: center; position: fixed; top: 5vh; left: 40vw;"">
            <div style=""margin:0 auto; width: 20vw; top: 8vh; font-size: 2vw""> 
            <font color=""green""> Bonus : $2.1 </font>
            </div>
        </div>",null,,,,,,,,,2
,,,,,html-keyboard-response,323,344754,0.0-6.53-3.53,23,./stimuli//pack_shapes_diff/cat_2/diff_4/ex_2_4_6.png,arrowleft,response,ArrowRight,6,2,4,test,FALSE,,2
,,,,,html-keyboard-response,324,346262,0.0-6.53-4.53,null,"<p> <font color=""red"" size=""5vw""> Wrong category! </font> </p>",null,feedback,,,,,,,2.1,2
,,,,,html-keyboard-response,325,346612,0.0-6.54-0.54,349,"<div style=""text-align: center; position: fixed; top: 5vh; left: 40vw;"">
            <div style=""margin:0 auto; width: 20vw; top: 8vh; font-size: 2vw""> 
            <font color=""green""> Bonus : $2.1 </font>
            </div>
        </div>
    
            <div> Please press any button to continue to the next trial.</div>",arrowup,ITI,,,,,,,,2
,,,,,html-keyboard-response,326,347217,0.0-6.54-1.54,null,"<div style=""text-align: center; position: fixed; top: 5vh; left: 40vw;"">
            <div style=""margin:0 auto; width: 20vw; top: 8vh; font-size: 2vw""> 
            <font color=""green""> Bonus : $2.1 </font>
            </div>
        </div>
    
        <img class=""stim"" src=./stimuli//pack_shapes_diff/cat_2/diff_3/ex_2_3_8.png></img>",null,stimulus,,,,,,,,2
,,,,,html-keyboard-response,327,348229,0.0-6.54-2.54,null,"<div style=""text-align: center; position: fixed; top: 5vh; left: 40vw;"">
            <div style=""margin:0 auto; width: 20vw; top: 8vh; font-size: 2vw""> 
            <font color=""green""> Bonus : $2.1 </font>
            </div>
        </div>",null,,,,,,,,,2
