"success","timeout","failed_images","failed_audio","failed_video","trial_type","trial_index","time_elapsed","internal_node_id","subject_id","study_id","session_id","rt","stimulus","response","task","correct_response","exemplar_ID","category","difficulty","phase","correct","bonus"
"true","false","[]","[]","[]","preload","0","6","0.0-0.0","612f100e6abefeac4f3d4cd0","6573617f270241e5da3d355d","6576bfee933366d1c2483b90","","","","","","","","","","",""
"","","","","","html-keyboard-response","1","3661","0.0-1.0","612f100e6abefeac4f3d4cd0","6573617f270241e5da3d355d","6576bfee933366d1c2483b90","3653","Welcome to the Category Learning experiment! Press any key to continue.","r","welcome","","","","","","",""
"","","","","","html-keyboard-response","2","32534","0.0-2.0","612f100e6abefeac4f3d4cd0","6573617f270241e5da3d355d","6576bfee933366d1c2483b90","28872","
            <p>You will be shown movies. Each movie contains a sequence of shapes changing form. 
            <br> Some shapes are category A, some are category B. <b> Within a single movie, all shapes belong to the same category. </b>
            <br> You will not know in advance which category the shapes of each movie belong to.</p>
            <p> While you watch a movie, you have to guess the category that its shapes belong to <b>(left arrow for category A, right arrow for category B)</b></p>
            <p> After you choose, the screen will show you whether you were correct or not.</p>
            <p>Press any key to continue.</p>
            ","enter","introduction_1","","","","","","",""
"","","","","","html-keyboard-response","3","43573","0.0-3.0","612f100e6abefeac4f3d4cd0","6573617f270241e5da3d355d","6576bfee933366d1c2483b90","11038","
              <p><b>You will receive a bonus payment for each correct answer! The faster you answer the higher the bonus will be!</b></p>
              <p> So you can increase your bonus by guessing as quickly and accurately as possible.</p>
              <p><b>You will lose $0.05 from your bonus payment for each incorrect answer! The bonus can not become less that $0.</b> </p>
              <p>Press any key to continue.</p>
              ","enter","introduction_2","","","","","","",""
"","","","","","html-keyboard-response","4","46063","0.0-4.0","612f100e6abefeac4f3d4cd0","6573617f270241e5da3d355d","6576bfee933366d1c2483b90","2490","
            <p> <b>The first 10 trials are a practice round that will not count towards your bonus payment.</b></p>
            <p> You will be notified when practice finishes and the test begins. </p>
            <p> Press any key to begin the practice round.</p>
            ","enter","introduction_3","","","","","","",""
"","","","","","html-keyboard-response","5","48809","0.0-5.0-0.0","612f100e6abefeac4f3d4cd0","6573617f270241e5da3d355d","6576bfee933366d1c2483b90","2745","
            
        <div style=""text-align: center; position: fixed; top: 5vh; left: 40vw;"">
            <div style=""margin:0 auto; width: 20vw; top: 8vh; font-size: 2vw""> 
            <font color=""green""> Bonus : $0 </font>
            </div>
        </div>
    
            <div> Please press any key to continue to the next movie.</div>
        ","enter","ITI","","","","","","",""
"","","","","","html-keyboard-response","6","51532","0.0-5.0-1.0","612f100e6abefeac4f3d4cd0","6573617f270241e5da3d355d","6576bfee933366d1c2483b90","2722","./stimuli//pack_morph_shapes_1/cat_1/diff_1/ex_1_1_1.gif","arrowright","response","ArrowLeft","1","1","1","train","false",""
"","","","","","html-keyboard-response","7","53045","0.0-5.0-2.0","612f100e6abefeac4f3d4cd0","6573617f270241e5da3d355d","6576bfee933366d1c2483b90","null","<p> <font color=""red"" size=""5vw""> Wrong category! </font> </p>","null","feedback","","","","","","","0"
"","","","","","html-keyboard-response","8","55456","0.0-5.0-0.1","612f100e6abefeac4f3d4cd0","6573617f270241e5da3d355d","6576bfee933366d1c2483b90","2410","
            
        <div style=""text-align: center; position: fixed; top: 5vh; left: 40vw;"">
            <div style=""margin:0 auto; width: 20vw; top: 8vh; font-size: 2vw""> 
            <font color=""green""> Bonus : $0 </font>
            </div>
        </div>
    
            <div> Please press any key to continue to the next movie.</div>
        ","enter","ITI","","","","","","",""
"","","","","","html-keyboard-response","9","58885","0.0-5.0-1.1","612f100e6abefeac4f3d4cd0","6573617f270241e5da3d355d","6576bfee933366d1c2483b90","3428","./stimuli//pack_morph_shapes_1/cat_1/diff_1/ex_1_1_5.gif","arrowleft","response","ArrowLeft","5","1","1","train","true",""
"","","","","","html-keyboard-response","10","60387","0.0-5.0-2.1","612f100e6abefeac4f3d4cd0","6573617f270241e5da3d355d","6576bfee933366d1c2483b90","null","<p> <font color=""green"" size=""5vw""> Correct category! </font> </p>","null","feedback","","","","","","","0"
"","","","","","html-keyboard-response","11","62490","0.0-5.0-0.2","612f100e6abefeac4f3d4cd0","6573617f270241e5da3d355d","6576bfee933366d1c2483b90","2102","
            
        <div style=""text-align: center; position: fixed; top: 5vh; left: 40vw;"">
            <div style=""margin:0 auto; width: 20vw; top: 8vh; font-size: 2vw""> 
            <font color=""green""> Bonus : $0 </font>
            </div>
        </div>
    
            <div> Please press any key to continue to the next movie.</div>
        ","enter","ITI","","","","","","",""
"","","","","","html-keyboard-response","12","66501","0.0-5.0-1.2","612f100e6abefeac4f3d4cd0","6573617f270241e5da3d355d","6576bfee933366d1c2483b90","null","./stimuli//pack_morph_shapes_1/cat_1/diff_1/ex_1_1_17.gif","null","response","ArrowLeft","17","1","1","train","false",""
"","","","","","html-keyboard-response","13","68002","0.0-5.0-2.2","612f100e6abefeac4f3d4cd0","6573617f270241e5da3d355d","6576bfee933366d1c2483b90","null","<p> <font color=""red"" size=""5vw""> Time out! </font> <br> Please try to respond as quickly as possible. </p>","null","feedback","","","","","","","0"
"","","","","","html-keyboard-response","14","69947","0.0-5.0-0.3","612f100e6abefeac4f3d4cd0","6573617f270241e5da3d355d","6576bfee933366d1c2483b90","1944","
            
        <div style=""text-align: center; position: fixed; top: 5vh; left: 40vw;"">
            <div style=""margin:0 auto; width: 20vw; top: 8vh; font-size: 2vw""> 
            <font color=""green""> Bonus : $0 </font>
            </div>
        </div>
    
            <div> Please press any key to continue to the next movie.</div>
        ","shift","ITI","","","","","","",""
"","","","","","html-keyboard-response","15","71165","0.0-5.0-1.3","612f100e6abefeac4f3d4cd0","6573617f270241e5da3d355d","6576bfee933366d1c2483b90","1217","./stimuli//pack_morph_shapes_1/cat_2/diff_1/ex_2_1_8.gif","arrowright","response","ArrowRight","8","2","1","train","true",""
"","","","","","html-keyboard-response","16","72676","0.0-5.0-2.3","612f100e6abefeac4f3d4cd0","6573617f270241e5da3d355d","6576bfee933366d1c2483b90","null","<p> <font color=""green"" size=""5vw""> Correct category! </font> </p>","null","feedback","","","","","","","0"
"","","","","","html-keyboard-response","17","73444","0.0-5.0-0.4","612f100e6abefeac4f3d4cd0","6573617f270241e5da3d355d","6576bfee933366d1c2483b90","768","
            
        <div style=""text-align: center; position: fixed; top: 5vh; left: 40vw;"">
            <div style=""margin:0 auto; width: 20vw; top: 8vh; font-size: 2vw""> 
            <font color=""green""> Bonus : $0 </font>
            </div>
        </div>
    
            <div> Please press any key to continue to the next movie.</div>
        ","shift","ITI","","","","","","",""
"","","","","","html-keyboard-response","18","74536","0.0-5.0-1.4","612f100e6abefeac4f3d4cd0","6573617f270241e5da3d355d","6576bfee933366d1c2483b90","1090","./stimuli//pack_morph_shapes_1/cat_1/diff_2/ex_1_2_4.gif","arrowleft","response","ArrowLeft","4","1","2","train","true",""
"","","","","","html-keyboard-response","19","76049","0.0-5.0-2.4","612f100e6abefeac4f3d4cd0","6573617f270241e5da3d355d","6576bfee933366d1c2483b90","null","<p> <font color=""green"" size=""5vw""> Correct category! </font> </p>","null","feedback","","","","","","","0"
"","","","","","html-keyboard-response","20","77285","0.0-5.0-0.5","612f100e6abefeac4f3d4cd0","6573617f270241e5da3d355d","6576bfee933366d1c2483b90","1235","
            
        <div style=""text-align: center; position: fixed; top: 5vh; left: 40vw;"">
            <div style=""margin:0 auto; width: 20vw; top: 8vh; font-size: 2vw""> 
            <font color=""green""> Bonus : $0 </font>
            </div>
        </div>
    
            <div> Please press any key to continue to the next movie.</div>
        ","shift","ITI","","","","","","",""
"","","","","","html-keyboard-response","21","78016","0.0-5.0-1.5","612f100e6abefeac4f3d4cd0","6573617f270241e5da3d355d","6576bfee933366d1c2483b90","729","./stimuli//pack_morph_shapes_1/cat_2/diff_1/ex_2_1_17.gif","arrowright","response","ArrowRight","17","2","1","train","true",""
"","","","","","html-keyboard-response","22","79532","0.0-5.0-2.5","612f100e6abefeac4f3d4cd0","6573617f270241e5da3d355d","6576bfee933366d1c2483b90","null","<p> <font color=""green"" size=""5vw""> Correct category! </font> </p>","null","feedback","","","","","","","0"
"","","","","","html-keyboard-response","23","80792","0.0-5.0-0.6","612f100e6abefeac4f3d4cd0","6573617f270241e5da3d355d","6576bfee933366d1c2483b90","1259","
            
        <div style=""text-align: center; position: fixed; top: 5vh; left: 40vw;"">
            <div style=""margin:0 auto; width: 20vw; top: 8vh; font-size: 2vw""> 
            <font color=""green""> Bonus : $0 </font>
            </div>
        </div>
    
            <div> Please press any key to continue to the next movie.</div>
        ","enter","ITI","","","","","","",""
"","","","","","html-keyboard-response","24","82152","0.0-5.0-1.6","612f100e6abefeac4f3d4cd0","6573617f270241e5da3d355d","6576bfee933366d1c2483b90","1360","./stimuli//pack_morph_shapes_1/cat_2/diff_2/ex_2_2_12.gif","arrowright","response","ArrowRight","12","2","2","train","true",""
"","","","","","html-keyboard-response","25","83662","0.0-5.0-2.6","612f100e6abefeac4f3d4cd0","6573617f270241e5da3d355d","6576bfee933366d1c2483b90","null","<p> <font color=""green"" size=""5vw""> Correct category! </font> </p>","null","feedback","","","","","","","0"
"","","","","","html-keyboard-response","26","84424","0.0-5.0-0.7","612f100e6abefeac4f3d4cd0","6573617f270241e5da3d355d","6576bfee933366d1c2483b90","762","
            
        <div style=""text-align: center; position: fixed; top: 5vh; left: 40vw;"">
            <div style=""margin:0 auto; width: 20vw; top: 8vh; font-size: 2vw""> 
            <font color=""green""> Bonus : $0 </font>
            </div>
        </div>
    
            <div> Please press any key to continue to the next movie.</div>
        ","shift","ITI","","","","","","",""
"","","","","","html-keyboard-response","27","85099","0.0-5.0-1.7","612f100e6abefeac4f3d4cd0","6573617f270241e5da3d355d","6576bfee933366d1c2483b90","674","./stimuli//pack_morph_shapes_1/cat_2/diff_2/ex_2_2_15.gif","arrowright","response","ArrowRight","15","2","2","train","true",""
"","","","","","html-keyboard-response","28","86611","0.0-5.0-2.7","612f100e6abefeac4f3d4cd0","6573617f270241e5da3d355d","6576bfee933366d1c2483b90","null","<p> <font color=""green"" size=""5vw""> Correct category! </font> </p>","null","feedback","","","","","","","0"
"","","","","","html-keyboard-response","29","87222","0.0-5.0-0.8","612f100e6abefeac4f3d4cd0","6573617f270241e5da3d355d","6576bfee933366d1c2483b90","610","
            
        <div style=""text-align: center; position: fixed; top: 5vh; left: 40vw;"">
            <div style=""margin:0 auto; width: 20vw; top: 8vh; font-size: 2vw""> 
            <font color=""green""> Bonus : $0 </font>
            </div>
        </div>
    
            <div> Please press any key to continue to the next movie.</div>
        ","shift","ITI","","","","","","",""
"","","","","","html-keyboard-response","30","88287","0.0-5.0-1.8","612f100e6abefeac4f3d4cd0","6573617f270241e5da3d355d","6576bfee933366d1c2483b90","1063","./stimuli//pack_morph_shapes_1/cat_1/diff_2/ex_1_2_11.gif","arrowleft","response","ArrowLeft","11","1","2","train","true",""
"","","","","","html-keyboard-response","31","89797","0.0-5.0-2.8","612f100e6abefeac4f3d4cd0","6573617f270241e5da3d355d","6576bfee933366d1c2483b90","null","<p> <font color=""green"" size=""5vw""> Correct category! </font> </p>","null","feedback","","","","","","","0"
"","","","","","html-keyboard-response","32","90260","0.0-5.0-0.9","612f100e6abefeac4f3d4cd0","6573617f270241e5da3d355d","6576bfee933366d1c2483b90","461","
            
        <div style=""text-align: center; position: fixed; top: 5vh; left: 40vw;"">
            <div style=""margin:0 auto; width: 20vw; top: 8vh; font-size: 2vw""> 
            <font color=""green""> Bonus : $0 </font>
            </div>
        </div>
    
            <div> Please press any key to continue to the next movie.</div>
        ","shift","ITI","","","","","","",""
"","","","","","html-keyboard-response","33","90996","0.0-5.0-1.9","612f100e6abefeac4f3d4cd0","6573617f270241e5da3d355d","6576bfee933366d1c2483b90","735","./stimuli//pack_morph_shapes_1/cat_2/diff_1/ex_2_1_7.gif","arrowright","response","ArrowRight","7","2","1","train","true",""
"","","","","","html-keyboard-response","34","92499","0.0-5.0-2.9","612f100e6abefeac4f3d4cd0","6573617f270241e5da3d355d","6576bfee933366d1c2483b90","null","<p> <font color=""green"" size=""5vw""> Correct category! </font> </p>","null","feedback","","","","","","","0"
"","","","","","html-keyboard-response","35","102251","0.0-6.0","612f100e6abefeac4f3d4cd0","6573617f270241e5da3d355d","6576bfee933366d1c2483b90","9751","
            <b> <p> The practice round has finished.</p>
            <b> <p> For the rest of the experiment you will receive a bonus payment for each correct answer, which will be higher the faster you answer!</b></p>
            <b> </p> Also you will lose $0.05 from your bonus payment for each incorrect answer!</p>
            <p> Press any key to begin the test. </p>
            ","shift","intermission","","","","","","",""
"","","","","","html-keyboard-response","36","106200","0.0-7.0-0.0","612f100e6abefeac4f3d4cd0","6573617f270241e5da3d355d","6576bfee933366d1c2483b90","3948","
            
        <div style=""text-align: center; position: fixed; top: 5vh; left: 40vw;"">
            <div style=""margin:0 auto; width: 20vw; top: 8vh; font-size: 2vw""> 
            <font color=""green""> Bonus : $0 </font>
            </div>
        </div>
    
            <div> Please press any key to continue to the next movie.</div>
        ","shift","ITI","","","","","","",""
"","","","","","html-keyboard-response","37","107575","0.0-7.0-1.0","612f100e6abefeac4f3d4cd0","6573617f270241e5da3d355d","6576bfee933366d1c2483b90","1371","./stimuli//pack_morph_shapes_1/cat_1/diff_1/ex_1_1_4.gif","arrowleft","response","ArrowLeft","4","1","1","test","true",""
"","","","","","html-keyboard-response","38","109078","0.0-7.0-2.0","612f100e6abefeac4f3d4cd0","6573617f270241e5da3d355d","6576bfee933366d1c2483b90","null","<p> <font color=""green"" size=""5vw""> Correct category! </font> <br> <br> <font color=""green"" size=""8vw""> + $0.05 </font> </p>","null","feedback","","","","","","","0.05"
"","","","","","html-keyboard-response","39","109833","0.0-7.1-0.1","612f100e6abefeac4f3d4cd0","6573617f270241e5da3d355d","6576bfee933366d1c2483b90","754","
            
        <div style=""text-align: center; position: fixed; top: 5vh; left: 40vw;"">
            <div style=""margin:0 auto; width: 20vw; top: 8vh; font-size: 2vw""> 
            <font color=""green""> Bonus : $0.05 </font>
            </div>
        </div>
    
            <div> Please press any key to continue to the next movie.</div>
        ","enter","ITI","","","","","","",""
"","","","","","html-keyboard-response","40","111021","0.0-7.1-1.1","612f100e6abefeac4f3d4cd0","6573617f270241e5da3d355d","6576bfee933366d1c2483b90","1187","./stimuli//pack_morph_shapes_1/cat_1/diff_1/ex_1_1_13.gif","arrowleft","response","ArrowLeft","13","1","1","test","true",""
"","","","","","html-keyboard-response","41","112524","0.0-7.1-2.1","612f100e6abefeac4f3d4cd0","6573617f270241e5da3d355d","6576bfee933366d1c2483b90","null","<p> <font color=""green"" size=""5vw""> Correct category! </font> <br> <br> <font color=""green"" size=""8vw""> + $0.06 </font> </p>","null","feedback","","","","","","","0.11"
"","","","","","html-keyboard-response","42","112738","0.0-7.2-0.2","612f100e6abefeac4f3d4cd0","6573617f270241e5da3d355d","6576bfee933366d1c2483b90","213","
            
        <div style=""text-align: center; position: fixed; top: 5vh; left: 40vw;"">
            <div style=""margin:0 auto; width: 20vw; top: 8vh; font-size: 2vw""> 
            <font color=""green""> Bonus : $0.11 </font>
            </div>
        </div>
    
            <div> Please press any key to continue to the next movie.</div>
        ","enter","ITI","","","","","","",""
"","","","","","html-keyboard-response","43","113816","0.0-7.2-1.2","612f100e6abefeac4f3d4cd0","6573617f270241e5da3d355d","6576bfee933366d1c2483b90","1077","./stimuli//pack_morph_shapes_1/cat_1/diff_1/ex_1_1_14.gif","arrowleft","response","ArrowLeft","14","1","1","test","true",""
"","","","","","html-keyboard-response","44","115327","0.0-7.2-2.2","612f100e6abefeac4f3d4cd0","6573617f270241e5da3d355d","6576bfee933366d1c2483b90","null","<p> <font color=""green"" size=""5vw""> Correct category! </font> <br> <br> <font color=""green"" size=""8vw""> + $0.06 </font> </p>","null","feedback","","","","","","","0.17"
"","","","","","html-keyboard-response","45","115814","0.0-7.3-0.3","612f100e6abefeac4f3d4cd0","6573617f270241e5da3d355d","6576bfee933366d1c2483b90","487","
            
        <div style=""text-align: center; position: fixed; top: 5vh; left: 40vw;"">
            <div style=""margin:0 auto; width: 20vw; top: 8vh; font-size: 2vw""> 
            <font color=""green""> Bonus : $0.17 </font>
            </div>
        </div>
    
            <div> Please press any key to continue to the next movie.</div>
        ","enter","ITI","","","","","","",""
"","","","","","html-keyboard-response","46","116969","0.0-7.3-1.3","612f100e6abefeac4f3d4cd0","6573617f270241e5da3d355d","6576bfee933366d1c2483b90","1154","./stimuli//pack_morph_shapes_1/cat_2/diff_1/ex_2_1_14.gif","arrowright","response","ArrowRight","14","2","1","test","true",""
"","","","","","html-keyboard-response","47","118484","0.0-7.3-2.3","612f100e6abefeac4f3d4cd0","6573617f270241e5da3d355d","6576bfee933366d1c2483b90","null","<p> <font color=""green"" size=""5vw""> Correct category! </font> <br> <br> <font color=""green"" size=""8vw""> + $0.06 </font> </p>","null","feedback","","","","","","","0.23"
"","","","","","html-keyboard-response","48","119137","0.0-7.4-0.4","612f100e6abefeac4f3d4cd0","6573617f270241e5da3d355d","6576bfee933366d1c2483b90","652","
            
        <div style=""text-align: center; position: fixed; top: 5vh; left: 40vw;"">
            <div style=""margin:0 auto; width: 20vw; top: 8vh; font-size: 2vw""> 
            <font color=""green""> Bonus : $0.23 </font>
            </div>
        </div>
    
            <div> Please press any key to continue to the next movie.</div>
        ","enter","ITI","","","","","","",""
"","","","","","html-keyboard-response","49","120256","0.0-7.4-1.4","612f100e6abefeac4f3d4cd0","6573617f270241e5da3d355d","6576bfee933366d1c2483b90","1119","./stimuli//pack_morph_shapes_1/cat_2/diff_1/ex_2_1_16.gif","arrowright","response","ArrowRight","16","2","1","test","true",""
"","","","","","html-keyboard-response","50","121759","0.0-7.4-2.4","612f100e6abefeac4f3d4cd0","6573617f270241e5da3d355d","6576bfee933366d1c2483b90","null","<p> <font color=""green"" size=""5vw""> Correct category! </font> <br> <br> <font color=""green"" size=""8vw""> + $0.06 </font> </p>","null","feedback","","","","","","","0.29"
"","","","","","html-keyboard-response","51","122354","0.0-7.5-0.5","612f100e6abefeac4f3d4cd0","6573617f270241e5da3d355d","6576bfee933366d1c2483b90","593","
            
        <div style=""text-align: center; position: fixed; top: 5vh; left: 40vw;"">
            <div style=""margin:0 auto; width: 20vw; top: 8vh; font-size: 2vw""> 
            <font color=""green""> Bonus : $0.29 </font>
            </div>
        </div>
    
            <div> Please press any key to continue to the next movie.</div>
        ","enter","ITI","","","","","","",""
"","","","","","html-keyboard-response","52","123585","0.0-7.5-1.5","612f100e6abefeac4f3d4cd0","6573617f270241e5da3d355d","6576bfee933366d1c2483b90","1230","./stimuli//pack_morph_shapes_1/cat_2/diff_2/ex_2_2_11.gif","arrowright","response","ArrowRight","11","2","2","test","true",""
"","","","","","html-keyboard-response","53","125091","0.0-7.5-2.5","612f100e6abefeac4f3d4cd0","6573617f270241e5da3d355d","6576bfee933366d1c2483b90","null","<p> <font color=""green"" size=""5vw""> Correct category! </font> <br> <br> <font color=""green"" size=""8vw""> + $0.05 </font> </p>","null","feedback","","","","","","","0.34"
"","","","","","html-keyboard-response","54","125499","0.0-7.6-0.6","612f100e6abefeac4f3d4cd0","6573617f270241e5da3d355d","6576bfee933366d1c2483b90","407","
            
        <div style=""text-align: center; position: fixed; top: 5vh; left: 40vw;"">
            <div style=""margin:0 auto; width: 20vw; top: 8vh; font-size: 2vw""> 
            <font color=""green""> Bonus : $0.34 </font>
            </div>
        </div>
    
            <div> Please press any key to continue to the next movie.</div>
        ","enter","ITI","","","","","","",""
"","","","","","html-keyboard-response","55","126740","0.0-7.6-1.6","612f100e6abefeac4f3d4cd0","6573617f270241e5da3d355d","6576bfee933366d1c2483b90","1241","./stimuli//pack_morph_shapes_1/cat_2/diff_2/ex_2_2_10.gif","arrowright","response","ArrowRight","10","2","2","test","true",""
"","","","","","html-keyboard-response","56","128256","0.0-7.6-2.6","612f100e6abefeac4f3d4cd0","6573617f270241e5da3d355d","6576bfee933366d1c2483b90","null","<p> <font color=""green"" size=""5vw""> Correct category! </font> <br> <br> <font color=""green"" size=""8vw""> + $0.05 </font> </p>","null","feedback","","","","","","","0.39"
"","","","","","html-keyboard-response","57","128713","0.0-7.7-0.7","612f100e6abefeac4f3d4cd0","6573617f270241e5da3d355d","6576bfee933366d1c2483b90","456","
            
        <div style=""text-align: center; position: fixed; top: 5vh; left: 40vw;"">
            <div style=""margin:0 auto; width: 20vw; top: 8vh; font-size: 2vw""> 
            <font color=""green""> Bonus : $0.39 </font>
            </div>
        </div>
    
            <div> Please press any key to continue to the next movie.</div>
        ","enter","ITI","","","","","","",""
"","","","","","html-keyboard-response","58","129915","0.0-7.7-1.7","612f100e6abefeac4f3d4cd0","6573617f270241e5da3d355d","6576bfee933366d1c2483b90","1201","./stimuli//pack_morph_shapes_1/cat_1/diff_2/ex_1_2_12.gif","arrowleft","response","ArrowLeft","12","1","2","test","true",""
"","","","","","html-keyboard-response","59","131424","0.0-7.7-2.7","612f100e6abefeac4f3d4cd0","6573617f270241e5da3d355d","6576bfee933366d1c2483b90","null","<p> <font color=""green"" size=""5vw""> Correct category! </font> <br> <br> <font color=""green"" size=""8vw""> + $0.05 </font> </p>","null","feedback","","","","","","","0.44"
"","","","","","html-keyboard-response","60","131923","0.0-7.8-0.8","612f100e6abefeac4f3d4cd0","6573617f270241e5da3d355d","6576bfee933366d1c2483b90","498","
            
        <div style=""text-align: center; position: fixed; top: 5vh; left: 40vw;"">
            <div style=""margin:0 auto; width: 20vw; top: 8vh; font-size: 2vw""> 
            <font color=""green""> Bonus : $0.44 </font>
            </div>
        </div>
    
            <div> Please press any key to continue to the next movie.</div>
        ","enter","ITI","","","","","","",""
"","","","","","html-keyboard-response","61","133693","0.0-7.8-1.8","612f100e6abefeac4f3d4cd0","6573617f270241e5da3d355d","6576bfee933366d1c2483b90","1769","./stimuli//pack_morph_shapes_1/cat_2/diff_2/ex_2_2_5.gif","arrowright","response","ArrowRight","5","2","2","test","true",""
"","","","","","html-keyboard-response","62","135209","0.0-7.8-2.8","612f100e6abefeac4f3d4cd0","6573617f270241e5da3d355d","6576bfee933366d1c2483b90","null","<p> <font color=""green"" size=""5vw""> Correct category! </font> <br> <br> <font color=""green"" size=""8vw""> + $0.04 </font> </p>","null","feedback","","","","","","","0.48"
"","","","","","html-keyboard-response","63","135683","0.0-7.9-0.9","612f100e6abefeac4f3d4cd0","6573617f270241e5da3d355d","6576bfee933366d1c2483b90","473","
            
        <div style=""text-align: center; position: fixed; top: 5vh; left: 40vw;"">
            <div style=""margin:0 auto; width: 20vw; top: 8vh; font-size: 2vw""> 
            <font color=""green""> Bonus : $0.48 </font>
            </div>
        </div>
    
            <div> Please press any key to continue to the next movie.</div>
        ","enter","ITI","","","","","","",""
"","","","","","html-keyboard-response","64","136858","0.0-7.9-1.9","612f100e6abefeac4f3d4cd0","6573617f270241e5da3d355d","6576bfee933366d1c2483b90","1174","./stimuli//pack_morph_shapes_1/cat_1/diff_2/ex_1_2_3.gif","arrowleft","response","ArrowLeft","3","1","2","test","true",""
"","","","","","html-keyboard-response","65","138373","0.0-7.9-2.9","612f100e6abefeac4f3d4cd0","6573617f270241e5da3d355d","6576bfee933366d1c2483b90","null","<p> <font color=""green"" size=""5vw""> Correct category! </font> <br> <br> <font color=""green"" size=""8vw""> + $0.06 </font> </p>","null","feedback","","","","","","","0.54"
"","","","","","html-keyboard-response","66","138701","0.0-7.10-0.10","612f100e6abefeac4f3d4cd0","6573617f270241e5da3d355d","6576bfee933366d1c2483b90","327","
            
        <div style=""text-align: center; position: fixed; top: 5vh; left: 40vw;"">
            <div style=""margin:0 auto; width: 20vw; top: 8vh; font-size: 2vw""> 
            <font color=""green""> Bonus : $0.54 </font>
            </div>
        </div>
    
            <div> Please press any key to continue to the next movie.</div>
        ","enter","ITI","","","","","","",""
"","","","","","html-keyboard-response","67","139887","0.0-7.10-1.10","612f100e6abefeac4f3d4cd0","6573617f270241e5da3d355d","6576bfee933366d1c2483b90","1185","./stimuli//pack_morph_shapes_1/cat_1/diff_3/ex_1_3_6.gif","arrowleft","response","ArrowLeft","6","1","3","test","true",""
"","","","","","html-keyboard-response","68","141402","0.0-7.10-2.10","612f100e6abefeac4f3d4cd0","6573617f270241e5da3d355d","6576bfee933366d1c2483b90","null","<p> <font color=""green"" size=""5vw""> Correct category! </font> <br> <br> <font color=""green"" size=""8vw""> + $0.06 </font> </p>","null","feedback","","","","","","","0.6"
"","","","","","html-keyboard-response","69","141871","0.0-7.11-0.11","612f100e6abefeac4f3d4cd0","6573617f270241e5da3d355d","6576bfee933366d1c2483b90","468","
            
        <div style=""text-align: center; position: fixed; top: 5vh; left: 40vw;"">
            <div style=""margin:0 auto; width: 20vw; top: 8vh; font-size: 2vw""> 
            <font color=""green""> Bonus : $0.6 </font>
            </div>
        </div>
    
            <div> Please press any key to continue to the next movie.</div>
        ","enter","ITI","","","","","","",""
"","","","","","html-keyboard-response","70","143192","0.0-7.11-1.11","612f100e6abefeac4f3d4cd0","6573617f270241e5da3d355d","6576bfee933366d1c2483b90","1320","./stimuli//pack_morph_shapes_1/cat_2/diff_3/ex_2_3_10.gif","arrowright","response","ArrowRight","10","2","3","test","true",""
"","","","","","html-keyboard-response","71","144705","0.0-7.11-2.11","612f100e6abefeac4f3d4cd0","6573617f270241e5da3d355d","6576bfee933366d1c2483b90","null","<p> <font color=""green"" size=""5vw""> Correct category! </font> <br> <br> <font color=""green"" size=""8vw""> + $0.05 </font> </p>","null","feedback","","","","","","","0.65"
"","","","","","html-keyboard-response","72","145104","0.0-7.12-0.12","612f100e6abefeac4f3d4cd0","6573617f270241e5da3d355d","6576bfee933366d1c2483b90","398","
            
        <div style=""text-align: center; position: fixed; top: 5vh; left: 40vw;"">
            <div style=""margin:0 auto; width: 20vw; top: 8vh; font-size: 2vw""> 
            <font color=""green""> Bonus : $0.65 </font>
            </div>
        </div>
    
            <div> Please press any key to continue to the next movie.</div>
        ","shift","ITI","","","","","","",""
"","","","","","html-keyboard-response","73","146235","0.0-7.12-1.12","612f100e6abefeac4f3d4cd0","6573617f270241e5da3d355d","6576bfee933366d1c2483b90","1130","./stimuli//pack_morph_shapes_1/cat_1/diff_3/ex_1_3_2.gif","arrowleft","response","ArrowLeft","2","1","3","test","true",""
"","","","","","html-keyboard-response","74","147746","0.0-7.12-2.12","612f100e6abefeac4f3d4cd0","6573617f270241e5da3d355d","6576bfee933366d1c2483b90","null","<p> <font color=""green"" size=""5vw""> Correct category! </font> <br> <br> <font color=""green"" size=""8vw""> + $0.06 </font> </p>","null","feedback","","","","","","","0.71"
"","","","","","html-keyboard-response","75","148834","0.0-7.13-0.13","612f100e6abefeac4f3d4cd0","6573617f270241e5da3d355d","6576bfee933366d1c2483b90","1086","
            
        <div style=""text-align: center; position: fixed; top: 5vh; left: 40vw;"">
            <div style=""margin:0 auto; width: 20vw; top: 8vh; font-size: 2vw""> 
            <font color=""green""> Bonus : $0.71 </font>
            </div>
        </div>
    
            <div> Please press any key to continue to the next movie.</div>
        ","enter","ITI","","","","","","",""
"","","","","","html-keyboard-response","76","149891","0.0-7.13-1.13","612f100e6abefeac4f3d4cd0","6573617f270241e5da3d355d","6576bfee933366d1c2483b90","1057","./stimuli//pack_morph_shapes_1/cat_1/diff_3/ex_1_3_5.gif","arrowleft","response","ArrowLeft","5","1","3","test","true",""
"","","","","","html-keyboard-response","77","151405","0.0-7.13-2.13","612f100e6abefeac4f3d4cd0","6573617f270241e5da3d355d","6576bfee933366d1c2483b90","null","<p> <font color=""green"" size=""5vw""> Correct category! </font> <br> <br> <font color=""green"" size=""8vw""> + $0.06 </font> </p>","null","feedback","","","","","","","0.77"
"","","","","","html-keyboard-response","78","152324","0.0-7.14-0.14","612f100e6abefeac4f3d4cd0","6573617f270241e5da3d355d","6576bfee933366d1c2483b90","917","
            
        <div style=""text-align: center; position: fixed; top: 5vh; left: 40vw;"">
            <div style=""margin:0 auto; width: 20vw; top: 8vh; font-size: 2vw""> 
            <font color=""green""> Bonus : $0.77 </font>
            </div>
        </div>
    
            <div> Please press any key to continue to the next movie.</div>
        ","enter","ITI","","","","","","",""
"","","","","","html-keyboard-response","79","153441","0.0-7.14-1.14","612f100e6abefeac4f3d4cd0","6573617f270241e5da3d355d","6576bfee933366d1c2483b90","1117","./stimuli//pack_morph_shapes_1/cat_2/diff_3/ex_2_3_12.gif","arrowright","response","ArrowRight","12","2","3","test","true",""
"","","","","","html-keyboard-response","80","154954","0.0-7.14-2.14","612f100e6abefeac4f3d4cd0","6573617f270241e5da3d355d","6576bfee933366d1c2483b90","null","<p> <font color=""green"" size=""5vw""> Correct category! </font> <br> <br> <font color=""green"" size=""8vw""> + $0.06 </font> </p>","null","feedback","","","","","","","0.83"
"","","","","","html-keyboard-response","81","155913","0.0-7.15-0.15","612f100e6abefeac4f3d4cd0","6573617f270241e5da3d355d","6576bfee933366d1c2483b90","957","
            
        <div style=""text-align: center; position: fixed; top: 5vh; left: 40vw;"">
            <div style=""margin:0 auto; width: 20vw; top: 8vh; font-size: 2vw""> 
            <font color=""green""> Bonus : $0.83 </font>
            </div>
        </div>
    
            <div> Please press any key to continue to the next movie.</div>
        ","enter","ITI","","","","","","",""
"","","","","","html-keyboard-response","82","157287","0.0-7.15-1.15","612f100e6abefeac4f3d4cd0","6573617f270241e5da3d355d","6576bfee933366d1c2483b90","1374","./stimuli//pack_morph_shapes_1/cat_2/diff_4/ex_2_4_16.gif","arrowright","response","ArrowRight","16","2","4","test","true",""
"","","","","","html-keyboard-response","83","158790","0.0-7.15-2.15","612f100e6abefeac4f3d4cd0","6573617f270241e5da3d355d","6576bfee933366d1c2483b90","null","<p> <font color=""green"" size=""5vw""> Correct category! </font> <br> <br> <font color=""green"" size=""8vw""> + $0.05 </font> </p>","null","feedback","","","","","","","0.88"
"","","","","","html-keyboard-response","84","158871","0.0-7.16-0.16","612f100e6abefeac4f3d4cd0","6573617f270241e5da3d355d","6576bfee933366d1c2483b90","80","
            
        <div style=""text-align: center; position: fixed; top: 5vh; left: 40vw;"">
            <div style=""margin:0 auto; width: 20vw; top: 8vh; font-size: 2vw""> 
            <font color=""green""> Bonus : $0.88 </font>
            </div>
        </div>
    
            <div> Please press any key to continue to the next movie.</div>
        ","enter","ITI","","","","","","",""
"","","","","","html-keyboard-response","85","160632","0.0-7.16-1.16","612f100e6abefeac4f3d4cd0","6573617f270241e5da3d355d","6576bfee933366d1c2483b90","1760","./stimuli//pack_morph_shapes_1/cat_1/diff_4/ex_1_4_11.gif","arrowleft","response","ArrowLeft","11","1","4","test","true",""
"","","","","","html-keyboard-response","86","162137","0.0-7.16-2.16","612f100e6abefeac4f3d4cd0","6573617f270241e5da3d355d","6576bfee933366d1c2483b90","null","<p> <font color=""green"" size=""5vw""> Correct category! </font> <br> <br> <font color=""green"" size=""8vw""> + $0.04 </font> </p>","null","feedback","","","","","","","0.92"
"","","","","","html-keyboard-response","87","162943","0.0-7.17-0.17","612f100e6abefeac4f3d4cd0","6573617f270241e5da3d355d","6576bfee933366d1c2483b90","805","
            
        <div style=""text-align: center; position: fixed; top: 5vh; left: 40vw;"">
            <div style=""margin:0 auto; width: 20vw; top: 8vh; font-size: 2vw""> 
            <font color=""green""> Bonus : $0.92 </font>
            </div>
        </div>
    
            <div> Please press any key to continue to the next movie.</div>
        ","enter","ITI","","","","","","",""
"","","","","","html-keyboard-response","88","164818","0.0-7.17-1.17","612f100e6abefeac4f3d4cd0","6573617f270241e5da3d355d","6576bfee933366d1c2483b90","1875","./stimuli//pack_morph_shapes_1/cat_1/diff_4/ex_1_4_17.gif","arrowright","response","ArrowLeft","17","1","4","test","false",""
"","","","","","html-keyboard-response","89","166331","0.0-7.17-2.17","612f100e6abefeac4f3d4cd0","6573617f270241e5da3d355d","6576bfee933366d1c2483b90","null","<p> <font color=""red"" size=""5vw""> Wrong category! </font> <br> <br> <font color=""red"" size=""8vw""> - $0.05 </font> </p>","null","feedback","","","","","","","0.87"
"","","","","","html-keyboard-response","90","166989","0.0-7.18-0.18","612f100e6abefeac4f3d4cd0","6573617f270241e5da3d355d","6576bfee933366d1c2483b90","657","
            
        <div style=""text-align: center; position: fixed; top: 5vh; left: 40vw;"">
            <div style=""margin:0 auto; width: 20vw; top: 8vh; font-size: 2vw""> 
            <font color=""green""> Bonus : $0.87 </font>
            </div>
        </div>
    
            <div> Please press any key to continue to the next movie.</div>
        ","enter","ITI","","","","","","",""
"","","","","","html-keyboard-response","91","168608","0.0-7.18-1.18","612f100e6abefeac4f3d4cd0","6573617f270241e5da3d355d","6576bfee933366d1c2483b90","1618","./stimuli//pack_morph_shapes_1/cat_2/diff_4/ex_2_4_7.gif","arrowright","response","ArrowRight","7","2","4","test","true",""
"","","","","","html-keyboard-response","92","170113","0.0-7.18-2.18","612f100e6abefeac4f3d4cd0","6573617f270241e5da3d355d","6576bfee933366d1c2483b90","null","<p> <font color=""green"" size=""5vw""> Correct category! </font> <br> <br> <font color=""green"" size=""8vw""> + $0.04 </font> </p>","null","feedback","","","","","","","0.91"
"","","","","","html-keyboard-response","93","170625","0.0-7.19-0.19","612f100e6abefeac4f3d4cd0","6573617f270241e5da3d355d","6576bfee933366d1c2483b90","511","
            
        <div style=""text-align: center; position: fixed; top: 5vh; left: 40vw;"">
            <div style=""margin:0 auto; width: 20vw; top: 8vh; font-size: 2vw""> 
            <font color=""green""> Bonus : $0.91 </font>
            </div>
        </div>
    
            <div> Please press any key to continue to the next movie.</div>
        ","enter","ITI","","","","","","",""
"","","","","","html-keyboard-response","94","172518","0.0-7.19-1.19","612f100e6abefeac4f3d4cd0","6573617f270241e5da3d355d","6576bfee933366d1c2483b90","1892","./stimuli//pack_morph_shapes_1/cat_2/diff_4/ex_2_4_12.gif","arrowright","response","ArrowRight","12","2","4","test","true",""
"","","","","","html-keyboard-response","95","174023","0.0-7.19-2.19","612f100e6abefeac4f3d4cd0","6573617f270241e5da3d355d","6576bfee933366d1c2483b90","null","<p> <font color=""green"" size=""5vw""> Correct category! </font> <br> <br> <font color=""green"" size=""8vw""> + $0.04 </font> </p>","null","feedback","","","","","","","0.95"
"","","","","","html-keyboard-response","96","174795","0.0-7.20-0.20","612f100e6abefeac4f3d4cd0","6573617f270241e5da3d355d","6576bfee933366d1c2483b90","771","
            
        <div style=""text-align: center; position: fixed; top: 5vh; left: 40vw;"">
            <div style=""margin:0 auto; width: 20vw; top: 8vh; font-size: 2vw""> 
            <font color=""green""> Bonus : $0.95 </font>
            </div>
        </div>
    
            <div> Please press any key to continue to the next movie.</div>
        ","enter","ITI","","","","","","",""
"","","","","","html-keyboard-response","97","176851","0.0-7.20-1.20","612f100e6abefeac4f3d4cd0","6573617f270241e5da3d355d","6576bfee933366d1c2483b90","2055","./stimuli//pack_morph_shapes_1/cat_2/diff_5/ex_2_5_2.gif","arrowright","response","ArrowRight","2","2","5","test","true",""
"","","","","","html-keyboard-response","98","178364","0.0-7.20-2.20","612f100e6abefeac4f3d4cd0","6573617f270241e5da3d355d","6576bfee933366d1c2483b90","null","<p> <font color=""green"" size=""5vw""> Correct category! </font> <br> <br> <font color=""green"" size=""8vw""> + $0.04 </font> </p>","null","feedback","","","","","","","0.99"
"","","","","","html-keyboard-response","99","179040","0.0-7.21-0.21","612f100e6abefeac4f3d4cd0","6573617f270241e5da3d355d","6576bfee933366d1c2483b90","675","
            
        <div style=""text-align: center; position: fixed; top: 5vh; left: 40vw;"">
            <div style=""margin:0 auto; width: 20vw; top: 8vh; font-size: 2vw""> 
            <font color=""green""> Bonus : $0.99 </font>
            </div>
        </div>
    
            <div> Please press any key to continue to the next movie.</div>
        ","enter","ITI","","","","","","",""
"","","","","","html-keyboard-response","100","180619","0.0-7.21-1.21","612f100e6abefeac4f3d4cd0","6573617f270241e5da3d355d","6576bfee933366d1c2483b90","1579","./stimuli//pack_morph_shapes_1/cat_2/diff_5/ex_2_5_5.gif","arrowright","response","ArrowRight","5","2","5","test","true",""
"","","","","","html-keyboard-response","101","182134","0.0-7.21-2.21","612f100e6abefeac4f3d4cd0","6573617f270241e5da3d355d","6576bfee933366d1c2483b90","null","<p> <font color=""green"" size=""5vw""> Correct category! </font> <br> <br> <font color=""green"" size=""8vw""> + $0.05 </font> </p>","null","feedback","","","","","","","1.04"
"","","","","","html-keyboard-response","102","182727","0.0-7.22-0.22","612f100e6abefeac4f3d4cd0","6573617f270241e5da3d355d","6576bfee933366d1c2483b90","592","
            
        <div style=""text-align: center; position: fixed; top: 5vh; left: 40vw;"">
            <div style=""margin:0 auto; width: 20vw; top: 8vh; font-size: 2vw""> 
            <font color=""green""> Bonus : $1.04 </font>
            </div>
        </div>
    
            <div> Please press any key to continue to the next movie.</div>
        ","enter","ITI","","","","","","",""
"","","","","","html-keyboard-response","103","183951","0.0-7.22-1.22","612f100e6abefeac4f3d4cd0","6573617f270241e5da3d355d","6576bfee933366d1c2483b90","1223","./stimuli//pack_morph_shapes_1/cat_2/diff_5/ex_2_5_8.gif","arrowright","response","ArrowRight","8","2","5","test","true",""
"","","","","","html-keyboard-response","104","185466","0.0-7.22-2.22","612f100e6abefeac4f3d4cd0","6573617f270241e5da3d355d","6576bfee933366d1c2483b90","null","<p> <font color=""green"" size=""5vw""> Correct category! </font> <br> <br> <font color=""green"" size=""8vw""> + $0.05 </font> </p>","null","feedback","","","","","","","1.09"
"","","","","","html-keyboard-response","105","185933","0.0-7.23-0.23","612f100e6abefeac4f3d4cd0","6573617f270241e5da3d355d","6576bfee933366d1c2483b90","466","
            
        <div style=""text-align: center; position: fixed; top: 5vh; left: 40vw;"">
            <div style=""margin:0 auto; width: 20vw; top: 8vh; font-size: 2vw""> 
            <font color=""green""> Bonus : $1.09 </font>
            </div>
        </div>
    
            <div> Please press any key to continue to the next movie.</div>
        ","enter","ITI","","","","","","",""
"","","","","","html-keyboard-response","106","187118","0.0-7.23-1.23","612f100e6abefeac4f3d4cd0","6573617f270241e5da3d355d","6576bfee933366d1c2483b90","1185","./stimuli//pack_morph_shapes_1/cat_1/diff_5/ex_1_5_1.gif","arrowleft","response","ArrowLeft","1","1","5","test","true",""
"","","","","","html-keyboard-response","107","188628","0.0-7.23-2.23","612f100e6abefeac4f3d4cd0","6573617f270241e5da3d355d","6576bfee933366d1c2483b90","null","<p> <font color=""green"" size=""5vw""> Correct category! </font> <br> <br> <font color=""green"" size=""8vw""> + $0.06 </font> </p>","null","feedback","","","","","","","1.15"
"","","","","","html-keyboard-response","108","188836","0.0-7.24-0.24","612f100e6abefeac4f3d4cd0","6573617f270241e5da3d355d","6576bfee933366d1c2483b90","207","
            
        <div style=""text-align: center; position: fixed; top: 5vh; left: 40vw;"">
            <div style=""margin:0 auto; width: 20vw; top: 8vh; font-size: 2vw""> 
            <font color=""green""> Bonus : $1.15 </font>
            </div>
        </div>
    
            <div> Please press any key to continue to the next movie.</div>
        ","enter","ITI","","","","","","",""
"","","","","","html-keyboard-response","109","189937","0.0-7.24-1.24","612f100e6abefeac4f3d4cd0","6573617f270241e5da3d355d","6576bfee933366d1c2483b90","1100","./stimuli//pack_morph_shapes_1/cat_1/diff_5/ex_1_5_15.gif","arrowleft","response","ArrowLeft","15","1","5","test","true",""
"","","","","","html-keyboard-response","110","191446","0.0-7.24-2.24","612f100e6abefeac4f3d4cd0","6573617f270241e5da3d355d","6576bfee933366d1c2483b90","null","<p> <font color=""green"" size=""5vw""> Correct category! </font> <br> <br> <font color=""green"" size=""8vw""> + $0.06 </font> </p>","null","feedback","","","","","","","1.21"
"","","","","","html-keyboard-response","111","191870","0.0-7.25-0.25","612f100e6abefeac4f3d4cd0","6573617f270241e5da3d355d","6576bfee933366d1c2483b90","423","
            
        <div style=""text-align: center; position: fixed; top: 5vh; left: 40vw;"">
            <div style=""margin:0 auto; width: 20vw; top: 8vh; font-size: 2vw""> 
            <font color=""green""> Bonus : $1.21 </font>
            </div>
        </div>
    
            <div> Please press any key to continue to the next movie.</div>
        ","enter","ITI","","","","","","",""
"","","","","","html-keyboard-response","112","193370","0.0-7.25-1.25","612f100e6abefeac4f3d4cd0","6573617f270241e5da3d355d","6576bfee933366d1c2483b90","1499","./stimuli//pack_morph_shapes_1/cat_2/diff_5/ex_2_5_5.gif","arrowright","response","ArrowRight","5","2","5","test","true",""
"","","","","","html-keyboard-response","113","194877","0.0-7.25-2.25","612f100e6abefeac4f3d4cd0","6573617f270241e5da3d355d","6576bfee933366d1c2483b90","null","<p> <font color=""green"" size=""5vw""> Correct category! </font> <br> <br> <font color=""green"" size=""8vw""> + $0.05 </font> </p>","null","feedback","","","","","","","1.26"
"","","","","","html-keyboard-response","114","195533","0.0-7.26-0.26","612f100e6abefeac4f3d4cd0","6573617f270241e5da3d355d","6576bfee933366d1c2483b90","655","
            
        <div style=""text-align: center; position: fixed; top: 5vh; left: 40vw;"">
            <div style=""margin:0 auto; width: 20vw; top: 8vh; font-size: 2vw""> 
            <font color=""green""> Bonus : $1.26 </font>
            </div>
        </div>
    
            <div> Please press any key to continue to the next movie.</div>
        ","enter","ITI","","","","","","",""
"","","","","","html-keyboard-response","115","196662","0.0-7.26-1.26","612f100e6abefeac4f3d4cd0","6573617f270241e5da3d355d","6576bfee933366d1c2483b90","1128","./stimuli//pack_morph_shapes_1/cat_1/diff_5/ex_1_5_16.gif","arrowleft","response","ArrowLeft","16","1","5","test","true",""
"","","","","","html-keyboard-response","116","198173","0.0-7.26-2.26","612f100e6abefeac4f3d4cd0","6573617f270241e5da3d355d","6576bfee933366d1c2483b90","null","<p> <font color=""green"" size=""5vw""> Correct category! </font> <br> <br> <font color=""green"" size=""8vw""> + $0.06 </font> </p>","null","feedback","","","","","","","1.32"
"","","","","","html-keyboard-response","117","198975","0.0-7.27-0.27","612f100e6abefeac4f3d4cd0","6573617f270241e5da3d355d","6576bfee933366d1c2483b90","801","
            
        <div style=""text-align: center; position: fixed; top: 5vh; left: 40vw;"">
            <div style=""margin:0 auto; width: 20vw; top: 8vh; font-size: 2vw""> 
            <font color=""green""> Bonus : $1.32 </font>
            </div>
        </div>
    
            <div> Please press any key to continue to the next movie.</div>
        ","enter","ITI","","","","","","",""
"","","","","","html-keyboard-response","118","201001","0.0-7.27-1.27","612f100e6abefeac4f3d4cd0","6573617f270241e5da3d355d","6576bfee933366d1c2483b90","2025","./stimuli//pack_morph_shapes_1/cat_2/diff_5/ex_2_5_4.gif","arrowleft","response","ArrowRight","4","2","5","test","false",""
"","","","","","html-keyboard-response","119","202515","0.0-7.27-2.27","612f100e6abefeac4f3d4cd0","6573617f270241e5da3d355d","6576bfee933366d1c2483b90","null","<p> <font color=""red"" size=""5vw""> Wrong category! </font> <br> <br> <font color=""red"" size=""8vw""> - $0.05 </font> </p>","null","feedback","","","","","","","1.27"
"","","","","","html-keyboard-response","120","203007","0.0-7.28-0.28","612f100e6abefeac4f3d4cd0","6573617f270241e5da3d355d","6576bfee933366d1c2483b90","491","
            
        <div style=""text-align: center; position: fixed; top: 5vh; left: 40vw;"">
            <div style=""margin:0 auto; width: 20vw; top: 8vh; font-size: 2vw""> 
            <font color=""green""> Bonus : $1.27 </font>
            </div>
        </div>
    
            <div> Please press any key to continue to the next movie.</div>
        ","enter","ITI","","","","","","",""
"","","","","","html-keyboard-response","121","203980","0.0-7.28-1.28","612f100e6abefeac4f3d4cd0","6573617f270241e5da3d355d","6576bfee933366d1c2483b90","972","./stimuli//pack_morph_shapes_1/cat_2/diff_5/ex_2_5_4.gif","arrowright","response","ArrowRight","4","2","5","test","true",""
"","","","","","html-keyboard-response","122","205495","0.0-7.28-2.28","612f100e6abefeac4f3d4cd0","6573617f270241e5da3d355d","6576bfee933366d1c2483b90","null","<p> <font color=""green"" size=""5vw""> Correct category! </font> <br> <br> <font color=""green"" size=""8vw""> + $0.06 </font> </p>","null","feedback","","","","","","","1.33"
"","","","","","html-keyboard-response","123","206469","0.0-7.29-0.29","612f100e6abefeac4f3d4cd0","6573617f270241e5da3d355d","6576bfee933366d1c2483b90","973","
            
        <div style=""text-align: center; position: fixed; top: 5vh; left: 40vw;"">
            <div style=""margin:0 auto; width: 20vw; top: 8vh; font-size: 2vw""> 
            <font color=""green""> Bonus : $1.33 </font>
            </div>
        </div>
    
            <div> Please press any key to continue to the next movie.</div>
        ","enter","ITI","","","","","","",""
"","","","","","html-keyboard-response","124","207688","0.0-7.29-1.29","612f100e6abefeac4f3d4cd0","6573617f270241e5da3d355d","6576bfee933366d1c2483b90","1218","./stimuli//pack_morph_shapes_1/cat_1/diff_5/ex_1_5_14.gif","arrowleft","response","ArrowLeft","14","1","5","test","true",""
"","","","","","html-keyboard-response","125","209195","0.0-7.29-2.29","612f100e6abefeac4f3d4cd0","6573617f270241e5da3d355d","6576bfee933366d1c2483b90","null","<p> <font color=""green"" size=""5vw""> Correct category! </font> <br> <br> <font color=""green"" size=""8vw""> + $0.05 </font> </p>","null","feedback","","","","","","","1.38"
"","","","","","html-keyboard-response","126","209739","0.0-7.30-0.30","612f100e6abefeac4f3d4cd0","6573617f270241e5da3d355d","6576bfee933366d1c2483b90","544","
            
        <div style=""text-align: center; position: fixed; top: 5vh; left: 40vw;"">
            <div style=""margin:0 auto; width: 20vw; top: 8vh; font-size: 2vw""> 
            <font color=""green""> Bonus : $1.38 </font>
            </div>
        </div>
    
            <div> Please press any key to continue to the next movie.</div>
        ","enter","ITI","","","","","","",""
"","","","","","html-keyboard-response","127","211018","0.0-7.30-1.30","612f100e6abefeac4f3d4cd0","6573617f270241e5da3d355d","6576bfee933366d1c2483b90","1278","./stimuli//pack_morph_shapes_1/cat_1/diff_5/ex_1_5_4.gif","arrowleft","response","ArrowLeft","4","1","5","test","true",""
"","","","","","html-keyboard-response","128","212528","0.0-7.30-2.30","612f100e6abefeac4f3d4cd0","6573617f270241e5da3d355d","6576bfee933366d1c2483b90","null","<p> <font color=""green"" size=""5vw""> Correct category! </font> <br> <br> <font color=""green"" size=""8vw""> + $0.05 </font> </p>","null","feedback","","","","","","","1.43"
"","","","","","html-keyboard-response","129","212918","0.0-7.31-0.31","612f100e6abefeac4f3d4cd0","6573617f270241e5da3d355d","6576bfee933366d1c2483b90","389","
            
        <div style=""text-align: center; position: fixed; top: 5vh; left: 40vw;"">
            <div style=""margin:0 auto; width: 20vw; top: 8vh; font-size: 2vw""> 
            <font color=""green""> Bonus : $1.43 </font>
            </div>
        </div>
    
            <div> Please press any key to continue to the next movie.</div>
        ","enter","ITI","","","","","","",""
"","","","","","html-keyboard-response","130","214098","0.0-7.31-1.31","612f100e6abefeac4f3d4cd0","6573617f270241e5da3d355d","6576bfee933366d1c2483b90","1179","./stimuli//pack_morph_shapes_1/cat_2/diff_5/ex_2_5_3.gif","arrowright","response","ArrowRight","3","2","5","test","true",""
"","","","","","html-keyboard-response","131","215610","0.0-7.31-2.31","612f100e6abefeac4f3d4cd0","6573617f270241e5da3d355d","6576bfee933366d1c2483b90","null","<p> <font color=""green"" size=""5vw""> Correct category! </font> <br> <br> <font color=""green"" size=""8vw""> + $0.06 </font> </p>","null","feedback","","","","","","","1.49"
"","","","","","html-keyboard-response","132","216104","0.0-7.32-0.32","612f100e6abefeac4f3d4cd0","6573617f270241e5da3d355d","6576bfee933366d1c2483b90","493","
            
        <div style=""text-align: center; position: fixed; top: 5vh; left: 40vw;"">
            <div style=""margin:0 auto; width: 20vw; top: 8vh; font-size: 2vw""> 
            <font color=""green""> Bonus : $1.49 </font>
            </div>
        </div>
    
            <div> Please press any key to continue to the next movie.</div>
        ","enter","ITI","","","","","","",""
"","","","","","html-keyboard-response","133","217666","0.0-7.32-1.32","612f100e6abefeac4f3d4cd0","6573617f270241e5da3d355d","6576bfee933366d1c2483b90","1561","./stimuli//pack_morph_shapes_1/cat_2/diff_5/ex_2_5_15.gif","arrowleft","response","ArrowRight","15","2","5","test","false",""
"","","","","","html-keyboard-response","134","219177","0.0-7.32-2.32","612f100e6abefeac4f3d4cd0","6573617f270241e5da3d355d","6576bfee933366d1c2483b90","null","<p> <font color=""red"" size=""5vw""> Wrong category! </font> <br> <br> <font color=""red"" size=""8vw""> - $0.05 </font> </p>","null","feedback","","","","","","","1.44"
"","","","","","html-keyboard-response","135","219610","0.0-7.33-0.33","612f100e6abefeac4f3d4cd0","6573617f270241e5da3d355d","6576bfee933366d1c2483b90","432","
            
        <div style=""text-align: center; position: fixed; top: 5vh; left: 40vw;"">
            <div style=""margin:0 auto; width: 20vw; top: 8vh; font-size: 2vw""> 
            <font color=""green""> Bonus : $1.44 </font>
            </div>
        </div>
    
            <div> Please press any key to continue to the next movie.</div>
        ","enter","ITI","","","","","","",""
"","","","","","html-keyboard-response","136","221820","0.0-7.33-1.33","612f100e6abefeac4f3d4cd0","6573617f270241e5da3d355d","6576bfee933366d1c2483b90","2208","./stimuli//pack_morph_shapes_1/cat_1/diff_5/ex_1_5_17.gif","arrowleft","response","ArrowLeft","17","1","5","test","true",""
"","","","","","html-keyboard-response","137","223333","0.0-7.33-2.33","612f100e6abefeac4f3d4cd0","6573617f270241e5da3d355d","6576bfee933366d1c2483b90","null","<p> <font color=""green"" size=""5vw""> Correct category! </font> <br> <br> <font color=""green"" size=""8vw""> + $0.03 </font> </p>","null","feedback","","","","","","","1.47"
"","","","","","html-keyboard-response","138","223796","0.0-7.34-0.34","612f100e6abefeac4f3d4cd0","6573617f270241e5da3d355d","6576bfee933366d1c2483b90","463","
            
        <div style=""text-align: center; position: fixed; top: 5vh; left: 40vw;"">
            <div style=""margin:0 auto; width: 20vw; top: 8vh; font-size: 2vw""> 
            <font color=""green""> Bonus : $1.47 </font>
            </div>
        </div>
    
            <div> Please press any key to continue to the next movie.</div>
        ","enter","ITI","","","","","","",""
"","","","","","html-keyboard-response","139","224963","0.0-7.34-1.34","612f100e6abefeac4f3d4cd0","6573617f270241e5da3d355d","6576bfee933366d1c2483b90","1166","./stimuli//pack_morph_shapes_1/cat_2/diff_5/ex_2_5_8.gif","arrowright","response","ArrowRight","8","2","5","test","true",""
"","","","","","html-keyboard-response","140","226469","0.0-7.34-2.34","612f100e6abefeac4f3d4cd0","6573617f270241e5da3d355d","6576bfee933366d1c2483b90","null","<p> <font color=""green"" size=""5vw""> Correct category! </font> <br> <br> <font color=""green"" size=""8vw""> + $0.06 </font> </p>","null","feedback","","","","","","","1.53"
"","","","","","html-keyboard-response","141","226936","0.0-7.35-0.35","612f100e6abefeac4f3d4cd0","6573617f270241e5da3d355d","6576bfee933366d1c2483b90","465","
            
        <div style=""text-align: center; position: fixed; top: 5vh; left: 40vw;"">
            <div style=""margin:0 auto; width: 20vw; top: 8vh; font-size: 2vw""> 
            <font color=""green""> Bonus : $1.53 </font>
            </div>
        </div>
    
            <div> Please press any key to continue to the next movie.</div>
        ","enter","ITI","","","","","","",""
"","","","","","html-keyboard-response","142","228011","0.0-7.35-1.35","612f100e6abefeac4f3d4cd0","6573617f270241e5da3d355d","6576bfee933366d1c2483b90","1074","./stimuli//pack_morph_shapes_1/cat_1/diff_5/ex_1_5_7.gif","arrowleft","response","ArrowLeft","7","1","5","test","true",""
"","","","","","html-keyboard-response","143","229526","0.0-7.35-2.35","612f100e6abefeac4f3d4cd0","6573617f270241e5da3d355d","6576bfee933366d1c2483b90","null","<p> <font color=""green"" size=""5vw""> Correct category! </font> <br> <br> <font color=""green"" size=""8vw""> + $0.06 </font> </p>","null","feedback","","","","","","","1.59"
"","","","","","html-keyboard-response","144","229898","0.0-7.36-0.36","612f100e6abefeac4f3d4cd0","6573617f270241e5da3d355d","6576bfee933366d1c2483b90","371","
            
        <div style=""text-align: center; position: fixed; top: 5vh; left: 40vw;"">
            <div style=""margin:0 auto; width: 20vw; top: 8vh; font-size: 2vw""> 
            <font color=""green""> Bonus : $1.59 </font>
            </div>
        </div>
    
            <div> Please press any key to continue to the next movie.</div>
        ","enter","ITI","","","","","","",""
"","","","","","html-keyboard-response","145","230701","0.0-7.36-1.36","612f100e6abefeac4f3d4cd0","6573617f270241e5da3d355d","6576bfee933366d1c2483b90","802","./stimuli//pack_morph_shapes_1/cat_1/diff_5/ex_1_5_3.gif","arrowleft","response","ArrowLeft","3","1","5","test","true",""
"","","","","","html-keyboard-response","146","232209","0.0-7.36-2.36","612f100e6abefeac4f3d4cd0","6573617f270241e5da3d355d","6576bfee933366d1c2483b90","null","<p> <font color=""green"" size=""5vw""> Correct category! </font> <br> <br> <font color=""green"" size=""8vw""> + $0.07 </font> </p>","null","feedback","","","","","","","1.66"
"","","","","","html-keyboard-response","147","232747","0.0-7.37-0.37","612f100e6abefeac4f3d4cd0","6573617f270241e5da3d355d","6576bfee933366d1c2483b90","537","
            
        <div style=""text-align: center; position: fixed; top: 5vh; left: 40vw;"">
            <div style=""margin:0 auto; width: 20vw; top: 8vh; font-size: 2vw""> 
            <font color=""green""> Bonus : $1.66 </font>
            </div>
        </div>
    
            <div> Please press any key to continue to the next movie.</div>
        ","enter","ITI","","","","","","",""
"","","","","","html-keyboard-response","148","233756","0.0-7.37-1.37","612f100e6abefeac4f3d4cd0","6573617f270241e5da3d355d","6576bfee933366d1c2483b90","1008","./stimuli//pack_morph_shapes_1/cat_1/diff_5/ex_1_5_14.gif","arrowleft","response","ArrowLeft","14","1","5","test","true",""
"","","","","","html-keyboard-response","149","235278","0.0-7.37-2.37","612f100e6abefeac4f3d4cd0","6573617f270241e5da3d355d","6576bfee933366d1c2483b90","null","<p> <font color=""green"" size=""5vw""> Correct category! </font> <br> <br> <font color=""green"" size=""8vw""> + $0.06 </font> </p>","null","feedback","","","","","","","1.72"
"","","","","","html-keyboard-response","150","235798","0.0-7.38-0.38","612f100e6abefeac4f3d4cd0","6573617f270241e5da3d355d","6576bfee933366d1c2483b90","519","
            
        <div style=""text-align: center; position: fixed; top: 5vh; left: 40vw;"">
            <div style=""margin:0 auto; width: 20vw; top: 8vh; font-size: 2vw""> 
            <font color=""green""> Bonus : $1.72 </font>
            </div>
        </div>
    
            <div> Please press any key to continue to the next movie.</div>
        ","enter","ITI","","","","","","",""
"","","","","","html-keyboard-response","151","236983","0.0-7.38-1.38","612f100e6abefeac4f3d4cd0","6573617f270241e5da3d355d","6576bfee933366d1c2483b90","1184","./stimuli//pack_morph_shapes_1/cat_2/diff_5/ex_2_5_6.gif","arrowright","response","ArrowRight","6","2","5","test","true",""
"","","","","","html-keyboard-response","152","238492","0.0-7.38-2.38","612f100e6abefeac4f3d4cd0","6573617f270241e5da3d355d","6576bfee933366d1c2483b90","null","<p> <font color=""green"" size=""5vw""> Correct category! </font> <br> <br> <font color=""green"" size=""8vw""> + $0.06 </font> </p>","null","feedback","","","","","","","1.78"
"","","","","","html-keyboard-response","153","238992","0.0-7.39-0.39","612f100e6abefeac4f3d4cd0","6573617f270241e5da3d355d","6576bfee933366d1c2483b90","498","
            
        <div style=""text-align: center; position: fixed; top: 5vh; left: 40vw;"">
            <div style=""margin:0 auto; width: 20vw; top: 8vh; font-size: 2vw""> 
            <font color=""green""> Bonus : $1.78 </font>
            </div>
        </div>
    
            <div> Please press any key to continue to the next movie.</div>
        ","enter","ITI","","","","","","",""
"","","","","","html-keyboard-response","154","241043","0.0-7.39-1.39","612f100e6abefeac4f3d4cd0","6573617f270241e5da3d355d","6576bfee933366d1c2483b90","2050","./stimuli//pack_morph_shapes_1/cat_1/diff_5/ex_1_5_17.gif","arrowleft","response","ArrowLeft","17","1","5","test","true",""
"","","","","","html-keyboard-response","155","242558","0.0-7.39-2.39","612f100e6abefeac4f3d4cd0","6573617f270241e5da3d355d","6576bfee933366d1c2483b90","null","<p> <font color=""green"" size=""5vw""> Correct category! </font> <br> <br> <font color=""green"" size=""8vw""> + $0.04 </font> </p>","null","feedback","","","","","","","1.82"
"","","","","","html-keyboard-response","156","242657","0.0-7.40-0.40","612f100e6abefeac4f3d4cd0","6573617f270241e5da3d355d","6576bfee933366d1c2483b90","98","
            
        <div style=""text-align: center; position: fixed; top: 5vh; left: 40vw;"">
            <div style=""margin:0 auto; width: 20vw; top: 8vh; font-size: 2vw""> 
            <font color=""green""> Bonus : $1.82 </font>
            </div>
        </div>
    
            <div> Please press any key to continue to the next movie.</div>
        ","enter","ITI","","","","","","",""
"","","","","","html-keyboard-response","157","243785","0.0-7.40-1.40","612f100e6abefeac4f3d4cd0","6573617f270241e5da3d355d","6576bfee933366d1c2483b90","1128","./stimuli//pack_morph_shapes_1/cat_1/diff_5/ex_1_5_8.gif","arrowleft","response","ArrowLeft","8","1","5","test","true",""
"","","","","","html-keyboard-response","158","245293","0.0-7.40-2.40","612f100e6abefeac4f3d4cd0","6573617f270241e5da3d355d","6576bfee933366d1c2483b90","null","<p> <font color=""green"" size=""5vw""> Correct category! </font> <br> <br> <font color=""green"" size=""8vw""> + $0.06 </font> </p>","null","feedback","","","","","","","1.88"
"","","","","","html-keyboard-response","159","245846","0.0-7.41-0.41","612f100e6abefeac4f3d4cd0","6573617f270241e5da3d355d","6576bfee933366d1c2483b90","552","
            
        <div style=""text-align: center; position: fixed; top: 5vh; left: 40vw;"">
            <div style=""margin:0 auto; width: 20vw; top: 8vh; font-size: 2vw""> 
            <font color=""green""> Bonus : $1.88 </font>
            </div>
        </div>
    
            <div> Please press any key to continue to the next movie.</div>
        ","enter","ITI","","","","","","",""
"","","","","","html-keyboard-response","160","246946","0.0-7.41-1.41","612f100e6abefeac4f3d4cd0","6573617f270241e5da3d355d","6576bfee933366d1c2483b90","1099","./stimuli//pack_morph_shapes_1/cat_2/diff_5/ex_2_5_9.gif","arrowright","response","ArrowRight","9","2","5","test","true",""
"","","","","","html-keyboard-response","161","248457","0.0-7.41-2.41","612f100e6abefeac4f3d4cd0","6573617f270241e5da3d355d","6576bfee933366d1c2483b90","null","<p> <font color=""green"" size=""5vw""> Correct category! </font> <br> <br> <font color=""green"" size=""8vw""> + $0.06 </font> </p>","null","feedback","","","","","","","1.94"
"","","","","","html-keyboard-response","162","248925","0.0-7.42-0.42","612f100e6abefeac4f3d4cd0","6573617f270241e5da3d355d","6576bfee933366d1c2483b90","467","
            
        <div style=""text-align: center; position: fixed; top: 5vh; left: 40vw;"">
            <div style=""margin:0 auto; width: 20vw; top: 8vh; font-size: 2vw""> 
            <font color=""green""> Bonus : $1.94 </font>
            </div>
        </div>
    
            <div> Please press any key to continue to the next movie.</div>
        ","enter","ITI","","","","","","",""
"","","","","","html-keyboard-response","163","249838","0.0-7.42-1.42","612f100e6abefeac4f3d4cd0","6573617f270241e5da3d355d","6576bfee933366d1c2483b90","912","./stimuli//pack_morph_shapes_1/cat_1/diff_5/ex_1_5_11.gif","arrowleft","response","ArrowLeft","11","1","5","test","true",""
"","","","","","html-keyboard-response","164","251345","0.0-7.42-2.42","612f100e6abefeac4f3d4cd0","6573617f270241e5da3d355d","6576bfee933366d1c2483b90","null","<p> <font color=""green"" size=""5vw""> Correct category! </font> <br> <br> <font color=""green"" size=""8vw""> + $0.06 </font> </p>","null","feedback","","","","","","","2"
"","","","","","html-keyboard-response","165","251934","0.0-7.43-0.43","612f100e6abefeac4f3d4cd0","6573617f270241e5da3d355d","6576bfee933366d1c2483b90","588","
            
        <div style=""text-align: center; position: fixed; top: 5vh; left: 40vw;"">
            <div style=""margin:0 auto; width: 20vw; top: 8vh; font-size: 2vw""> 
            <font color=""green""> Bonus : $2 </font>
            </div>
        </div>
    
            <div> Please press any key to continue to the next movie.</div>
        ","enter","ITI","","","","","","",""
"","","","","","html-keyboard-response","166","252593","0.0-7.43-1.43","612f100e6abefeac4f3d4cd0","6573617f270241e5da3d355d","6576bfee933366d1c2483b90","659","./stimuli//pack_morph_shapes_1/cat_1/diff_5/ex_1_5_6.gif","arrowleft","response","ArrowLeft","6","1","5","test","true",""
"","","","","","html-keyboard-response","167","254108","0.0-7.43-2.43","612f100e6abefeac4f3d4cd0","6573617f270241e5da3d355d","6576bfee933366d1c2483b90","null","<p> <font color=""green"" size=""5vw""> Correct category! </font> <br> <br> <font color=""green"" size=""8vw""> + $0.07 </font> </p>","null","feedback","","","","","","","2.07"
"","","","","","html-keyboard-response","168","254945","0.0-7.44-0.44","612f100e6abefeac4f3d4cd0","6573617f270241e5da3d355d","6576bfee933366d1c2483b90","836","
            
        <div style=""text-align: center; position: fixed; top: 5vh; left: 40vw;"">
            <div style=""margin:0 auto; width: 20vw; top: 8vh; font-size: 2vw""> 
            <font color=""green""> Bonus : $2.07 </font>
            </div>
        </div>
    
            <div> Please press any key to continue to the next movie.</div>
        ","enter","ITI","","","","","","",""
"","","","","","html-keyboard-response","169","255855","0.0-7.44-1.44","612f100e6abefeac4f3d4cd0","6573617f270241e5da3d355d","6576bfee933366d1c2483b90","909","./stimuli//pack_morph_shapes_1/cat_2/diff_5/ex_2_5_10.gif","arrowright","response","ArrowRight","10","2","5","test","true",""
"","","","","","html-keyboard-response","170","257371","0.0-7.44-2.44","612f100e6abefeac4f3d4cd0","6573617f270241e5da3d355d","6576bfee933366d1c2483b90","null","<p> <font color=""green"" size=""5vw""> Correct category! </font> <br> <br> <font color=""green"" size=""8vw""> + $0.06 </font> </p>","null","feedback","","","","","","","2.13"
"","","","","","html-keyboard-response","171","258351","0.0-7.45-0.45","612f100e6abefeac4f3d4cd0","6573617f270241e5da3d355d","6576bfee933366d1c2483b90","979","
            
        <div style=""text-align: center; position: fixed; top: 5vh; left: 40vw;"">
            <div style=""margin:0 auto; width: 20vw; top: 8vh; font-size: 2vw""> 
            <font color=""green""> Bonus : $2.13 </font>
            </div>
        </div>
    
            <div> Please press any key to continue to the next movie.</div>
        ","enter","ITI","","","","","","",""
"","","","","","html-keyboard-response","172","259500","0.0-7.45-1.45","612f100e6abefeac4f3d4cd0","6573617f270241e5da3d355d","6576bfee933366d1c2483b90","1148","./stimuli//pack_morph_shapes_1/cat_2/diff_5/ex_2_5_7.gif","arrowright","response","ArrowRight","7","2","5","test","true",""
"","","","","","html-keyboard-response","173","261007","0.0-7.45-2.45","612f100e6abefeac4f3d4cd0","6573617f270241e5da3d355d","6576bfee933366d1c2483b90","null","<p> <font color=""green"" size=""5vw""> Correct category! </font> <br> <br> <font color=""green"" size=""8vw""> + $0.06 </font> </p>","null","feedback","","","","","","","2.19"
"","","","","","html-keyboard-response","174","261585","0.0-7.46-0.46","612f100e6abefeac4f3d4cd0","6573617f270241e5da3d355d","6576bfee933366d1c2483b90","577","
            
        <div style=""text-align: center; position: fixed; top: 5vh; left: 40vw;"">
            <div style=""margin:0 auto; width: 20vw; top: 8vh; font-size: 2vw""> 
            <font color=""green""> Bonus : $2.19 </font>
            </div>
        </div>
    
            <div> Please press any key to continue to the next movie.</div>
        ","enter","ITI","","","","","","",""
"","","","","","html-keyboard-response","175","262544","0.0-7.46-1.46","612f100e6abefeac4f3d4cd0","6573617f270241e5da3d355d","6576bfee933366d1c2483b90","958","./stimuli//pack_morph_shapes_1/cat_2/diff_5/ex_2_5_6.gif","arrowright","response","ArrowRight","6","2","5","test","true",""
"","","","","","html-keyboard-response","176","264054","0.0-7.46-2.46","612f100e6abefeac4f3d4cd0","6573617f270241e5da3d355d","6576bfee933366d1c2483b90","null","<p> <font color=""green"" size=""5vw""> Correct category! </font> <br> <br> <font color=""green"" size=""8vw""> + $0.06 </font> </p>","null","feedback","","","","","","","2.25"
"","","","","","html-keyboard-response","177","264603","0.0-7.47-0.47","612f100e6abefeac4f3d4cd0","6573617f270241e5da3d355d","6576bfee933366d1c2483b90","548","
            
        <div style=""text-align: center; position: fixed; top: 5vh; left: 40vw;"">
            <div style=""margin:0 auto; width: 20vw; top: 8vh; font-size: 2vw""> 
            <font color=""green""> Bonus : $2.25 </font>
            </div>
        </div>
    
            <div> Please press any key to continue to the next movie.</div>
        ","enter","ITI","","","","","","",""
"","","","","","html-keyboard-response","178","265483","0.0-7.47-1.47","612f100e6abefeac4f3d4cd0","6573617f270241e5da3d355d","6576bfee933366d1c2483b90","879","./stimuli//pack_morph_shapes_1/cat_1/diff_5/ex_1_5_6.gif","arrowleft","response","ArrowLeft","6","1","5","test","true",""
"","","","","","html-keyboard-response","179","266997","0.0-7.47-2.47","612f100e6abefeac4f3d4cd0","6573617f270241e5da3d355d","6576bfee933366d1c2483b90","null","<p> <font color=""green"" size=""5vw""> Correct category! </font> <br> <br> <font color=""green"" size=""8vw""> + $0.06 </font> </p>","null","feedback","","","","","","","2.31"
"","","","","","html-keyboard-response","180","267559","0.0-7.48-0.48","612f100e6abefeac4f3d4cd0","6573617f270241e5da3d355d","6576bfee933366d1c2483b90","562","
            
        <div style=""text-align: center; position: fixed; top: 5vh; left: 40vw;"">
            <div style=""margin:0 auto; width: 20vw; top: 8vh; font-size: 2vw""> 
            <font color=""green""> Bonus : $2.31 </font>
            </div>
        </div>
    
            <div> Please press any key to continue to the next movie.</div>
        ","shift","ITI","","","","","","",""
"","","","","","html-keyboard-response","181","268341","0.0-7.48-1.48","612f100e6abefeac4f3d4cd0","6573617f270241e5da3d355d","6576bfee933366d1c2483b90","780","./stimuli//pack_morph_shapes_1/cat_1/diff_5/ex_1_5_7.gif","arrowleft","response","ArrowLeft","7","1","5","test","true",""
"","","","","","html-keyboard-response","182","269854","0.0-7.48-2.48","612f100e6abefeac4f3d4cd0","6573617f270241e5da3d355d","6576bfee933366d1c2483b90","null","<p> <font color=""green"" size=""5vw""> Correct category! </font> <br> <br> <font color=""green"" size=""8vw""> + $0.07 </font> </p>","null","feedback","","","","","","","2.38"
"","","","","","html-keyboard-response","183","271215","0.0-7.49-0.49","612f100e6abefeac4f3d4cd0","6573617f270241e5da3d355d","6576bfee933366d1c2483b90","1359","
            
        <div style=""text-align: center; position: fixed; top: 5vh; left: 40vw;"">
            <div style=""margin:0 auto; width: 20vw; top: 8vh; font-size: 2vw""> 
            <font color=""green""> Bonus : $2.38 </font>
            </div>
        </div>
    
            <div> Please press any key to continue to the next movie.</div>
        ","shift","ITI","","","","","","",""
"","","","","","html-keyboard-response","184","271939","0.0-7.49-1.49","612f100e6abefeac4f3d4cd0","6573617f270241e5da3d355d","6576bfee933366d1c2483b90","724","./stimuli//pack_morph_shapes_1/cat_1/diff_5/ex_1_5_5.gif","arrowleft","response","ArrowLeft","5","1","5","test","true",""
"","","","","","html-keyboard-response","185","273444","0.0-7.49-2.49","612f100e6abefeac4f3d4cd0","6573617f270241e5da3d355d","6576bfee933366d1c2483b90","null","<p> <font color=""green"" size=""5vw""> Correct category! </font> <br> <br> <font color=""green"" size=""8vw""> + $0.07 </font> </p>","null","feedback","","","","","","","2.45"
"","","","","","html-keyboard-response","186","274239","0.0-7.50-0.50","612f100e6abefeac4f3d4cd0","6573617f270241e5da3d355d","6576bfee933366d1c2483b90","794","
            
        <div style=""text-align: center; position: fixed; top: 5vh; left: 40vw;"">
            <div style=""margin:0 auto; width: 20vw; top: 8vh; font-size: 2vw""> 
            <font color=""green""> Bonus : $2.45 </font>
            </div>
        </div>
    
            <div> Please press any key to continue to the next movie.</div>
        ","shift","ITI","","","","","","",""
"","","","","","html-keyboard-response","187","275280","0.0-7.50-1.50","612f100e6abefeac4f3d4cd0","6573617f270241e5da3d355d","6576bfee933366d1c2483b90","1039","./stimuli//pack_morph_shapes_1/cat_2/diff_5/ex_2_5_5.gif","arrowright","response","ArrowRight","5","2","5","test","true",""
"","","","","","html-keyboard-response","188","276784","0.0-7.50-2.50","612f100e6abefeac4f3d4cd0","6573617f270241e5da3d355d","6576bfee933366d1c2483b90","null","<p> <font color=""green"" size=""5vw""> Correct category! </font> <br> <br> <font color=""green"" size=""8vw""> + $0.06 </font> </p>","null","feedback","","","","","","","2.51"
"","","","","","html-keyboard-response","189","277267","0.0-7.51-0.51","612f100e6abefeac4f3d4cd0","6573617f270241e5da3d355d","6576bfee933366d1c2483b90","483","
            
        <div style=""text-align: center; position: fixed; top: 5vh; left: 40vw;"">
            <div style=""margin:0 auto; width: 20vw; top: 8vh; font-size: 2vw""> 
            <font color=""green""> Bonus : $2.51 </font>
            </div>
        </div>
    
            <div> Please press any key to continue to the next movie.</div>
        ","shift","ITI","","","","","","",""
"","","","","","html-keyboard-response","190","278159","0.0-7.51-1.51","612f100e6abefeac4f3d4cd0","6573617f270241e5da3d355d","6576bfee933366d1c2483b90","890","./stimuli//pack_morph_shapes_1/cat_2/diff_5/ex_2_5_10.gif","arrowright","response","ArrowRight","10","2","5","test","true",""
"","","","","","html-keyboard-response","191","279668","0.0-7.51-2.51","612f100e6abefeac4f3d4cd0","6573617f270241e5da3d355d","6576bfee933366d1c2483b90","null","<p> <font color=""green"" size=""5vw""> Correct category! </font> <br> <br> <font color=""green"" size=""8vw""> + $0.06 </font> </p>","null","feedback","","","","","","","2.57"
"","","","","","html-keyboard-response","192","280152","0.0-7.52-0.52","612f100e6abefeac4f3d4cd0","6573617f270241e5da3d355d","6576bfee933366d1c2483b90","484","
            
        <div style=""text-align: center; position: fixed; top: 5vh; left: 40vw;"">
            <div style=""margin:0 auto; width: 20vw; top: 8vh; font-size: 2vw""> 
            <font color=""green""> Bonus : $2.57 </font>
            </div>
        </div>
    
            <div> Please press any key to continue to the next movie.</div>
        ","shift","ITI","","","","","","",""
"","","","","","html-keyboard-response","193","280991","0.0-7.52-1.52","612f100e6abefeac4f3d4cd0","6573617f270241e5da3d355d","6576bfee933366d1c2483b90","837","./stimuli//pack_morph_shapes_1/cat_2/diff_5/ex_2_5_7.gif","arrowright","response","ArrowRight","7","2","5","test","true",""
"","","","","","html-keyboard-response","194","282499","0.0-7.52-2.52","612f100e6abefeac4f3d4cd0","6573617f270241e5da3d355d","6576bfee933366d1c2483b90","null","<p> <font color=""green"" size=""5vw""> Correct category! </font> <br> <br> <font color=""green"" size=""8vw""> + $0.07 </font> </p>","null","feedback","","","","","","","2.64"
"","","","","","html-keyboard-response","195","283275","0.0-7.53-0.53","612f100e6abefeac4f3d4cd0","6573617f270241e5da3d355d","6576bfee933366d1c2483b90","775","
            
        <div style=""text-align: center; position: fixed; top: 5vh; left: 40vw;"">
            <div style=""margin:0 auto; width: 20vw; top: 8vh; font-size: 2vw""> 
            <font color=""green""> Bonus : $2.64 </font>
            </div>
        </div>
    
            <div> Please press any key to continue to the next movie.</div>
        ","shift","ITI","","","","","","",""
"","","","","","html-keyboard-response","196","284243","0.0-7.53-1.53","612f100e6abefeac4f3d4cd0","6573617f270241e5da3d355d","6576bfee933366d1c2483b90","967","./stimuli//pack_morph_shapes_1/cat_1/diff_5/ex_1_5_11.gif","arrowleft","response","ArrowLeft","11","1","5","test","true",""
"","","","","","html-keyboard-response","197","285753","0.0-7.53-2.53","612f100e6abefeac4f3d4cd0","6573617f270241e5da3d355d","6576bfee933366d1c2483b90","null","<p> <font color=""green"" size=""5vw""> Correct category! </font> <br> <br> <font color=""green"" size=""8vw""> + $0.06 </font> </p>","null","feedback","","","","","","","2.7"
"","","","","","html-keyboard-response","198","286282","0.0-7.54-0.54","612f100e6abefeac4f3d4cd0","6573617f270241e5da3d355d","6576bfee933366d1c2483b90","528","
            
        <div style=""text-align: center; position: fixed; top: 5vh; left: 40vw;"">
            <div style=""margin:0 auto; width: 20vw; top: 8vh; font-size: 2vw""> 
            <font color=""green""> Bonus : $2.7 </font>
            </div>
        </div>
    
            <div> Please press any key to continue to the next movie.</div>
        ","shift","ITI","","","","","","",""
"","","","","","html-keyboard-response","199","287229","0.0-7.54-1.54","612f100e6abefeac4f3d4cd0","6573617f270241e5da3d355d","6576bfee933366d1c2483b90","945","./stimuli//pack_morph_shapes_1/cat_2/diff_5/ex_2_5_13.gif","arrowright","response","ArrowRight","13","2","5","test","true",""
"","","","","","html-keyboard-response","200","288733","0.0-7.54-2.54","612f100e6abefeac4f3d4cd0","6573617f270241e5da3d355d","6576bfee933366d1c2483b90","null","<p> <font color=""green"" size=""5vw""> Correct category! </font> <br> <br> <font color=""green"" size=""8vw""> + $0.06 </font> </p>","null","feedback","","","","","","","2.76"
"","","","","","html-keyboard-response","201","289470","0.0-7.55-0.55","612f100e6abefeac4f3d4cd0","6573617f270241e5da3d355d","6576bfee933366d1c2483b90","736","
            
        <div style=""text-align: center; position: fixed; top: 5vh; left: 40vw;"">
            <div style=""margin:0 auto; width: 20vw; top: 8vh; font-size: 2vw""> 
            <font color=""green""> Bonus : $2.76 </font>
            </div>
        </div>
    
            <div> Please press any key to continue to the next movie.</div>
        ","shift","ITI","","","","","","",""
"","","","","","html-keyboard-response","202","290936","0.0-7.55-1.55","612f100e6abefeac4f3d4cd0","6573617f270241e5da3d355d","6576bfee933366d1c2483b90","1465","./stimuli//pack_morph_shapes_1/cat_1/diff_5/ex_1_5_10.gif","arrowright","response","ArrowLeft","10","1","5","test","false",""
"","","","","","html-keyboard-response","203","292452","0.0-7.55-2.55","612f100e6abefeac4f3d4cd0","6573617f270241e5da3d355d","6576bfee933366d1c2483b90","null","<p> <font color=""red"" size=""5vw""> Wrong category! </font> <br> <br> <font color=""red"" size=""8vw""> - $0.05 </font> </p>","null","feedback","","","","","","","2.71"
"","","","","","html-keyboard-response","204","292469","0.0-7.56-0.56","612f100e6abefeac4f3d4cd0","6573617f270241e5da3d355d","6576bfee933366d1c2483b90","16","
            
        <div style=""text-align: center; position: fixed; top: 5vh; left: 40vw;"">
            <div style=""margin:0 auto; width: 20vw; top: 8vh; font-size: 2vw""> 
            <font color=""green""> Bonus : $2.71 </font>
            </div>
        </div>
    
            <div> Please press any key to continue to the next movie.</div>
        ","shift","ITI","","","","","","",""
"","","","","","html-keyboard-response","205","293412","0.0-7.56-1.56","612f100e6abefeac4f3d4cd0","6573617f270241e5da3d355d","6576bfee933366d1c2483b90","942","./stimuli//pack_morph_shapes_1/cat_1/diff_5/ex_1_5_14.gif","arrowleft","response","ArrowLeft","14","1","5","test","true",""
"","","","","","html-keyboard-response","206","294929","0.0-7.56-2.56","612f100e6abefeac4f3d4cd0","6573617f270241e5da3d355d","6576bfee933366d1c2483b90","null","<p> <font color=""green"" size=""5vw""> Correct category! </font> <br> <br> <font color=""green"" size=""8vw""> + $0.06 </font> </p>","null","feedback","","","","","","","2.77"
"","","","","","html-keyboard-response","207","295540","0.0-7.57-0.57","612f100e6abefeac4f3d4cd0","6573617f270241e5da3d355d","6576bfee933366d1c2483b90","610","
            
        <div style=""text-align: center; position: fixed; top: 5vh; left: 40vw;"">
            <div style=""margin:0 auto; width: 20vw; top: 8vh; font-size: 2vw""> 
            <font color=""green""> Bonus : $2.77 </font>
            </div>
        </div>
    
            <div> Please press any key to continue to the next movie.</div>
        ","shift","ITI","","","","","","",""
"","","","","","html-keyboard-response","208","296993","0.0-7.57-1.57","612f100e6abefeac4f3d4cd0","6573617f270241e5da3d355d","6576bfee933366d1c2483b90","1452","./stimuli//pack_morph_shapes_1/cat_1/diff_5/ex_1_5_12.gif","arrowleft","response","ArrowLeft","12","1","5","test","true",""
"","","","","","html-keyboard-response","209","298503","0.0-7.57-2.57","612f100e6abefeac4f3d4cd0","6573617f270241e5da3d355d","6576bfee933366d1c2483b90","null","<p> <font color=""green"" size=""5vw""> Correct category! </font> <br> <br> <font color=""green"" size=""8vw""> + $0.05 </font> </p>","null","feedback","","","","","","","2.82"
"","","","","","html-keyboard-response","210","298943","0.0-7.58-0.58","612f100e6abefeac4f3d4cd0","6573617f270241e5da3d355d","6576bfee933366d1c2483b90","440","
            
        <div style=""text-align: center; position: fixed; top: 5vh; left: 40vw;"">
            <div style=""margin:0 auto; width: 20vw; top: 8vh; font-size: 2vw""> 
            <font color=""green""> Bonus : $2.82 </font>
            </div>
        </div>
    
            <div> Please press any key to continue to the next movie.</div>
        ","shift","ITI","","","","","","",""
"","","","","","html-keyboard-response","211","300018","0.0-7.58-1.58","612f100e6abefeac4f3d4cd0","6573617f270241e5da3d355d","6576bfee933366d1c2483b90","1074","./stimuli//pack_morph_shapes_1/cat_2/diff_5/ex_2_5_14.gif","arrowright","response","ArrowRight","14","2","5","test","true",""
"","","","","","html-keyboard-response","212","301521","0.0-7.58-2.58","612f100e6abefeac4f3d4cd0","6573617f270241e5da3d355d","6576bfee933366d1c2483b90","null","<p> <font color=""green"" size=""5vw""> Correct category! </font> <br> <br> <font color=""green"" size=""8vw""> + $0.06 </font> </p>","null","feedback","","","","","","","2.88"
"","","","","","html-keyboard-response","213","301970","0.0-7.59-0.59","612f100e6abefeac4f3d4cd0","6573617f270241e5da3d355d","6576bfee933366d1c2483b90","448","
            
        <div style=""text-align: center; position: fixed; top: 5vh; left: 40vw;"">
            <div style=""margin:0 auto; width: 20vw; top: 8vh; font-size: 2vw""> 
            <font color=""green""> Bonus : $2.88 </font>
            </div>
        </div>
    
            <div> Please press any key to continue to the next movie.</div>
        ","shift","ITI","","","","","","",""
"","","","","","html-keyboard-response","214","302522","0.0-7.59-1.59","612f100e6abefeac4f3d4cd0","6573617f270241e5da3d355d","6576bfee933366d1c2483b90","551","./stimuli//pack_morph_shapes_1/cat_1/diff_5/ex_1_5_6.gif","arrowleft","response","ArrowLeft","6","1","5","test","true",""
"","","","","","html-keyboard-response","215","304028","0.0-7.59-2.59","612f100e6abefeac4f3d4cd0","6573617f270241e5da3d355d","6576bfee933366d1c2483b90","null","<p> <font color=""green"" size=""5vw""> Correct category! </font> <br> <br> <font color=""green"" size=""8vw""> + $0.08 </font> </p>","null","feedback","","","","","","","2.96"
"","","","","","html-keyboard-response","216","304532","0.0-7.60-0.60","612f100e6abefeac4f3d4cd0","6573617f270241e5da3d355d","6576bfee933366d1c2483b90","504","
            
        <div style=""text-align: center; position: fixed; top: 5vh; left: 40vw;"">
            <div style=""margin:0 auto; width: 20vw; top: 8vh; font-size: 2vw""> 
            <font color=""green""> Bonus : $2.96 </font>
            </div>
        </div>
    
            <div> Please press any key to continue to the next movie.</div>
        ","shift","ITI","","","","","","",""
"","","","","","html-keyboard-response","217","305540","0.0-7.60-1.60","612f100e6abefeac4f3d4cd0","6573617f270241e5da3d355d","6576bfee933366d1c2483b90","1006","./stimuli//pack_morph_shapes_1/cat_1/diff_5/ex_1_5_13.gif","arrowleft","response","ArrowLeft","13","1","5","test","true",""
"","","","","","html-keyboard-response","218","307045","0.0-7.60-2.60","612f100e6abefeac4f3d4cd0","6573617f270241e5da3d355d","6576bfee933366d1c2483b90","null","<p> <font color=""green"" size=""5vw""> Correct category! </font> <br> <br> <font color=""green"" size=""8vw""> + $0.06 </font> </p>","null","feedback","","","","","","","3.02"
"","","","","","html-keyboard-response","219","307415","0.0-7.61-0.61","612f100e6abefeac4f3d4cd0","6573617f270241e5da3d355d","6576bfee933366d1c2483b90","369","
            
        <div style=""text-align: center; position: fixed; top: 5vh; left: 40vw;"">
            <div style=""margin:0 auto; width: 20vw; top: 8vh; font-size: 2vw""> 
            <font color=""green""> Bonus : $3.02 </font>
            </div>
        </div>
    
            <div> Please press any key to continue to the next movie.</div>
        ","shift","ITI","","","","","","",""
"","","","","","html-keyboard-response","220","307935","0.0-7.61-1.61","612f100e6abefeac4f3d4cd0","6573617f270241e5da3d355d","6576bfee933366d1c2483b90","518","./stimuli//pack_morph_shapes_1/cat_1/diff_5/ex_1_5_8.gif","arrowleft","response","ArrowLeft","8","1","5","test","true",""
"","","","","","html-keyboard-response","221","309444","0.0-7.61-2.61","612f100e6abefeac4f3d4cd0","6573617f270241e5da3d355d","6576bfee933366d1c2483b90","null","<p> <font color=""green"" size=""5vw""> Correct category! </font> <br> <br> <font color=""green"" size=""8vw""> + $0.08 </font> </p>","null","feedback","","","","","","","3.1"
"","","","","","html-keyboard-response","222","309923","0.0-7.62-0.62","612f100e6abefeac4f3d4cd0","6573617f270241e5da3d355d","6576bfee933366d1c2483b90","479","
            
        <div style=""text-align: center; position: fixed; top: 5vh; left: 40vw;"">
            <div style=""margin:0 auto; width: 20vw; top: 8vh; font-size: 2vw""> 
            <font color=""green""> Bonus : $3.1 </font>
            </div>
        </div>
    
            <div> Please press any key to continue to the next movie.</div>
        ","shift","ITI","","","","","","",""
"","","","","","html-keyboard-response","223","310786","0.0-7.62-1.62","612f100e6abefeac4f3d4cd0","6573617f270241e5da3d355d","6576bfee933366d1c2483b90","861","./stimuli//pack_morph_shapes_1/cat_1/diff_5/ex_1_5_16.gif","arrowright","response","ArrowLeft","16","1","5","test","false",""
"","","","","","html-keyboard-response","224","312294","0.0-7.62-2.62","612f100e6abefeac4f3d4cd0","6573617f270241e5da3d355d","6576bfee933366d1c2483b90","null","<p> <font color=""red"" size=""5vw""> Wrong category! </font> <br> <br> <font color=""red"" size=""8vw""> - $0.05 </font> </p>","null","feedback","","","","","","","3.05"
"","","","","","html-keyboard-response","225","312457","0.0-7.63-0.63","612f100e6abefeac4f3d4cd0","6573617f270241e5da3d355d","6576bfee933366d1c2483b90","162","
            
        <div style=""text-align: center; position: fixed; top: 5vh; left: 40vw;"">
            <div style=""margin:0 auto; width: 20vw; top: 8vh; font-size: 2vw""> 
            <font color=""green""> Bonus : $3.05 </font>
            </div>
        </div>
    
            <div> Please press any key to continue to the next movie.</div>
        ","shift","ITI","","","","","","",""
"","","","","","html-keyboard-response","226","313210","0.0-7.63-1.63","612f100e6abefeac4f3d4cd0","6573617f270241e5da3d355d","6576bfee933366d1c2483b90","752","./stimuli//pack_morph_shapes_1/cat_2/diff_5/ex_2_5_7.gif","arrowright","response","ArrowRight","7","2","5","test","true",""
"","","","","","html-keyboard-response","227","314727","0.0-7.63-2.63","612f100e6abefeac4f3d4cd0","6573617f270241e5da3d355d","6576bfee933366d1c2483b90","null","<p> <font color=""green"" size=""5vw""> Correct category! </font> <br> <br> <font color=""green"" size=""8vw""> + $0.07 </font> </p>","null","feedback","","","","","","","3.12"
"","","","","","html-keyboard-response","228","315173","0.0-7.64-0.64","612f100e6abefeac4f3d4cd0","6573617f270241e5da3d355d","6576bfee933366d1c2483b90","445","
            
        <div style=""text-align: center; position: fixed; top: 5vh; left: 40vw;"">
            <div style=""margin:0 auto; width: 20vw; top: 8vh; font-size: 2vw""> 
            <font color=""green""> Bonus : $3.12 </font>
            </div>
        </div>
    
            <div> Please press any key to continue to the next movie.</div>
        ","shift","ITI","","","","","","",""
"","","","","","html-keyboard-response","229","315989","0.0-7.64-1.64","612f100e6abefeac4f3d4cd0","6573617f270241e5da3d355d","6576bfee933366d1c2483b90","815","./stimuli//pack_morph_shapes_1/cat_2/diff_5/ex_2_5_7.gif","arrowright","response","ArrowRight","7","2","5","test","true",""
"","","","","","html-keyboard-response","230","317493","0.0-7.64-2.64","612f100e6abefeac4f3d4cd0","6573617f270241e5da3d355d","6576bfee933366d1c2483b90","null","<p> <font color=""green"" size=""5vw""> Correct category! </font> <br> <br> <font color=""green"" size=""8vw""> + $0.07 </font> </p>","null","feedback","","","","","","","3.19"
"","","","","","html-keyboard-response","231","317940","0.0-7.65-0.65","612f100e6abefeac4f3d4cd0","6573617f270241e5da3d355d","6576bfee933366d1c2483b90","446","
            
        <div style=""text-align: center; position: fixed; top: 5vh; left: 40vw;"">
            <div style=""margin:0 auto; width: 20vw; top: 8vh; font-size: 2vw""> 
            <font color=""green""> Bonus : $3.19 </font>
            </div>
        </div>
    
            <div> Please press any key to continue to the next movie.</div>
        ","shift","ITI","","","","","","",""
"","","","","","html-keyboard-response","232","318797","0.0-7.65-1.65","612f100e6abefeac4f3d4cd0","6573617f270241e5da3d355d","6576bfee933366d1c2483b90","856","./stimuli//pack_morph_shapes_1/cat_1/diff_5/ex_1_5_2.gif","arrowleft","response","ArrowLeft","2","1","5","test","true",""
"","","","","","html-keyboard-response","233","320304","0.0-7.65-2.65","612f100e6abefeac4f3d4cd0","6573617f270241e5da3d355d","6576bfee933366d1c2483b90","null","<p> <font color=""green"" size=""5vw""> Correct category! </font> <br> <br> <font color=""green"" size=""8vw""> + $0.07 </font> </p>","null","feedback","","","","","","","3.26"
"","","","","","html-keyboard-response","234","320775","0.0-7.66-0.66","612f100e6abefeac4f3d4cd0","6573617f270241e5da3d355d","6576bfee933366d1c2483b90","470","
            
        <div style=""text-align: center; position: fixed; top: 5vh; left: 40vw;"">
            <div style=""margin:0 auto; width: 20vw; top: 8vh; font-size: 2vw""> 
            <font color=""green""> Bonus : $3.26 </font>
            </div>
        </div>
    
            <div> Please press any key to continue to the next movie.</div>
        ","shift","ITI","","","","","","",""
"","","","","","html-keyboard-response","235","321768","0.0-7.66-1.66","612f100e6abefeac4f3d4cd0","6573617f270241e5da3d355d","6576bfee933366d1c2483b90","992","./stimuli//pack_morph_shapes_1/cat_2/diff_5/ex_2_5_1.gif","arrowright","response","ArrowRight","1","2","5","test","true",""
"","","","","","html-keyboard-response","236","323269","0.0-7.66-2.66","612f100e6abefeac4f3d4cd0","6573617f270241e5da3d355d","6576bfee933366d1c2483b90","null","<p> <font color=""green"" size=""5vw""> Correct category! </font> <br> <br> <font color=""green"" size=""8vw""> + $0.06 </font> </p>","null","feedback","","","","","","","3.32"
"","","","","","html-keyboard-response","237","323728","0.0-7.67-0.67","612f100e6abefeac4f3d4cd0","6573617f270241e5da3d355d","6576bfee933366d1c2483b90","457","
            
        <div style=""text-align: center; position: fixed; top: 5vh; left: 40vw;"">
            <div style=""margin:0 auto; width: 20vw; top: 8vh; font-size: 2vw""> 
            <font color=""green""> Bonus : $3.32 </font>
            </div>
        </div>
    
            <div> Please press any key to continue to the next movie.</div>
        ","shift","ITI","","","","","","",""
"","","","","","html-keyboard-response","238","324558","0.0-7.67-1.67","612f100e6abefeac4f3d4cd0","6573617f270241e5da3d355d","6576bfee933366d1c2483b90","828","./stimuli//pack_morph_shapes_1/cat_1/diff_5/ex_1_5_10.gif","arrowleft","response","ArrowLeft","10","1","5","test","true",""
"","","","","","html-keyboard-response","239","326059","0.0-7.67-2.67","612f100e6abefeac4f3d4cd0","6573617f270241e5da3d355d","6576bfee933366d1c2483b90","null","<p> <font color=""green"" size=""5vw""> Correct category! </font> <br> <br> <font color=""green"" size=""8vw""> + $0.07 </font> </p>","null","feedback","","","","","","","3.39"
"","","","","","html-keyboard-response","240","326524","0.0-7.68-0.68","612f100e6abefeac4f3d4cd0","6573617f270241e5da3d355d","6576bfee933366d1c2483b90","464","
            
        <div style=""text-align: center; position: fixed; top: 5vh; left: 40vw;"">
            <div style=""margin:0 auto; width: 20vw; top: 8vh; font-size: 2vw""> 
            <font color=""green""> Bonus : $3.39 </font>
            </div>
        </div>
    
            <div> Please press any key to continue to the next movie.</div>
        ","shift","ITI","","","","","","",""
"","","","","","html-keyboard-response","241","327523","0.0-7.68-1.68","612f100e6abefeac4f3d4cd0","6573617f270241e5da3d355d","6576bfee933366d1c2483b90","998","./stimuli//pack_morph_shapes_1/cat_1/diff_5/ex_1_5_4.gif","arrowleft","response","ArrowLeft","4","1","5","test","true",""
"","","","","","html-keyboard-response","242","329028","0.0-7.68-2.68","612f100e6abefeac4f3d4cd0","6573617f270241e5da3d355d","6576bfee933366d1c2483b90","null","<p> <font color=""green"" size=""5vw""> Correct category! </font> <br> <br> <font color=""green"" size=""8vw""> + $0.06 </font> </p>","null","feedback","","","","","","","3.45"
"","","","","","html-keyboard-response","243","329562","0.0-7.69-0.69","612f100e6abefeac4f3d4cd0","6573617f270241e5da3d355d","6576bfee933366d1c2483b90","532","
            
        <div style=""text-align: center; position: fixed; top: 5vh; left: 40vw;"">
            <div style=""margin:0 auto; width: 20vw; top: 8vh; font-size: 2vw""> 
            <font color=""green""> Bonus : $3.45 </font>
            </div>
        </div>
    
            <div> Please press any key to continue to the next movie.</div>
        ","shift","ITI","","","","","","",""
"","","","","","html-keyboard-response","244","330251","0.0-7.69-1.69","612f100e6abefeac4f3d4cd0","6573617f270241e5da3d355d","6576bfee933366d1c2483b90","687","./stimuli//pack_morph_shapes_1/cat_2/diff_5/ex_2_5_13.gif","arrowright","response","ArrowRight","13","2","5","test","true",""
"","","","","","html-keyboard-response","245","331762","0.0-7.69-2.69","612f100e6abefeac4f3d4cd0","6573617f270241e5da3d355d","6576bfee933366d1c2483b90","null","<p> <font color=""green"" size=""5vw""> Correct category! </font> <br> <br> <font color=""green"" size=""8vw""> + $0.07 </font> </p>","null","feedback","","","","","","","3.52"
"","","","","","html-keyboard-response","246","332248","0.0-7.70-0.70","612f100e6abefeac4f3d4cd0","6573617f270241e5da3d355d","6576bfee933366d1c2483b90","485","
            
        <div style=""text-align: center; position: fixed; top: 5vh; left: 40vw;"">
            <div style=""margin:0 auto; width: 20vw; top: 8vh; font-size: 2vw""> 
            <font color=""green""> Bonus : $3.52 </font>
            </div>
        </div>
    
            <div> Please press any key to continue to the next movie.</div>
        ","shift","ITI","","","","","","",""
"","","","","","html-keyboard-response","247","332989","0.0-7.70-1.70","612f100e6abefeac4f3d4cd0","6573617f270241e5da3d355d","6576bfee933366d1c2483b90","740","./stimuli//pack_morph_shapes_1/cat_2/diff_5/ex_2_5_11.gif","arrowright","response","ArrowRight","11","2","5","test","true",""
"","","","","","html-keyboard-response","248","334495","0.0-7.70-2.70","612f100e6abefeac4f3d4cd0","6573617f270241e5da3d355d","6576bfee933366d1c2483b90","null","<p> <font color=""green"" size=""5vw""> Correct category! </font> <br> <br> <font color=""green"" size=""8vw""> + $0.07 </font> </p>","null","feedback","","","","","","","3.59"
"","","","","","html-keyboard-response","249","334991","0.0-7.71-0.71","612f100e6abefeac4f3d4cd0","6573617f270241e5da3d355d","6576bfee933366d1c2483b90","496","
            
        <div style=""text-align: center; position: fixed; top: 5vh; left: 40vw;"">
            <div style=""margin:0 auto; width: 20vw; top: 8vh; font-size: 2vw""> 
            <font color=""green""> Bonus : $3.59 </font>
            </div>
        </div>
    
            <div> Please press any key to continue to the next movie.</div>
        ","shift","ITI","","","","","","",""
"","","","","","html-keyboard-response","250","335585","0.0-7.71-1.71","612f100e6abefeac4f3d4cd0","6573617f270241e5da3d355d","6576bfee933366d1c2483b90","593","./stimuli//pack_morph_shapes_1/cat_2/diff_5/ex_2_5_5.gif","arrowright","response","ArrowRight","5","2","5","test","true",""
"","","","","","html-keyboard-response","251","337101","0.0-7.71-2.71","612f100e6abefeac4f3d4cd0","6573617f270241e5da3d355d","6576bfee933366d1c2483b90","null","<p> <font color=""green"" size=""5vw""> Correct category! </font> <br> <br> <font color=""green"" size=""8vw""> + $0.07 </font> </p>","null","feedback","","","","","","","3.66"
"","","","","","html-keyboard-response","252","337117","0.0-7.72-0.72","612f100e6abefeac4f3d4cd0","6573617f270241e5da3d355d","6576bfee933366d1c2483b90","15","
            
        <div style=""text-align: center; position: fixed; top: 5vh; left: 40vw;"">
            <div style=""margin:0 auto; width: 20vw; top: 8vh; font-size: 2vw""> 
            <font color=""green""> Bonus : $3.66 </font>
            </div>
        </div>
    
            <div> Please press any key to continue to the next movie.</div>
        ","shift","ITI","","","","","","",""
"","","","","","html-keyboard-response","253","337787","0.0-7.72-1.72","612f100e6abefeac4f3d4cd0","6573617f270241e5da3d355d","6576bfee933366d1c2483b90","670","./stimuli//pack_morph_shapes_1/cat_2/diff_5/ex_2_5_13.gif","arrowright","response","ArrowRight","13","2","5","test","true",""
"","","","","","html-keyboard-response","254","339293","0.0-7.72-2.72","612f100e6abefeac4f3d4cd0","6573617f270241e5da3d355d","6576bfee933366d1c2483b90","null","<p> <font color=""green"" size=""5vw""> Correct category! </font> <br> <br> <font color=""green"" size=""8vw""> + $0.07 </font> </p>","null","feedback","","","","","","","3.73"
