"success","timeout","failed_images","failed_audio","failed_video","trial_type","trial_index","time_elapsed","internal_node_id","subject_id","study_id","session_id","rt","stimulus","response","task","correct_response","exemplar_ID","category","difficulty","phase","correct","bonus"
"true","false","[]","[]","[]","preload","0","2","0.0-0.0","650ada72af1a7c1f99e3186c","6573617f270241e5da3d355d","6576c024e8df15880d170756","","","","","","","","","","",""
"","","","","","html-keyboard-response","1","15047","0.0-1.0","650ada72af1a7c1f99e3186c","6573617f270241e5da3d355d","6576c024e8df15880d170756","15043","Welcome to the Category Learning experiment! Press any key to continue.","v","welcome","","","","","","",""
"","","","","","html-keyboard-response","2","45142","0.0-2.0","650ada72af1a7c1f99e3186c","6573617f270241e5da3d355d","6576c024e8df15880d170756","30097","
            <p>You will be shown movies. Each movie contains a sequence of shapes changing form. 
            <br> Some shapes are category A, some are category B. <b> Within a single movie, all shapes belong to the same category. </b>
            <br> You will not know in advance which category the shapes of each movie belong to.</p>
            <p> While you watch a movie, you have to guess the category that its shapes belong to <b>(left arrow for category A, right arrow for category B)</b></p>
            <p> After you choose, the screen will show you whether you were correct or not.</p>
            <p>Press any key to continue.</p>
            ","arrowright","introduction_1","","","","","","",""
"","","","","","html-keyboard-response","3","56070","0.0-3.0","650ada72af1a7c1f99e3186c","6573617f270241e5da3d355d","6576c024e8df15880d170756","10927","
              <p><b>You will receive a bonus payment for each correct answer! The faster you answer the higher the bonus will be!</b></p>
              <p> So you can increase your bonus by guessing as quickly and accurately as possible.</p>
              <p><b>You will lose $0.05 from your bonus payment for each incorrect answer! The bonus can not become less that $0.</b> </p>
              <p>Press any key to continue.</p>
              ","arrowright","introduction_2","","","","","","",""
"","","","","","html-keyboard-response","4","60534","0.0-4.0","650ada72af1a7c1f99e3186c","6573617f270241e5da3d355d","6576c024e8df15880d170756","4462","
            <p> <b>The first 10 trials are a practice round that will not count towards your bonus payment.</b></p>
            <p> You will be notified when practice finishes and the test begins. </p>
            <p> Press any key to begin the practice round.</p>
            ","arrowright","introduction_3","","","","","","",""
"","","","","","html-keyboard-response","5","62295","0.0-5.0-0.0","650ada72af1a7c1f99e3186c","6573617f270241e5da3d355d","6576c024e8df15880d170756","1759","
            
        <div style=""text-align: center; position: fixed; top: 5vh; left: 40vw;"">
            <div style=""margin:0 auto; width: 20vw; top: 8vh; font-size: 2vw""> 
            <font color=""green""> Bonus : $0 </font>
            </div>
        </div>
    
            <div> Please press any key to continue to the next movie.</div>
        ","arrowright","ITI","","","","","","",""
"","","","","","html-keyboard-response","6","66300","0.0-5.0-1.0","650ada72af1a7c1f99e3186c","6573617f270241e5da3d355d","6576c024e8df15880d170756","null","./stimuli//pack_morph_shapes_1/cat_2/diff_2/ex_2_2_11.gif","null","response","ArrowRight","11","2","2","train","false",""
"","","","","","html-keyboard-response","7","67800","0.0-5.0-2.0","650ada72af1a7c1f99e3186c","6573617f270241e5da3d355d","6576c024e8df15880d170756","null","<p> <font color=""red"" size=""5vw""> Time out! </font> <br> Please try to respond as quickly as possible. </p>","null","feedback","","","","","","","0"
"","","","","","html-keyboard-response","8","72551","0.0-5.0-0.1","650ada72af1a7c1f99e3186c","6573617f270241e5da3d355d","6576c024e8df15880d170756","4750","
            
        <div style=""text-align: center; position: fixed; top: 5vh; left: 40vw;"">
            <div style=""margin:0 auto; width: 20vw; top: 8vh; font-size: 2vw""> 
            <font color=""green""> Bonus : $0 </font>
            </div>
        </div>
    
            <div> Please press any key to continue to the next movie.</div>
        ","arrowright","ITI","","","","","","",""
"","","","","","html-keyboard-response","9","73476","0.0-5.0-1.1","650ada72af1a7c1f99e3186c","6573617f270241e5da3d355d","6576c024e8df15880d170756","925","./stimuli//pack_morph_shapes_1/cat_2/diff_1/ex_2_1_5.gif","arrowleft","response","ArrowRight","5","2","1","train","false",""
"","","","","","html-keyboard-response","10","74979","0.0-5.0-2.1","650ada72af1a7c1f99e3186c","6573617f270241e5da3d355d","6576c024e8df15880d170756","null","<p> <font color=""red"" size=""5vw""> Wrong category! </font> </p>","null","feedback","","","","","","","0"
"","","","","","html-keyboard-response","11","77381","0.0-5.0-0.2","650ada72af1a7c1f99e3186c","6573617f270241e5da3d355d","6576c024e8df15880d170756","2399","
            
        <div style=""text-align: center; position: fixed; top: 5vh; left: 40vw;"">
            <div style=""margin:0 auto; width: 20vw; top: 8vh; font-size: 2vw""> 
            <font color=""green""> Bonus : $0 </font>
            </div>
        </div>
    
            <div> Please press any key to continue to the next movie.</div>
        ","arrowright","ITI","","","","","","",""
"","","","","","html-keyboard-response","12","77957","0.0-5.0-1.2","650ada72af1a7c1f99e3186c","6573617f270241e5da3d355d","6576c024e8df15880d170756","575","./stimuli//pack_morph_shapes_1/cat_1/diff_2/ex_1_2_17.gif","arrowright","response","ArrowLeft","17","1","2","train","false",""
"","","","","","html-keyboard-response","13","79458","0.0-5.0-2.2","650ada72af1a7c1f99e3186c","6573617f270241e5da3d355d","6576c024e8df15880d170756","null","<p> <font color=""red"" size=""5vw""> Wrong category! </font> </p>","null","feedback","","","","","","","0"
"","","","","","html-keyboard-response","14","80166","0.0-5.0-0.3","650ada72af1a7c1f99e3186c","6573617f270241e5da3d355d","6576c024e8df15880d170756","708","
            
        <div style=""text-align: center; position: fixed; top: 5vh; left: 40vw;"">
            <div style=""margin:0 auto; width: 20vw; top: 8vh; font-size: 2vw""> 
            <font color=""green""> Bonus : $0 </font>
            </div>
        </div>
    
            <div> Please press any key to continue to the next movie.</div>
        ","arrowright","ITI","","","","","","",""
"","","","","","html-keyboard-response","15","80886","0.0-5.0-1.3","650ada72af1a7c1f99e3186c","6573617f270241e5da3d355d","6576c024e8df15880d170756","719","./stimuli//pack_morph_shapes_1/cat_2/diff_2/ex_2_2_12.gif","arrowright","response","ArrowRight","12","2","2","train","true",""
"","","","","","html-keyboard-response","16","82386","0.0-5.0-2.3","650ada72af1a7c1f99e3186c","6573617f270241e5da3d355d","6576c024e8df15880d170756","null","<p> <font color=""green"" size=""5vw""> Correct category! </font> </p>","null","feedback","","","","","","","0"
"","","","","","html-keyboard-response","17","85830","0.0-5.0-0.4","650ada72af1a7c1f99e3186c","6573617f270241e5da3d355d","6576c024e8df15880d170756","3444","
            
        <div style=""text-align: center; position: fixed; top: 5vh; left: 40vw;"">
            <div style=""margin:0 auto; width: 20vw; top: 8vh; font-size: 2vw""> 
            <font color=""green""> Bonus : $0 </font>
            </div>
        </div>
    
            <div> Please press any key to continue to the next movie.</div>
        ","arrowright","ITI","","","","","","",""
"","","","","","html-keyboard-response","18","86437","0.0-5.0-1.4","650ada72af1a7c1f99e3186c","6573617f270241e5da3d355d","6576c024e8df15880d170756","606","./stimuli//pack_morph_shapes_1/cat_2/diff_1/ex_2_1_15.gif","arrowright","response","ArrowRight","15","2","1","train","true",""
"","","","","","html-keyboard-response","19","87938","0.0-5.0-2.4","650ada72af1a7c1f99e3186c","6573617f270241e5da3d355d","6576c024e8df15880d170756","null","<p> <font color=""green"" size=""5vw""> Correct category! </font> </p>","null","feedback","","","","","","","0"
"","","","","","html-keyboard-response","20","90230","0.0-5.0-0.5","650ada72af1a7c1f99e3186c","6573617f270241e5da3d355d","6576c024e8df15880d170756","2292","
            
        <div style=""text-align: center; position: fixed; top: 5vh; left: 40vw;"">
            <div style=""margin:0 auto; width: 20vw; top: 8vh; font-size: 2vw""> 
            <font color=""green""> Bonus : $0 </font>
            </div>
        </div>
    
            <div> Please press any key to continue to the next movie.</div>
        ","arrowright","ITI","","","","","","",""
"","","","","","html-keyboard-response","21","91413","0.0-5.0-1.5","650ada72af1a7c1f99e3186c","6573617f270241e5da3d355d","6576c024e8df15880d170756","1182","./stimuli//pack_morph_shapes_1/cat_1/diff_1/ex_1_1_6.gif","arrowleft","response","ArrowLeft","6","1","1","train","true",""
"","","","","","html-keyboard-response","22","92915","0.0-5.0-2.5","650ada72af1a7c1f99e3186c","6573617f270241e5da3d355d","6576c024e8df15880d170756","null","<p> <font color=""green"" size=""5vw""> Correct category! </font> </p>","null","feedback","","","","","","","0"
"","","","","","html-keyboard-response","23","93844","0.0-5.0-0.6","650ada72af1a7c1f99e3186c","6573617f270241e5da3d355d","6576c024e8df15880d170756","929","
            
        <div style=""text-align: center; position: fixed; top: 5vh; left: 40vw;"">
            <div style=""margin:0 auto; width: 20vw; top: 8vh; font-size: 2vw""> 
            <font color=""green""> Bonus : $0 </font>
            </div>
        </div>
    
            <div> Please press any key to continue to the next movie.</div>
        ","arrowright","ITI","","","","","","",""
"","","","","","html-keyboard-response","24","94389","0.0-5.0-1.6","650ada72af1a7c1f99e3186c","6573617f270241e5da3d355d","6576c024e8df15880d170756","544","./stimuli//pack_morph_shapes_1/cat_1/diff_2/ex_1_2_4.gif","arrowleft","response","ArrowLeft","4","1","2","train","true",""
"","","","","","html-keyboard-response","25","95890","0.0-5.0-2.6","650ada72af1a7c1f99e3186c","6573617f270241e5da3d355d","6576c024e8df15880d170756","null","<p> <font color=""green"" size=""5vw""> Correct category! </font> </p>","null","feedback","","","","","","","0"
"","","","","","html-keyboard-response","26","96565","0.0-5.0-0.7","650ada72af1a7c1f99e3186c","6573617f270241e5da3d355d","6576c024e8df15880d170756","675","
            
        <div style=""text-align: center; position: fixed; top: 5vh; left: 40vw;"">
            <div style=""margin:0 auto; width: 20vw; top: 8vh; font-size: 2vw""> 
            <font color=""green""> Bonus : $0 </font>
            </div>
        </div>
    
            <div> Please press any key to continue to the next movie.</div>
        ","arrowright","ITI","","","","","","",""
"","","","","","html-keyboard-response","27","97412","0.0-5.0-1.7","650ada72af1a7c1f99e3186c","6573617f270241e5da3d355d","6576c024e8df15880d170756","846","./stimuli//pack_morph_shapes_1/cat_1/diff_1/ex_1_1_2.gif","arrowleft","response","ArrowLeft","2","1","1","train","true",""
"","","","","","html-keyboard-response","28","98913","0.0-5.0-2.7","650ada72af1a7c1f99e3186c","6573617f270241e5da3d355d","6576c024e8df15880d170756","null","<p> <font color=""green"" size=""5vw""> Correct category! </font> </p>","null","feedback","","","","","","","0"
"","","","","","html-keyboard-response","29","99509","0.0-5.0-0.8","650ada72af1a7c1f99e3186c","6573617f270241e5da3d355d","6576c024e8df15880d170756","595","
            
        <div style=""text-align: center; position: fixed; top: 5vh; left: 40vw;"">
            <div style=""margin:0 auto; width: 20vw; top: 8vh; font-size: 2vw""> 
            <font color=""green""> Bonus : $0 </font>
            </div>
        </div>
    
            <div> Please press any key to continue to the next movie.</div>
        ","arrowright","ITI","","","","","","",""
"","","","","","html-keyboard-response","30","100309","0.0-5.0-1.8","650ada72af1a7c1f99e3186c","6573617f270241e5da3d355d","6576c024e8df15880d170756","800","./stimuli//pack_morph_shapes_1/cat_2/diff_1/ex_2_1_12.gif","arrowright","response","ArrowRight","12","2","1","train","true",""
"","","","","","html-keyboard-response","31","101811","0.0-5.0-2.8","650ada72af1a7c1f99e3186c","6573617f270241e5da3d355d","6576c024e8df15880d170756","null","<p> <font color=""green"" size=""5vw""> Correct category! </font> </p>","null","feedback","","","","","","","0"
"","","","","","html-keyboard-response","32","102261","0.0-5.0-0.9","650ada72af1a7c1f99e3186c","6573617f270241e5da3d355d","6576c024e8df15880d170756","450","
            
        <div style=""text-align: center; position: fixed; top: 5vh; left: 40vw;"">
            <div style=""margin:0 auto; width: 20vw; top: 8vh; font-size: 2vw""> 
            <font color=""green""> Bonus : $0 </font>
            </div>
        </div>
    
            <div> Please press any key to continue to the next movie.</div>
        ","arrowleft","ITI","","","","","","",""
"","","","","","html-keyboard-response","33","102773","0.0-5.0-1.9","650ada72af1a7c1f99e3186c","6573617f270241e5da3d355d","6576c024e8df15880d170756","511","./stimuli//pack_morph_shapes_1/cat_1/diff_1/ex_1_1_16.gif","arrowleft","response","ArrowLeft","16","1","1","train","true",""
"","","","","","html-keyboard-response","34","104273","0.0-5.0-2.9","650ada72af1a7c1f99e3186c","6573617f270241e5da3d355d","6576c024e8df15880d170756","null","<p> <font color=""green"" size=""5vw""> Correct category! </font> </p>","null","feedback","","","","","","","0"
"","","","","","html-keyboard-response","35","104565","0.0-6.0","650ada72af1a7c1f99e3186c","6573617f270241e5da3d355d","6576c024e8df15880d170756","292","
            <b> <p> The practice round has finished.</p>
            <b> <p> For the rest of the experiment you will receive a bonus payment for each correct answer, which will be higher the faster you answer!</b></p>
            <b> </p> Also you will lose $0.05 from your bonus payment for each incorrect answer!</p>
            <p> Press any key to begin the test. </p>
            ","arrowright","intermission","","","","","","",""
"","","","","","html-keyboard-response","36","106692","0.0-7.0-0.0","650ada72af1a7c1f99e3186c","6573617f270241e5da3d355d","6576c024e8df15880d170756","2127","
            
        <div style=""text-align: center; position: fixed; top: 5vh; left: 40vw;"">
            <div style=""margin:0 auto; width: 20vw; top: 8vh; font-size: 2vw""> 
            <font color=""green""> Bonus : $0 </font>
            </div>
        </div>
    
            <div> Please press any key to continue to the next movie.</div>
        ","arrowright","ITI","","","","","","",""
"","","","","","html-keyboard-response","37","107221","0.0-7.0-1.0","650ada72af1a7c1f99e3186c","6573617f270241e5da3d355d","6576c024e8df15880d170756","527","./stimuli//pack_morph_shapes_1/cat_1/diff_1/ex_1_1_14.gif","arrowleft","response","ArrowLeft","14","1","1","test","true",""
"","","","","","html-keyboard-response","38","108723","0.0-7.0-2.0","650ada72af1a7c1f99e3186c","6573617f270241e5da3d355d","6576c024e8df15880d170756","null","<p> <font color=""green"" size=""5vw""> Correct category! </font> <br> <br> <font color=""green"" size=""8vw""> + $0.08 </font> </p>","null","feedback","","","","","","","0.08"
"","","","","","html-keyboard-response","39","109252","0.0-7.1-0.1","650ada72af1a7c1f99e3186c","6573617f270241e5da3d355d","6576c024e8df15880d170756","528","
            
        <div style=""text-align: center; position: fixed; top: 5vh; left: 40vw;"">
            <div style=""margin:0 auto; width: 20vw; top: 8vh; font-size: 2vw""> 
            <font color=""green""> Bonus : $0.08 </font>
            </div>
        </div>
    
            <div> Please press any key to continue to the next movie.</div>
        ","arrowright","ITI","","","","","","",""
"","","","","","html-keyboard-response","40","109764","0.0-7.1-1.1","650ada72af1a7c1f99e3186c","6573617f270241e5da3d355d","6576c024e8df15880d170756","512","./stimuli//pack_morph_shapes_1/cat_1/diff_1/ex_1_1_13.gif","arrowleft","response","ArrowLeft","13","1","1","test","true",""
"","","","","","html-keyboard-response","41","111266","0.0-7.1-2.1","650ada72af1a7c1f99e3186c","6573617f270241e5da3d355d","6576c024e8df15880d170756","null","<p> <font color=""green"" size=""5vw""> Correct category! </font> <br> <br> <font color=""green"" size=""8vw""> + $0.08 </font> </p>","null","feedback","","","","","","","0.16"
"","","","","","html-keyboard-response","42","111446","0.0-7.2-0.2","650ada72af1a7c1f99e3186c","6573617f270241e5da3d355d","6576c024e8df15880d170756","179","
            
        <div style=""text-align: center; position: fixed; top: 5vh; left: 40vw;"">
            <div style=""margin:0 auto; width: 20vw; top: 8vh; font-size: 2vw""> 
            <font color=""green""> Bonus : $0.16 </font>
            </div>
        </div>
    
            <div> Please press any key to continue to the next movie.</div>
        ","arrowright","ITI","","","","","","",""
"","","","","","html-keyboard-response","43","112100","0.0-7.2-1.2","650ada72af1a7c1f99e3186c","6573617f270241e5da3d355d","6576c024e8df15880d170756","654","./stimuli//pack_morph_shapes_1/cat_1/diff_1/ex_1_1_3.gif","arrowleft","response","ArrowLeft","3","1","1","test","true",""
"","","","","","html-keyboard-response","44","113601","0.0-7.2-2.2","650ada72af1a7c1f99e3186c","6573617f270241e5da3d355d","6576c024e8df15880d170756","null","<p> <font color=""green"" size=""5vw""> Correct category! </font> <br> <br> <font color=""green"" size=""8vw""> + $0.07 </font> </p>","null","feedback","","","","","","","0.23"
"","","","","","html-keyboard-response","45","114389","0.0-7.3-0.3","650ada72af1a7c1f99e3186c","6573617f270241e5da3d355d","6576c024e8df15880d170756","787","
            
        <div style=""text-align: center; position: fixed; top: 5vh; left: 40vw;"">
            <div style=""margin:0 auto; width: 20vw; top: 8vh; font-size: 2vw""> 
            <font color=""green""> Bonus : $0.23 </font>
            </div>
        </div>
    
            <div> Please press any key to continue to the next movie.</div>
        ","arrowright","ITI","","","","","","",""
"","","","","","html-keyboard-response","46","114917","0.0-7.3-1.3","650ada72af1a7c1f99e3186c","6573617f270241e5da3d355d","6576c024e8df15880d170756","526","./stimuli//pack_morph_shapes_1/cat_1/diff_1/ex_1_1_10.gif","arrowleft","response","ArrowLeft","10","1","1","test","true",""
"","","","","","html-keyboard-response","47","116417","0.0-7.3-2.3","650ada72af1a7c1f99e3186c","6573617f270241e5da3d355d","6576c024e8df15880d170756","null","<p> <font color=""green"" size=""5vw""> Correct category! </font> <br> <br> <font color=""green"" size=""8vw""> + $0.08 </font> </p>","null","feedback","","","","","","","0.31"
"","","","","","html-keyboard-response","48","116724","0.0-7.4-0.4","650ada72af1a7c1f99e3186c","6573617f270241e5da3d355d","6576c024e8df15880d170756","307","
            
        <div style=""text-align: center; position: fixed; top: 5vh; left: 40vw;"">
            <div style=""margin:0 auto; width: 20vw; top: 8vh; font-size: 2vw""> 
            <font color=""green""> Bonus : $0.31 </font>
            </div>
        </div>
    
            <div> Please press any key to continue to the next movie.</div>
        ","arrowright","ITI","","","","","","",""
"","","","","","html-keyboard-response","49","117252","0.0-7.4-1.4","650ada72af1a7c1f99e3186c","6573617f270241e5da3d355d","6576c024e8df15880d170756","528","./stimuli//pack_morph_shapes_1/cat_1/diff_1/ex_1_1_4.gif","arrowleft","response","ArrowLeft","4","1","1","test","true",""
"","","","","","html-keyboard-response","50","118752","0.0-7.4-2.4","650ada72af1a7c1f99e3186c","6573617f270241e5da3d355d","6576c024e8df15880d170756","null","<p> <font color=""green"" size=""5vw""> Correct category! </font> <br> <br> <font color=""green"" size=""8vw""> + $0.08 </font> </p>","null","feedback","","","","","","","0.39"
"","","","","","html-keyboard-response","51","119141","0.0-7.5-0.5","650ada72af1a7c1f99e3186c","6573617f270241e5da3d355d","6576c024e8df15880d170756","388","
            
        <div style=""text-align: center; position: fixed; top: 5vh; left: 40vw;"">
            <div style=""margin:0 auto; width: 20vw; top: 8vh; font-size: 2vw""> 
            <font color=""green""> Bonus : $0.39 </font>
            </div>
        </div>
    
            <div> Please press any key to continue to the next movie.</div>
        ","arrowleft","ITI","","","","","","",""
"","","","","","html-keyboard-response","52","119588","0.0-7.5-1.5","650ada72af1a7c1f99e3186c","6573617f270241e5da3d355d","6576c024e8df15880d170756","446","./stimuli//pack_morph_shapes_1/cat_2/diff_2/ex_2_2_17.gif","arrowright","response","ArrowRight","17","2","2","test","true",""
"","","","","","html-keyboard-response","53","121088","0.0-7.5-2.5","650ada72af1a7c1f99e3186c","6573617f270241e5da3d355d","6576c024e8df15880d170756","null","<p> <font color=""green"" size=""5vw""> Correct category! </font> <br> <br> <font color=""green"" size=""8vw""> + $0.08 </font> </p>","null","feedback","","","","","","","0.47"
"","","","","","html-keyboard-response","54","121524","0.0-7.6-0.6","650ada72af1a7c1f99e3186c","6573617f270241e5da3d355d","6576c024e8df15880d170756","435","
            
        <div style=""text-align: center; position: fixed; top: 5vh; left: 40vw;"">
            <div style=""margin:0 auto; width: 20vw; top: 8vh; font-size: 2vw""> 
            <font color=""green""> Bonus : $0.47 </font>
            </div>
        </div>
    
            <div> Please press any key to continue to the next movie.</div>
        ","arrowleft","ITI","","","","","","",""
"","","","","","html-keyboard-response","55","122052","0.0-7.6-1.6","650ada72af1a7c1f99e3186c","6573617f270241e5da3d355d","6576c024e8df15880d170756","527","./stimuli//pack_morph_shapes_1/cat_1/diff_2/ex_1_2_14.gif","arrowleft","response","ArrowLeft","14","1","2","test","true",""
"","","","","","html-keyboard-response","56","123553","0.0-7.6-2.6","650ada72af1a7c1f99e3186c","6573617f270241e5da3d355d","6576c024e8df15880d170756","null","<p> <font color=""green"" size=""5vw""> Correct category! </font> <br> <br> <font color=""green"" size=""8vw""> + $0.08 </font> </p>","null","feedback","","","","","","","0.55"
"","","","","","html-keyboard-response","57","123940","0.0-7.7-0.7","650ada72af1a7c1f99e3186c","6573617f270241e5da3d355d","6576c024e8df15880d170756","388","
            
        <div style=""text-align: center; position: fixed; top: 5vh; left: 40vw;"">
            <div style=""margin:0 auto; width: 20vw; top: 8vh; font-size: 2vw""> 
            <font color=""green""> Bonus : $0.55 </font>
            </div>
        </div>
    
            <div> Please press any key to continue to the next movie.</div>
        ","arrowleft","ITI","","","","","","",""
"","","","","","html-keyboard-response","58","124405","0.0-7.7-1.7","650ada72af1a7c1f99e3186c","6573617f270241e5da3d355d","6576c024e8df15880d170756","464","./stimuli//pack_morph_shapes_1/cat_2/diff_2/ex_2_2_16.gif","arrowright","response","ArrowRight","16","2","2","test","true",""
"","","","","","html-keyboard-response","59","125906","0.0-7.7-2.7","650ada72af1a7c1f99e3186c","6573617f270241e5da3d355d","6576c024e8df15880d170756","null","<p> <font color=""green"" size=""5vw""> Correct category! </font> <br> <br> <font color=""green"" size=""8vw""> + $0.08 </font> </p>","null","feedback","","","","","","","0.63"
"","","","","","html-keyboard-response","60","126276","0.0-7.8-0.8","650ada72af1a7c1f99e3186c","6573617f270241e5da3d355d","6576c024e8df15880d170756","370","
            
        <div style=""text-align: center; position: fixed; top: 5vh; left: 40vw;"">
            <div style=""margin:0 auto; width: 20vw; top: 8vh; font-size: 2vw""> 
            <font color=""green""> Bonus : $0.63 </font>
            </div>
        </div>
    
            <div> Please press any key to continue to the next movie.</div>
        ","arrowleft","ITI","","","","","","",""
"","","","","","html-keyboard-response","61","126901","0.0-7.8-1.8","650ada72af1a7c1f99e3186c","6573617f270241e5da3d355d","6576c024e8df15880d170756","624","./stimuli//pack_morph_shapes_1/cat_2/diff_2/ex_2_2_4.gif","arrowleft","response","ArrowRight","4","2","2","test","false",""
"","","","","","html-keyboard-response","62","128402","0.0-7.8-2.8","650ada72af1a7c1f99e3186c","6573617f270241e5da3d355d","6576c024e8df15880d170756","null","<p> <font color=""red"" size=""5vw""> Wrong category! </font> <br> <br> <font color=""red"" size=""8vw""> - $0.05 </font> </p>","null","feedback","","","","","","","0.58"
"","","","","","html-keyboard-response","63","128996","0.0-7.9-0.9","650ada72af1a7c1f99e3186c","6573617f270241e5da3d355d","6576c024e8df15880d170756","592","
            
        <div style=""text-align: center; position: fixed; top: 5vh; left: 40vw;"">
            <div style=""margin:0 auto; width: 20vw; top: 8vh; font-size: 2vw""> 
            <font color=""green""> Bonus : $0.58 </font>
            </div>
        </div>
    
            <div> Please press any key to continue to the next movie.</div>
        ","arrowright","ITI","","","","","","",""
"","","","","","html-keyboard-response","64","129636","0.0-7.9-1.9","650ada72af1a7c1f99e3186c","6573617f270241e5da3d355d","6576c024e8df15880d170756","640","./stimuli//pack_morph_shapes_1/cat_2/diff_2/ex_2_2_10.gif","arrowright","response","ArrowRight","10","2","2","test","true",""
"","","","","","html-keyboard-response","65","131136","0.0-7.9-2.9","650ada72af1a7c1f99e3186c","6573617f270241e5da3d355d","6576c024e8df15880d170756","null","<p> <font color=""green"" size=""5vw""> Correct category! </font> <br> <br> <font color=""green"" size=""8vw""> + $0.07 </font> </p>","null","feedback","","","","","","","0.65"
"","","","","","html-keyboard-response","66","132628","0.0-7.10-0.10","650ada72af1a7c1f99e3186c","6573617f270241e5da3d355d","6576c024e8df15880d170756","1491","
            
        <div style=""text-align: center; position: fixed; top: 5vh; left: 40vw;"">
            <div style=""margin:0 auto; width: 20vw; top: 8vh; font-size: 2vw""> 
            <font color=""green""> Bonus : $0.65 </font>
            </div>
        </div>
    
            <div> Please press any key to continue to the next movie.</div>
        ","arrowright","ITI","","","","","","",""
"","","","","","html-keyboard-response","67","133204","0.0-7.10-1.10","650ada72af1a7c1f99e3186c","6573617f270241e5da3d355d","6576c024e8df15880d170756","574","./stimuli//pack_morph_shapes_1/cat_1/diff_3/ex_1_3_15.gif","arrowleft","response","ArrowLeft","15","1","3","test","true",""
"","","","","","html-keyboard-response","68","134707","0.0-7.10-2.10","650ada72af1a7c1f99e3186c","6573617f270241e5da3d355d","6576c024e8df15880d170756","null","<p> <font color=""green"" size=""5vw""> Correct category! </font> <br> <br> <font color=""green"" size=""8vw""> + $0.08 </font> </p>","null","feedback","","","","","","","0.73"
"","","","","","html-keyboard-response","69","135175","0.0-7.11-0.11","650ada72af1a7c1f99e3186c","6573617f270241e5da3d355d","6576c024e8df15880d170756","467","
            
        <div style=""text-align: center; position: fixed; top: 5vh; left: 40vw;"">
            <div style=""margin:0 auto; width: 20vw; top: 8vh; font-size: 2vw""> 
            <font color=""green""> Bonus : $0.73 </font>
            </div>
        </div>
    
            <div> Please press any key to continue to the next movie.</div>
        ","arrowright","ITI","","","","","","",""
"","","","","","html-keyboard-response","70","135830","0.0-7.11-1.11","650ada72af1a7c1f99e3186c","6573617f270241e5da3d355d","6576c024e8df15880d170756","655","./stimuli//pack_morph_shapes_1/cat_2/diff_3/ex_2_3_11.gif","arrowright","response","ArrowRight","11","2","3","test","true",""
"","","","","","html-keyboard-response","71","137331","0.0-7.11-2.11","650ada72af1a7c1f99e3186c","6573617f270241e5da3d355d","6576c024e8df15880d170756","null","<p> <font color=""green"" size=""5vw""> Correct category! </font> <br> <br> <font color=""green"" size=""8vw""> + $0.07 </font> </p>","null","feedback","","","","","","","0.8"
"","","","","","html-keyboard-response","72","137830","0.0-7.12-0.12","650ada72af1a7c1f99e3186c","6573617f270241e5da3d355d","6576c024e8df15880d170756","498","
            
        <div style=""text-align: center; position: fixed; top: 5vh; left: 40vw;"">
            <div style=""margin:0 auto; width: 20vw; top: 8vh; font-size: 2vw""> 
            <font color=""green""> Bonus : $0.8 </font>
            </div>
        </div>
    
            <div> Please press any key to continue to the next movie.</div>
        ","arrowleft","ITI","","","","","","",""
"","","","","","html-keyboard-response","73","138307","0.0-7.12-1.12","650ada72af1a7c1f99e3186c","6573617f270241e5da3d355d","6576c024e8df15880d170756","477","./stimuli//pack_morph_shapes_1/cat_2/diff_3/ex_2_3_9.gif","arrowleft","response","ArrowRight","9","2","3","test","false",""
"","","","","","html-keyboard-response","74","139809","0.0-7.12-2.12","650ada72af1a7c1f99e3186c","6573617f270241e5da3d355d","6576c024e8df15880d170756","null","<p> <font color=""red"" size=""5vw""> Wrong category! </font> <br> <br> <font color=""red"" size=""8vw""> - $0.05 </font> </p>","null","feedback","","","","","","","0.75"
"","","","","","html-keyboard-response","75","140261","0.0-7.13-0.13","650ada72af1a7c1f99e3186c","6573617f270241e5da3d355d","6576c024e8df15880d170756","451","
            
        <div style=""text-align: center; position: fixed; top: 5vh; left: 40vw;"">
            <div style=""margin:0 auto; width: 20vw; top: 8vh; font-size: 2vw""> 
            <font color=""green""> Bonus : $0.75 </font>
            </div>
        </div>
    
            <div> Please press any key to continue to the next movie.</div>
        ","arrowright","ITI","","","","","","",""
"","","","","","html-keyboard-response","76","140947","0.0-7.13-1.13","650ada72af1a7c1f99e3186c","6573617f270241e5da3d355d","6576c024e8df15880d170756","687","./stimuli//pack_morph_shapes_1/cat_1/diff_3/ex_1_3_3.gif","arrowleft","response","ArrowLeft","3","1","3","test","true",""
"","","","","","html-keyboard-response","77","142449","0.0-7.13-2.13","650ada72af1a7c1f99e3186c","6573617f270241e5da3d355d","6576c024e8df15880d170756","null","<p> <font color=""green"" size=""5vw""> Correct category! </font> <br> <br> <font color=""green"" size=""8vw""> + $0.07 </font> </p>","null","feedback","","","","","","","0.82"
"","","","","","html-keyboard-response","78","142804","0.0-7.14-0.14","650ada72af1a7c1f99e3186c","6573617f270241e5da3d355d","6576c024e8df15880d170756","355","
            
        <div style=""text-align: center; position: fixed; top: 5vh; left: 40vw;"">
            <div style=""margin:0 auto; width: 20vw; top: 8vh; font-size: 2vw""> 
            <font color=""green""> Bonus : $0.82 </font>
            </div>
        </div>
    
            <div> Please press any key to continue to the next movie.</div>
        ","arrowright","ITI","","","","","","",""
"","","","","","html-keyboard-response","79","143652","0.0-7.14-1.14","650ada72af1a7c1f99e3186c","6573617f270241e5da3d355d","6576c024e8df15880d170756","847","./stimuli//pack_morph_shapes_1/cat_2/diff_3/ex_2_3_9.gif","arrowleft","response","ArrowRight","9","2","3","test","false",""
"","","","","","html-keyboard-response","80","145153","0.0-7.14-2.14","650ada72af1a7c1f99e3186c","6573617f270241e5da3d355d","6576c024e8df15880d170756","null","<p> <font color=""red"" size=""5vw""> Wrong category! </font> <br> <br> <font color=""red"" size=""8vw""> - $0.05 </font> </p>","null","feedback","","","","","","","0.77"
"","","","","","html-keyboard-response","81","145477","0.0-7.15-0.15","650ada72af1a7c1f99e3186c","6573617f270241e5da3d355d","6576c024e8df15880d170756","324","
            
        <div style=""text-align: center; position: fixed; top: 5vh; left: 40vw;"">
            <div style=""margin:0 auto; width: 20vw; top: 8vh; font-size: 2vw""> 
            <font color=""green""> Bonus : $0.77 </font>
            </div>
        </div>
    
            <div> Please press any key to continue to the next movie.</div>
        ","arrowright","ITI","","","","","","",""
"","","","","","html-keyboard-response","82","146052","0.0-7.15-1.15","650ada72af1a7c1f99e3186c","6573617f270241e5da3d355d","6576c024e8df15880d170756","574","./stimuli//pack_morph_shapes_1/cat_1/diff_2/ex_1_2_5.gif","arrowleft","response","ArrowLeft","5","1","2","test","true",""
"","","","","","html-keyboard-response","83","147553","0.0-7.15-2.15","650ada72af1a7c1f99e3186c","6573617f270241e5da3d355d","6576c024e8df15880d170756","null","<p> <font color=""green"" size=""5vw""> Correct category! </font> <br> <br> <font color=""green"" size=""8vw""> + $0.08 </font> </p>","null","feedback","","","","","","","0.85"
"","","","","","html-keyboard-response","84","147876","0.0-7.16-0.16","650ada72af1a7c1f99e3186c","6573617f270241e5da3d355d","6576c024e8df15880d170756","322","
            
        <div style=""text-align: center; position: fixed; top: 5vh; left: 40vw;"">
            <div style=""margin:0 auto; width: 20vw; top: 8vh; font-size: 2vw""> 
            <font color=""green""> Bonus : $0.85 </font>
            </div>
        </div>
    
            <div> Please press any key to continue to the next movie.</div>
        ","arrowright","ITI","","","","","","",""
"","","","","","html-keyboard-response","85","148484","0.0-7.16-1.16","650ada72af1a7c1f99e3186c","6573617f270241e5da3d355d","6576c024e8df15880d170756","607","./stimuli//pack_morph_shapes_1/cat_2/diff_2/ex_2_2_5.gif","arrowright","response","ArrowRight","5","2","2","test","true",""
"","","","","","html-keyboard-response","86","149983","0.0-7.16-2.16","650ada72af1a7c1f99e3186c","6573617f270241e5da3d355d","6576c024e8df15880d170756","null","<p> <font color=""green"" size=""5vw""> Correct category! </font> <br> <br> <font color=""green"" size=""8vw""> + $0.07 </font> </p>","null","feedback","","","","","","","0.92"
"","","","","","html-keyboard-response","87","150340","0.0-7.17-0.17","650ada72af1a7c1f99e3186c","6573617f270241e5da3d355d","6576c024e8df15880d170756","356","
            
        <div style=""text-align: center; position: fixed; top: 5vh; left: 40vw;"">
            <div style=""margin:0 auto; width: 20vw; top: 8vh; font-size: 2vw""> 
            <font color=""green""> Bonus : $0.92 </font>
            </div>
        </div>
    
            <div> Please press any key to continue to the next movie.</div>
        ","arrowright","ITI","","","","","","",""
"","","","","","html-keyboard-response","88","151028","0.0-7.17-1.17","650ada72af1a7c1f99e3186c","6573617f270241e5da3d355d","6576c024e8df15880d170756","686","./stimuli//pack_morph_shapes_1/cat_2/diff_2/ex_2_2_13.gif","arrowright","response","ArrowRight","13","2","2","test","true",""
"","","","","","html-keyboard-response","89","152529","0.0-7.17-2.17","650ada72af1a7c1f99e3186c","6573617f270241e5da3d355d","6576c024e8df15880d170756","null","<p> <font color=""green"" size=""5vw""> Correct category! </font> <br> <br> <font color=""green"" size=""8vw""> + $0.07 </font> </p>","null","feedback","","","","","","","0.99"
"","","","","","html-keyboard-response","90","153635","0.0-7.18-0.18","650ada72af1a7c1f99e3186c","6573617f270241e5da3d355d","6576c024e8df15880d170756","1107","
            
        <div style=""text-align: center; position: fixed; top: 5vh; left: 40vw;"">
            <div style=""margin:0 auto; width: 20vw; top: 8vh; font-size: 2vw""> 
            <font color=""green""> Bonus : $0.99 </font>
            </div>
        </div>
    
            <div> Please press any key to continue to the next movie.</div>
        ","arrowright","ITI","","","","","","",""
"","","","","","html-keyboard-response","91","154052","0.0-7.18-1.18","650ada72af1a7c1f99e3186c","6573617f270241e5da3d355d","6576c024e8df15880d170756","416","./stimuli//pack_morph_shapes_1/cat_1/diff_2/ex_1_2_5.gif","arrowleft","response","ArrowLeft","5","1","2","test","true",""
"","","","","","html-keyboard-response","92","155553","0.0-7.18-2.18","650ada72af1a7c1f99e3186c","6573617f270241e5da3d355d","6576c024e8df15880d170756","null","<p> <font color=""green"" size=""5vw""> Correct category! </font> <br> <br> <font color=""green"" size=""8vw""> + $0.08 </font> </p>","null","feedback","","","","","","","1.07"
"","","","","","html-keyboard-response","93","157861","0.0-7.19-0.19","650ada72af1a7c1f99e3186c","6573617f270241e5da3d355d","6576c024e8df15880d170756","2308","
            
        <div style=""text-align: center; position: fixed; top: 5vh; left: 40vw;"">
            <div style=""margin:0 auto; width: 20vw; top: 8vh; font-size: 2vw""> 
            <font color=""green""> Bonus : $1.07 </font>
            </div>
        </div>
    
            <div> Please press any key to continue to the next movie.</div>
        ","arrowright","ITI","","","","","","",""
"","","","","","html-keyboard-response","94","158292","0.0-7.19-1.19","650ada72af1a7c1f99e3186c","6573617f270241e5da3d355d","6576c024e8df15880d170756","431","./stimuli//pack_morph_shapes_1/cat_2/diff_2/ex_2_2_14.gif","arrowleft","response","ArrowRight","14","2","2","test","false",""
"","","","","","html-keyboard-response","95","159794","0.0-7.19-2.19","650ada72af1a7c1f99e3186c","6573617f270241e5da3d355d","6576c024e8df15880d170756","null","<p> <font color=""red"" size=""5vw""> Wrong category! </font> <br> <br> <font color=""red"" size=""8vw""> - $0.05 </font> </p>","null","feedback","","","","","","","1.02"
"","","","","","html-keyboard-response","96","160212","0.0-7.20-0.20","650ada72af1a7c1f99e3186c","6573617f270241e5da3d355d","6576c024e8df15880d170756","418","
            
        <div style=""text-align: center; position: fixed; top: 5vh; left: 40vw;"">
            <div style=""margin:0 auto; width: 20vw; top: 8vh; font-size: 2vw""> 
            <font color=""green""> Bonus : $1.02 </font>
            </div>
        </div>
    
            <div> Please press any key to continue to the next movie.</div>
        ","arrowright","ITI","","","","","","",""
"","","","","","html-keyboard-response","97","160804","0.0-7.20-1.20","650ada72af1a7c1f99e3186c","6573617f270241e5da3d355d","6576c024e8df15880d170756","592","./stimuli//pack_morph_shapes_1/cat_1/diff_3/ex_1_3_14.gif","arrowleft","response","ArrowLeft","14","1","3","test","true",""
"","","","","","html-keyboard-response","98","162305","0.0-7.20-2.20","650ada72af1a7c1f99e3186c","6573617f270241e5da3d355d","6576c024e8df15880d170756","null","<p> <font color=""green"" size=""5vw""> Correct category! </font> <br> <br> <font color=""green"" size=""8vw""> + $0.07 </font> </p>","null","feedback","","","","","","","1.09"
"","","","","","html-keyboard-response","99","163620","0.0-7.21-0.21","650ada72af1a7c1f99e3186c","6573617f270241e5da3d355d","6576c024e8df15880d170756","1314","
            
        <div style=""text-align: center; position: fixed; top: 5vh; left: 40vw;"">
            <div style=""margin:0 auto; width: 20vw; top: 8vh; font-size: 2vw""> 
            <font color=""green""> Bonus : $1.09 </font>
            </div>
        </div>
    
            <div> Please press any key to continue to the next movie.</div>
        ","arrowright","ITI","","","","","","",""
"","","","","","html-keyboard-response","100","164227","0.0-7.21-1.21","650ada72af1a7c1f99e3186c","6573617f270241e5da3d355d","6576c024e8df15880d170756","608","./stimuli//pack_morph_shapes_1/cat_2/diff_3/ex_2_3_5.gif","arrowright","response","ArrowRight","5","2","3","test","true",""
"","","","","","html-keyboard-response","101","165730","0.0-7.21-2.21","650ada72af1a7c1f99e3186c","6573617f270241e5da3d355d","6576c024e8df15880d170756","null","<p> <font color=""green"" size=""5vw""> Correct category! </font> <br> <br> <font color=""green"" size=""8vw""> + $0.07 </font> </p>","null","feedback","","","","","","","1.16"
"","","","","","html-keyboard-response","102","166484","0.0-7.22-0.22","650ada72af1a7c1f99e3186c","6573617f270241e5da3d355d","6576c024e8df15880d170756","754","
            
        <div style=""text-align: center; position: fixed; top: 5vh; left: 40vw;"">
            <div style=""margin:0 auto; width: 20vw; top: 8vh; font-size: 2vw""> 
            <font color=""green""> Bonus : $1.16 </font>
            </div>
        </div>
    
            <div> Please press any key to continue to the next movie.</div>
        ","arrowright","ITI","","","","","","",""
"","","","","","html-keyboard-response","103","167348","0.0-7.22-1.22","650ada72af1a7c1f99e3186c","6573617f270241e5da3d355d","6576c024e8df15880d170756","864","./stimuli//pack_morph_shapes_1/cat_2/diff_3/ex_2_3_12.gif","arrowright","response","ArrowRight","12","2","3","test","true",""
"","","","","","html-keyboard-response","104","168850","0.0-7.22-2.22","650ada72af1a7c1f99e3186c","6573617f270241e5da3d355d","6576c024e8df15880d170756","null","<p> <font color=""green"" size=""5vw""> Correct category! </font> <br> <br> <font color=""green"" size=""8vw""> + $0.06 </font> </p>","null","feedback","","","","","","","1.22"
"","","","","","html-keyboard-response","105","169204","0.0-7.23-0.23","650ada72af1a7c1f99e3186c","6573617f270241e5da3d355d","6576c024e8df15880d170756","354","
            
        <div style=""text-align: center; position: fixed; top: 5vh; left: 40vw;"">
            <div style=""margin:0 auto; width: 20vw; top: 8vh; font-size: 2vw""> 
            <font color=""green""> Bonus : $1.22 </font>
            </div>
        </div>
    
            <div> Please press any key to continue to the next movie.</div>
        ","arrowright","ITI","","","","","","",""
"","","","","","html-keyboard-response","106","169732","0.0-7.23-1.23","650ada72af1a7c1f99e3186c","6573617f270241e5da3d355d","6576c024e8df15880d170756","526","./stimuli//pack_morph_shapes_1/cat_1/diff_3/ex_1_3_13.gif","arrowleft","response","ArrowLeft","13","1","3","test","true",""
"","","","","","html-keyboard-response","107","171233","0.0-7.23-2.23","650ada72af1a7c1f99e3186c","6573617f270241e5da3d355d","6576c024e8df15880d170756","null","<p> <font color=""green"" size=""5vw""> Correct category! </font> <br> <br> <font color=""green"" size=""8vw""> + $0.08 </font> </p>","null","feedback","","","","","","","1.3"
"","","","","","html-keyboard-response","108","171652","0.0-7.24-0.24","650ada72af1a7c1f99e3186c","6573617f270241e5da3d355d","6576c024e8df15880d170756","417","
            
        <div style=""text-align: center; position: fixed; top: 5vh; left: 40vw;"">
            <div style=""margin:0 auto; width: 20vw; top: 8vh; font-size: 2vw""> 
            <font color=""green""> Bonus : $1.3 </font>
            </div>
        </div>
    
            <div> Please press any key to continue to the next movie.</div>
        ","arrowright","ITI","","","","","","",""
"","","","","","html-keyboard-response","109","172147","0.0-7.24-1.24","650ada72af1a7c1f99e3186c","6573617f270241e5da3d355d","6576c024e8df15880d170756","496","./stimuli//pack_morph_shapes_1/cat_2/diff_3/ex_2_3_7.gif","arrowright","response","ArrowRight","7","2","3","test","true",""
"","","","","","html-keyboard-response","110","173649","0.0-7.24-2.24","650ada72af1a7c1f99e3186c","6573617f270241e5da3d355d","6576c024e8df15880d170756","null","<p> <font color=""green"" size=""5vw""> Correct category! </font> <br> <br> <font color=""green"" size=""8vw""> + $0.08 </font> </p>","null","feedback","","","","","","","1.38"
"","","","","","html-keyboard-response","111","174180","0.0-7.25-0.25","650ada72af1a7c1f99e3186c","6573617f270241e5da3d355d","6576c024e8df15880d170756","531","
            
        <div style=""text-align: center; position: fixed; top: 5vh; left: 40vw;"">
            <div style=""margin:0 auto; width: 20vw; top: 8vh; font-size: 2vw""> 
            <font color=""green""> Bonus : $1.38 </font>
            </div>
        </div>
    
            <div> Please press any key to continue to the next movie.</div>
        ","arrowright","ITI","","","","","","",""
"","","","","","html-keyboard-response","112","174789","0.0-7.25-1.25","650ada72af1a7c1f99e3186c","6573617f270241e5da3d355d","6576c024e8df15880d170756","609","./stimuli//pack_morph_shapes_1/cat_2/diff_4/ex_2_4_1.gif","arrowright","response","ArrowRight","1","2","4","test","true",""
"","","","","","html-keyboard-response","113","176289","0.0-7.25-2.25","650ada72af1a7c1f99e3186c","6573617f270241e5da3d355d","6576c024e8df15880d170756","null","<p> <font color=""green"" size=""5vw""> Correct category! </font> <br> <br> <font color=""green"" size=""8vw""> + $0.07 </font> </p>","null","feedback","","","","","","","1.45"
"","","","","","html-keyboard-response","114","177379","0.0-7.26-0.26","650ada72af1a7c1f99e3186c","6573617f270241e5da3d355d","6576c024e8df15880d170756","1089","
            
        <div style=""text-align: center; position: fixed; top: 5vh; left: 40vw;"">
            <div style=""margin:0 auto; width: 20vw; top: 8vh; font-size: 2vw""> 
            <font color=""green""> Bonus : $1.45 </font>
            </div>
        </div>
    
            <div> Please press any key to continue to the next movie.</div>
        ","arrowright","ITI","","","","","","",""
"","","","","","html-keyboard-response","115","178163","0.0-7.26-1.26","650ada72af1a7c1f99e3186c","6573617f270241e5da3d355d","6576c024e8df15880d170756","783","./stimuli//pack_morph_shapes_1/cat_1/diff_4/ex_1_4_11.gif","arrowleft","response","ArrowLeft","11","1","4","test","true",""
"","","","","","html-keyboard-response","116","179664","0.0-7.26-2.26","650ada72af1a7c1f99e3186c","6573617f270241e5da3d355d","6576c024e8df15880d170756","null","<p> <font color=""green"" size=""5vw""> Correct category! </font> <br> <br> <font color=""green"" size=""8vw""> + $0.07 </font> </p>","null","feedback","","","","","","","1.52"
"","","","","","html-keyboard-response","117","180261","0.0-7.27-0.27","650ada72af1a7c1f99e3186c","6573617f270241e5da3d355d","6576c024e8df15880d170756","595","
            
        <div style=""text-align: center; position: fixed; top: 5vh; left: 40vw;"">
            <div style=""margin:0 auto; width: 20vw; top: 8vh; font-size: 2vw""> 
            <font color=""green""> Bonus : $1.52 </font>
            </div>
        </div>
    
            <div> Please press any key to continue to the next movie.</div>
        ","arrowright","ITI","","","","","","",""
"","","","","","html-keyboard-response","118","180803","0.0-7.27-1.27","650ada72af1a7c1f99e3186c","6573617f270241e5da3d355d","6576c024e8df15880d170756","543","./stimuli//pack_morph_shapes_1/cat_1/diff_4/ex_1_4_14.gif","arrowleft","response","ArrowLeft","14","1","4","test","true",""
"","","","","","html-keyboard-response","119","182328","0.0-7.27-2.27","650ada72af1a7c1f99e3186c","6573617f270241e5da3d355d","6576c024e8df15880d170756","null","<p> <font color=""green"" size=""5vw""> Correct category! </font> <br> <br> <font color=""green"" size=""8vw""> + $0.08 </font> </p>","null","feedback","","","","","","","1.6"
"","","","","","html-keyboard-response","120","182740","0.0-7.28-0.28","650ada72af1a7c1f99e3186c","6573617f270241e5da3d355d","6576c024e8df15880d170756","412","
            
        <div style=""text-align: center; position: fixed; top: 5vh; left: 40vw;"">
            <div style=""margin:0 auto; width: 20vw; top: 8vh; font-size: 2vw""> 
            <font color=""green""> Bonus : $1.6 </font>
            </div>
        </div>
    
            <div> Please press any key to continue to the next movie.</div>
        ","arrowright","ITI","","","","","","",""
"","","","","","html-keyboard-response","121","183268","0.0-7.28-1.28","650ada72af1a7c1f99e3186c","6573617f270241e5da3d355d","6576c024e8df15880d170756","527","./stimuli//pack_morph_shapes_1/cat_2/diff_4/ex_2_4_17.gif","arrowright","response","ArrowRight","17","2","4","test","true",""
"","","","","","html-keyboard-response","122","184768","0.0-7.28-2.28","650ada72af1a7c1f99e3186c","6573617f270241e5da3d355d","6576c024e8df15880d170756","null","<p> <font color=""green"" size=""5vw""> Correct category! </font> <br> <br> <font color=""green"" size=""8vw""> + $0.08 </font> </p>","null","feedback","","","","","","","1.68"
"","","","","","html-keyboard-response","123","185204","0.0-7.29-0.29","650ada72af1a7c1f99e3186c","6573617f270241e5da3d355d","6576c024e8df15880d170756","437","
            
        <div style=""text-align: center; position: fixed; top: 5vh; left: 40vw;"">
            <div style=""margin:0 auto; width: 20vw; top: 8vh; font-size: 2vw""> 
            <font color=""green""> Bonus : $1.68 </font>
            </div>
        </div>
    
            <div> Please press any key to continue to the next movie.</div>
        ","arrowright","ITI","","","","","","",""
"","","","","","html-keyboard-response","124","185764","0.0-7.29-1.29","650ada72af1a7c1f99e3186c","6573617f270241e5da3d355d","6576c024e8df15880d170756","558","./stimuli//pack_morph_shapes_1/cat_1/diff_4/ex_1_4_11.gif","arrowleft","response","ArrowLeft","11","1","4","test","true",""
"","","","","","html-keyboard-response","125","187264","0.0-7.29-2.29","650ada72af1a7c1f99e3186c","6573617f270241e5da3d355d","6576c024e8df15880d170756","null","<p> <font color=""green"" size=""5vw""> Correct category! </font> <br> <br> <font color=""green"" size=""8vw""> + $0.08 </font> </p>","null","feedback","","","","","","","1.76"
"","","","","","html-keyboard-response","126","187716","0.0-7.30-0.30","650ada72af1a7c1f99e3186c","6573617f270241e5da3d355d","6576c024e8df15880d170756","451","
            
        <div style=""text-align: center; position: fixed; top: 5vh; left: 40vw;"">
            <div style=""margin:0 auto; width: 20vw; top: 8vh; font-size: 2vw""> 
            <font color=""green""> Bonus : $1.76 </font>
            </div>
        </div>
    
            <div> Please press any key to continue to the next movie.</div>
        ","arrowright","ITI","","","","","","",""
"","","","","","html-keyboard-response","127","188228","0.0-7.30-1.30","650ada72af1a7c1f99e3186c","6573617f270241e5da3d355d","6576c024e8df15880d170756","511","./stimuli//pack_morph_shapes_1/cat_2/diff_5/ex_2_5_2.gif","arrowright","response","ArrowRight","2","2","5","test","true",""
"","","","","","html-keyboard-response","128","189729","0.0-7.30-2.30","650ada72af1a7c1f99e3186c","6573617f270241e5da3d355d","6576c024e8df15880d170756","null","<p> <font color=""green"" size=""5vw""> Correct category! </font> <br> <br> <font color=""green"" size=""8vw""> + $0.08 </font> </p>","null","feedback","","","","","","","1.84"
"","","","","","html-keyboard-response","129","190083","0.0-7.31-0.31","650ada72af1a7c1f99e3186c","6573617f270241e5da3d355d","6576c024e8df15880d170756","353","
            
        <div style=""text-align: center; position: fixed; top: 5vh; left: 40vw;"">
            <div style=""margin:0 auto; width: 20vw; top: 8vh; font-size: 2vw""> 
            <font color=""green""> Bonus : $1.84 </font>
            </div>
        </div>
    
            <div> Please press any key to continue to the next movie.</div>
        ","arrowright","ITI","","","","","","",""
"","","","","","html-keyboard-response","130","190674","0.0-7.31-1.31","650ada72af1a7c1f99e3186c","6573617f270241e5da3d355d","6576c024e8df15880d170756","591","./stimuli//pack_morph_shapes_1/cat_2/diff_5/ex_2_5_2.gif","arrowright","response","ArrowRight","2","2","5","test","true",""
"","","","","","html-keyboard-response","131","192175","0.0-7.31-2.31","650ada72af1a7c1f99e3186c","6573617f270241e5da3d355d","6576c024e8df15880d170756","null","<p> <font color=""green"" size=""5vw""> Correct category! </font> <br> <br> <font color=""green"" size=""8vw""> + $0.07 </font> </p>","null","feedback","","","","","","","1.91"
"","","","","","html-keyboard-response","132","192627","0.0-7.32-0.32","650ada72af1a7c1f99e3186c","6573617f270241e5da3d355d","6576c024e8df15880d170756","453","
            
        <div style=""text-align: center; position: fixed; top: 5vh; left: 40vw;"">
            <div style=""margin:0 auto; width: 20vw; top: 8vh; font-size: 2vw""> 
            <font color=""green""> Bonus : $1.91 </font>
            </div>
        </div>
    
            <div> Please press any key to continue to the next movie.</div>
        ","arrowright","ITI","","","","","","",""
"","","","","","html-keyboard-response","133","193123","0.0-7.32-1.32","650ada72af1a7c1f99e3186c","6573617f270241e5da3d355d","6576c024e8df15880d170756","496","./stimuli//pack_morph_shapes_1/cat_2/diff_5/ex_2_5_11.gif","arrowright","response","ArrowRight","11","2","5","test","true",""
"","","","","","html-keyboard-response","134","194623","0.0-7.32-2.32","650ada72af1a7c1f99e3186c","6573617f270241e5da3d355d","6576c024e8df15880d170756","null","<p> <font color=""green"" size=""5vw""> Correct category! </font> <br> <br> <font color=""green"" size=""8vw""> + $0.08 </font> </p>","null","feedback","","","","","","","1.99"
"","","","","","html-keyboard-response","135","195236","0.0-7.33-0.33","650ada72af1a7c1f99e3186c","6573617f270241e5da3d355d","6576c024e8df15880d170756","612","
            
        <div style=""text-align: center; position: fixed; top: 5vh; left: 40vw;"">
            <div style=""margin:0 auto; width: 20vw; top: 8vh; font-size: 2vw""> 
            <font color=""green""> Bonus : $1.99 </font>
            </div>
        </div>
    
            <div> Please press any key to continue to the next movie.</div>
        ","arrowright","ITI","","","","","","",""
"","","","","","html-keyboard-response","136","195731","0.0-7.33-1.33","650ada72af1a7c1f99e3186c","6573617f270241e5da3d355d","6576c024e8df15880d170756","495","./stimuli//pack_morph_shapes_1/cat_1/diff_5/ex_1_5_2.gif","arrowleft","response","ArrowLeft","2","1","5","test","true",""
"","","","","","html-keyboard-response","137","197232","0.0-7.33-2.33","650ada72af1a7c1f99e3186c","6573617f270241e5da3d355d","6576c024e8df15880d170756","null","<p> <font color=""green"" size=""5vw""> Correct category! </font> <br> <br> <font color=""green"" size=""8vw""> + $0.08 </font> </p>","null","feedback","","","","","","","2.07"
"","","","","","html-keyboard-response","138","197797","0.0-7.34-0.34","650ada72af1a7c1f99e3186c","6573617f270241e5da3d355d","6576c024e8df15880d170756","564","
            
        <div style=""text-align: center; position: fixed; top: 5vh; left: 40vw;"">
            <div style=""margin:0 auto; width: 20vw; top: 8vh; font-size: 2vw""> 
            <font color=""green""> Bonus : $2.07 </font>
            </div>
        </div>
    
            <div> Please press any key to continue to the next movie.</div>
        ","arrowright","ITI","","","","","","",""
"","","","","","html-keyboard-response","139","198356","0.0-7.34-1.34","650ada72af1a7c1f99e3186c","6573617f270241e5da3d355d","6576c024e8df15880d170756","558","./stimuli//pack_morph_shapes_1/cat_1/diff_5/ex_1_5_4.gif","arrowleft","response","ArrowLeft","4","1","5","test","true",""
"","","","","","html-keyboard-response","140","199856","0.0-7.34-2.34","650ada72af1a7c1f99e3186c","6573617f270241e5da3d355d","6576c024e8df15880d170756","null","<p> <font color=""green"" size=""5vw""> Correct category! </font> <br> <br> <font color=""green"" size=""8vw""> + $0.08 </font> </p>","null","feedback","","","","","","","2.15"
"","","","","","html-keyboard-response","141","200387","0.0-7.35-0.35","650ada72af1a7c1f99e3186c","6573617f270241e5da3d355d","6576c024e8df15880d170756","532","
            
        <div style=""text-align: center; position: fixed; top: 5vh; left: 40vw;"">
            <div style=""margin:0 auto; width: 20vw; top: 8vh; font-size: 2vw""> 
            <font color=""green""> Bonus : $2.15 </font>
            </div>
        </div>
    
            <div> Please press any key to continue to the next movie.</div>
        ","arrowright","ITI","","","","","","",""
"","","","","","html-keyboard-response","142","200883","0.0-7.35-1.35","650ada72af1a7c1f99e3186c","6573617f270241e5da3d355d","6576c024e8df15880d170756","494","./stimuli//pack_morph_shapes_1/cat_2/diff_5/ex_2_5_8.gif","arrowright","response","ArrowRight","8","2","5","test","true",""
"","","","","","html-keyboard-response","143","202383","0.0-7.35-2.35","650ada72af1a7c1f99e3186c","6573617f270241e5da3d355d","6576c024e8df15880d170756","null","<p> <font color=""green"" size=""5vw""> Correct category! </font> <br> <br> <font color=""green"" size=""8vw""> + $0.08 </font> </p>","null","feedback","","","","","","","2.23"
"","","","","","html-keyboard-response","144","204180","0.0-7.36-0.36","650ada72af1a7c1f99e3186c","6573617f270241e5da3d355d","6576c024e8df15880d170756","1795","
            
        <div style=""text-align: center; position: fixed; top: 5vh; left: 40vw;"">
            <div style=""margin:0 auto; width: 20vw; top: 8vh; font-size: 2vw""> 
            <font color=""green""> Bonus : $2.23 </font>
            </div>
        </div>
    
            <div> Please press any key to continue to the next movie.</div>
        ","arrowright","ITI","","","","","","",""
"","","","","","html-keyboard-response","145","204724","0.0-7.36-1.36","650ada72af1a7c1f99e3186c","6573617f270241e5da3d355d","6576c024e8df15880d170756","543","./stimuli//pack_morph_shapes_1/cat_2/diff_5/ex_2_5_6.gif","arrowleft","response","ArrowRight","6","2","5","test","false",""
"","","","","","html-keyboard-response","146","206224","0.0-7.36-2.36","650ada72af1a7c1f99e3186c","6573617f270241e5da3d355d","6576c024e8df15880d170756","null","<p> <font color=""red"" size=""5vw""> Wrong category! </font> <br> <br> <font color=""red"" size=""8vw""> - $0.05 </font> </p>","null","feedback","","","","","","","2.18"
"","","","","","html-keyboard-response","147","206644","0.0-7.37-0.37","650ada72af1a7c1f99e3186c","6573617f270241e5da3d355d","6576c024e8df15880d170756","420","
            
        <div style=""text-align: center; position: fixed; top: 5vh; left: 40vw;"">
            <div style=""margin:0 auto; width: 20vw; top: 8vh; font-size: 2vw""> 
            <font color=""green""> Bonus : $2.18 </font>
            </div>
        </div>
    
            <div> Please press any key to continue to the next movie.</div>
        ","arrowright","ITI","","","","","","",""
"","","","","","html-keyboard-response","148","207366","0.0-7.37-1.37","650ada72af1a7c1f99e3186c","6573617f270241e5da3d355d","6576c024e8df15880d170756","722","./stimuli//pack_morph_shapes_1/cat_2/diff_5/ex_2_5_16.gif","arrowleft","response","ArrowRight","16","2","5","test","false",""
"","","","","","html-keyboard-response","149","208867","0.0-7.37-2.37","650ada72af1a7c1f99e3186c","6573617f270241e5da3d355d","6576c024e8df15880d170756","null","<p> <font color=""red"" size=""5vw""> Wrong category! </font> <br> <br> <font color=""red"" size=""8vw""> - $0.05 </font> </p>","null","feedback","","","","","","","2.13"
"","","","","","html-keyboard-response","150","209235","0.0-7.38-0.38","650ada72af1a7c1f99e3186c","6573617f270241e5da3d355d","6576c024e8df15880d170756","368","
            
        <div style=""text-align: center; position: fixed; top: 5vh; left: 40vw;"">
            <div style=""margin:0 auto; width: 20vw; top: 8vh; font-size: 2vw""> 
            <font color=""green""> Bonus : $2.13 </font>
            </div>
        </div>
    
            <div> Please press any key to continue to the next movie.</div>
        ","arrowright","ITI","","","","","","",""
"","","","","","html-keyboard-response","151","209987","0.0-7.38-1.38","650ada72af1a7c1f99e3186c","6573617f270241e5da3d355d","6576c024e8df15880d170756","751","./stimuli//pack_morph_shapes_1/cat_1/diff_4/ex_1_4_6.gif","arrowright","response","ArrowLeft","6","1","4","test","false",""
"","","","","","html-keyboard-response","152","211489","0.0-7.38-2.38","650ada72af1a7c1f99e3186c","6573617f270241e5da3d355d","6576c024e8df15880d170756","null","<p> <font color=""red"" size=""5vw""> Wrong category! </font> <br> <br> <font color=""red"" size=""8vw""> - $0.05 </font> </p>","null","feedback","","","","","","","2.08"
"","","","","","html-keyboard-response","153","212068","0.0-7.39-0.39","650ada72af1a7c1f99e3186c","6573617f270241e5da3d355d","6576c024e8df15880d170756","578","
            
        <div style=""text-align: center; position: fixed; top: 5vh; left: 40vw;"">
            <div style=""margin:0 auto; width: 20vw; top: 8vh; font-size: 2vw""> 
            <font color=""green""> Bonus : $2.08 </font>
            </div>
        </div>
    
            <div> Please press any key to continue to the next movie.</div>
        ","arrowright","ITI","","","","","","",""
"","","","","","html-keyboard-response","154","212964","0.0-7.39-1.39","650ada72af1a7c1f99e3186c","6573617f270241e5da3d355d","6576c024e8df15880d170756","894","./stimuli//pack_morph_shapes_1/cat_1/diff_4/ex_1_4_9.gif","arrowleft","response","ArrowLeft","9","1","4","test","true",""
"","","","","","html-keyboard-response","155","214464","0.0-7.39-2.39","650ada72af1a7c1f99e3186c","6573617f270241e5da3d355d","6576c024e8df15880d170756","null","<p> <font color=""green"" size=""5vw""> Correct category! </font> <br> <br> <font color=""green"" size=""8vw""> + $0.06 </font> </p>","null","feedback","","","","","","","2.14"
"","","","","","html-keyboard-response","156","214820","0.0-7.40-0.40","650ada72af1a7c1f99e3186c","6573617f270241e5da3d355d","6576c024e8df15880d170756","356","
            
        <div style=""text-align: center; position: fixed; top: 5vh; left: 40vw;"">
            <div style=""margin:0 auto; width: 20vw; top: 8vh; font-size: 2vw""> 
            <font color=""green""> Bonus : $2.14 </font>
            </div>
        </div>
    
            <div> Please press any key to continue to the next movie.</div>
        ","arrowright","ITI","","","","","","",""
"","","","","","html-keyboard-response","157","215348","0.0-7.40-1.40","650ada72af1a7c1f99e3186c","6573617f270241e5da3d355d","6576c024e8df15880d170756","527","./stimuli//pack_morph_shapes_1/cat_1/diff_4/ex_1_4_15.gif","arrowright","response","ArrowLeft","15","1","4","test","false",""
"","","","","","html-keyboard-response","158","216848","0.0-7.40-2.40","650ada72af1a7c1f99e3186c","6573617f270241e5da3d355d","6576c024e8df15880d170756","null","<p> <font color=""red"" size=""5vw""> Wrong category! </font> <br> <br> <font color=""red"" size=""8vw""> - $0.05 </font> </p>","null","feedback","","","","","","","2.09"
"","","","","","html-keyboard-response","159","217204","0.0-7.41-0.41","650ada72af1a7c1f99e3186c","6573617f270241e5da3d355d","6576c024e8df15880d170756","355","
            
        <div style=""text-align: center; position: fixed; top: 5vh; left: 40vw;"">
            <div style=""margin:0 auto; width: 20vw; top: 8vh; font-size: 2vw""> 
            <font color=""green""> Bonus : $2.09 </font>
            </div>
        </div>
    
            <div> Please press any key to continue to the next movie.</div>
        ","arrowright","ITI","","","","","","",""
"","","","","","html-keyboard-response","160","217972","0.0-7.41-1.41","650ada72af1a7c1f99e3186c","6573617f270241e5da3d355d","6576c024e8df15880d170756","768","./stimuli//pack_morph_shapes_1/cat_2/diff_4/ex_2_4_7.gif","arrowright","response","ArrowRight","7","2","4","test","true",""
"","","","","","html-keyboard-response","161","219472","0.0-7.41-2.41","650ada72af1a7c1f99e3186c","6573617f270241e5da3d355d","6576c024e8df15880d170756","null","<p> <font color=""green"" size=""5vw""> Correct category! </font> <br> <br> <font color=""green"" size=""8vw""> + $0.07 </font> </p>","null","feedback","","","","","","","2.16"
"","","","","","html-keyboard-response","162","220147","0.0-7.42-0.42","650ada72af1a7c1f99e3186c","6573617f270241e5da3d355d","6576c024e8df15880d170756","675","
            
        <div style=""text-align: center; position: fixed; top: 5vh; left: 40vw;"">
            <div style=""margin:0 auto; width: 20vw; top: 8vh; font-size: 2vw""> 
            <font color=""green""> Bonus : $2.16 </font>
            </div>
        </div>
    
            <div> Please press any key to continue to the next movie.</div>
        ","arrowright","ITI","","","","","","",""
"","","","","","html-keyboard-response","163","220628","0.0-7.42-1.42","650ada72af1a7c1f99e3186c","6573617f270241e5da3d355d","6576c024e8df15880d170756","480","./stimuli//pack_morph_shapes_1/cat_1/diff_4/ex_1_4_6.gif","arrowleft","response","ArrowLeft","6","1","4","test","true",""
"","","","","","html-keyboard-response","164","222128","0.0-7.42-2.42","650ada72af1a7c1f99e3186c","6573617f270241e5da3d355d","6576c024e8df15880d170756","null","<p> <font color=""green"" size=""5vw""> Correct category! </font> <br> <br> <font color=""green"" size=""8vw""> + $0.08 </font> </p>","null","feedback","","","","","","","2.24"
"","","","","","html-keyboard-response","165","222724","0.0-7.43-0.43","650ada72af1a7c1f99e3186c","6573617f270241e5da3d355d","6576c024e8df15880d170756","595","
            
        <div style=""text-align: center; position: fixed; top: 5vh; left: 40vw;"">
            <div style=""margin:0 auto; width: 20vw; top: 8vh; font-size: 2vw""> 
            <font color=""green""> Bonus : $2.24 </font>
            </div>
        </div>
    
            <div> Please press any key to continue to the next movie.</div>
        ","arrowright","ITI","","","","","","",""
"","","","","","html-keyboard-response","166","223173","0.0-7.43-1.43","650ada72af1a7c1f99e3186c","6573617f270241e5da3d355d","6576c024e8df15880d170756","449","./stimuli//pack_morph_shapes_1/cat_1/diff_3/ex_1_3_3.gif","arrowleft","response","ArrowLeft","3","1","3","test","true",""
"","","","","","html-keyboard-response","167","224674","0.0-7.43-2.43","650ada72af1a7c1f99e3186c","6573617f270241e5da3d355d","6576c024e8df15880d170756","null","<p> <font color=""green"" size=""5vw""> Correct category! </font> <br> <br> <font color=""green"" size=""8vw""> + $0.08 </font> </p>","null","feedback","","","","","","","2.32"
"","","","","","html-keyboard-response","168","225219","0.0-7.44-0.44","650ada72af1a7c1f99e3186c","6573617f270241e5da3d355d","6576c024e8df15880d170756","545","
            
        <div style=""text-align: center; position: fixed; top: 5vh; left: 40vw;"">
            <div style=""margin:0 auto; width: 20vw; top: 8vh; font-size: 2vw""> 
            <font color=""green""> Bonus : $2.32 </font>
            </div>
        </div>
    
            <div> Please press any key to continue to the next movie.</div>
        ","arrowright","ITI","","","","","","",""
"","","","","","html-keyboard-response","169","225940","0.0-7.44-1.44","650ada72af1a7c1f99e3186c","6573617f270241e5da3d355d","6576c024e8df15880d170756","719","./stimuli//pack_morph_shapes_1/cat_2/diff_3/ex_2_3_6.gif","arrowright","response","ArrowRight","6","2","3","test","true",""
"","","","","","html-keyboard-response","170","227441","0.0-7.44-2.44","650ada72af1a7c1f99e3186c","6573617f270241e5da3d355d","6576c024e8df15880d170756","null","<p> <font color=""green"" size=""5vw""> Correct category! </font> <br> <br> <font color=""green"" size=""8vw""> + $0.07 </font> </p>","null","feedback","","","","","","","2.39"
"","","","","","html-keyboard-response","171","228243","0.0-7.45-0.45","650ada72af1a7c1f99e3186c","6573617f270241e5da3d355d","6576c024e8df15880d170756","802","
            
        <div style=""text-align: center; position: fixed; top: 5vh; left: 40vw;"">
            <div style=""margin:0 auto; width: 20vw; top: 8vh; font-size: 2vw""> 
            <font color=""green""> Bonus : $2.39 </font>
            </div>
        </div>
    
            <div> Please press any key to continue to the next movie.</div>
        ","arrowright","ITI","","","","","","",""
"","","","","","html-keyboard-response","172","228980","0.0-7.45-1.45","650ada72af1a7c1f99e3186c","6573617f270241e5da3d355d","6576c024e8df15880d170756","735","./stimuli//pack_morph_shapes_1/cat_2/diff_3/ex_2_3_16.gif","arrowleft","response","ArrowRight","16","2","3","test","false",""
"","","","","","html-keyboard-response","173","230480","0.0-7.45-2.45","650ada72af1a7c1f99e3186c","6573617f270241e5da3d355d","6576c024e8df15880d170756","null","<p> <font color=""red"" size=""5vw""> Wrong category! </font> <br> <br> <font color=""red"" size=""8vw""> - $0.05 </font> </p>","null","feedback","","","","","","","2.34"
"","","","","","html-keyboard-response","174","230818","0.0-7.46-0.46","650ada72af1a7c1f99e3186c","6573617f270241e5da3d355d","6576c024e8df15880d170756","338","
            
        <div style=""text-align: center; position: fixed; top: 5vh; left: 40vw;"">
            <div style=""margin:0 auto; width: 20vw; top: 8vh; font-size: 2vw""> 
            <font color=""green""> Bonus : $2.34 </font>
            </div>
        </div>
    
            <div> Please press any key to continue to the next movie.</div>
        ","arrowright","ITI","","","","","","",""
"","","","","","html-keyboard-response","175","231379","0.0-7.46-1.46","650ada72af1a7c1f99e3186c","6573617f270241e5da3d355d","6576c024e8df15880d170756","559","./stimuli//pack_morph_shapes_1/cat_2/diff_3/ex_2_3_12.gif","arrowright","response","ArrowRight","12","2","3","test","true",""
"","","","","","html-keyboard-response","176","232880","0.0-7.46-2.46","650ada72af1a7c1f99e3186c","6573617f270241e5da3d355d","6576c024e8df15880d170756","null","<p> <font color=""green"" size=""5vw""> Correct category! </font> <br> <br> <font color=""green"" size=""8vw""> + $0.08 </font> </p>","null","feedback","","","","","","","2.42"
"","","","","","html-keyboard-response","177","233300","0.0-7.47-0.47","650ada72af1a7c1f99e3186c","6573617f270241e5da3d355d","6576c024e8df15880d170756","420","
            
        <div style=""text-align: center; position: fixed; top: 5vh; left: 40vw;"">
            <div style=""margin:0 auto; width: 20vw; top: 8vh; font-size: 2vw""> 
            <font color=""green""> Bonus : $2.42 </font>
            </div>
        </div>
    
            <div> Please press any key to continue to the next movie.</div>
        ","arrowright","ITI","","","","","","",""
"","","","","","html-keyboard-response","178","233796","0.0-7.47-1.47","650ada72af1a7c1f99e3186c","6573617f270241e5da3d355d","6576c024e8df15880d170756","495","./stimuli//pack_morph_shapes_1/cat_1/diff_3/ex_1_3_12.gif","arrowleft","response","ArrowLeft","12","1","3","test","true",""
"","","","","","html-keyboard-response","179","235296","0.0-7.47-2.47","650ada72af1a7c1f99e3186c","6573617f270241e5da3d355d","6576c024e8df15880d170756","null","<p> <font color=""green"" size=""5vw""> Correct category! </font> <br> <br> <font color=""green"" size=""8vw""> + $0.08 </font> </p>","null","feedback","","","","","","","2.5"
"","","","","","html-keyboard-response","180","235780","0.0-7.48-0.48","650ada72af1a7c1f99e3186c","6573617f270241e5da3d355d","6576c024e8df15880d170756","484","
            
        <div style=""text-align: center; position: fixed; top: 5vh; left: 40vw;"">
            <div style=""margin:0 auto; width: 20vw; top: 8vh; font-size: 2vw""> 
            <font color=""green""> Bonus : $2.5 </font>
            </div>
        </div>
    
            <div> Please press any key to continue to the next movie.</div>
        ","arrowright","ITI","","","","","","",""
"","","","","","html-keyboard-response","181","236372","0.0-7.48-1.48","650ada72af1a7c1f99e3186c","6573617f270241e5da3d355d","6576c024e8df15880d170756","591","./stimuli//pack_morph_shapes_1/cat_2/diff_4/ex_2_4_7.gif","arrowright","response","ArrowRight","7","2","4","test","true",""
"","","","","","html-keyboard-response","182","237873","0.0-7.48-2.48","650ada72af1a7c1f99e3186c","6573617f270241e5da3d355d","6576c024e8df15880d170756","null","<p> <font color=""green"" size=""5vw""> Correct category! </font> <br> <br> <font color=""green"" size=""8vw""> + $0.07 </font> </p>","null","feedback","","","","","","","2.57"
"","","","","","html-keyboard-response","183","238595","0.0-7.49-0.49","650ada72af1a7c1f99e3186c","6573617f270241e5da3d355d","6576c024e8df15880d170756","722","
            
        <div style=""text-align: center; position: fixed; top: 5vh; left: 40vw;"">
            <div style=""margin:0 auto; width: 20vw; top: 8vh; font-size: 2vw""> 
            <font color=""green""> Bonus : $2.57 </font>
            </div>
        </div>
    
            <div> Please press any key to continue to the next movie.</div>
        ","arrowright","ITI","","","","","","",""
"","","","","","html-keyboard-response","184","239364","0.0-7.49-1.49","650ada72af1a7c1f99e3186c","6573617f270241e5da3d355d","6576c024e8df15880d170756","769","./stimuli//pack_morph_shapes_1/cat_2/diff_4/ex_2_4_14.gif","arrowright","response","ArrowRight","14","2","4","test","true",""
"","","","","","html-keyboard-response","185","240867","0.0-7.49-2.49","650ada72af1a7c1f99e3186c","6573617f270241e5da3d355d","6576c024e8df15880d170756","null","<p> <font color=""green"" size=""5vw""> Correct category! </font> <br> <br> <font color=""green"" size=""8vw""> + $0.07 </font> </p>","null","feedback","","","","","","","2.64"
"","","","","","html-keyboard-response","186","241396","0.0-7.50-0.50","650ada72af1a7c1f99e3186c","6573617f270241e5da3d355d","6576c024e8df15880d170756","529","
            
        <div style=""text-align: center; position: fixed; top: 5vh; left: 40vw;"">
            <div style=""margin:0 auto; width: 20vw; top: 8vh; font-size: 2vw""> 
            <font color=""green""> Bonus : $2.64 </font>
            </div>
        </div>
    
            <div> Please press any key to continue to the next movie.</div>
        ","arrowright","ITI","","","","","","",""
"","","","","","html-keyboard-response","187","242019","0.0-7.50-1.50","650ada72af1a7c1f99e3186c","6573617f270241e5da3d355d","6576c024e8df15880d170756","622","./stimuli//pack_morph_shapes_1/cat_1/diff_4/ex_1_4_4.gif","arrowleft","response","ArrowLeft","4","1","4","test","true",""
"","","","","","html-keyboard-response","188","243521","0.0-7.50-2.50","650ada72af1a7c1f99e3186c","6573617f270241e5da3d355d","6576c024e8df15880d170756","null","<p> <font color=""green"" size=""5vw""> Correct category! </font> <br> <br> <font color=""green"" size=""8vw""> + $0.07 </font> </p>","null","feedback","","","","","","","2.71"
"","","","","","html-keyboard-response","189","243891","0.0-7.51-0.51","650ada72af1a7c1f99e3186c","6573617f270241e5da3d355d","6576c024e8df15880d170756","371","
            
        <div style=""text-align: center; position: fixed; top: 5vh; left: 40vw;"">
            <div style=""margin:0 auto; width: 20vw; top: 8vh; font-size: 2vw""> 
            <font color=""green""> Bonus : $2.71 </font>
            </div>
        </div>
    
            <div> Please press any key to continue to the next movie.</div>
        ","arrowright","ITI","","","","","","",""
"","","","","","html-keyboard-response","190","244595","0.0-7.51-1.51","650ada72af1a7c1f99e3186c","6573617f270241e5da3d355d","6576c024e8df15880d170756","702","./stimuli//pack_morph_shapes_1/cat_2/diff_4/ex_2_4_1.gif","arrowright","response","ArrowRight","1","2","4","test","true",""
"","","","","","html-keyboard-response","191","246096","0.0-7.51-2.51","650ada72af1a7c1f99e3186c","6573617f270241e5da3d355d","6576c024e8df15880d170756","null","<p> <font color=""green"" size=""5vw""> Correct category! </font> <br> <br> <font color=""green"" size=""8vw""> + $0.07 </font> </p>","null","feedback","","","","","","","2.78"
"","","","","","html-keyboard-response","192","246627","0.0-7.52-0.52","650ada72af1a7c1f99e3186c","6573617f270241e5da3d355d","6576c024e8df15880d170756","531","
            
        <div style=""text-align: center; position: fixed; top: 5vh; left: 40vw;"">
            <div style=""margin:0 auto; width: 20vw; top: 8vh; font-size: 2vw""> 
            <font color=""green""> Bonus : $2.78 </font>
            </div>
        </div>
    
            <div> Please press any key to continue to the next movie.</div>
        ","arrowright","ITI","","","","","","",""
"","","","","","html-keyboard-response","193","247091","0.0-7.52-1.52","650ada72af1a7c1f99e3186c","6573617f270241e5da3d355d","6576c024e8df15880d170756","463","./stimuli//pack_morph_shapes_1/cat_1/diff_4/ex_1_4_4.gif","arrowleft","response","ArrowLeft","4","1","4","test","true",""
"","","","","","html-keyboard-response","194","248592","0.0-7.52-2.52","650ada72af1a7c1f99e3186c","6573617f270241e5da3d355d","6576c024e8df15880d170756","null","<p> <font color=""green"" size=""5vw""> Correct category! </font> <br> <br> <font color=""green"" size=""8vw""> + $0.08 </font> </p>","null","feedback","","","","","","","2.86"
"","","","","","html-keyboard-response","195","249060","0.0-7.53-0.53","650ada72af1a7c1f99e3186c","6573617f270241e5da3d355d","6576c024e8df15880d170756","468","
            
        <div style=""text-align: center; position: fixed; top: 5vh; left: 40vw;"">
            <div style=""margin:0 auto; width: 20vw; top: 8vh; font-size: 2vw""> 
            <font color=""green""> Bonus : $2.86 </font>
            </div>
        </div>
    
            <div> Please press any key to continue to the next movie.</div>
        ","arrowright","ITI","","","","","","",""
"","","","","","html-keyboard-response","196","249652","0.0-7.53-1.53","650ada72af1a7c1f99e3186c","6573617f270241e5da3d355d","6576c024e8df15880d170756","590","./stimuli//pack_morph_shapes_1/cat_1/diff_5/ex_1_5_3.gif","arrowleft","response","ArrowLeft","3","1","5","test","true",""
"","","","","","html-keyboard-response","197","251153","0.0-7.53-2.53","650ada72af1a7c1f99e3186c","6573617f270241e5da3d355d","6576c024e8df15880d170756","null","<p> <font color=""green"" size=""5vw""> Correct category! </font> <br> <br> <font color=""green"" size=""8vw""> + $0.07 </font> </p>","null","feedback","","","","","","","2.93"
"","","","","","html-keyboard-response","198","251539","0.0-7.54-0.54","650ada72af1a7c1f99e3186c","6573617f270241e5da3d355d","6576c024e8df15880d170756","384","
            
        <div style=""text-align: center; position: fixed; top: 5vh; left: 40vw;"">
            <div style=""margin:0 auto; width: 20vw; top: 8vh; font-size: 2vw""> 
            <font color=""green""> Bonus : $2.93 </font>
            </div>
        </div>
    
            <div> Please press any key to continue to the next movie.</div>
        ","arrowright","ITI","","","","","","",""
"","","","","","html-keyboard-response","199","252100","0.0-7.54-1.54","650ada72af1a7c1f99e3186c","6573617f270241e5da3d355d","6576c024e8df15880d170756","560","./stimuli//pack_morph_shapes_1/cat_2/diff_5/ex_2_5_8.gif","arrowright","response","ArrowRight","8","2","5","test","true",""
"","","","","","html-keyboard-response","200","253600","0.0-7.54-2.54","650ada72af1a7c1f99e3186c","6573617f270241e5da3d355d","6576c024e8df15880d170756","null","<p> <font color=""green"" size=""5vw""> Correct category! </font> <br> <br> <font color=""green"" size=""8vw""> + $0.08 </font> </p>","null","feedback","","","","","","","3.01"
"","","","","","html-keyboard-response","201","254180","0.0-7.55-0.55","650ada72af1a7c1f99e3186c","6573617f270241e5da3d355d","6576c024e8df15880d170756","579","
            
        <div style=""text-align: center; position: fixed; top: 5vh; left: 40vw;"">
            <div style=""margin:0 auto; width: 20vw; top: 8vh; font-size: 2vw""> 
            <font color=""green""> Bonus : $3.01 </font>
            </div>
        </div>
    
            <div> Please press any key to continue to the next movie.</div>
        ","arrowright","ITI","","","","","","",""
"","","","","","html-keyboard-response","202","254692","0.0-7.55-1.55","650ada72af1a7c1f99e3186c","6573617f270241e5da3d355d","6576c024e8df15880d170756","513","./stimuli//pack_morph_shapes_1/cat_1/diff_5/ex_1_5_4.gif","arrowleft","response","ArrowLeft","4","1","5","test","true",""
"","","","","","html-keyboard-response","203","256194","0.0-7.55-2.55","650ada72af1a7c1f99e3186c","6573617f270241e5da3d355d","6576c024e8df15880d170756","null","<p> <font color=""green"" size=""5vw""> Correct category! </font> <br> <br> <font color=""green"" size=""8vw""> + $0.08 </font> </p>","null","feedback","","","","","","","3.09"
"","","","","","html-keyboard-response","204","256547","0.0-7.56-0.56","650ada72af1a7c1f99e3186c","6573617f270241e5da3d355d","6576c024e8df15880d170756","354","
            
        <div style=""text-align: center; position: fixed; top: 5vh; left: 40vw;"">
            <div style=""margin:0 auto; width: 20vw; top: 8vh; font-size: 2vw""> 
            <font color=""green""> Bonus : $3.09 </font>
            </div>
        </div>
    
            <div> Please press any key to continue to the next movie.</div>
        ","arrowright","ITI","","","","","","",""
"","","","","","html-keyboard-response","205","257205","0.0-7.56-1.56","650ada72af1a7c1f99e3186c","6573617f270241e5da3d355d","6576c024e8df15880d170756","657","./stimuli//pack_morph_shapes_1/cat_2/diff_5/ex_2_5_1.gif","arrowright","response","ArrowRight","1","2","5","test","true",""
"","","","","","html-keyboard-response","206","258705","0.0-7.56-2.56","650ada72af1a7c1f99e3186c","6573617f270241e5da3d355d","6576c024e8df15880d170756","null","<p> <font color=""green"" size=""5vw""> Correct category! </font> <br> <br> <font color=""green"" size=""8vw""> + $0.07 </font> </p>","null","feedback","","","","","","","3.16"
"","","","","","html-keyboard-response","207","259076","0.0-7.57-0.57","650ada72af1a7c1f99e3186c","6573617f270241e5da3d355d","6576c024e8df15880d170756","371","
            
        <div style=""text-align: center; position: fixed; top: 5vh; left: 40vw;"">
            <div style=""margin:0 auto; width: 20vw; top: 8vh; font-size: 2vw""> 
            <font color=""green""> Bonus : $3.16 </font>
            </div>
        </div>
    
            <div> Please press any key to continue to the next movie.</div>
        ","arrowright","ITI","","","","","","",""
"","","","","","html-keyboard-response","208","260019","0.0-7.57-1.57","650ada72af1a7c1f99e3186c","6573617f270241e5da3d355d","6576c024e8df15880d170756","942","./stimuli//pack_morph_shapes_1/cat_2/diff_5/ex_2_5_16.gif","arrowright","response","ArrowRight","16","2","5","test","true",""
"","","","","","html-keyboard-response","209","261520","0.0-7.57-2.57","650ada72af1a7c1f99e3186c","6573617f270241e5da3d355d","6576c024e8df15880d170756","null","<p> <font color=""green"" size=""5vw""> Correct category! </font> <br> <br> <font color=""green"" size=""8vw""> + $0.06 </font> </p>","null","feedback","","","","","","","3.22"
"","","","","","html-keyboard-response","210","261940","0.0-7.58-0.58","650ada72af1a7c1f99e3186c","6573617f270241e5da3d355d","6576c024e8df15880d170756","419","
            
        <div style=""text-align: center; position: fixed; top: 5vh; left: 40vw;"">
            <div style=""margin:0 auto; width: 20vw; top: 8vh; font-size: 2vw""> 
            <font color=""green""> Bonus : $3.22 </font>
            </div>
        </div>
    
            <div> Please press any key to continue to the next movie.</div>
        ","arrowright","ITI","","","","","","",""
"","","","","","html-keyboard-response","211","262483","0.0-7.58-1.58","650ada72af1a7c1f99e3186c","6573617f270241e5da3d355d","6576c024e8df15880d170756","543","./stimuli//pack_morph_shapes_1/cat_2/diff_5/ex_2_5_11.gif","arrowright","response","ArrowRight","11","2","5","test","true",""
"","","","","","html-keyboard-response","212","263984","0.0-7.58-2.58","650ada72af1a7c1f99e3186c","6573617f270241e5da3d355d","6576c024e8df15880d170756","null","<p> <font color=""green"" size=""5vw""> Correct category! </font> <br> <br> <font color=""green"" size=""8vw""> + $0.08 </font> </p>","null","feedback","","","","","","","3.3"
"","","","","","html-keyboard-response","213","264356","0.0-7.59-0.59","650ada72af1a7c1f99e3186c","6573617f270241e5da3d355d","6576c024e8df15880d170756","371","
            
        <div style=""text-align: center; position: fixed; top: 5vh; left: 40vw;"">
            <div style=""margin:0 auto; width: 20vw; top: 8vh; font-size: 2vw""> 
            <font color=""green""> Bonus : $3.3 </font>
            </div>
        </div>
    
            <div> Please press any key to continue to the next movie.</div>
        ","arrowright","ITI","","","","","","",""
"","","","","","html-keyboard-response","214","264772","0.0-7.59-1.59","650ada72af1a7c1f99e3186c","6573617f270241e5da3d355d","6576c024e8df15880d170756","414","./stimuli//pack_morph_shapes_1/cat_2/diff_5/ex_2_5_11.gif","arrowright","response","ArrowRight","11","2","5","test","true",""
"","","","","","html-keyboard-response","215","266274","0.0-7.59-2.59","650ada72af1a7c1f99e3186c","6573617f270241e5da3d355d","6576c024e8df15880d170756","null","<p> <font color=""green"" size=""5vw""> Correct category! </font> <br> <br> <font color=""green"" size=""8vw""> + $0.08 </font> </p>","null","feedback","","","","","","","3.38"
"","","","","","html-keyboard-response","216","266692","0.0-7.60-0.60","650ada72af1a7c1f99e3186c","6573617f270241e5da3d355d","6576c024e8df15880d170756","418","
            
        <div style=""text-align: center; position: fixed; top: 5vh; left: 40vw;"">
            <div style=""margin:0 auto; width: 20vw; top: 8vh; font-size: 2vw""> 
            <font color=""green""> Bonus : $3.38 </font>
            </div>
        </div>
    
            <div> Please press any key to continue to the next movie.</div>
        ","arrowright","ITI","","","","","","",""
"","","","","","html-keyboard-response","217","267204","0.0-7.60-1.60","650ada72af1a7c1f99e3186c","6573617f270241e5da3d355d","6576c024e8df15880d170756","511","./stimuli//pack_morph_shapes_1/cat_2/diff_5/ex_2_5_9.gif","arrowleft","response","ArrowRight","9","2","5","test","false",""
"","","","","","html-keyboard-response","218","268704","0.0-7.60-2.60","650ada72af1a7c1f99e3186c","6573617f270241e5da3d355d","6576c024e8df15880d170756","null","<p> <font color=""red"" size=""5vw""> Wrong category! </font> <br> <br> <font color=""red"" size=""8vw""> - $0.05 </font> </p>","null","feedback","","","","","","","3.33"
"","","","","","html-keyboard-response","219","269044","0.0-7.61-0.61","650ada72af1a7c1f99e3186c","6573617f270241e5da3d355d","6576c024e8df15880d170756","339","
            
        <div style=""text-align: center; position: fixed; top: 5vh; left: 40vw;"">
            <div style=""margin:0 auto; width: 20vw; top: 8vh; font-size: 2vw""> 
            <font color=""green""> Bonus : $3.33 </font>
            </div>
        </div>
    
            <div> Please press any key to continue to the next movie.</div>
        ","arrowright","ITI","","","","","","",""
"","","","","","html-keyboard-response","220","269572","0.0-7.61-1.61","650ada72af1a7c1f99e3186c","6573617f270241e5da3d355d","6576c024e8df15880d170756","528","./stimuli//pack_morph_shapes_1/cat_2/diff_5/ex_2_5_3.gif","arrowright","response","ArrowRight","3","2","5","test","true",""
"","","","","","html-keyboard-response","221","271073","0.0-7.61-2.61","650ada72af1a7c1f99e3186c","6573617f270241e5da3d355d","6576c024e8df15880d170756","null","<p> <font color=""green"" size=""5vw""> Correct category! </font> <br> <br> <font color=""green"" size=""8vw""> + $0.08 </font> </p>","null","feedback","","","","","","","3.41"
"","","","","","html-keyboard-response","222","272724","0.0-7.62-0.62","650ada72af1a7c1f99e3186c","6573617f270241e5da3d355d","6576c024e8df15880d170756","1650","
            
        <div style=""text-align: center; position: fixed; top: 5vh; left: 40vw;"">
            <div style=""margin:0 auto; width: 20vw; top: 8vh; font-size: 2vw""> 
            <font color=""green""> Bonus : $3.41 </font>
            </div>
        </div>
    
            <div> Please press any key to continue to the next movie.</div>
        ","arrowright","ITI","","","","","","",""
"","","","","","html-keyboard-response","223","273219","0.0-7.62-1.62","650ada72af1a7c1f99e3186c","6573617f270241e5da3d355d","6576c024e8df15880d170756","495","./stimuli//pack_morph_shapes_1/cat_1/diff_5/ex_1_5_6.gif","arrowleft","response","ArrowLeft","6","1","5","test","true",""
"","","","","","html-keyboard-response","224","274720","0.0-7.62-2.62","650ada72af1a7c1f99e3186c","6573617f270241e5da3d355d","6576c024e8df15880d170756","null","<p> <font color=""green"" size=""5vw""> Correct category! </font> <br> <br> <font color=""green"" size=""8vw""> + $0.08 </font> </p>","null","feedback","","","","","","","3.49"
"","","","","","html-keyboard-response","225","275124","0.0-7.63-0.63","650ada72af1a7c1f99e3186c","6573617f270241e5da3d355d","6576c024e8df15880d170756","402","
            
        <div style=""text-align: center; position: fixed; top: 5vh; left: 40vw;"">
            <div style=""margin:0 auto; width: 20vw; top: 8vh; font-size: 2vw""> 
            <font color=""green""> Bonus : $3.49 </font>
            </div>
        </div>
    
            <div> Please press any key to continue to the next movie.</div>
        ","arrowright","ITI","","","","","","",""
"","","","","","html-keyboard-response","226","275779","0.0-7.63-1.63","650ada72af1a7c1f99e3186c","6573617f270241e5da3d355d","6576c024e8df15880d170756","655","./stimuli//pack_morph_shapes_1/cat_2/diff_5/ex_2_5_15.gif","arrowleft","response","ArrowRight","15","2","5","test","false",""
"","","","","","html-keyboard-response","227","277281","0.0-7.63-2.63","650ada72af1a7c1f99e3186c","6573617f270241e5da3d355d","6576c024e8df15880d170756","null","<p> <font color=""red"" size=""5vw""> Wrong category! </font> <br> <br> <font color=""red"" size=""8vw""> - $0.05 </font> </p>","null","feedback","","","","","","","3.44"
"","","","","","html-keyboard-response","228","277587","0.0-7.64-0.64","650ada72af1a7c1f99e3186c","6573617f270241e5da3d355d","6576c024e8df15880d170756","306","
            
        <div style=""text-align: center; position: fixed; top: 5vh; left: 40vw;"">
            <div style=""margin:0 auto; width: 20vw; top: 8vh; font-size: 2vw""> 
            <font color=""green""> Bonus : $3.44 </font>
            </div>
        </div>
    
            <div> Please press any key to continue to the next movie.</div>
        ","arrowright","ITI","","","","","","",""
"","","","","","html-keyboard-response","229","278179","0.0-7.64-1.64","650ada72af1a7c1f99e3186c","6573617f270241e5da3d355d","6576c024e8df15880d170756","591","./stimuli//pack_morph_shapes_1/cat_2/diff_4/ex_2_4_6.gif","arrowleft","response","ArrowRight","6","2","4","test","false",""
"","","","","","html-keyboard-response","230","279679","0.0-7.64-2.64","650ada72af1a7c1f99e3186c","6573617f270241e5da3d355d","6576c024e8df15880d170756","null","<p> <font color=""red"" size=""5vw""> Wrong category! </font> <br> <br> <font color=""red"" size=""8vw""> - $0.05 </font> </p>","null","feedback","","","","","","","3.39"
"","","","","","html-keyboard-response","231","280083","0.0-7.65-0.65","650ada72af1a7c1f99e3186c","6573617f270241e5da3d355d","6576c024e8df15880d170756","403","
            
        <div style=""text-align: center; position: fixed; top: 5vh; left: 40vw;"">
            <div style=""margin:0 auto; width: 20vw; top: 8vh; font-size: 2vw""> 
            <font color=""green""> Bonus : $3.39 </font>
            </div>
        </div>
    
            <div> Please press any key to continue to the next movie.</div>
        ","arrowright","ITI","","","","","","",""
"","","","","","html-keyboard-response","232","280771","0.0-7.65-1.65","650ada72af1a7c1f99e3186c","6573617f270241e5da3d355d","6576c024e8df15880d170756","688","./stimuli//pack_morph_shapes_1/cat_1/diff_4/ex_1_4_1.gif","arrowright","response","ArrowLeft","1","1","4","test","false",""
"","","","","","html-keyboard-response","233","282273","0.0-7.65-2.65","650ada72af1a7c1f99e3186c","6573617f270241e5da3d355d","6576c024e8df15880d170756","null","<p> <font color=""red"" size=""5vw""> Wrong category! </font> <br> <br> <font color=""red"" size=""8vw""> - $0.05 </font> </p>","null","feedback","","","","","","","3.34"
"","","","","","html-keyboard-response","234","282660","0.0-7.66-0.66","650ada72af1a7c1f99e3186c","6573617f270241e5da3d355d","6576c024e8df15880d170756","388","
            
        <div style=""text-align: center; position: fixed; top: 5vh; left: 40vw;"">
            <div style=""margin:0 auto; width: 20vw; top: 8vh; font-size: 2vw""> 
            <font color=""green""> Bonus : $3.34 </font>
            </div>
        </div>
    
            <div> Please press any key to continue to the next movie.</div>
        ","arrowright","ITI","","","","","","",""
"","","","","","html-keyboard-response","235","283267","0.0-7.66-1.66","650ada72af1a7c1f99e3186c","6573617f270241e5da3d355d","6576c024e8df15880d170756","606","./stimuli//pack_morph_shapes_1/cat_1/diff_4/ex_1_4_3.gif","arrowleft","response","ArrowLeft","3","1","4","test","true",""
"","","","","","html-keyboard-response","236","284768","0.0-7.66-2.66","650ada72af1a7c1f99e3186c","6573617f270241e5da3d355d","6576c024e8df15880d170756","null","<p> <font color=""green"" size=""5vw""> Correct category! </font> <br> <br> <font color=""green"" size=""8vw""> + $0.07 </font> </p>","null","feedback","","","","","","","3.41"
"","","","","","html-keyboard-response","237","285220","0.0-7.67-0.67","650ada72af1a7c1f99e3186c","6573617f270241e5da3d355d","6576c024e8df15880d170756","451","
            
        <div style=""text-align: center; position: fixed; top: 5vh; left: 40vw;"">
            <div style=""margin:0 auto; width: 20vw; top: 8vh; font-size: 2vw""> 
            <font color=""green""> Bonus : $3.41 </font>
            </div>
        </div>
    
            <div> Please press any key to continue to the next movie.</div>
        ","arrowright","ITI","","","","","","",""
"","","","","","html-keyboard-response","238","285843","0.0-7.67-1.67","650ada72af1a7c1f99e3186c","6573617f270241e5da3d355d","6576c024e8df15880d170756","624","./stimuli//pack_morph_shapes_1/cat_2/diff_4/ex_2_4_2.gif","arrowright","response","ArrowRight","2","2","4","test","true",""
"","","","","","html-keyboard-response","239","287344","0.0-7.67-2.67","650ada72af1a7c1f99e3186c","6573617f270241e5da3d355d","6576c024e8df15880d170756","null","<p> <font color=""green"" size=""5vw""> Correct category! </font> <br> <br> <font color=""green"" size=""8vw""> + $0.07 </font> </p>","null","feedback","","","","","","","3.48"
"","","","","","html-keyboard-response","240","288244","0.0-7.68-0.68","650ada72af1a7c1f99e3186c","6573617f270241e5da3d355d","6576c024e8df15880d170756","900","
            
        <div style=""text-align: center; position: fixed; top: 5vh; left: 40vw;"">
            <div style=""margin:0 auto; width: 20vw; top: 8vh; font-size: 2vw""> 
            <font color=""green""> Bonus : $3.48 </font>
            </div>
        </div>
    
            <div> Please press any key to continue to the next movie.</div>
        ","arrowright","ITI","","","","","","",""
"","","","","","html-keyboard-response","241","288739","0.0-7.68-1.68","650ada72af1a7c1f99e3186c","6573617f270241e5da3d355d","6576c024e8df15880d170756","495","./stimuli//pack_morph_shapes_1/cat_1/diff_4/ex_1_4_15.gif","arrowleft","response","ArrowLeft","15","1","4","test","true",""
"","","","","","html-keyboard-response","242","290240","0.0-7.68-2.68","650ada72af1a7c1f99e3186c","6573617f270241e5da3d355d","6576c024e8df15880d170756","null","<p> <font color=""green"" size=""5vw""> Correct category! </font> <br> <br> <font color=""green"" size=""8vw""> + $0.08 </font> </p>","null","feedback","","","","","","","3.56"
"","","","","","html-keyboard-response","243","290755","0.0-7.69-0.69","650ada72af1a7c1f99e3186c","6573617f270241e5da3d355d","6576c024e8df15880d170756","515","
            
        <div style=""text-align: center; position: fixed; top: 5vh; left: 40vw;"">
            <div style=""margin:0 auto; width: 20vw; top: 8vh; font-size: 2vw""> 
            <font color=""green""> Bonus : $3.56 </font>
            </div>
        </div>
    
            <div> Please press any key to continue to the next movie.</div>
        ","arrowright","ITI","","","","","","",""
"","","","","","html-keyboard-response","244","291508","0.0-7.69-1.69","650ada72af1a7c1f99e3186c","6573617f270241e5da3d355d","6576c024e8df15880d170756","752","./stimuli//pack_morph_shapes_1/cat_2/diff_3/ex_2_3_9.gif","arrowright","response","ArrowRight","9","2","3","test","true",""
"","","","","","html-keyboard-response","245","293008","0.0-7.69-2.69","650ada72af1a7c1f99e3186c","6573617f270241e5da3d355d","6576c024e8df15880d170756","null","<p> <font color=""green"" size=""5vw""> Correct category! </font> <br> <br> <font color=""green"" size=""8vw""> + $0.07 </font> </p>","null","feedback","","","","","","","3.63"
"","","","","","html-keyboard-response","246","293363","0.0-7.70-0.70","650ada72af1a7c1f99e3186c","6573617f270241e5da3d355d","6576c024e8df15880d170756","355","
            
        <div style=""text-align: center; position: fixed; top: 5vh; left: 40vw;"">
            <div style=""margin:0 auto; width: 20vw; top: 8vh; font-size: 2vw""> 
            <font color=""green""> Bonus : $3.63 </font>
            </div>
        </div>
    
            <div> Please press any key to continue to the next movie.</div>
        ","arrowright","ITI","","","","","","",""
"","","","","","html-keyboard-response","247","293907","0.0-7.70-1.70","650ada72af1a7c1f99e3186c","6573617f270241e5da3d355d","6576c024e8df15880d170756","544","./stimuli//pack_morph_shapes_1/cat_2/diff_3/ex_2_3_9.gif","arrowright","response","ArrowRight","9","2","3","test","true",""
"","","","","","html-keyboard-response","248","295409","0.0-7.70-2.70","650ada72af1a7c1f99e3186c","6573617f270241e5da3d355d","6576c024e8df15880d170756","null","<p> <font color=""green"" size=""5vw""> Correct category! </font> <br> <br> <font color=""green"" size=""8vw""> + $0.08 </font> </p>","null","feedback","","","","","","","3.71"
"","","","","","html-keyboard-response","249","295956","0.0-7.71-0.71","650ada72af1a7c1f99e3186c","6573617f270241e5da3d355d","6576c024e8df15880d170756","546","
            
        <div style=""text-align: center; position: fixed; top: 5vh; left: 40vw;"">
            <div style=""margin:0 auto; width: 20vw; top: 8vh; font-size: 2vw""> 
            <font color=""green""> Bonus : $3.71 </font>
            </div>
        </div>
    
            <div> Please press any key to continue to the next movie.</div>
        ","arrowright","ITI","","","","","","",""
"","","","","","html-keyboard-response","250","296514","0.0-7.71-1.71","650ada72af1a7c1f99e3186c","6573617f270241e5da3d355d","6576c024e8df15880d170756","558","./stimuli//pack_morph_shapes_1/cat_1/diff_3/ex_1_3_5.gif","arrowleft","response","ArrowLeft","5","1","3","test","true",""
"","","","","","html-keyboard-response","251","298016","0.0-7.71-2.71","650ada72af1a7c1f99e3186c","6573617f270241e5da3d355d","6576c024e8df15880d170756","null","<p> <font color=""green"" size=""5vw""> Correct category! </font> <br> <br> <font color=""green"" size=""8vw""> + $0.08 </font> </p>","null","feedback","","","","","","","3.79"
"","","","","","html-keyboard-response","252","298548","0.0-7.72-0.72","650ada72af1a7c1f99e3186c","6573617f270241e5da3d355d","6576c024e8df15880d170756","530","
            
        <div style=""text-align: center; position: fixed; top: 5vh; left: 40vw;"">
            <div style=""margin:0 auto; width: 20vw; top: 8vh; font-size: 2vw""> 
            <font color=""green""> Bonus : $3.79 </font>
            </div>
        </div>
    
            <div> Please press any key to continue to the next movie.</div>
        ","arrowright","ITI","","","","","","",""
"","","","","","html-keyboard-response","253","299396","0.0-7.72-1.72","650ada72af1a7c1f99e3186c","6573617f270241e5da3d355d","6576c024e8df15880d170756","847","./stimuli//pack_morph_shapes_1/cat_2/diff_3/ex_2_3_9.gif","arrowright","response","ArrowRight","9","2","3","test","true",""
