"success","timeout","failed_images","failed_audio","failed_video","trial_type","trial_index","time_elapsed","internal_node_id","subject_id","study_id","session_id","rt","stimulus","response","task","correct_response","exemplar_ID","category","difficulty","phase","correct","bonus"
"true","false","[]","[]","[]","preload","0","1","0.0-0.0","5eb037fda64b1109eb4e2ff8","6573617f270241e5da3d355d","6576c015d1d93165c5d22444","","","","","","","","","","",""
"","","","","","html-keyboard-response","1","10426","0.0-1.0","5eb037fda64b1109eb4e2ff8","6573617f270241e5da3d355d","6576c015d1d93165c5d22444","10424","Welcome to the Category Learning experiment! Press any key to continue."," ","welcome","","","","","","",""
"","","","","","html-keyboard-response","2","45749","0.0-2.0","5eb037fda64b1109eb4e2ff8","6573617f270241e5da3d355d","6576c015d1d93165c5d22444","35322","
            <p>You will be shown movies. Each movie contains a sequence of shapes changing form. 
            <br> Some shapes are category A, some are category B. <b> Within a single movie, all shapes belong to the same category. </b>
            <br> You will not know in advance which category the shapes of each movie belong to.</p>
            <p> While you watch a movie, you have to guess the category that its shapes belong to <b>(left arrow for category A, right arrow for category B)</b></p>
            <p> After you choose, the screen will show you whether you were correct or not.</p>
            <p>Press any key to continue.</p>
            "," ","introduction_1","","","","","","",""
"","","","","","html-keyboard-response","3","62859","0.0-3.0","5eb037fda64b1109eb4e2ff8","6573617f270241e5da3d355d","6576c015d1d93165c5d22444","15003","
              <p><b>You will receive a bonus payment for each correct answer! The faster you answer the higher the bonus will be!</b></p>
              <p> So you can increase your bonus by guessing as quickly and accurately as possible.</p>
              <p><b>You will lose $0.05 from your bonus payment for each incorrect answer! The bonus can not become less that $0.</b> </p>
              <p>Press any key to continue.</p>
              "," ","introduction_2","","","","","","",""
"","","","","","html-keyboard-response","4","72871","0.0-4.0","5eb037fda64b1109eb4e2ff8","6573617f270241e5da3d355d","6576c015d1d93165c5d22444","10011","
            <p> <b>The first 10 trials are a practice round that will not count towards your bonus payment.</b></p>
            <p> You will be notified when practice finishes and the test begins. </p>
            <p> Press any key to begin the practice round.</p>
            "," ","introduction_3","","","","","","",""
"","","","","","html-keyboard-response","5","75783","0.0-5.0-0.0","5eb037fda64b1109eb4e2ff8","6573617f270241e5da3d355d","6576c015d1d93165c5d22444","2911","
            
        <div style=""text-align: center; position: fixed; top: 5vh; left: 40vw;"">
            <div style=""margin:0 auto; width: 20vw; top: 8vh; font-size: 2vw""> 
            <font color=""green""> Bonus : $0 </font>
            </div>
        </div>
    
            <div> Please press any key to continue to the next movie.</div>
        "," ","ITI","","","","","","",""
"","","","","","html-keyboard-response","6","80442","0.0-5.0-1.0","5eb037fda64b1109eb4e2ff8","6573617f270241e5da3d355d","6576c015d1d93165c5d22444","null","./stimuli//pack_morph_shapes_1/cat_1/diff_1/ex_1_1_16.gif","null","response","ArrowLeft","16","1","1","train","false",""
"","","","","","html-keyboard-response","7","82443","0.0-5.0-2.0","5eb037fda64b1109eb4e2ff8","6573617f270241e5da3d355d","6576c015d1d93165c5d22444","null","<p> <font color=""red"" size=""5vw""> Time out! </font> <br> Please try to respond as quickly as possible. </p>","null","feedback","","","","","","","0"
"","","","","","html-keyboard-response","8","98922","0.0-5.0-0.1","5eb037fda64b1109eb4e2ff8","6573617f270241e5da3d355d","6576c015d1d93165c5d22444","16478","
            
        <div style=""text-align: center; position: fixed; top: 5vh; left: 40vw;"">
            <div style=""margin:0 auto; width: 20vw; top: 8vh; font-size: 2vw""> 
            <font color=""green""> Bonus : $0 </font>
            </div>
        </div>
    
            <div> Please press any key to continue to the next movie.</div>
        ","arrowright","ITI","","","","","","",""
"","","","","","html-keyboard-response","9","101914","0.0-5.0-1.1","5eb037fda64b1109eb4e2ff8","6573617f270241e5da3d355d","6576c015d1d93165c5d22444","2991","./stimuli//pack_morph_shapes_1/cat_2/diff_2/ex_2_2_17.gif","arrowright","response","ArrowRight","17","2","2","train","true",""
"","","","","","html-keyboard-response","10","103422","0.0-5.0-2.1","5eb037fda64b1109eb4e2ff8","6573617f270241e5da3d355d","6576c015d1d93165c5d22444","null","<p> <font color=""green"" size=""5vw""> Correct category! </font> </p>","null","feedback","","","","","","","0"
"","","","","","html-keyboard-response","11","109760","0.0-5.0-0.2","5eb037fda64b1109eb4e2ff8","6573617f270241e5da3d355d","6576c015d1d93165c5d22444","6337","
            
        <div style=""text-align: center; position: fixed; top: 5vh; left: 40vw;"">
            <div style=""margin:0 auto; width: 20vw; top: 8vh; font-size: 2vw""> 
            <font color=""green""> Bonus : $0 </font>
            </div>
        </div>
    
            <div> Please press any key to continue to the next movie.</div>
        ","arrowdown","ITI","","","","","","",""
"","","","","","html-keyboard-response","12","113487","0.0-5.0-1.2","5eb037fda64b1109eb4e2ff8","6573617f270241e5da3d355d","6576c015d1d93165c5d22444","3726","./stimuli//pack_morph_shapes_1/cat_2/diff_1/ex_2_1_3.gif","arrowleft","response","ArrowRight","3","2","1","train","false",""
"","","","","","html-keyboard-response","13","115454","0.0-5.0-2.2","5eb037fda64b1109eb4e2ff8","6573617f270241e5da3d355d","6576c015d1d93165c5d22444","null","<p> <font color=""red"" size=""5vw""> Wrong category! </font> </p>","null","feedback","","","","","","","0"
"","","","","","html-keyboard-response","14","118883","0.0-5.0-0.3","5eb037fda64b1109eb4e2ff8","6573617f270241e5da3d355d","6576c015d1d93165c5d22444","3427","
            
        <div style=""text-align: center; position: fixed; top: 5vh; left: 40vw;"">
            <div style=""margin:0 auto; width: 20vw; top: 8vh; font-size: 2vw""> 
            <font color=""green""> Bonus : $0 </font>
            </div>
        </div>
    
            <div> Please press any key to continue to the next movie.</div>
        ","arrowdown","ITI","","","","","","",""
"","","","","","html-keyboard-response","15","122890","0.0-5.0-1.3","5eb037fda64b1109eb4e2ff8","6573617f270241e5da3d355d","6576c015d1d93165c5d22444","null","./stimuli//pack_morph_shapes_1/cat_2/diff_2/ex_2_2_12.gif","null","response","ArrowRight","12","2","2","train","false",""
"","","","","","html-keyboard-response","16","124452","0.0-5.0-2.3","5eb037fda64b1109eb4e2ff8","6573617f270241e5da3d355d","6576c015d1d93165c5d22444","null","<p> <font color=""red"" size=""5vw""> Time out! </font> <br> Please try to respond as quickly as possible. </p>","null","feedback","","","","","","","0"
"","","","","","html-keyboard-response","17","125746","0.0-5.0-0.4","5eb037fda64b1109eb4e2ff8","6573617f270241e5da3d355d","6576c015d1d93165c5d22444","1293","
            
        <div style=""text-align: center; position: fixed; top: 5vh; left: 40vw;"">
            <div style=""margin:0 auto; width: 20vw; top: 8vh; font-size: 2vw""> 
            <font color=""green""> Bonus : $0 </font>
            </div>
        </div>
    
            <div> Please press any key to continue to the next movie.</div>
        ","arrowdown","ITI","","","","","","",""
"","","","","","html-keyboard-response","18","129088","0.0-5.0-1.4","5eb037fda64b1109eb4e2ff8","6573617f270241e5da3d355d","6576c015d1d93165c5d22444","3341","./stimuli//pack_morph_shapes_1/cat_1/diff_1/ex_1_1_14.gif","arrowleft","response","ArrowLeft","14","1","1","train","true",""
"","","","","","html-keyboard-response","19","130595","0.0-5.0-2.4","5eb037fda64b1109eb4e2ff8","6573617f270241e5da3d355d","6576c015d1d93165c5d22444","null","<p> <font color=""green"" size=""5vw""> Correct category! </font> </p>","null","feedback","","","","","","","0"
"","","","","","html-keyboard-response","20","131512","0.0-5.0-0.5","5eb037fda64b1109eb4e2ff8","6573617f270241e5da3d355d","6576c015d1d93165c5d22444","916","
            
        <div style=""text-align: center; position: fixed; top: 5vh; left: 40vw;"">
            <div style=""margin:0 auto; width: 20vw; top: 8vh; font-size: 2vw""> 
            <font color=""green""> Bonus : $0 </font>
            </div>
        </div>
    
            <div> Please press any key to continue to the next movie.</div>
        ","arrowdown","ITI","","","","","","",""
"","","","","","html-keyboard-response","21","134388","0.0-5.0-1.5","5eb037fda64b1109eb4e2ff8","6573617f270241e5da3d355d","6576c015d1d93165c5d22444","2876","./stimuli//pack_morph_shapes_1/cat_1/diff_2/ex_1_2_9.gif","arrowleft","response","ArrowLeft","9","1","2","train","true",""
"","","","","","html-keyboard-response","22","135901","0.0-5.0-2.5","5eb037fda64b1109eb4e2ff8","6573617f270241e5da3d355d","6576c015d1d93165c5d22444","null","<p> <font color=""green"" size=""5vw""> Correct category! </font> </p>","null","feedback","","","","","","","0"
"","","","","","html-keyboard-response","23","136719","0.0-5.0-0.6","5eb037fda64b1109eb4e2ff8","6573617f270241e5da3d355d","6576c015d1d93165c5d22444","817","
            
        <div style=""text-align: center; position: fixed; top: 5vh; left: 40vw;"">
            <div style=""margin:0 auto; width: 20vw; top: 8vh; font-size: 2vw""> 
            <font color=""green""> Bonus : $0 </font>
            </div>
        </div>
    
            <div> Please press any key to continue to the next movie.</div>
        ","arrowdown","ITI","","","","","","",""
"","","","","","html-keyboard-response","24","137501","0.0-5.0-1.6","5eb037fda64b1109eb4e2ff8","6573617f270241e5da3d355d","6576c015d1d93165c5d22444","782","./stimuli//pack_morph_shapes_1/cat_2/diff_1/ex_2_1_12.gif","arrowright","response","ArrowRight","12","2","1","train","true",""
"","","","","","html-keyboard-response","25","139004","0.0-5.0-2.6","5eb037fda64b1109eb4e2ff8","6573617f270241e5da3d355d","6576c015d1d93165c5d22444","null","<p> <font color=""green"" size=""5vw""> Correct category! </font> </p>","null","feedback","","","","","","","0"
"","","","","","html-keyboard-response","26","140220","0.0-5.0-0.7","5eb037fda64b1109eb4e2ff8","6573617f270241e5da3d355d","6576c015d1d93165c5d22444","1215","
            
        <div style=""text-align: center; position: fixed; top: 5vh; left: 40vw;"">
            <div style=""margin:0 auto; width: 20vw; top: 8vh; font-size: 2vw""> 
            <font color=""green""> Bonus : $0 </font>
            </div>
        </div>
    
            <div> Please press any key to continue to the next movie.</div>
        ","arrowdown","ITI","","","","","","",""
"","","","","","html-keyboard-response","27","141138","0.0-5.0-1.7","5eb037fda64b1109eb4e2ff8","6573617f270241e5da3d355d","6576c015d1d93165c5d22444","918","./stimuli//pack_morph_shapes_1/cat_2/diff_1/ex_2_1_6.gif","arrowright","response","ArrowRight","6","2","1","train","true",""
"","","","","","html-keyboard-response","28","143446","0.0-5.0-2.7","5eb037fda64b1109eb4e2ff8","6573617f270241e5da3d355d","6576c015d1d93165c5d22444","null","<p> <font color=""green"" size=""5vw""> Correct category! </font> </p>","null","feedback","","","","","","","0"
"","","","","","html-keyboard-response","29","144325","0.0-5.0-0.8","5eb037fda64b1109eb4e2ff8","6573617f270241e5da3d355d","6576c015d1d93165c5d22444","878","
            
        <div style=""text-align: center; position: fixed; top: 5vh; left: 40vw;"">
            <div style=""margin:0 auto; width: 20vw; top: 8vh; font-size: 2vw""> 
            <font color=""green""> Bonus : $0 </font>
            </div>
        </div>
    
            <div> Please press any key to continue to the next movie.</div>
        ","arrowdown","ITI","","","","","","",""
"","","","","","html-keyboard-response","30","145101","0.0-5.0-1.8","5eb037fda64b1109eb4e2ff8","6573617f270241e5da3d355d","6576c015d1d93165c5d22444","775","./stimuli//pack_morph_shapes_1/cat_1/diff_2/ex_1_2_3.gif","arrowleft","response","ArrowLeft","3","1","2","train","true",""
"","","","","","html-keyboard-response","31","146611","0.0-5.0-2.8","5eb037fda64b1109eb4e2ff8","6573617f270241e5da3d355d","6576c015d1d93165c5d22444","null","<p> <font color=""green"" size=""5vw""> Correct category! </font> </p>","null","feedback","","","","","","","0"
"","","","","","html-keyboard-response","32","147242","0.0-5.0-0.9","5eb037fda64b1109eb4e2ff8","6573617f270241e5da3d355d","6576c015d1d93165c5d22444","630","
            
        <div style=""text-align: center; position: fixed; top: 5vh; left: 40vw;"">
            <div style=""margin:0 auto; width: 20vw; top: 8vh; font-size: 2vw""> 
            <font color=""green""> Bonus : $0 </font>
            </div>
        </div>
    
            <div> Please press any key to continue to the next movie.</div>
        ","arrowdown","ITI","","","","","","",""
"","","","","","html-keyboard-response","33","148094","0.0-5.0-1.9","5eb037fda64b1109eb4e2ff8","6573617f270241e5da3d355d","6576c015d1d93165c5d22444","852","./stimuli//pack_morph_shapes_1/cat_1/diff_1/ex_1_1_6.gif","arrowleft","response","ArrowLeft","6","1","1","train","true",""
"","","","","","html-keyboard-response","34","150440","0.0-5.0-2.9","5eb037fda64b1109eb4e2ff8","6573617f270241e5da3d355d","6576c015d1d93165c5d22444","null","<p> <font color=""green"" size=""5vw""> Correct category! </font> </p>","null","feedback","","","","","","","0"
"","","","","","html-keyboard-response","35","150691","0.0-6.0","5eb037fda64b1109eb4e2ff8","6573617f270241e5da3d355d","6576c015d1d93165c5d22444","250","
            <b> <p> The practice round has finished.</p>
            <b> <p> For the rest of the experiment you will receive a bonus payment for each correct answer, which will be higher the faster you answer!</b></p>
            <b> </p> Also you will lose $0.05 from your bonus payment for each incorrect answer!</p>
            <p> Press any key to begin the test. </p>
            ","arrowdown","intermission","","","","","","",""
"","","","","","html-keyboard-response","36","152398","0.0-7.0-0.0","5eb037fda64b1109eb4e2ff8","6573617f270241e5da3d355d","6576c015d1d93165c5d22444","1706","
            
        <div style=""text-align: center; position: fixed; top: 5vh; left: 40vw;"">
            <div style=""margin:0 auto; width: 20vw; top: 8vh; font-size: 2vw""> 
            <font color=""green""> Bonus : $0 </font>
            </div>
        </div>
    
            <div> Please press any key to continue to the next movie.</div>
        ","arrowdown","ITI","","","","","","",""
"","","","","","html-keyboard-response","37","153137","0.0-7.0-1.0","5eb037fda64b1109eb4e2ff8","6573617f270241e5da3d355d","6576c015d1d93165c5d22444","737","./stimuli//pack_morph_shapes_1/cat_2/diff_1/ex_2_1_16.gif","arrowright","response","ArrowRight","16","2","1","test","true",""
"","","","","","html-keyboard-response","38","154653","0.0-7.0-2.0","5eb037fda64b1109eb4e2ff8","6573617f270241e5da3d355d","6576c015d1d93165c5d22444","null","<p> <font color=""green"" size=""5vw""> Correct category! </font> <br> <br> <font color=""green"" size=""8vw""> + $0.07 </font> </p>","null","feedback","","","","","","","0.07"
"","","","","","html-keyboard-response","39","155563","0.0-7.1-0.1","5eb037fda64b1109eb4e2ff8","6573617f270241e5da3d355d","6576c015d1d93165c5d22444","908","
            
        <div style=""text-align: center; position: fixed; top: 5vh; left: 40vw;"">
            <div style=""margin:0 auto; width: 20vw; top: 8vh; font-size: 2vw""> 
            <font color=""green""> Bonus : $0.07 </font>
            </div>
        </div>
    
            <div> Please press any key to continue to the next movie.</div>
        ","arrowdown","ITI","","","","","","",""
"","","","","","html-keyboard-response","40","156196","0.0-7.1-1.1","5eb037fda64b1109eb4e2ff8","6573617f270241e5da3d355d","6576c015d1d93165c5d22444","633","./stimuli//pack_morph_shapes_1/cat_1/diff_1/ex_1_1_9.gif","arrowleft","response","ArrowLeft","9","1","1","test","true",""
"","","","","","html-keyboard-response","41","157705","0.0-7.1-2.1","5eb037fda64b1109eb4e2ff8","6573617f270241e5da3d355d","6576c015d1d93165c5d22444","null","<p> <font color=""green"" size=""5vw""> Correct category! </font> <br> <br> <font color=""green"" size=""8vw""> + $0.07 </font> </p>","null","feedback","","","","","","","0.14"
"","","","","","html-keyboard-response","42","158514","0.0-7.2-0.2","5eb037fda64b1109eb4e2ff8","6573617f270241e5da3d355d","6576c015d1d93165c5d22444","808","
            
        <div style=""text-align: center; position: fixed; top: 5vh; left: 40vw;"">
            <div style=""margin:0 auto; width: 20vw; top: 8vh; font-size: 2vw""> 
            <font color=""green""> Bonus : $0.14 </font>
            </div>
        </div>
    
            <div> Please press any key to continue to the next movie.</div>
        ","arrowdown","ITI","","","","","","",""
"","","","","","html-keyboard-response","43","160060","0.0-7.2-1.2","5eb037fda64b1109eb4e2ff8","6573617f270241e5da3d355d","6576c015d1d93165c5d22444","1545","./stimuli//pack_morph_shapes_1/cat_1/diff_1/ex_1_1_4.gif","arrowleft","response","ArrowLeft","4","1","1","test","true",""
"","","","","","html-keyboard-response","44","161880","0.0-7.2-2.2","5eb037fda64b1109eb4e2ff8","6573617f270241e5da3d355d","6576c015d1d93165c5d22444","null","<p> <font color=""green"" size=""5vw""> Correct category! </font> <br> <br> <font color=""green"" size=""8vw""> + $0.05 </font> </p>","null","feedback","","","","","","","0.19"
"","","","","","html-keyboard-response","45","163042","0.0-7.3-0.3","5eb037fda64b1109eb4e2ff8","6573617f270241e5da3d355d","6576c015d1d93165c5d22444","1161","
            
        <div style=""text-align: center; position: fixed; top: 5vh; left: 40vw;"">
            <div style=""margin:0 auto; width: 20vw; top: 8vh; font-size: 2vw""> 
            <font color=""green""> Bonus : $0.19 </font>
            </div>
        </div>
    
            <div> Please press any key to continue to the next movie.</div>
        ","arrowdown","ITI","","","","","","",""
"","","","","","html-keyboard-response","46","163908","0.0-7.3-1.3","5eb037fda64b1109eb4e2ff8","6573617f270241e5da3d355d","6576c015d1d93165c5d22444","865","./stimuli//pack_morph_shapes_1/cat_1/diff_1/ex_1_1_17.gif","arrowleft","response","ArrowLeft","17","1","1","test","true",""
"","","","","","html-keyboard-response","47","165412","0.0-7.3-2.3","5eb037fda64b1109eb4e2ff8","6573617f270241e5da3d355d","6576c015d1d93165c5d22444","null","<p> <font color=""green"" size=""5vw""> Correct category! </font> <br> <br> <font color=""green"" size=""8vw""> + $0.06 </font> </p>","null","feedback","","","","","","","0.25"
"","","","","","html-keyboard-response","48","166111","0.0-7.4-0.4","5eb037fda64b1109eb4e2ff8","6573617f270241e5da3d355d","6576c015d1d93165c5d22444","698","
            
        <div style=""text-align: center; position: fixed; top: 5vh; left: 40vw;"">
            <div style=""margin:0 auto; width: 20vw; top: 8vh; font-size: 2vw""> 
            <font color=""green""> Bonus : $0.25 </font>
            </div>
        </div>
    
            <div> Please press any key to continue to the next movie.</div>
        ","arrowdown","ITI","","","","","","",""
"","","","","","html-keyboard-response","49","166871","0.0-7.4-1.4","5eb037fda64b1109eb4e2ff8","6573617f270241e5da3d355d","6576c015d1d93165c5d22444","759","./stimuli//pack_morph_shapes_1/cat_1/diff_1/ex_1_1_8.gif","arrowleft","response","ArrowLeft","8","1","1","test","true",""
"","","","","","html-keyboard-response","50","168387","0.0-7.4-2.4","5eb037fda64b1109eb4e2ff8","6573617f270241e5da3d355d","6576c015d1d93165c5d22444","null","<p> <font color=""green"" size=""5vw""> Correct category! </font> <br> <br> <font color=""green"" size=""8vw""> + $0.07 </font> </p>","null","feedback","","","","","","","0.32"
"","","","","","html-keyboard-response","51","169094","0.0-7.5-0.5","5eb037fda64b1109eb4e2ff8","6573617f270241e5da3d355d","6576c015d1d93165c5d22444","706","
            
        <div style=""text-align: center; position: fixed; top: 5vh; left: 40vw;"">
            <div style=""margin:0 auto; width: 20vw; top: 8vh; font-size: 2vw""> 
            <font color=""green""> Bonus : $0.32 </font>
            </div>
        </div>
    
            <div> Please press any key to continue to the next movie.</div>
        ","arrowdown","ITI","","","","","","",""
"","","","","","html-keyboard-response","52","169948","0.0-7.5-1.5","5eb037fda64b1109eb4e2ff8","6573617f270241e5da3d355d","6576c015d1d93165c5d22444","853","./stimuli//pack_morph_shapes_1/cat_1/diff_2/ex_1_2_4.gif","arrowleft","response","ArrowLeft","4","1","2","test","true",""
"","","","","","html-keyboard-response","53","171463","0.0-7.5-2.5","5eb037fda64b1109eb4e2ff8","6573617f270241e5da3d355d","6576c015d1d93165c5d22444","null","<p> <font color=""green"" size=""5vw""> Correct category! </font> <br> <br> <font color=""green"" size=""8vw""> + $0.07 </font> </p>","null","feedback","","","","","","","0.39"
"","","","","","html-keyboard-response","54","172084","0.0-7.6-0.6","5eb037fda64b1109eb4e2ff8","6573617f270241e5da3d355d","6576c015d1d93165c5d22444","618","
            
        <div style=""text-align: center; position: fixed; top: 5vh; left: 40vw;"">
            <div style=""margin:0 auto; width: 20vw; top: 8vh; font-size: 2vw""> 
            <font color=""green""> Bonus : $0.39 </font>
            </div>
        </div>
    
            <div> Please press any key to continue to the next movie.</div>
        ","arrowdown","ITI","","","","","","",""
"","","","","","html-keyboard-response","55","172739","0.0-7.6-1.6","5eb037fda64b1109eb4e2ff8","6573617f270241e5da3d355d","6576c015d1d93165c5d22444","654","./stimuli//pack_morph_shapes_1/cat_1/diff_2/ex_1_2_4.gif","arrowleft","response","ArrowLeft","4","1","2","test","true",""
"","","","","","html-keyboard-response","56","174249","0.0-7.6-2.6","5eb037fda64b1109eb4e2ff8","6573617f270241e5da3d355d","6576c015d1d93165c5d22444","null","<p> <font color=""green"" size=""5vw""> Correct category! </font> <br> <br> <font color=""green"" size=""8vw""> + $0.07 </font> </p>","null","feedback","","","","","","","0.46"
"","","","","","html-keyboard-response","57","175025","0.0-7.7-0.7","5eb037fda64b1109eb4e2ff8","6573617f270241e5da3d355d","6576c015d1d93165c5d22444","775","
            
        <div style=""text-align: center; position: fixed; top: 5vh; left: 40vw;"">
            <div style=""margin:0 auto; width: 20vw; top: 8vh; font-size: 2vw""> 
            <font color=""green""> Bonus : $0.46 </font>
            </div>
        </div>
    
            <div> Please press any key to continue to the next movie.</div>
        ","arrowdown","ITI","","","","","","",""
"","","","","","html-keyboard-response","58","175890","0.0-7.7-1.7","5eb037fda64b1109eb4e2ff8","6573617f270241e5da3d355d","6576c015d1d93165c5d22444","865","./stimuli//pack_morph_shapes_1/cat_2/diff_2/ex_2_2_11.gif","arrowright","response","ArrowRight","11","2","2","test","true",""
"","","","","","html-keyboard-response","59","177445","0.0-7.7-2.7","5eb037fda64b1109eb4e2ff8","6573617f270241e5da3d355d","6576c015d1d93165c5d22444","null","<p> <font color=""green"" size=""5vw""> Correct category! </font> <br> <br> <font color=""green"" size=""8vw""> + $0.06 </font> </p>","null","feedback","","","","","","","0.52"
"","","","","","html-keyboard-response","60","178049","0.0-7.8-0.8","5eb037fda64b1109eb4e2ff8","6573617f270241e5da3d355d","6576c015d1d93165c5d22444","603","
            
        <div style=""text-align: center; position: fixed; top: 5vh; left: 40vw;"">
            <div style=""margin:0 auto; width: 20vw; top: 8vh; font-size: 2vw""> 
            <font color=""green""> Bonus : $0.52 </font>
            </div>
        </div>
    
            <div> Please press any key to continue to the next movie.</div>
        ","arrowdown","ITI","","","","","","",""
"","","","","","html-keyboard-response","61","178718","0.0-7.8-1.8","5eb037fda64b1109eb4e2ff8","6573617f270241e5da3d355d","6576c015d1d93165c5d22444","668","./stimuli//pack_morph_shapes_1/cat_1/diff_2/ex_1_2_11.gif","arrowleft","response","ArrowLeft","11","1","2","test","true",""
"","","","","","html-keyboard-response","62","180219","0.0-7.8-2.8","5eb037fda64b1109eb4e2ff8","6573617f270241e5da3d355d","6576c015d1d93165c5d22444","null","<p> <font color=""green"" size=""5vw""> Correct category! </font> <br> <br> <font color=""green"" size=""8vw""> + $0.07 </font> </p>","null","feedback","","","","","","","0.59"
"","","","","","html-keyboard-response","63","180649","0.0-7.9-0.9","5eb037fda64b1109eb4e2ff8","6573617f270241e5da3d355d","6576c015d1d93165c5d22444","429","
            
        <div style=""text-align: center; position: fixed; top: 5vh; left: 40vw;"">
            <div style=""margin:0 auto; width: 20vw; top: 8vh; font-size: 2vw""> 
            <font color=""green""> Bonus : $0.59 </font>
            </div>
        </div>
    
            <div> Please press any key to continue to the next movie.</div>
        ","arrowdown","ITI","","","","","","",""
"","","","","","html-keyboard-response","64","181266","0.0-7.9-1.9","5eb037fda64b1109eb4e2ff8","6573617f270241e5da3d355d","6576c015d1d93165c5d22444","615","./stimuli//pack_morph_shapes_1/cat_1/diff_2/ex_1_2_13.gif","arrowleft","response","ArrowLeft","13","1","2","test","true",""
"","","","","","html-keyboard-response","65","182769","0.0-7.9-2.9","5eb037fda64b1109eb4e2ff8","6573617f270241e5da3d355d","6576c015d1d93165c5d22444","null","<p> <font color=""green"" size=""5vw""> Correct category! </font> <br> <br> <font color=""green"" size=""8vw""> + $0.07 </font> </p>","null","feedback","","","","","","","0.66"
"","","","","","html-keyboard-response","66","183194","0.0-7.10-0.10","5eb037fda64b1109eb4e2ff8","6573617f270241e5da3d355d","6576c015d1d93165c5d22444","434","
            
        <div style=""text-align: center; position: fixed; top: 5vh; left: 40vw;"">
            <div style=""margin:0 auto; width: 20vw; top: 8vh; font-size: 2vw""> 
            <font color=""green""> Bonus : $0.66 </font>
            </div>
        </div>
    
            <div> Please press any key to continue to the next movie.</div>
        ","arrowdown","ITI","","","","","","",""
"","","","","","html-keyboard-response","67","183890","0.0-7.10-1.10","5eb037fda64b1109eb4e2ff8","6573617f270241e5da3d355d","6576c015d1d93165c5d22444","695","./stimuli//pack_morph_shapes_1/cat_1/diff_3/ex_1_3_4.gif","arrowleft","response","ArrowLeft","4","1","3","test","true",""
"","","","","","html-keyboard-response","68","185400","0.0-7.10-2.10","5eb037fda64b1109eb4e2ff8","6573617f270241e5da3d355d","6576c015d1d93165c5d22444","null","<p> <font color=""green"" size=""5vw""> Correct category! </font> <br> <br> <font color=""green"" size=""8vw""> + $0.07 </font> </p>","null","feedback","","","","","","","0.73"
"","","","","","html-keyboard-response","69","185798","0.0-7.11-0.11","5eb037fda64b1109eb4e2ff8","6573617f270241e5da3d355d","6576c015d1d93165c5d22444","397","
            
        <div style=""text-align: center; position: fixed; top: 5vh; left: 40vw;"">
            <div style=""margin:0 auto; width: 20vw; top: 8vh; font-size: 2vw""> 
            <font color=""green""> Bonus : $0.73 </font>
            </div>
        </div>
    
            <div> Please press any key to continue to the next movie.</div>
        ","arrowdown","ITI","","","","","","",""
"","","","","","html-keyboard-response","70","187236","0.0-7.11-1.11","5eb037fda64b1109eb4e2ff8","6573617f270241e5da3d355d","6576c015d1d93165c5d22444","1435","./stimuli//pack_morph_shapes_1/cat_1/diff_3/ex_1_3_11.gif","arrowleft","response","ArrowLeft","11","1","3","test","true",""
"","","","","","html-keyboard-response","71","189436","0.0-7.11-2.11","5eb037fda64b1109eb4e2ff8","6573617f270241e5da3d355d","6576c015d1d93165c5d22444","null","<p> <font color=""green"" size=""5vw""> Correct category! </font> <br> <br> <font color=""green"" size=""8vw""> + $0.05 </font> </p>","null","feedback","","","","","","","0.78"
"","","","","","html-keyboard-response","72","189974","0.0-7.12-0.12","5eb037fda64b1109eb4e2ff8","6573617f270241e5da3d355d","6576c015d1d93165c5d22444","537","
            
        <div style=""text-align: center; position: fixed; top: 5vh; left: 40vw;"">
            <div style=""margin:0 auto; width: 20vw; top: 8vh; font-size: 2vw""> 
            <font color=""green""> Bonus : $0.78 </font>
            </div>
        </div>
    
            <div> Please press any key to continue to the next movie.</div>
        ","arrowdown","ITI","","","","","","",""
"","","","","","html-keyboard-response","73","190591","0.0-7.12-1.12","5eb037fda64b1109eb4e2ff8","6573617f270241e5da3d355d","6576c015d1d93165c5d22444","615","./stimuli//pack_morph_shapes_1/cat_2/diff_3/ex_2_3_6.gif","arrowright","response","ArrowRight","6","2","3","test","true",""
"","","","","","html-keyboard-response","74","192107","0.0-7.12-2.12","5eb037fda64b1109eb4e2ff8","6573617f270241e5da3d355d","6576c015d1d93165c5d22444","null","<p> <font color=""green"" size=""5vw""> Correct category! </font> <br> <br> <font color=""green"" size=""8vw""> + $0.07 </font> </p>","null","feedback","","","","","","","0.85"
"","","","","","html-keyboard-response","75","192518","0.0-7.13-0.13","5eb037fda64b1109eb4e2ff8","6573617f270241e5da3d355d","6576c015d1d93165c5d22444","410","
            
        <div style=""text-align: center; position: fixed; top: 5vh; left: 40vw;"">
            <div style=""margin:0 auto; width: 20vw; top: 8vh; font-size: 2vw""> 
            <font color=""green""> Bonus : $0.85 </font>
            </div>
        </div>
    
            <div> Please press any key to continue to the next movie.</div>
        ","arrowdown","ITI","","","","","","",""
"","","","","","html-keyboard-response","76","193390","0.0-7.13-1.13","5eb037fda64b1109eb4e2ff8","6573617f270241e5da3d355d","6576c015d1d93165c5d22444","871","./stimuli//pack_morph_shapes_1/cat_2/diff_3/ex_2_3_17.gif","arrowright","response","ArrowRight","17","2","3","test","true",""
"","","","","","html-keyboard-response","77","194898","0.0-7.13-2.13","5eb037fda64b1109eb4e2ff8","6573617f270241e5da3d355d","6576c015d1d93165c5d22444","null","<p> <font color=""green"" size=""5vw""> Correct category! </font> <br> <br> <font color=""green"" size=""8vw""> + $0.06 </font> </p>","null","feedback","","","","","","","0.91"
"","","","","","html-keyboard-response","78","195249","0.0-7.14-0.14","5eb037fda64b1109eb4e2ff8","6573617f270241e5da3d355d","6576c015d1d93165c5d22444","350","
            
        <div style=""text-align: center; position: fixed; top: 5vh; left: 40vw;"">
            <div style=""margin:0 auto; width: 20vw; top: 8vh; font-size: 2vw""> 
            <font color=""green""> Bonus : $0.91 </font>
            </div>
        </div>
    
            <div> Please press any key to continue to the next movie.</div>
        ","arrowdown","ITI","","","","","","",""
"","","","","","html-keyboard-response","79","195772","0.0-7.14-1.14","5eb037fda64b1109eb4e2ff8","6573617f270241e5da3d355d","6576c015d1d93165c5d22444","522","./stimuli//pack_morph_shapes_1/cat_2/diff_3/ex_2_3_1.gif","arrowleft","response","ArrowRight","1","2","3","test","false",""
"","","","","","html-keyboard-response","80","197290","0.0-7.14-2.14","5eb037fda64b1109eb4e2ff8","6573617f270241e5da3d355d","6576c015d1d93165c5d22444","null","<p> <font color=""red"" size=""5vw""> Wrong category! </font> <br> <br> <font color=""red"" size=""8vw""> - $0.05 </font> </p>","null","feedback","","","","","","","0.86"
"","","","","","html-keyboard-response","81","197787","0.0-7.15-0.15","5eb037fda64b1109eb4e2ff8","6573617f270241e5da3d355d","6576c015d1d93165c5d22444","496","
            
        <div style=""text-align: center; position: fixed; top: 5vh; left: 40vw;"">
            <div style=""margin:0 auto; width: 20vw; top: 8vh; font-size: 2vw""> 
            <font color=""green""> Bonus : $0.86 </font>
            </div>
        </div>
    
            <div> Please press any key to continue to the next movie.</div>
        ","arrowdown","ITI","","","","","","",""
"","","","","","html-keyboard-response","82","198404","0.0-7.15-1.15","5eb037fda64b1109eb4e2ff8","6573617f270241e5da3d355d","6576c015d1d93165c5d22444","615","./stimuli//pack_morph_shapes_1/cat_2/diff_4/ex_2_4_17.gif","arrowright","response","ArrowRight","17","2","4","test","true",""
"","","","","","html-keyboard-response","83","199905","0.0-7.15-2.15","5eb037fda64b1109eb4e2ff8","6573617f270241e5da3d355d","6576c015d1d93165c5d22444","null","<p> <font color=""green"" size=""5vw""> Correct category! </font> <br> <br> <font color=""green"" size=""8vw""> + $0.07 </font> </p>","null","feedback","","","","","","","0.93"
"","","","","","html-keyboard-response","84","200528","0.0-7.16-0.16","5eb037fda64b1109eb4e2ff8","6573617f270241e5da3d355d","6576c015d1d93165c5d22444","622","
            
        <div style=""text-align: center; position: fixed; top: 5vh; left: 40vw;"">
            <div style=""margin:0 auto; width: 20vw; top: 8vh; font-size: 2vw""> 
            <font color=""green""> Bonus : $0.93 </font>
            </div>
        </div>
    
            <div> Please press any key to continue to the next movie.</div>
        ","arrowdown","ITI","","","","","","",""
"","","","","","html-keyboard-response","85","201175","0.0-7.16-1.16","5eb037fda64b1109eb4e2ff8","6573617f270241e5da3d355d","6576c015d1d93165c5d22444","646","./stimuli//pack_morph_shapes_1/cat_1/diff_4/ex_1_4_10.gif","arrowleft","response","ArrowLeft","10","1","4","test","true",""
"","","","","","html-keyboard-response","86","202689","0.0-7.16-2.16","5eb037fda64b1109eb4e2ff8","6573617f270241e5da3d355d","6576c015d1d93165c5d22444","null","<p> <font color=""green"" size=""5vw""> Correct category! </font> <br> <br> <font color=""green"" size=""8vw""> + $0.07 </font> </p>","null","feedback","","","","","","","1"
"","","","","","html-keyboard-response","87","203298","0.0-7.17-0.17","5eb037fda64b1109eb4e2ff8","6573617f270241e5da3d355d","6576c015d1d93165c5d22444","608","
            
        <div style=""text-align: center; position: fixed; top: 5vh; left: 40vw;"">
            <div style=""margin:0 auto; width: 20vw; top: 8vh; font-size: 2vw""> 
            <font color=""green""> Bonus : $1 </font>
            </div>
        </div>
    
            <div> Please press any key to continue to the next movie.</div>
        ","arrowdown","ITI","","","","","","",""
"","","","","","html-keyboard-response","88","203788","0.0-7.17-1.17","5eb037fda64b1109eb4e2ff8","6573617f270241e5da3d355d","6576c015d1d93165c5d22444","489","./stimuli//pack_morph_shapes_1/cat_1/diff_4/ex_1_4_7.gif","arrowright","response","ArrowLeft","7","1","4","test","false",""
"","","","","","html-keyboard-response","89","205292","0.0-7.17-2.17","5eb037fda64b1109eb4e2ff8","6573617f270241e5da3d355d","6576c015d1d93165c5d22444","null","<p> <font color=""red"" size=""5vw""> Wrong category! </font> <br> <br> <font color=""red"" size=""8vw""> - $0.05 </font> </p>","null","feedback","","","","","","","0.95"
"","","","","","html-keyboard-response","90","205899","0.0-7.18-0.18","5eb037fda64b1109eb4e2ff8","6573617f270241e5da3d355d","6576c015d1d93165c5d22444","607","
            
        <div style=""text-align: center; position: fixed; top: 5vh; left: 40vw;"">
            <div style=""margin:0 auto; width: 20vw; top: 8vh; font-size: 2vw""> 
            <font color=""green""> Bonus : $0.95 </font>
            </div>
        </div>
    
            <div> Please press any key to continue to the next movie.</div>
        ","arrowdown","ITI","","","","","","",""
"","","","","","html-keyboard-response","91","206495","0.0-7.18-1.18","5eb037fda64b1109eb4e2ff8","6573617f270241e5da3d355d","6576c015d1d93165c5d22444","594","./stimuli//pack_morph_shapes_1/cat_2/diff_4/ex_2_4_14.gif","arrowleft","response","ArrowRight","14","2","4","test","false",""
"","","","","","html-keyboard-response","92","208004","0.0-7.18-2.18","5eb037fda64b1109eb4e2ff8","6573617f270241e5da3d355d","6576c015d1d93165c5d22444","null","<p> <font color=""red"" size=""5vw""> Wrong category! </font> <br> <br> <font color=""red"" size=""8vw""> - $0.05 </font> </p>","null","feedback","","","","","","","0.9"
"","","","","","html-keyboard-response","93","209416","0.0-7.19-0.19","5eb037fda64b1109eb4e2ff8","6573617f270241e5da3d355d","6576c015d1d93165c5d22444","1411","
            
        <div style=""text-align: center; position: fixed; top: 5vh; left: 40vw;"">
            <div style=""margin:0 auto; width: 20vw; top: 8vh; font-size: 2vw""> 
            <font color=""green""> Bonus : $0.9 </font>
            </div>
        </div>
    
            <div> Please press any key to continue to the next movie.</div>
        ","arrowdown","ITI","","","","","","",""
"","","","","","html-keyboard-response","94","209973","0.0-7.19-1.19","5eb037fda64b1109eb4e2ff8","6573617f270241e5da3d355d","6576c015d1d93165c5d22444","556","./stimuli//pack_morph_shapes_1/cat_2/diff_4/ex_2_4_4.gif","arrowright","response","ArrowRight","4","2","4","test","true",""
"","","","","","html-keyboard-response","95","212442","0.0-7.19-2.19","5eb037fda64b1109eb4e2ff8","6573617f270241e5da3d355d","6576c015d1d93165c5d22444","null","<p> <font color=""green"" size=""5vw""> Correct category! </font> <br> <br> <font color=""green"" size=""8vw""> + $0.08 </font> </p>","null","feedback","","","","","","","0.98"
"","","","","","html-keyboard-response","96","212931","0.0-7.20-0.20","5eb037fda64b1109eb4e2ff8","6573617f270241e5da3d355d","6576c015d1d93165c5d22444","488","
            
        <div style=""text-align: center; position: fixed; top: 5vh; left: 40vw;"">
            <div style=""margin:0 auto; width: 20vw; top: 8vh; font-size: 2vw""> 
            <font color=""green""> Bonus : $0.98 </font>
            </div>
        </div>
    
            <div> Please press any key to continue to the next movie.</div>
        ","arrowdown","ITI","","","","","","",""
"","","","","","html-keyboard-response","97","213712","0.0-7.20-1.20","5eb037fda64b1109eb4e2ff8","6573617f270241e5da3d355d","6576c015d1d93165c5d22444","781","./stimuli//pack_morph_shapes_1/cat_2/diff_3/ex_2_3_12.gif","arrowright","response","ArrowRight","12","2","3","test","true",""
"","","","","","html-keyboard-response","98","215213","0.0-7.20-2.20","5eb037fda64b1109eb4e2ff8","6573617f270241e5da3d355d","6576c015d1d93165c5d22444","null","<p> <font color=""green"" size=""5vw""> Correct category! </font> <br> <br> <font color=""green"" size=""8vw""> + $0.07 </font> </p>","null","feedback","","","","","","","1.05"
"","","","","","html-keyboard-response","99","216083","0.0-7.21-0.21","5eb037fda64b1109eb4e2ff8","6573617f270241e5da3d355d","6576c015d1d93165c5d22444","869","
            
        <div style=""text-align: center; position: fixed; top: 5vh; left: 40vw;"">
            <div style=""margin:0 auto; width: 20vw; top: 8vh; font-size: 2vw""> 
            <font color=""green""> Bonus : $1.05 </font>
            </div>
        </div>
    
            <div> Please press any key to continue to the next movie.</div>
        ","arrowdown","ITI","","","","","","",""
"","","","","","html-keyboard-response","100","216856","0.0-7.21-1.21","5eb037fda64b1109eb4e2ff8","6573617f270241e5da3d355d","6576c015d1d93165c5d22444","772","./stimuli//pack_morph_shapes_1/cat_1/diff_3/ex_1_3_17.gif","arrowleft","response","ArrowLeft","17","1","3","test","true",""
"","","","","","html-keyboard-response","101","218437","0.0-7.21-2.21","5eb037fda64b1109eb4e2ff8","6573617f270241e5da3d355d","6576c015d1d93165c5d22444","null","<p> <font color=""green"" size=""5vw""> Correct category! </font> <br> <br> <font color=""green"" size=""8vw""> + $0.07 </font> </p>","null","feedback","","","","","","","1.12"
"","","","","","html-keyboard-response","102","219047","0.0-7.22-0.22","5eb037fda64b1109eb4e2ff8","6573617f270241e5da3d355d","6576c015d1d93165c5d22444","609","
            
        <div style=""text-align: center; position: fixed; top: 5vh; left: 40vw;"">
            <div style=""margin:0 auto; width: 20vw; top: 8vh; font-size: 2vw""> 
            <font color=""green""> Bonus : $1.12 </font>
            </div>
        </div>
    
            <div> Please press any key to continue to the next movie.</div>
        ","arrowdown","ITI","","","","","","",""
"","","","","","html-keyboard-response","103","219846","0.0-7.22-1.22","5eb037fda64b1109eb4e2ff8","6573617f270241e5da3d355d","6576c015d1d93165c5d22444","798","./stimuli//pack_morph_shapes_1/cat_2/diff_3/ex_2_3_3.gif","arrowright","response","ArrowRight","3","2","3","test","true",""
"","","","","","html-keyboard-response","104","221355","0.0-7.22-2.22","5eb037fda64b1109eb4e2ff8","6573617f270241e5da3d355d","6576c015d1d93165c5d22444","null","<p> <font color=""green"" size=""5vw""> Correct category! </font> <br> <br> <font color=""green"" size=""8vw""> + $0.07 </font> </p>","null","feedback","","","","","","","1.19"
"","","","","","html-keyboard-response","105","222151","0.0-7.23-0.23","5eb037fda64b1109eb4e2ff8","6573617f270241e5da3d355d","6576c015d1d93165c5d22444","796","
            
        <div style=""text-align: center; position: fixed; top: 5vh; left: 40vw;"">
            <div style=""margin:0 auto; width: 20vw; top: 8vh; font-size: 2vw""> 
            <font color=""green""> Bonus : $1.19 </font>
            </div>
        </div>
    
            <div> Please press any key to continue to the next movie.</div>
        ","arrowdown","ITI","","","","","","",""
"","","","","","html-keyboard-response","106","222711","0.0-7.23-1.23","5eb037fda64b1109eb4e2ff8","6573617f270241e5da3d355d","6576c015d1d93165c5d22444","559","./stimuli//pack_morph_shapes_1/cat_1/diff_3/ex_1_3_15.gif","arrowleft","response","ArrowLeft","15","1","3","test","true",""
"","","","","","html-keyboard-response","107","224438","0.0-7.23-2.23","5eb037fda64b1109eb4e2ff8","6573617f270241e5da3d355d","6576c015d1d93165c5d22444","null","<p> <font color=""green"" size=""5vw""> Correct category! </font> <br> <br> <font color=""green"" size=""8vw""> + $0.08 </font> </p>","null","feedback","","","","","","","1.27"
"","","","","","html-keyboard-response","108","224926","0.0-7.24-0.24","5eb037fda64b1109eb4e2ff8","6573617f270241e5da3d355d","6576c015d1d93165c5d22444","487","
            
        <div style=""text-align: center; position: fixed; top: 5vh; left: 40vw;"">
            <div style=""margin:0 auto; width: 20vw; top: 8vh; font-size: 2vw""> 
            <font color=""green""> Bonus : $1.27 </font>
            </div>
        </div>
    
            <div> Please press any key to continue to the next movie.</div>
        ","arrowdown","ITI","","","","","","",""
"","","","","","html-keyboard-response","109","225648","0.0-7.24-1.24","5eb037fda64b1109eb4e2ff8","6573617f270241e5da3d355d","6576c015d1d93165c5d22444","722","./stimuli//pack_morph_shapes_1/cat_1/diff_3/ex_1_3_3.gif","arrowright","response","ArrowLeft","3","1","3","test","false",""
"","","","","","html-keyboard-response","110","227162","0.0-7.24-2.24","5eb037fda64b1109eb4e2ff8","6573617f270241e5da3d355d","6576c015d1d93165c5d22444","null","<p> <font color=""red"" size=""5vw""> Wrong category! </font> <br> <br> <font color=""red"" size=""8vw""> - $0.05 </font> </p>","null","feedback","","","","","","","1.22"
"","","","","","html-keyboard-response","111","227592","0.0-7.25-0.25","5eb037fda64b1109eb4e2ff8","6573617f270241e5da3d355d","6576c015d1d93165c5d22444","429","
            
        <div style=""text-align: center; position: fixed; top: 5vh; left: 40vw;"">
            <div style=""margin:0 auto; width: 20vw; top: 8vh; font-size: 2vw""> 
            <font color=""green""> Bonus : $1.22 </font>
            </div>
        </div>
    
            <div> Please press any key to continue to the next movie.</div>
        ","arrowdown","ITI","","","","","","",""
"","","","","","html-keyboard-response","112","228333","0.0-7.25-1.25","5eb037fda64b1109eb4e2ff8","6573617f270241e5da3d355d","6576c015d1d93165c5d22444","740","./stimuli//pack_morph_shapes_1/cat_1/diff_4/ex_1_4_7.gif","arrowleft","response","ArrowLeft","7","1","4","test","true",""
"","","","","","html-keyboard-response","113","229838","0.0-7.25-2.25","5eb037fda64b1109eb4e2ff8","6573617f270241e5da3d355d","6576c015d1d93165c5d22444","null","<p> <font color=""green"" size=""5vw""> Correct category! </font> <br> <br> <font color=""green"" size=""8vw""> + $0.07 </font> </p>","null","feedback","","","","","","","1.29"
"","","","","","html-keyboard-response","114","230501","0.0-7.26-0.26","5eb037fda64b1109eb4e2ff8","6573617f270241e5da3d355d","6576c015d1d93165c5d22444","662","
            
        <div style=""text-align: center; position: fixed; top: 5vh; left: 40vw;"">
            <div style=""margin:0 auto; width: 20vw; top: 8vh; font-size: 2vw""> 
            <font color=""green""> Bonus : $1.29 </font>
            </div>
        </div>
    
            <div> Please press any key to continue to the next movie.</div>
        ","arrowdown","ITI","","","","","","",""
"","","","","","html-keyboard-response","115","231373","0.0-7.26-1.26","5eb037fda64b1109eb4e2ff8","6573617f270241e5da3d355d","6576c015d1d93165c5d22444","871","./stimuli//pack_morph_shapes_1/cat_1/diff_4/ex_1_4_9.gif","arrowright","response","ArrowLeft","9","1","4","test","false",""
"","","","","","html-keyboard-response","116","232879","0.0-7.26-2.26","5eb037fda64b1109eb4e2ff8","6573617f270241e5da3d355d","6576c015d1d93165c5d22444","null","<p> <font color=""red"" size=""5vw""> Wrong category! </font> <br> <br> <font color=""red"" size=""8vw""> - $0.05 </font> </p>","null","feedback","","","","","","","1.24"
"","","","","","html-keyboard-response","117","233463","0.0-7.27-0.27","5eb037fda64b1109eb4e2ff8","6573617f270241e5da3d355d","6576c015d1d93165c5d22444","584","
            
        <div style=""text-align: center; position: fixed; top: 5vh; left: 40vw;"">
            <div style=""margin:0 auto; width: 20vw; top: 8vh; font-size: 2vw""> 
            <font color=""green""> Bonus : $1.24 </font>
            </div>
        </div>
    
            <div> Please press any key to continue to the next movie.</div>
        ","arrowdown","ITI","","","","","","",""
"","","","","","html-keyboard-response","118","234205","0.0-7.27-1.27","5eb037fda64b1109eb4e2ff8","6573617f270241e5da3d355d","6576c015d1d93165c5d22444","741","./stimuli//pack_morph_shapes_1/cat_1/diff_4/ex_1_4_10.gif","arrowleft","response","ArrowLeft","10","1","4","test","true",""
"","","","","","html-keyboard-response","119","236440","0.0-7.27-2.27","5eb037fda64b1109eb4e2ff8","6573617f270241e5da3d355d","6576c015d1d93165c5d22444","null","<p> <font color=""green"" size=""5vw""> Correct category! </font> <br> <br> <font color=""green"" size=""8vw""> + $0.07 </font> </p>","null","feedback","","","","","","","1.31"
"","","","","","html-keyboard-response","120","237039","0.0-7.28-0.28","5eb037fda64b1109eb4e2ff8","6573617f270241e5da3d355d","6576c015d1d93165c5d22444","598","
            
        <div style=""text-align: center; position: fixed; top: 5vh; left: 40vw;"">
            <div style=""margin:0 auto; width: 20vw; top: 8vh; font-size: 2vw""> 
            <font color=""green""> Bonus : $1.31 </font>
            </div>
        </div>
    
            <div> Please press any key to continue to the next movie.</div>
        ","arrowdown","ITI","","","","","","",""
"","","","","","html-keyboard-response","121","237730","0.0-7.28-1.28","5eb037fda64b1109eb4e2ff8","6573617f270241e5da3d355d","6576c015d1d93165c5d22444","690","./stimuli//pack_morph_shapes_1/cat_2/diff_4/ex_2_4_3.gif","arrowright","response","ArrowRight","3","2","4","test","true",""
"","","","","","html-keyboard-response","122","239231","0.0-7.28-2.28","5eb037fda64b1109eb4e2ff8","6573617f270241e5da3d355d","6576c015d1d93165c5d22444","null","<p> <font color=""green"" size=""5vw""> Correct category! </font> <br> <br> <font color=""green"" size=""8vw""> + $0.07 </font> </p>","null","feedback","","","","","","","1.38"
"","","","","","html-keyboard-response","123","239635","0.0-7.29-0.29","5eb037fda64b1109eb4e2ff8","6573617f270241e5da3d355d","6576c015d1d93165c5d22444","404","
            
        <div style=""text-align: center; position: fixed; top: 5vh; left: 40vw;"">
            <div style=""margin:0 auto; width: 20vw; top: 8vh; font-size: 2vw""> 
            <font color=""green""> Bonus : $1.38 </font>
            </div>
        </div>
    
            <div> Please press any key to continue to the next movie.</div>
        ","arrowdown","ITI","","","","","","",""
"","","","","","html-keyboard-response","124","240376","0.0-7.29-1.29","5eb037fda64b1109eb4e2ff8","6573617f270241e5da3d355d","6576c015d1d93165c5d22444","740","./stimuli//pack_morph_shapes_1/cat_2/diff_4/ex_2_4_5.gif","arrowright","response","ArrowRight","5","2","4","test","true",""
"","","","","","html-keyboard-response","125","241882","0.0-7.29-2.29","5eb037fda64b1109eb4e2ff8","6573617f270241e5da3d355d","6576c015d1d93165c5d22444","null","<p> <font color=""green"" size=""5vw""> Correct category! </font> <br> <br> <font color=""green"" size=""8vw""> + $0.07 </font> </p>","null","feedback","","","","","","","1.45"
"","","","","","html-keyboard-response","126","242468","0.0-7.30-0.30","5eb037fda64b1109eb4e2ff8","6573617f270241e5da3d355d","6576c015d1d93165c5d22444","586","
            
        <div style=""text-align: center; position: fixed; top: 5vh; left: 40vw;"">
            <div style=""margin:0 auto; width: 20vw; top: 8vh; font-size: 2vw""> 
            <font color=""green""> Bonus : $1.45 </font>
            </div>
        </div>
    
            <div> Please press any key to continue to the next movie.</div>
        ","arrowdown","ITI","","","","","","",""
"","","","","","html-keyboard-response","127","243334","0.0-7.30-1.30","5eb037fda64b1109eb4e2ff8","6573617f270241e5da3d355d","6576c015d1d93165c5d22444","853","./stimuli//pack_morph_shapes_1/cat_1/diff_5/ex_1_5_4.gif","arrowright","response","ArrowLeft","4","1","5","test","false",""
"","","","","","html-keyboard-response","128","244849","0.0-7.30-2.30","5eb037fda64b1109eb4e2ff8","6573617f270241e5da3d355d","6576c015d1d93165c5d22444","null","<p> <font color=""red"" size=""5vw""> Wrong category! </font> <br> <br> <font color=""red"" size=""8vw""> - $0.05 </font> </p>","null","feedback","","","","","","","1.4"
"","","","","","html-keyboard-response","129","245364","0.0-7.31-0.31","5eb037fda64b1109eb4e2ff8","6573617f270241e5da3d355d","6576c015d1d93165c5d22444","514","
            
        <div style=""text-align: center; position: fixed; top: 5vh; left: 40vw;"">
            <div style=""margin:0 auto; width: 20vw; top: 8vh; font-size: 2vw""> 
            <font color=""green""> Bonus : $1.4 </font>
            </div>
        </div>
    
            <div> Please press any key to continue to the next movie.</div>
        ","arrowdown","ITI","","","","","","",""
"","","","","","html-keyboard-response","130","246032","0.0-7.31-1.31","5eb037fda64b1109eb4e2ff8","6573617f270241e5da3d355d","6576c015d1d93165c5d22444","667","./stimuli//pack_morph_shapes_1/cat_1/diff_5/ex_1_5_15.gif","arrowright","response","ArrowLeft","15","1","5","test","false",""
"","","","","","html-keyboard-response","131","248444","0.0-7.31-2.31","5eb037fda64b1109eb4e2ff8","6573617f270241e5da3d355d","6576c015d1d93165c5d22444","null","<p> <font color=""red"" size=""5vw""> Wrong category! </font> <br> <br> <font color=""red"" size=""8vw""> - $0.05 </font> </p>","null","feedback","","","","","","","1.35"
"","","","","","html-keyboard-response","132","248962","0.0-7.32-0.32","5eb037fda64b1109eb4e2ff8","6573617f270241e5da3d355d","6576c015d1d93165c5d22444","517","
            
        <div style=""text-align: center; position: fixed; top: 5vh; left: 40vw;"">
            <div style=""margin:0 auto; width: 20vw; top: 8vh; font-size: 2vw""> 
            <font color=""green""> Bonus : $1.35 </font>
            </div>
        </div>
    
            <div> Please press any key to continue to the next movie.</div>
        ","arrowdown","ITI","","","","","","",""
"","","","","","html-keyboard-response","133","249863","0.0-7.32-1.32","5eb037fda64b1109eb4e2ff8","6573617f270241e5da3d355d","6576c015d1d93165c5d22444","900","./stimuli//pack_morph_shapes_1/cat_1/diff_5/ex_1_5_14.gif","arrowright","response","ArrowLeft","14","1","5","test","false",""
"","","","","","html-keyboard-response","134","251379","0.0-7.32-2.32","5eb037fda64b1109eb4e2ff8","6573617f270241e5da3d355d","6576c015d1d93165c5d22444","null","<p> <font color=""red"" size=""5vw""> Wrong category! </font> <br> <br> <font color=""red"" size=""8vw""> - $0.05 </font> </p>","null","feedback","","","","","","","1.3"
"","","","","","html-keyboard-response","135","251834","0.0-7.33-0.33","5eb037fda64b1109eb4e2ff8","6573617f270241e5da3d355d","6576c015d1d93165c5d22444","455","
            
        <div style=""text-align: center; position: fixed; top: 5vh; left: 40vw;"">
            <div style=""margin:0 auto; width: 20vw; top: 8vh; font-size: 2vw""> 
            <font color=""green""> Bonus : $1.3 </font>
            </div>
        </div>
    
            <div> Please press any key to continue to the next movie.</div>
        ","arrowdown","ITI","","","","","","",""
"","","","","","html-keyboard-response","136","252556","0.0-7.33-1.33","5eb037fda64b1109eb4e2ff8","6573617f270241e5da3d355d","6576c015d1d93165c5d22444","720","./stimuli//pack_morph_shapes_1/cat_2/diff_5/ex_2_5_17.gif","arrowleft","response","ArrowRight","17","2","5","test","false",""
"","","","","","html-keyboard-response","137","254442","0.0-7.33-2.33","5eb037fda64b1109eb4e2ff8","6573617f270241e5da3d355d","6576c015d1d93165c5d22444","null","<p> <font color=""red"" size=""5vw""> Wrong category! </font> <br> <br> <font color=""red"" size=""8vw""> - $0.05 </font> </p>","null","feedback","","","","","","","1.25"
"","","","","","html-keyboard-response","138","255100","0.0-7.34-0.34","5eb037fda64b1109eb4e2ff8","6573617f270241e5da3d355d","6576c015d1d93165c5d22444","657","
            
        <div style=""text-align: center; position: fixed; top: 5vh; left: 40vw;"">
            <div style=""margin:0 auto; width: 20vw; top: 8vh; font-size: 2vw""> 
            <font color=""green""> Bonus : $1.25 </font>
            </div>
        </div>
    
            <div> Please press any key to continue to the next movie.</div>
        ","arrowdown","ITI","","","","","","",""
"","","","","","html-keyboard-response","139","255888","0.0-7.34-1.34","5eb037fda64b1109eb4e2ff8","6573617f270241e5da3d355d","6576c015d1d93165c5d22444","787","./stimuli//pack_morph_shapes_1/cat_1/diff_5/ex_1_5_10.gif","arrowright","response","ArrowLeft","10","1","5","test","false",""
"","","","","","html-keyboard-response","140","257397","0.0-7.34-2.34","5eb037fda64b1109eb4e2ff8","6573617f270241e5da3d355d","6576c015d1d93165c5d22444","null","<p> <font color=""red"" size=""5vw""> Wrong category! </font> <br> <br> <font color=""red"" size=""8vw""> - $0.05 </font> </p>","null","feedback","","","","","","","1.2"
"","","","","","html-keyboard-response","141","257782","0.0-7.35-0.35","5eb037fda64b1109eb4e2ff8","6573617f270241e5da3d355d","6576c015d1d93165c5d22444","384","
            
        <div style=""text-align: center; position: fixed; top: 5vh; left: 40vw;"">
            <div style=""margin:0 auto; width: 20vw; top: 8vh; font-size: 2vw""> 
            <font color=""green""> Bonus : $1.2 </font>
            </div>
        </div>
    
            <div> Please press any key to continue to the next movie.</div>
        ","arrowdown","ITI","","","","","","",""
"","","","","","html-keyboard-response","142","258420","0.0-7.35-1.35","5eb037fda64b1109eb4e2ff8","6573617f270241e5da3d355d","6576c015d1d93165c5d22444","636","./stimuli//pack_morph_shapes_1/cat_2/diff_4/ex_2_4_10.gif","arrowleft","response","ArrowRight","10","2","4","test","false",""
"","","","","","html-keyboard-response","143","259933","0.0-7.35-2.35","5eb037fda64b1109eb4e2ff8","6573617f270241e5da3d355d","6576c015d1d93165c5d22444","null","<p> <font color=""red"" size=""5vw""> Wrong category! </font> <br> <br> <font color=""red"" size=""8vw""> - $0.05 </font> </p>","null","feedback","","","","","","","1.15"
"","","","","","html-keyboard-response","144","262884","0.0-7.36-0.36","5eb037fda64b1109eb4e2ff8","6573617f270241e5da3d355d","6576c015d1d93165c5d22444","2949","
            
        <div style=""text-align: center; position: fixed; top: 5vh; left: 40vw;"">
            <div style=""margin:0 auto; width: 20vw; top: 8vh; font-size: 2vw""> 
            <font color=""green""> Bonus : $1.15 </font>
            </div>
        </div>
    
            <div> Please press any key to continue to the next movie.</div>
        ","arrowdown","ITI","","","","","","",""
"","","","","","html-keyboard-response","145","263695","0.0-7.36-1.36","5eb037fda64b1109eb4e2ff8","6573617f270241e5da3d355d","6576c015d1d93165c5d22444","811","./stimuli//pack_morph_shapes_1/cat_1/diff_4/ex_1_4_5.gif","arrowright","response","ArrowLeft","5","1","4","test","false",""
"","","","","","html-keyboard-response","146","265205","0.0-7.36-2.36","5eb037fda64b1109eb4e2ff8","6573617f270241e5da3d355d","6576c015d1d93165c5d22444","null","<p> <font color=""red"" size=""5vw""> Wrong category! </font> <br> <br> <font color=""red"" size=""8vw""> - $0.05 </font> </p>","null","feedback","","","","","","","1.1"
"","","","","","html-keyboard-response","147","265277","0.0-7.37-0.37","5eb037fda64b1109eb4e2ff8","6573617f270241e5da3d355d","6576c015d1d93165c5d22444","71","
            
        <div style=""text-align: center; position: fixed; top: 5vh; left: 40vw;"">
            <div style=""margin:0 auto; width: 20vw; top: 8vh; font-size: 2vw""> 
            <font color=""green""> Bonus : $1.1 </font>
            </div>
        </div>
    
            <div> Please press any key to continue to the next movie.</div>
        ","arrowdown","ITI","","","","","","",""
"","","","","","html-keyboard-response","148","266621","0.0-7.37-1.37","5eb037fda64b1109eb4e2ff8","6573617f270241e5da3d355d","6576c015d1d93165c5d22444","1343","./stimuli//pack_morph_shapes_1/cat_1/diff_4/ex_1_4_15.gif","arrowleft","response","ArrowLeft","15","1","4","test","true",""
"","","","","","html-keyboard-response","149","268441","0.0-7.37-2.37","5eb037fda64b1109eb4e2ff8","6573617f270241e5da3d355d","6576c015d1d93165c5d22444","null","<p> <font color=""green"" size=""5vw""> Correct category! </font> <br> <br> <font color=""green"" size=""8vw""> + $0.05 </font> </p>","null","feedback","","","","","","","1.15"
"","","","","","html-keyboard-response","150","269058","0.0-7.38-0.38","5eb037fda64b1109eb4e2ff8","6573617f270241e5da3d355d","6576c015d1d93165c5d22444","615","
            
        <div style=""text-align: center; position: fixed; top: 5vh; left: 40vw;"">
            <div style=""margin:0 auto; width: 20vw; top: 8vh; font-size: 2vw""> 
            <font color=""green""> Bonus : $1.15 </font>
            </div>
        </div>
    
            <div> Please press any key to continue to the next movie.</div>
        ","arrowdown","ITI","","","","","","",""
"","","","","","html-keyboard-response","151","269580","0.0-7.38-1.38","5eb037fda64b1109eb4e2ff8","6573617f270241e5da3d355d","6576c015d1d93165c5d22444","522","./stimuli//pack_morph_shapes_1/cat_2/diff_4/ex_2_4_5.gif","arrowleft","response","ArrowRight","5","2","4","test","false",""
"","","","","","html-keyboard-response","152","271095","0.0-7.38-2.38","5eb037fda64b1109eb4e2ff8","6573617f270241e5da3d355d","6576c015d1d93165c5d22444","null","<p> <font color=""red"" size=""5vw""> Wrong category! </font> <br> <br> <font color=""red"" size=""8vw""> - $0.05 </font> </p>","null","feedback","","","","","","","1.1"
"","","","","","html-keyboard-response","153","271812","0.0-7.39-0.39","5eb037fda64b1109eb4e2ff8","6573617f270241e5da3d355d","6576c015d1d93165c5d22444","717","
            
        <div style=""text-align: center; position: fixed; top: 5vh; left: 40vw;"">
            <div style=""margin:0 auto; width: 20vw; top: 8vh; font-size: 2vw""> 
            <font color=""green""> Bonus : $1.1 </font>
            </div>
        </div>
    
            <div> Please press any key to continue to the next movie.</div>
        ","arrowdown","ITI","","","","","","",""
"","","","","","html-keyboard-response","154","273049","0.0-7.39-1.39","5eb037fda64b1109eb4e2ff8","6573617f270241e5da3d355d","6576c015d1d93165c5d22444","1236","./stimuli//pack_morph_shapes_1/cat_1/diff_4/ex_1_4_1.gif","arrowleft","response","ArrowLeft","1","1","4","test","true",""
"","","","","","html-keyboard-response","155","275446","0.0-7.39-2.39","5eb037fda64b1109eb4e2ff8","6573617f270241e5da3d355d","6576c015d1d93165c5d22444","null","<p> <font color=""green"" size=""5vw""> Correct category! </font> <br> <br> <font color=""green"" size=""8vw""> + $0.05 </font> </p>","null","feedback","","","","","","","1.15"
"","","","","","html-keyboard-response","156","276174","0.0-7.40-0.40","5eb037fda64b1109eb4e2ff8","6573617f270241e5da3d355d","6576c015d1d93165c5d22444","727","
            
        <div style=""text-align: center; position: fixed; top: 5vh; left: 40vw;"">
            <div style=""margin:0 auto; width: 20vw; top: 8vh; font-size: 2vw""> 
            <font color=""green""> Bonus : $1.15 </font>
            </div>
        </div>
    
            <div> Please press any key to continue to the next movie.</div>
        ","arrowdown","ITI","","","","","","",""
"","","","","","html-keyboard-response","157","277117","0.0-7.40-1.40","5eb037fda64b1109eb4e2ff8","6573617f270241e5da3d355d","6576c015d1d93165c5d22444","943","./stimuli//pack_morph_shapes_1/cat_2/diff_3/ex_2_3_13.gif","arrowright","response","ArrowRight","13","2","3","test","true",""
"","","","","","html-keyboard-response","158","278632","0.0-7.40-2.40","5eb037fda64b1109eb4e2ff8","6573617f270241e5da3d355d","6576c015d1d93165c5d22444","null","<p> <font color=""green"" size=""5vw""> Correct category! </font> <br> <br> <font color=""green"" size=""8vw""> + $0.06 </font> </p>","null","feedback","","","","","","","1.21"
"","","","","","html-keyboard-response","159","279359","0.0-7.41-0.41","5eb037fda64b1109eb4e2ff8","6573617f270241e5da3d355d","6576c015d1d93165c5d22444","726","
            
        <div style=""text-align: center; position: fixed; top: 5vh; left: 40vw;"">
            <div style=""margin:0 auto; width: 20vw; top: 8vh; font-size: 2vw""> 
            <font color=""green""> Bonus : $1.21 </font>
            </div>
        </div>
    
            <div> Please press any key to continue to the next movie.</div>
        ","arrowdown","ITI","","","","","","",""
"","","","","","html-keyboard-response","160","280068","0.0-7.41-1.41","5eb037fda64b1109eb4e2ff8","6573617f270241e5da3d355d","6576c015d1d93165c5d22444","708","./stimuli//pack_morph_shapes_1/cat_1/diff_3/ex_1_3_17.gif","arrowleft","response","ArrowLeft","17","1","3","test","true",""
"","","","","","html-keyboard-response","161","282450","0.0-7.41-2.41","5eb037fda64b1109eb4e2ff8","6573617f270241e5da3d355d","6576c015d1d93165c5d22444","null","<p> <font color=""green"" size=""5vw""> Correct category! </font> <br> <br> <font color=""green"" size=""8vw""> + $0.07 </font> </p>","null","feedback","","","","","","","1.28"
"","","","","","html-keyboard-response","162","282839","0.0-7.42-0.42","5eb037fda64b1109eb4e2ff8","6573617f270241e5da3d355d","6576c015d1d93165c5d22444","389","
            
        <div style=""text-align: center; position: fixed; top: 5vh; left: 40vw;"">
            <div style=""margin:0 auto; width: 20vw; top: 8vh; font-size: 2vw""> 
            <font color=""green""> Bonus : $1.28 </font>
            </div>
        </div>
    
            <div> Please press any key to continue to the next movie.</div>
        ","arrowdown","ITI","","","","","","",""
"","","","","","html-keyboard-response","163","283558","0.0-7.42-1.42","5eb037fda64b1109eb4e2ff8","6573617f270241e5da3d355d","6576c015d1d93165c5d22444","718","./stimuli//pack_morph_shapes_1/cat_1/diff_3/ex_1_3_7.gif","arrowleft","response","ArrowLeft","7","1","3","test","true",""
"","","","","","html-keyboard-response","164","285075","0.0-7.42-2.42","5eb037fda64b1109eb4e2ff8","6573617f270241e5da3d355d","6576c015d1d93165c5d22444","null","<p> <font color=""green"" size=""5vw""> Correct category! </font> <br> <br> <font color=""green"" size=""8vw""> + $0.07 </font> </p>","null","feedback","","","","","","","1.35"
"","","","","","html-keyboard-response","165","285952","0.0-7.43-0.43","5eb037fda64b1109eb4e2ff8","6573617f270241e5da3d355d","6576c015d1d93165c5d22444","877","
            
        <div style=""text-align: center; position: fixed; top: 5vh; left: 40vw;"">
            <div style=""margin:0 auto; width: 20vw; top: 8vh; font-size: 2vw""> 
            <font color=""green""> Bonus : $1.35 </font>
            </div>
        </div>
    
            <div> Please press any key to continue to the next movie.</div>
        ","arrowdown","ITI","","","","","","",""
"","","","","","html-keyboard-response","166","286773","0.0-7.43-1.43","5eb037fda64b1109eb4e2ff8","6573617f270241e5da3d355d","6576c015d1d93165c5d22444","820","./stimuli//pack_morph_shapes_1/cat_1/diff_3/ex_1_3_5.gif","arrowleft","response","ArrowLeft","5","1","3","test","true",""
"","","","","","html-keyboard-response","167","288443","0.0-7.43-2.43","5eb037fda64b1109eb4e2ff8","6573617f270241e5da3d355d","6576c015d1d93165c5d22444","null","<p> <font color=""green"" size=""5vw""> Correct category! </font> <br> <br> <font color=""green"" size=""8vw""> + $0.07 </font> </p>","null","feedback","","","","","","","1.42"
"","","","","","html-keyboard-response","168","288894","0.0-7.44-0.44","5eb037fda64b1109eb4e2ff8","6573617f270241e5da3d355d","6576c015d1d93165c5d22444","450","
            
        <div style=""text-align: center; position: fixed; top: 5vh; left: 40vw;"">
            <div style=""margin:0 auto; width: 20vw; top: 8vh; font-size: 2vw""> 
            <font color=""green""> Bonus : $1.42 </font>
            </div>
        </div>
    
            <div> Please press any key to continue to the next movie.</div>
        ","arrowdown","ITI","","","","","","",""
"","","","","","html-keyboard-response","169","289752","0.0-7.44-1.44","5eb037fda64b1109eb4e2ff8","6573617f270241e5da3d355d","6576c015d1d93165c5d22444","857","./stimuli//pack_morph_shapes_1/cat_1/diff_3/ex_1_3_12.gif","arrowright","response","ArrowLeft","12","1","3","test","false",""
"","","","","","html-keyboard-response","170","291262","0.0-7.44-2.44","5eb037fda64b1109eb4e2ff8","6573617f270241e5da3d355d","6576c015d1d93165c5d22444","null","<p> <font color=""red"" size=""5vw""> Wrong category! </font> <br> <br> <font color=""red"" size=""8vw""> - $0.05 </font> </p>","null","feedback","","","","","","","1.37"
"","","","","","html-keyboard-response","171","291748","0.0-7.45-0.45","5eb037fda64b1109eb4e2ff8","6573617f270241e5da3d355d","6576c015d1d93165c5d22444","485","
            
        <div style=""text-align: center; position: fixed; top: 5vh; left: 40vw;"">
            <div style=""margin:0 auto; width: 20vw; top: 8vh; font-size: 2vw""> 
            <font color=""green""> Bonus : $1.37 </font>
            </div>
        </div>
    
            <div> Please press any key to continue to the next movie.</div>
        ","arrowdown","ITI","","","","","","",""
"","","","","","html-keyboard-response","172","292341","0.0-7.45-1.45","5eb037fda64b1109eb4e2ff8","6573617f270241e5da3d355d","6576c015d1d93165c5d22444","591","./stimuli//pack_morph_shapes_1/cat_2/diff_4/ex_2_4_3.gif","arrowleft","response","ArrowRight","3","2","4","test","false",""
"","","","","","html-keyboard-response","173","293846","0.0-7.45-2.45","5eb037fda64b1109eb4e2ff8","6573617f270241e5da3d355d","6576c015d1d93165c5d22444","null","<p> <font color=""red"" size=""5vw""> Wrong category! </font> <br> <br> <font color=""red"" size=""8vw""> - $0.05 </font> </p>","null","feedback","","","","","","","1.32"
"","","","","","html-keyboard-response","174","294473","0.0-7.46-0.46","5eb037fda64b1109eb4e2ff8","6573617f270241e5da3d355d","6576c015d1d93165c5d22444","626","
            
        <div style=""text-align: center; position: fixed; top: 5vh; left: 40vw;"">
            <div style=""margin:0 auto; width: 20vw; top: 8vh; font-size: 2vw""> 
            <font color=""green""> Bonus : $1.32 </font>
            </div>
        </div>
    
            <div> Please press any key to continue to the next movie.</div>
        ","arrowdown","ITI","","","","","","",""
"","","","","","html-keyboard-response","175","295251","0.0-7.46-1.46","5eb037fda64b1109eb4e2ff8","6573617f270241e5da3d355d","6576c015d1d93165c5d22444","778","./stimuli//pack_morph_shapes_1/cat_2/diff_4/ex_2_4_12.gif","arrowleft","response","ArrowRight","12","2","4","test","false",""
"","","","","","html-keyboard-response","176","296767","0.0-7.46-2.46","5eb037fda64b1109eb4e2ff8","6573617f270241e5da3d355d","6576c015d1d93165c5d22444","null","<p> <font color=""red"" size=""5vw""> Wrong category! </font> <br> <br> <font color=""red"" size=""8vw""> - $0.05 </font> </p>","null","feedback","","","","","","","1.27"
"","","","","","html-keyboard-response","177","297192","0.0-7.47-0.47","5eb037fda64b1109eb4e2ff8","6573617f270241e5da3d355d","6576c015d1d93165c5d22444","424","
            
        <div style=""text-align: center; position: fixed; top: 5vh; left: 40vw;"">
            <div style=""margin:0 auto; width: 20vw; top: 8vh; font-size: 2vw""> 
            <font color=""green""> Bonus : $1.27 </font>
            </div>
        </div>
    
            <div> Please press any key to continue to the next movie.</div>
        ","arrowdown","ITI","","","","","","",""
"","","","","","html-keyboard-response","178","297883","0.0-7.47-1.47","5eb037fda64b1109eb4e2ff8","6573617f270241e5da3d355d","6576c015d1d93165c5d22444","689","./stimuli//pack_morph_shapes_1/cat_2/diff_4/ex_2_4_4.gif","arrowright","response","ArrowRight","4","2","4","test","true",""
"","","","","","html-keyboard-response","179","299387","0.0-7.47-2.47","5eb037fda64b1109eb4e2ff8","6573617f270241e5da3d355d","6576c015d1d93165c5d22444","null","<p> <font color=""green"" size=""5vw""> Correct category! </font> <br> <br> <font color=""green"" size=""8vw""> + $0.07 </font> </p>","null","feedback","","","","","","","1.34"
"","","","","","html-keyboard-response","180","299897","0.0-7.48-0.48","5eb037fda64b1109eb4e2ff8","6573617f270241e5da3d355d","6576c015d1d93165c5d22444","510","
            
        <div style=""text-align: center; position: fixed; top: 5vh; left: 40vw;"">
            <div style=""margin:0 auto; width: 20vw; top: 8vh; font-size: 2vw""> 
            <font color=""green""> Bonus : $1.34 </font>
            </div>
        </div>
    
            <div> Please press any key to continue to the next movie.</div>
        ","arrowdown","ITI","","","","","","",""
"","","","","","html-keyboard-response","181","300481","0.0-7.48-1.48","5eb037fda64b1109eb4e2ff8","6573617f270241e5da3d355d","6576c015d1d93165c5d22444","583","./stimuli//pack_morph_shapes_1/cat_2/diff_4/ex_2_4_12.gif","arrowright","response","ArrowRight","12","2","4","test","true",""
"","","","","","html-keyboard-response","182","301984","0.0-7.48-2.48","5eb037fda64b1109eb4e2ff8","6573617f270241e5da3d355d","6576c015d1d93165c5d22444","null","<p> <font color=""green"" size=""5vw""> Correct category! </font> <br> <br> <font color=""green"" size=""8vw""> + $0.07 </font> </p>","null","feedback","","","","","","","1.41"
"","","","","","html-keyboard-response","183","302453","0.0-7.49-0.49","5eb037fda64b1109eb4e2ff8","6573617f270241e5da3d355d","6576c015d1d93165c5d22444","468","
            
        <div style=""text-align: center; position: fixed; top: 5vh; left: 40vw;"">
            <div style=""margin:0 auto; width: 20vw; top: 8vh; font-size: 2vw""> 
            <font color=""green""> Bonus : $1.41 </font>
            </div>
        </div>
    
            <div> Please press any key to continue to the next movie.</div>
        ","arrowdown","ITI","","","","","","",""
"","","","","","html-keyboard-response","184","303114","0.0-7.49-1.49","5eb037fda64b1109eb4e2ff8","6573617f270241e5da3d355d","6576c015d1d93165c5d22444","659","./stimuli//pack_morph_shapes_1/cat_2/diff_4/ex_2_4_14.gif","arrowright","response","ArrowRight","14","2","4","test","true",""
"","","","","","html-keyboard-response","185","304621","0.0-7.49-2.49","5eb037fda64b1109eb4e2ff8","6573617f270241e5da3d355d","6576c015d1d93165c5d22444","null","<p> <font color=""green"" size=""5vw""> Correct category! </font> <br> <br> <font color=""green"" size=""8vw""> + $0.07 </font> </p>","null","feedback","","","","","","","1.48"
"","","","","","html-keyboard-response","186","304773","0.0-7.50-0.50","5eb037fda64b1109eb4e2ff8","6573617f270241e5da3d355d","6576c015d1d93165c5d22444","151","
            
        <div style=""text-align: center; position: fixed; top: 5vh; left: 40vw;"">
            <div style=""margin:0 auto; width: 20vw; top: 8vh; font-size: 2vw""> 
            <font color=""green""> Bonus : $1.48 </font>
            </div>
        </div>
    
            <div> Please press any key to continue to the next movie.</div>
        ","arrowright","ITI","","","","","","",""
"","","","","","html-keyboard-response","187","305770","0.0-7.50-1.50","5eb037fda64b1109eb4e2ff8","6573617f270241e5da3d355d","6576c015d1d93165c5d22444","996","./stimuli//pack_morph_shapes_1/cat_1/diff_3/ex_1_3_3.gif","arrowleft","response","ArrowLeft","3","1","3","test","true",""
"","","","","","html-keyboard-response","188","307278","0.0-7.50-2.50","5eb037fda64b1109eb4e2ff8","6573617f270241e5da3d355d","6576c015d1d93165c5d22444","null","<p> <font color=""green"" size=""5vw""> Correct category! </font> <br> <br> <font color=""green"" size=""8vw""> + $0.06 </font> </p>","null","feedback","","","","","","","1.54"
"","","","","","html-keyboard-response","189","307825","0.0-7.51-0.51","5eb037fda64b1109eb4e2ff8","6573617f270241e5da3d355d","6576c015d1d93165c5d22444","547","
            
        <div style=""text-align: center; position: fixed; top: 5vh; left: 40vw;"">
            <div style=""margin:0 auto; width: 20vw; top: 8vh; font-size: 2vw""> 
            <font color=""green""> Bonus : $1.54 </font>
            </div>
        </div>
    
            <div> Please press any key to continue to the next movie.</div>
        ","arrowdown","ITI","","","","","","",""
"","","","","","html-keyboard-response","190","308612","0.0-7.51-1.51","5eb037fda64b1109eb4e2ff8","6573617f270241e5da3d355d","6576c015d1d93165c5d22444","786","./stimuli//pack_morph_shapes_1/cat_2/diff_3/ex_2_3_2.gif","arrowleft","response","ArrowRight","2","2","3","test","false",""
"","","","","","html-keyboard-response","191","310443","0.0-7.51-2.51","5eb037fda64b1109eb4e2ff8","6573617f270241e5da3d355d","6576c015d1d93165c5d22444","null","<p> <font color=""red"" size=""5vw""> Wrong category! </font> <br> <br> <font color=""red"" size=""8vw""> - $0.05 </font> </p>","null","feedback","","","","","","","1.49"
"","","","","","html-keyboard-response","192","310849","0.0-7.52-0.52","5eb037fda64b1109eb4e2ff8","6573617f270241e5da3d355d","6576c015d1d93165c5d22444","406","
            
        <div style=""text-align: center; position: fixed; top: 5vh; left: 40vw;"">
            <div style=""margin:0 auto; width: 20vw; top: 8vh; font-size: 2vw""> 
            <font color=""green""> Bonus : $1.49 </font>
            </div>
        </div>
    
            <div> Please press any key to continue to the next movie.</div>
        ","arrowdown","ITI","","","","","","",""
"","","","","","html-keyboard-response","193","311616","0.0-7.52-1.52","5eb037fda64b1109eb4e2ff8","6573617f270241e5da3d355d","6576c015d1d93165c5d22444","766","./stimuli//pack_morph_shapes_1/cat_2/diff_3/ex_2_3_11.gif","arrowright","response","ArrowRight","11","2","3","test","true",""
"","","","","","html-keyboard-response","194","313127","0.0-7.52-2.52","5eb037fda64b1109eb4e2ff8","6573617f270241e5da3d355d","6576c015d1d93165c5d22444","null","<p> <font color=""green"" size=""5vw""> Correct category! </font> <br> <br> <font color=""green"" size=""8vw""> + $0.07 </font> </p>","null","feedback","","","","","","","1.56"
"","","","","","html-keyboard-response","195","313437","0.0-7.53-0.53","5eb037fda64b1109eb4e2ff8","6573617f270241e5da3d355d","6576c015d1d93165c5d22444","310","
            
        <div style=""text-align: center; position: fixed; top: 5vh; left: 40vw;"">
            <div style=""margin:0 auto; width: 20vw; top: 8vh; font-size: 2vw""> 
            <font color=""green""> Bonus : $1.56 </font>
            </div>
        </div>
    
            <div> Please press any key to continue to the next movie.</div>
        ","arrowdown","ITI","","","","","","",""
"","","","","","html-keyboard-response","196","314025","0.0-7.53-1.53","5eb037fda64b1109eb4e2ff8","6573617f270241e5da3d355d","6576c015d1d93165c5d22444","587","./stimuli//pack_morph_shapes_1/cat_2/diff_3/ex_2_3_12.gif","arrowright","response","ArrowRight","12","2","3","test","true",""
"","","","","","html-keyboard-response","197","315534","0.0-7.53-2.53","5eb037fda64b1109eb4e2ff8","6573617f270241e5da3d355d","6576c015d1d93165c5d22444","null","<p> <font color=""green"" size=""5vw""> Correct category! </font> <br> <br> <font color=""green"" size=""8vw""> + $0.07 </font> </p>","null","feedback","","","","","","","1.63"
"","","","","","html-keyboard-response","198","315950","0.0-7.54-0.54","5eb037fda64b1109eb4e2ff8","6573617f270241e5da3d355d","6576c015d1d93165c5d22444","415","
            
        <div style=""text-align: center; position: fixed; top: 5vh; left: 40vw;"">
            <div style=""margin:0 auto; width: 20vw; top: 8vh; font-size: 2vw""> 
            <font color=""green""> Bonus : $1.63 </font>
            </div>
        </div>
    
            <div> Please press any key to continue to the next movie.</div>
        ","arrowdown","ITI","","","","","","",""
"","","","","","html-keyboard-response","199","316559","0.0-7.54-1.54","5eb037fda64b1109eb4e2ff8","6573617f270241e5da3d355d","6576c015d1d93165c5d22444","609","./stimuli//pack_morph_shapes_1/cat_2/diff_3/ex_2_3_5.gif","arrowright","response","ArrowRight","5","2","3","test","true",""
"","","","","","html-keyboard-response","200","318067","0.0-7.54-2.54","5eb037fda64b1109eb4e2ff8","6573617f270241e5da3d355d","6576c015d1d93165c5d22444","null","<p> <font color=""green"" size=""5vw""> Correct category! </font> <br> <br> <font color=""green"" size=""8vw""> + $0.07 </font> </p>","null","feedback","","","","","","","1.7"
"","","","","","html-keyboard-response","201","318617","0.0-7.55-0.55","5eb037fda64b1109eb4e2ff8","6573617f270241e5da3d355d","6576c015d1d93165c5d22444","550","
            
        <div style=""text-align: center; position: fixed; top: 5vh; left: 40vw;"">
            <div style=""margin:0 auto; width: 20vw; top: 8vh; font-size: 2vw""> 
            <font color=""green""> Bonus : $1.7 </font>
            </div>
        </div>
    
            <div> Please press any key to continue to the next movie.</div>
        ","arrowdown","ITI","","","","","","",""
"","","","","","html-keyboard-response","202","319124","0.0-7.55-1.55","5eb037fda64b1109eb4e2ff8","6573617f270241e5da3d355d","6576c015d1d93165c5d22444","505","./stimuli//pack_morph_shapes_1/cat_2/diff_4/ex_2_4_4.gif","arrowright","response","ArrowRight","4","2","4","test","true",""
"","","","","","html-keyboard-response","203","320633","0.0-7.55-2.55","5eb037fda64b1109eb4e2ff8","6573617f270241e5da3d355d","6576c015d1d93165c5d22444","null","<p> <font color=""green"" size=""5vw""> Correct category! </font> <br> <br> <font color=""green"" size=""8vw""> + $0.08 </font> </p>","null","feedback","","","","","","","1.78"
"","","","","","html-keyboard-response","204","321344","0.0-7.56-0.56","5eb037fda64b1109eb4e2ff8","6573617f270241e5da3d355d","6576c015d1d93165c5d22444","710","
            
        <div style=""text-align: center; position: fixed; top: 5vh; left: 40vw;"">
            <div style=""margin:0 auto; width: 20vw; top: 8vh; font-size: 2vw""> 
            <font color=""green""> Bonus : $1.78 </font>
            </div>
        </div>
    
            <div> Please press any key to continue to the next movie.</div>
        ","arrowdown","ITI","","","","","","",""
"","","","","","html-keyboard-response","205","321790","0.0-7.56-1.56","5eb037fda64b1109eb4e2ff8","6573617f270241e5da3d355d","6576c015d1d93165c5d22444","444","./stimuli//pack_morph_shapes_1/cat_2/diff_4/ex_2_4_14.gif","arrowright","response","ArrowRight","14","2","4","test","true",""
"","","","","","html-keyboard-response","206","323291","0.0-7.56-2.56","5eb037fda64b1109eb4e2ff8","6573617f270241e5da3d355d","6576c015d1d93165c5d22444","null","<p> <font color=""green"" size=""5vw""> Correct category! </font> <br> <br> <font color=""green"" size=""8vw""> + $0.08 </font> </p>","null","feedback","","","","","","","1.86"
"","","","","","html-keyboard-response","207","323650","0.0-7.57-0.57","5eb037fda64b1109eb4e2ff8","6573617f270241e5da3d355d","6576c015d1d93165c5d22444","358","
            
        <div style=""text-align: center; position: fixed; top: 5vh; left: 40vw;"">
            <div style=""margin:0 auto; width: 20vw; top: 8vh; font-size: 2vw""> 
            <font color=""green""> Bonus : $1.86 </font>
            </div>
        </div>
    
            <div> Please press any key to continue to the next movie.</div>
        ","arrowdown","ITI","","","","","","",""
"","","","","","html-keyboard-response","208","324133","0.0-7.57-1.57","5eb037fda64b1109eb4e2ff8","6573617f270241e5da3d355d","6576c015d1d93165c5d22444","482","./stimuli//pack_morph_shapes_1/cat_2/diff_4/ex_2_4_14.gif","arrowright","response","ArrowRight","14","2","4","test","true",""
"","","","","","html-keyboard-response","209","325643","0.0-7.57-2.57","5eb037fda64b1109eb4e2ff8","6573617f270241e5da3d355d","6576c015d1d93165c5d22444","null","<p> <font color=""green"" size=""5vw""> Correct category! </font> <br> <br> <font color=""green"" size=""8vw""> + $0.08 </font> </p>","null","feedback","","","","","","","1.94"
"","","","","","html-keyboard-response","210","326107","0.0-7.58-0.58","5eb037fda64b1109eb4e2ff8","6573617f270241e5da3d355d","6576c015d1d93165c5d22444","463","
            
        <div style=""text-align: center; position: fixed; top: 5vh; left: 40vw;"">
            <div style=""margin:0 auto; width: 20vw; top: 8vh; font-size: 2vw""> 
            <font color=""green""> Bonus : $1.94 </font>
            </div>
        </div>
    
            <div> Please press any key to continue to the next movie.</div>
        ","arrowdown","ITI","","","","","","",""
"","","","","","html-keyboard-response","211","326713","0.0-7.58-1.58","5eb037fda64b1109eb4e2ff8","6573617f270241e5da3d355d","6576c015d1d93165c5d22444","605","./stimuli//pack_morph_shapes_1/cat_1/diff_4/ex_1_4_5.gif","arrowleft","response","ArrowLeft","5","1","4","test","true",""
"","","","","","html-keyboard-response","212","328230","0.0-7.58-2.58","5eb037fda64b1109eb4e2ff8","6573617f270241e5da3d355d","6576c015d1d93165c5d22444","null","<p> <font color=""green"" size=""5vw""> Correct category! </font> <br> <br> <font color=""green"" size=""8vw""> + $0.07 </font> </p>","null","feedback","","","","","","","2.01"
"","","","","","html-keyboard-response","213","328964","0.0-7.59-0.59","5eb037fda64b1109eb4e2ff8","6573617f270241e5da3d355d","6576c015d1d93165c5d22444","733","
            
        <div style=""text-align: center; position: fixed; top: 5vh; left: 40vw;"">
            <div style=""margin:0 auto; width: 20vw; top: 8vh; font-size: 2vw""> 
            <font color=""green""> Bonus : $2.01 </font>
            </div>
        </div>
    
            <div> Please press any key to continue to the next movie.</div>
        ","arrowdown","ITI","","","","","","",""
"","","","","","html-keyboard-response","214","329670","0.0-7.59-1.59","5eb037fda64b1109eb4e2ff8","6573617f270241e5da3d355d","6576c015d1d93165c5d22444","705","./stimuli//pack_morph_shapes_1/cat_2/diff_4/ex_2_4_3.gif","arrowright","response","ArrowRight","3","2","4","test","true",""
"","","","","","html-keyboard-response","215","331185","0.0-7.59-2.59","5eb037fda64b1109eb4e2ff8","6573617f270241e5da3d355d","6576c015d1d93165c5d22444","null","<p> <font color=""green"" size=""5vw""> Correct category! </font> <br> <br> <font color=""green"" size=""8vw""> + $0.07 </font> </p>","null","feedback","","","","","","","2.08"
"","","","","","html-keyboard-response","216","331567","0.0-7.60-0.60","5eb037fda64b1109eb4e2ff8","6573617f270241e5da3d355d","6576c015d1d93165c5d22444","381","
            
        <div style=""text-align: center; position: fixed; top: 5vh; left: 40vw;"">
            <div style=""margin:0 auto; width: 20vw; top: 8vh; font-size: 2vw""> 
            <font color=""green""> Bonus : $2.08 </font>
            </div>
        </div>
    
            <div> Please press any key to continue to the next movie.</div>
        ","arrowdown","ITI","","","","","","",""
"","","","","","html-keyboard-response","217","332292","0.0-7.60-1.60","5eb037fda64b1109eb4e2ff8","6573617f270241e5da3d355d","6576c015d1d93165c5d22444","724","./stimuli//pack_morph_shapes_1/cat_2/diff_5/ex_2_5_16.gif","arrowleft","response","ArrowRight","16","2","5","test","false",""
"","","","","","html-keyboard-response","218","333795","0.0-7.60-2.60","5eb037fda64b1109eb4e2ff8","6573617f270241e5da3d355d","6576c015d1d93165c5d22444","null","<p> <font color=""red"" size=""5vw""> Wrong category! </font> <br> <br> <font color=""red"" size=""8vw""> - $0.05 </font> </p>","null","feedback","","","","","","","2.03"
"","","","","","html-keyboard-response","219","334230","0.0-7.61-0.61","5eb037fda64b1109eb4e2ff8","6573617f270241e5da3d355d","6576c015d1d93165c5d22444","434","
            
        <div style=""text-align: center; position: fixed; top: 5vh; left: 40vw;"">
            <div style=""margin:0 auto; width: 20vw; top: 8vh; font-size: 2vw""> 
            <font color=""green""> Bonus : $2.03 </font>
            </div>
        </div>
    
            <div> Please press any key to continue to the next movie.</div>
        ","arrowdown","ITI","","","","","","",""
"","","","","","html-keyboard-response","220","334845","0.0-7.61-1.61","5eb037fda64b1109eb4e2ff8","6573617f270241e5da3d355d","6576c015d1d93165c5d22444","614","./stimuli//pack_morph_shapes_1/cat_2/diff_5/ex_2_5_17.gif","arrowright","response","ArrowRight","17","2","5","test","true",""
"","","","","","html-keyboard-response","221","336348","0.0-7.61-2.61","5eb037fda64b1109eb4e2ff8","6573617f270241e5da3d355d","6576c015d1d93165c5d22444","null","<p> <font color=""green"" size=""5vw""> Correct category! </font> <br> <br> <font color=""green"" size=""8vw""> + $0.07 </font> </p>","null","feedback","","","","","","","2.1"
"","","","","","html-keyboard-response","222","336835","0.0-7.62-0.62","5eb037fda64b1109eb4e2ff8","6573617f270241e5da3d355d","6576c015d1d93165c5d22444","486","
            
        <div style=""text-align: center; position: fixed; top: 5vh; left: 40vw;"">
            <div style=""margin:0 auto; width: 20vw; top: 8vh; font-size: 2vw""> 
            <font color=""green""> Bonus : $2.1 </font>
            </div>
        </div>
    
            <div> Please press any key to continue to the next movie.</div>
        ","arrowdown","ITI","","","","","","",""
"","","","","","html-keyboard-response","223","337405","0.0-7.62-1.62","5eb037fda64b1109eb4e2ff8","6573617f270241e5da3d355d","6576c015d1d93165c5d22444","570","./stimuli//pack_morph_shapes_1/cat_2/diff_5/ex_2_5_2.gif","arrowright","response","ArrowRight","2","2","5","test","true",""
"","","","","","html-keyboard-response","224","338907","0.0-7.62-2.62","5eb037fda64b1109eb4e2ff8","6573617f270241e5da3d355d","6576c015d1d93165c5d22444","null","<p> <font color=""green"" size=""5vw""> Correct category! </font> <br> <br> <font color=""green"" size=""8vw""> + $0.08 </font> </p>","null","feedback","","","","","","","2.18"
"","","","","","html-keyboard-response","225","339487","0.0-7.63-0.63","5eb037fda64b1109eb4e2ff8","6573617f270241e5da3d355d","6576c015d1d93165c5d22444","579","
            
        <div style=""text-align: center; position: fixed; top: 5vh; left: 40vw;"">
            <div style=""margin:0 auto; width: 20vw; top: 8vh; font-size: 2vw""> 
            <font color=""green""> Bonus : $2.18 </font>
            </div>
        </div>
    
            <div> Please press any key to continue to the next movie.</div>
        ","arrowdown","ITI","","","","","","",""
"","","","","","html-keyboard-response","226","340039","0.0-7.63-1.63","5eb037fda64b1109eb4e2ff8","6573617f270241e5da3d355d","6576c015d1d93165c5d22444","551","./stimuli//pack_morph_shapes_1/cat_1/diff_5/ex_1_5_12.gif","arrowright","response","ArrowLeft","12","1","5","test","false",""
"","","","","","html-keyboard-response","227","341542","0.0-7.63-2.63","5eb037fda64b1109eb4e2ff8","6573617f270241e5da3d355d","6576c015d1d93165c5d22444","null","<p> <font color=""red"" size=""5vw""> Wrong category! </font> <br> <br> <font color=""red"" size=""8vw""> - $0.05 </font> </p>","null","feedback","","","","","","","2.13"
"","","","","","html-keyboard-response","228","341890","0.0-7.64-0.64","5eb037fda64b1109eb4e2ff8","6573617f270241e5da3d355d","6576c015d1d93165c5d22444","347","
            
        <div style=""text-align: center; position: fixed; top: 5vh; left: 40vw;"">
            <div style=""margin:0 auto; width: 20vw; top: 8vh; font-size: 2vw""> 
            <font color=""green""> Bonus : $2.13 </font>
            </div>
        </div>
    
            <div> Please press any key to continue to the next movie.</div>
        ","arrowdown","ITI","","","","","","",""
"","","","","","html-keyboard-response","229","342504","0.0-7.64-1.64","5eb037fda64b1109eb4e2ff8","6573617f270241e5da3d355d","6576c015d1d93165c5d22444","613","./stimuli//pack_morph_shapes_1/cat_2/diff_5/ex_2_5_2.gif","arrowright","response","ArrowRight","2","2","5","test","true",""
"","","","","","html-keyboard-response","230","344020","0.0-7.64-2.64","5eb037fda64b1109eb4e2ff8","6573617f270241e5da3d355d","6576c015d1d93165c5d22444","null","<p> <font color=""green"" size=""5vw""> Correct category! </font> <br> <br> <font color=""green"" size=""8vw""> + $0.07 </font> </p>","null","feedback","","","","","","","2.2"
"","","","","","html-keyboard-response","231","344369","0.0-7.65-0.65","5eb037fda64b1109eb4e2ff8","6573617f270241e5da3d355d","6576c015d1d93165c5d22444","349","
            
        <div style=""text-align: center; position: fixed; top: 5vh; left: 40vw;"">
            <div style=""margin:0 auto; width: 20vw; top: 8vh; font-size: 2vw""> 
            <font color=""green""> Bonus : $2.2 </font>
            </div>
        </div>
    
            <div> Please press any key to continue to the next movie.</div>
        ","arrowdown","ITI","","","","","","",""
"","","","","","html-keyboard-response","232","345012","0.0-7.65-1.65","5eb037fda64b1109eb4e2ff8","6573617f270241e5da3d355d","6576c015d1d93165c5d22444","642","./stimuli//pack_morph_shapes_1/cat_1/diff_4/ex_1_4_17.gif","arrowleft","response","ArrowLeft","17","1","4","test","true",""
"","","","","","html-keyboard-response","233","346528","0.0-7.65-2.65","5eb037fda64b1109eb4e2ff8","6573617f270241e5da3d355d","6576c015d1d93165c5d22444","null","<p> <font color=""green"" size=""5vw""> Correct category! </font> <br> <br> <font color=""green"" size=""8vw""> + $0.07 </font> </p>","null","feedback","","","","","","","2.27"
"","","","","","html-keyboard-response","234","346925","0.0-7.66-0.66","5eb037fda64b1109eb4e2ff8","6573617f270241e5da3d355d","6576c015d1d93165c5d22444","396","
            
        <div style=""text-align: center; position: fixed; top: 5vh; left: 40vw;"">
            <div style=""margin:0 auto; width: 20vw; top: 8vh; font-size: 2vw""> 
            <font color=""green""> Bonus : $2.27 </font>
            </div>
        </div>
    
            <div> Please press any key to continue to the next movie.</div>
        ","arrowdown","ITI","","","","","","",""
"","","","","","html-keyboard-response","235","347688","0.0-7.66-1.66","5eb037fda64b1109eb4e2ff8","6573617f270241e5da3d355d","6576c015d1d93165c5d22444","763","./stimuli//pack_morph_shapes_1/cat_2/diff_4/ex_2_4_8.gif","arrowright","response","ArrowRight","8","2","4","test","true",""
"","","","","","html-keyboard-response","236","349203","0.0-7.66-2.66","5eb037fda64b1109eb4e2ff8","6573617f270241e5da3d355d","6576c015d1d93165c5d22444","null","<p> <font color=""green"" size=""5vw""> Correct category! </font> <br> <br> <font color=""green"" size=""8vw""> + $0.07 </font> </p>","null","feedback","","","","","","","2.34"
"","","","","","html-keyboard-response","237","349516","0.0-7.67-0.67","5eb037fda64b1109eb4e2ff8","6573617f270241e5da3d355d","6576c015d1d93165c5d22444","312","
            
        <div style=""text-align: center; position: fixed; top: 5vh; left: 40vw;"">
            <div style=""margin:0 auto; width: 20vw; top: 8vh; font-size: 2vw""> 
            <font color=""green""> Bonus : $2.34 </font>
            </div>
        </div>
    
            <div> Please press any key to continue to the next movie.</div>
        ","arrowdown","ITI","","","","","","",""
"","","","","","html-keyboard-response","238","350130","0.0-7.67-1.67","5eb037fda64b1109eb4e2ff8","6573617f270241e5da3d355d","6576c015d1d93165c5d22444","614","./stimuli//pack_morph_shapes_1/cat_2/diff_4/ex_2_4_11.gif","arrowright","response","ArrowRight","11","2","4","test","true",""
"","","","","","html-keyboard-response","239","351644","0.0-7.67-2.67","5eb037fda64b1109eb4e2ff8","6573617f270241e5da3d355d","6576c015d1d93165c5d22444","null","<p> <font color=""green"" size=""5vw""> Correct category! </font> <br> <br> <font color=""green"" size=""8vw""> + $0.07 </font> </p>","null","feedback","","","","","","","2.41"
"","","","","","html-keyboard-response","240","351887","0.0-7.68-0.68","5eb037fda64b1109eb4e2ff8","6573617f270241e5da3d355d","6576c015d1d93165c5d22444","242","
            
        <div style=""text-align: center; position: fixed; top: 5vh; left: 40vw;"">
            <div style=""margin:0 auto; width: 20vw; top: 8vh; font-size: 2vw""> 
            <font color=""green""> Bonus : $2.41 </font>
            </div>
        </div>
    
            <div> Please press any key to continue to the next movie.</div>
        ","arrowdown","ITI","","","","","","",""
"","","","","","html-keyboard-response","241","352390","0.0-7.68-1.68","5eb037fda64b1109eb4e2ff8","6573617f270241e5da3d355d","6576c015d1d93165c5d22444","502","./stimuli//pack_morph_shapes_1/cat_1/diff_4/ex_1_4_6.gif","arrowleft","response","ArrowLeft","6","1","4","test","true",""
"","","","","","html-keyboard-response","242","353904","0.0-7.68-2.68","5eb037fda64b1109eb4e2ff8","6573617f270241e5da3d355d","6576c015d1d93165c5d22444","null","<p> <font color=""green"" size=""5vw""> Correct category! </font> <br> <br> <font color=""green"" size=""8vw""> + $0.08 </font> </p>","null","feedback","","","","","","","2.49"
"","","","","","html-keyboard-response","243","354283","0.0-7.69-0.69","5eb037fda64b1109eb4e2ff8","6573617f270241e5da3d355d","6576c015d1d93165c5d22444","378","
            
        <div style=""text-align: center; position: fixed; top: 5vh; left: 40vw;"">
            <div style=""margin:0 auto; width: 20vw; top: 8vh; font-size: 2vw""> 
            <font color=""green""> Bonus : $2.49 </font>
            </div>
        </div>
    
            <div> Please press any key to continue to the next movie.</div>
        ","arrowdown","ITI","","","","","","",""
"","","","","","html-keyboard-response","244","355050","0.0-7.69-1.69","5eb037fda64b1109eb4e2ff8","6573617f270241e5da3d355d","6576c015d1d93165c5d22444","766","./stimuli//pack_morph_shapes_1/cat_2/diff_4/ex_2_4_15.gif","arrowleft","response","ArrowRight","15","2","4","test","false",""
"","","","","","html-keyboard-response","245","356552","0.0-7.69-2.69","5eb037fda64b1109eb4e2ff8","6573617f270241e5da3d355d","6576c015d1d93165c5d22444","null","<p> <font color=""red"" size=""5vw""> Wrong category! </font> <br> <br> <font color=""red"" size=""8vw""> - $0.05 </font> </p>","null","feedback","","","","","","","2.44"
"","","","","","html-keyboard-response","246","357481","0.0-7.70-0.70","5eb037fda64b1109eb4e2ff8","6573617f270241e5da3d355d","6576c015d1d93165c5d22444","929","
            
        <div style=""text-align: center; position: fixed; top: 5vh; left: 40vw;"">
            <div style=""margin:0 auto; width: 20vw; top: 8vh; font-size: 2vw""> 
            <font color=""green""> Bonus : $2.44 </font>
            </div>
        </div>
    
            <div> Please press any key to continue to the next movie.</div>
        ","arrowdown","ITI","","","","","","",""
"","","","","","html-keyboard-response","247","357957","0.0-7.70-1.70","5eb037fda64b1109eb4e2ff8","6573617f270241e5da3d355d","6576c015d1d93165c5d22444","474","./stimuli//pack_morph_shapes_1/cat_2/diff_5/ex_2_5_9.gif","arrowright","response","ArrowRight","9","2","5","test","true",""
"","","","","","html-keyboard-response","248","359461","0.0-7.70-2.70","5eb037fda64b1109eb4e2ff8","6573617f270241e5da3d355d","6576c015d1d93165c5d22444","null","<p> <font color=""green"" size=""5vw""> Correct category! </font> <br> <br> <font color=""green"" size=""8vw""> + $0.08 </font> </p>","null","feedback","","","","","","","2.52"
"","","","","","html-keyboard-response","249","359806","0.0-7.71-0.71","5eb037fda64b1109eb4e2ff8","6573617f270241e5da3d355d","6576c015d1d93165c5d22444","344","
            
        <div style=""text-align: center; position: fixed; top: 5vh; left: 40vw;"">
            <div style=""margin:0 auto; width: 20vw; top: 8vh; font-size: 2vw""> 
            <font color=""green""> Bonus : $2.52 </font>
            </div>
        </div>
    
            <div> Please press any key to continue to the next movie.</div>
        ","arrowdown","ITI","","","","","","",""
"","","","","","html-keyboard-response","250","360315","0.0-7.71-1.71","5eb037fda64b1109eb4e2ff8","6573617f270241e5da3d355d","6576c015d1d93165c5d22444","508","./stimuli//pack_morph_shapes_1/cat_2/diff_5/ex_2_5_9.gif","arrowright","response","ArrowRight","9","2","5","test","true",""
"","","","","","html-keyboard-response","251","361829","0.0-7.71-2.71","5eb037fda64b1109eb4e2ff8","6573617f270241e5da3d355d","6576c015d1d93165c5d22444","null","<p> <font color=""green"" size=""5vw""> Correct category! </font> <br> <br> <font color=""green"" size=""8vw""> + $0.08 </font> </p>","null","feedback","","","","","","","2.6"
"","","","","","html-keyboard-response","252","362195","0.0-7.72-0.72","5eb037fda64b1109eb4e2ff8","6573617f270241e5da3d355d","6576c015d1d93165c5d22444","364","
            
        <div style=""text-align: center; position: fixed; top: 5vh; left: 40vw;"">
            <div style=""margin:0 auto; width: 20vw; top: 8vh; font-size: 2vw""> 
            <font color=""green""> Bonus : $2.6 </font>
            </div>
        </div>
    
            <div> Please press any key to continue to the next movie.</div>
        ","arrowdown","ITI","","","","","","",""
"","","","","","html-keyboard-response","253","362969","0.0-7.72-1.72","5eb037fda64b1109eb4e2ff8","6573617f270241e5da3d355d","6576c015d1d93165c5d22444","774","./stimuli//pack_morph_shapes_1/cat_1/diff_5/ex_1_5_16.gif","arrowright","response","ArrowLeft","16","1","5","test","false",""
