"success","timeout","failed_images","failed_audio","failed_video","trial_type","trial_index","time_elapsed","internal_node_id","subject_id","study_id","session_id","rt","stimulus","response","task","correct_response","exemplar_ID","category","difficulty","phase","correct","bonus"
"true","false","[]","[]","[]","preload","0","2","0.0-0.0","6102a52c8a4ed0d104d68a15","6573617f270241e5da3d355d","6576bfd79f5482df46746903","","","","","","","","","","",""
"","","","","","html-keyboard-response","1","3349","0.0-1.0","6102a52c8a4ed0d104d68a15","6573617f270241e5da3d355d","6576bfd79f5482df46746903","3346","Welcome to the Category Learning experiment! Press any key to continue.","enter","welcome","","","","","","",""
"","","","","","html-keyboard-response","2","78368","0.0-2.0","6102a52c8a4ed0d104d68a15","6573617f270241e5da3d355d","6576bfd79f5482df46746903","75016","
            <p>You will be shown movies. Each movie contains a sequence of shapes changing form. 
            <br> Some shapes are category A, some are category B. <b> Within a single movie, all shapes belong to the same category. </b>
            <br> You will not know in advance which category the shapes of each movie belong to.</p>
            <p> While you watch a movie, you have to guess the category that its shapes belong to <b>(left arrow for category A, right arrow for category B)</b></p>
            <p> After you choose, the screen will show you whether you were correct or not.</p>
            <p>Press any key to continue.</p>
            "," ","introduction_1","","","","","","",""
"","","","","","html-keyboard-response","3","102551","0.0-3.0","6102a52c8a4ed0d104d68a15","6573617f270241e5da3d355d","6576bfd79f5482df46746903","24181","
              <p><b>You will receive a bonus payment for each correct answer! The faster you answer the higher the bonus will be!</b></p>
              <p> So you can increase your bonus by guessing as quickly and accurately as possible.</p>
              <p><b>You will lose $0.05 from your bonus payment for each incorrect answer! The bonus can not become less that $0.</b> </p>
              <p>Press any key to continue.</p>
              "," ","introduction_2","","","","","","",""
"","","","","","html-keyboard-response","4","109524","0.0-4.0","6102a52c8a4ed0d104d68a15","6573617f270241e5da3d355d","6576bfd79f5482df46746903","6972","
            <p> <b>The first 10 trials are a practice round that will not count towards your bonus payment.</b></p>
            <p> You will be notified when practice finishes and the test begins. </p>
            <p> Press any key to begin the practice round.</p>
            "," ","introduction_3","","","","","","",""
"","","","","","html-keyboard-response","5","111527","0.0-5.0-0.0","6102a52c8a4ed0d104d68a15","6573617f270241e5da3d355d","6576bfd79f5482df46746903","2001","
            
        <div style=""text-align: center; position: fixed; top: 5vh; left: 40vw;"">
            <div style=""margin:0 auto; width: 20vw; top: 8vh; font-size: 2vw""> 
            <font color=""green""> Bonus : $0 </font>
            </div>
        </div>
    
            <div> Please press any key to continue to the next movie.</div>
        "," ","ITI","","","","","","",""
"","","","","","html-keyboard-response","6","115534","0.0-5.0-1.0","6102a52c8a4ed0d104d68a15","6573617f270241e5da3d355d","6576bfd79f5482df46746903","null","./stimuli//pack_morph_shapes_1/cat_1/diff_1/ex_1_1_16.gif","null","response","ArrowLeft","16","1","1","train","false",""
"","","","","","html-keyboard-response","7","117039","0.0-5.0-2.0","6102a52c8a4ed0d104d68a15","6573617f270241e5da3d355d","6576bfd79f5482df46746903","null","<p> <font color=""red"" size=""5vw""> Time out! </font> <br> Please try to respond as quickly as possible. </p>","null","feedback","","","","","","","0"
"","","","","","html-keyboard-response","8","118544","0.0-5.0-0.1","6102a52c8a4ed0d104d68a15","6573617f270241e5da3d355d","6576bfd79f5482df46746903","1503","
            
        <div style=""text-align: center; position: fixed; top: 5vh; left: 40vw;"">
            <div style=""margin:0 auto; width: 20vw; top: 8vh; font-size: 2vw""> 
            <font color=""green""> Bonus : $0 </font>
            </div>
        </div>
    
            <div> Please press any key to continue to the next movie.</div>
        "," ","ITI","","","","","","",""
"","","","","","html-keyboard-response","9","120274","0.0-5.0-1.1","6102a52c8a4ed0d104d68a15","6573617f270241e5da3d355d","6576bfd79f5482df46746903","1729","./stimuli//pack_morph_shapes_1/cat_1/diff_1/ex_1_1_17.gif","arrowright","response","ArrowLeft","17","1","1","train","false",""
"","","","","","html-keyboard-response","10","121779","0.0-5.0-2.1","6102a52c8a4ed0d104d68a15","6573617f270241e5da3d355d","6576bfd79f5482df46746903","null","<p> <font color=""red"" size=""5vw""> Wrong category! </font> </p>","null","feedback","","","","","","","0"
"","","","","","html-keyboard-response","11","123373","0.0-5.0-0.2","6102a52c8a4ed0d104d68a15","6573617f270241e5da3d355d","6576bfd79f5482df46746903","1593","
            
        <div style=""text-align: center; position: fixed; top: 5vh; left: 40vw;"">
            <div style=""margin:0 auto; width: 20vw; top: 8vh; font-size: 2vw""> 
            <font color=""green""> Bonus : $0 </font>
            </div>
        </div>
    
            <div> Please press any key to continue to the next movie.</div>
        "," ","ITI","","","","","","",""
"","","","","","html-keyboard-response","12","124952","0.0-5.0-1.2","6102a52c8a4ed0d104d68a15","6573617f270241e5da3d355d","6576bfd79f5482df46746903","1577","./stimuli//pack_morph_shapes_1/cat_1/diff_2/ex_1_2_13.gif","arrowright","response","ArrowLeft","13","1","2","train","false",""
"","","","","","html-keyboard-response","13","126469","0.0-5.0-2.2","6102a52c8a4ed0d104d68a15","6573617f270241e5da3d355d","6576bfd79f5482df46746903","null","<p> <font color=""red"" size=""5vw""> Wrong category! </font> </p>","null","feedback","","","","","","","0"
"","","","","","html-keyboard-response","14","127729","0.0-5.0-0.3","6102a52c8a4ed0d104d68a15","6573617f270241e5da3d355d","6576bfd79f5482df46746903","1258","
            
        <div style=""text-align: center; position: fixed; top: 5vh; left: 40vw;"">
            <div style=""margin:0 auto; width: 20vw; top: 8vh; font-size: 2vw""> 
            <font color=""green""> Bonus : $0 </font>
            </div>
        </div>
    
            <div> Please press any key to continue to the next movie.</div>
        ","arrowleft","ITI","","","","","","",""
"","","","","","html-keyboard-response","15","129251","0.0-5.0-1.3","6102a52c8a4ed0d104d68a15","6573617f270241e5da3d355d","6576bfd79f5482df46746903","1522","./stimuli//pack_morph_shapes_1/cat_2/diff_1/ex_2_1_1.gif","arrowleft","response","ArrowRight","1","2","1","train","false",""
"","","","","","html-keyboard-response","16","130760","0.0-5.0-2.3","6102a52c8a4ed0d104d68a15","6573617f270241e5da3d355d","6576bfd79f5482df46746903","null","<p> <font color=""red"" size=""5vw""> Wrong category! </font> </p>","null","feedback","","","","","","","0"
"","","","","","html-keyboard-response","17","132486","0.0-5.0-0.4","6102a52c8a4ed0d104d68a15","6573617f270241e5da3d355d","6576bfd79f5482df46746903","1726","
            
        <div style=""text-align: center; position: fixed; top: 5vh; left: 40vw;"">
            <div style=""margin:0 auto; width: 20vw; top: 8vh; font-size: 2vw""> 
            <font color=""green""> Bonus : $0 </font>
            </div>
        </div>
    
            <div> Please press any key to continue to the next movie.</div>
        ","arrowright","ITI","","","","","","",""
"","","","","","html-keyboard-response","18","133625","0.0-5.0-1.4","6102a52c8a4ed0d104d68a15","6573617f270241e5da3d355d","6576bfd79f5482df46746903","1137","./stimuli//pack_morph_shapes_1/cat_2/diff_2/ex_2_2_11.gif","arrowright","response","ArrowRight","11","2","2","train","true",""
"","","","","","html-keyboard-response","19","135129","0.0-5.0-2.4","6102a52c8a4ed0d104d68a15","6573617f270241e5da3d355d","6576bfd79f5482df46746903","null","<p> <font color=""green"" size=""5vw""> Correct category! </font> </p>","null","feedback","","","","","","","0"
"","","","","","html-keyboard-response","20","136010","0.0-5.0-0.5","6102a52c8a4ed0d104d68a15","6573617f270241e5da3d355d","6576bfd79f5482df46746903","880","
            
        <div style=""text-align: center; position: fixed; top: 5vh; left: 40vw;"">
            <div style=""margin:0 auto; width: 20vw; top: 8vh; font-size: 2vw""> 
            <font color=""green""> Bonus : $0 </font>
            </div>
        </div>
    
            <div> Please press any key to continue to the next movie.</div>
        ","arrowright","ITI","","","","","","",""
"","","","","","html-keyboard-response","21","137260","0.0-5.0-1.5","6102a52c8a4ed0d104d68a15","6573617f270241e5da3d355d","6576bfd79f5482df46746903","1249","./stimuli//pack_morph_shapes_1/cat_2/diff_1/ex_2_1_9.gif","arrowright","response","ArrowRight","9","2","1","train","true",""
"","","","","","html-keyboard-response","22","138771","0.0-5.0-2.5","6102a52c8a4ed0d104d68a15","6573617f270241e5da3d355d","6576bfd79f5482df46746903","null","<p> <font color=""green"" size=""5vw""> Correct category! </font> </p>","null","feedback","","","","","","","0"
"","","","","","html-keyboard-response","23","139989","0.0-5.0-0.6","6102a52c8a4ed0d104d68a15","6573617f270241e5da3d355d","6576bfd79f5482df46746903","1217","
            
        <div style=""text-align: center; position: fixed; top: 5vh; left: 40vw;"">
            <div style=""margin:0 auto; width: 20vw; top: 8vh; font-size: 2vw""> 
            <font color=""green""> Bonus : $0 </font>
            </div>
        </div>
    
            <div> Please press any key to continue to the next movie.</div>
        ","arrowleft","ITI","","","","","","",""
"","","","","","html-keyboard-response","24","141311","0.0-5.0-1.6","6102a52c8a4ed0d104d68a15","6573617f270241e5da3d355d","6576bfd79f5482df46746903","1321","./stimuli//pack_morph_shapes_1/cat_2/diff_2/ex_2_2_14.gif","arrowleft","response","ArrowRight","14","2","2","train","false",""
"","","","","","html-keyboard-response","25","142819","0.0-5.0-2.6","6102a52c8a4ed0d104d68a15","6573617f270241e5da3d355d","6576bfd79f5482df46746903","null","<p> <font color=""red"" size=""5vw""> Wrong category! </font> </p>","null","feedback","","","","","","","0"
"","","","","","html-keyboard-response","26","143429","0.0-5.0-0.7","6102a52c8a4ed0d104d68a15","6573617f270241e5da3d355d","6576bfd79f5482df46746903","609","
            
        <div style=""text-align: center; position: fixed; top: 5vh; left: 40vw;"">
            <div style=""margin:0 auto; width: 20vw; top: 8vh; font-size: 2vw""> 
            <font color=""green""> Bonus : $0 </font>
            </div>
        </div>
    
            <div> Please press any key to continue to the next movie.</div>
        ","arrowright","ITI","","","","","","",""
"","","","","","html-keyboard-response","27","144483","0.0-5.0-1.7","6102a52c8a4ed0d104d68a15","6573617f270241e5da3d355d","6576bfd79f5482df46746903","1052","./stimuli//pack_morph_shapes_1/cat_1/diff_1/ex_1_1_8.gif","arrowright","response","ArrowLeft","8","1","1","train","false",""
"","","","","","html-keyboard-response","28","145989","0.0-5.0-2.7","6102a52c8a4ed0d104d68a15","6573617f270241e5da3d355d","6576bfd79f5482df46746903","null","<p> <font color=""red"" size=""5vw""> Wrong category! </font> </p>","null","feedback","","","","","","","0"
"","","","","","html-keyboard-response","29","146662","0.0-5.0-0.8","6102a52c8a4ed0d104d68a15","6573617f270241e5da3d355d","6576bfd79f5482df46746903","671","
            
        <div style=""text-align: center; position: fixed; top: 5vh; left: 40vw;"">
            <div style=""margin:0 auto; width: 20vw; top: 8vh; font-size: 2vw""> 
            <font color=""green""> Bonus : $0 </font>
            </div>
        </div>
    
            <div> Please press any key to continue to the next movie.</div>
        ","arrowright","ITI","","","","","","",""
"","","","","","html-keyboard-response","30","148066","0.0-5.0-1.8","6102a52c8a4ed0d104d68a15","6573617f270241e5da3d355d","6576bfd79f5482df46746903","1402","./stimuli//pack_morph_shapes_1/cat_2/diff_1/ex_2_1_8.gif","arrowleft","response","ArrowRight","8","2","1","train","false",""
"","","","","","html-keyboard-response","31","149577","0.0-5.0-2.8","6102a52c8a4ed0d104d68a15","6573617f270241e5da3d355d","6576bfd79f5482df46746903","null","<p> <font color=""red"" size=""5vw""> Wrong category! </font> </p>","null","feedback","","","","","","","0"
"","","","","","html-keyboard-response","32","151029","0.0-5.0-0.9","6102a52c8a4ed0d104d68a15","6573617f270241e5da3d355d","6576bfd79f5482df46746903","1451","
            
        <div style=""text-align: center; position: fixed; top: 5vh; left: 40vw;"">
            <div style=""margin:0 auto; width: 20vw; top: 8vh; font-size: 2vw""> 
            <font color=""green""> Bonus : $0 </font>
            </div>
        </div>
    
            <div> Please press any key to continue to the next movie.</div>
        ","arrowleft","ITI","","","","","","",""
"","","","","","html-keyboard-response","33","152155","0.0-5.0-1.9","6102a52c8a4ed0d104d68a15","6573617f270241e5da3d355d","6576bfd79f5482df46746903","1125","./stimuli//pack_morph_shapes_1/cat_1/diff_2/ex_1_2_14.gif","arrowleft","response","ArrowLeft","14","1","2","train","true",""
"","","","","","html-keyboard-response","34","153669","0.0-5.0-2.9","6102a52c8a4ed0d104d68a15","6573617f270241e5da3d355d","6576bfd79f5482df46746903","null","<p> <font color=""green"" size=""5vw""> Correct category! </font> </p>","null","feedback","","","","","","","0"
"","","","","","html-keyboard-response","35","163748","0.0-6.0","6102a52c8a4ed0d104d68a15","6573617f270241e5da3d355d","6576bfd79f5482df46746903","10078","
            <b> <p> The practice round has finished.</p>
            <b> <p> For the rest of the experiment you will receive a bonus payment for each correct answer, which will be higher the faster you answer!</b></p>
            <b> </p> Also you will lose $0.05 from your bonus payment for each incorrect answer!</p>
            <p> Press any key to begin the test. </p>
            ","arrowleft","intermission","","","","","","",""
"","","","","","html-keyboard-response","36","164777","0.0-7.0-0.0","6102a52c8a4ed0d104d68a15","6573617f270241e5da3d355d","6576bfd79f5482df46746903","1028","
            
        <div style=""text-align: center; position: fixed; top: 5vh; left: 40vw;"">
            <div style=""margin:0 auto; width: 20vw; top: 8vh; font-size: 2vw""> 
            <font color=""green""> Bonus : $0 </font>
            </div>
        </div>
    
            <div> Please press any key to continue to the next movie.</div>
        ","arrowleft","ITI","","","","","","",""
"","","","","","html-keyboard-response","37","165952","0.0-7.0-1.0","6102a52c8a4ed0d104d68a15","6573617f270241e5da3d355d","6576bfd79f5482df46746903","1170","./stimuli//pack_morph_shapes_1/cat_2/diff_1/ex_2_1_3.gif","arrowleft","response","ArrowRight","3","2","1","test","false",""
"","","","","","html-keyboard-response","38","167454","0.0-7.0-2.0","6102a52c8a4ed0d104d68a15","6573617f270241e5da3d355d","6576bfd79f5482df46746903","null","<p> <font color=""red"" size=""5vw""> Wrong category! </font> </p>","null","feedback","","","","","","","0"
"","","","","","html-keyboard-response","39","168220","0.0-7.1-0.1","6102a52c8a4ed0d104d68a15","6573617f270241e5da3d355d","6576bfd79f5482df46746903","765","
            
        <div style=""text-align: center; position: fixed; top: 5vh; left: 40vw;"">
            <div style=""margin:0 auto; width: 20vw; top: 8vh; font-size: 2vw""> 
            <font color=""green""> Bonus : $0 </font>
            </div>
        </div>
    
            <div> Please press any key to continue to the next movie.</div>
        ","arrowleft","ITI","","","","","","",""
"","","","","","html-keyboard-response","40","169059","0.0-7.1-1.1","6102a52c8a4ed0d104d68a15","6573617f270241e5da3d355d","6576bfd79f5482df46746903","837","./stimuli//pack_morph_shapes_1/cat_1/diff_1/ex_1_1_14.gif","arrowleft","response","ArrowLeft","14","1","1","test","true",""
"","","","","","html-keyboard-response","41","170573","0.0-7.1-2.1","6102a52c8a4ed0d104d68a15","6573617f270241e5da3d355d","6576bfd79f5482df46746903","null","<p> <font color=""green"" size=""5vw""> Correct category! </font> <br> <br> <font color=""green"" size=""8vw""> + $0.07 </font> </p>","null","feedback","","","","","","","0.07"
"","","","","","html-keyboard-response","42","171382","0.0-7.2-0.2","6102a52c8a4ed0d104d68a15","6573617f270241e5da3d355d","6576bfd79f5482df46746903","808","
            
        <div style=""text-align: center; position: fixed; top: 5vh; left: 40vw;"">
            <div style=""margin:0 auto; width: 20vw; top: 8vh; font-size: 2vw""> 
            <font color=""green""> Bonus : $0.07 </font>
            </div>
        </div>
    
            <div> Please press any key to continue to the next movie.</div>
        ","arrowleft","ITI","","","","","","",""
"","","","","","html-keyboard-response","43","172525","0.0-7.2-1.2","6102a52c8a4ed0d104d68a15","6573617f270241e5da3d355d","6576bfd79f5482df46746903","1140","./stimuli//pack_morph_shapes_1/cat_2/diff_1/ex_2_1_3.gif","arrowleft","response","ArrowRight","3","2","1","test","false",""
"","","","","","html-keyboard-response","44","174034","0.0-7.2-2.2","6102a52c8a4ed0d104d68a15","6573617f270241e5da3d355d","6576bfd79f5482df46746903","null","<p> <font color=""red"" size=""5vw""> Wrong category! </font> <br> <br> <font color=""red"" size=""8vw""> - $0.05 </font> </p>","null","feedback","","","","","","","0.02"
"","","","","","html-keyboard-response","45","174713","0.0-7.3-0.3","6102a52c8a4ed0d104d68a15","6573617f270241e5da3d355d","6576bfd79f5482df46746903","678","
            
        <div style=""text-align: center; position: fixed; top: 5vh; left: 40vw;"">
            <div style=""margin:0 auto; width: 20vw; top: 8vh; font-size: 2vw""> 
            <font color=""green""> Bonus : $0.02 </font>
            </div>
        </div>
    
            <div> Please press any key to continue to the next movie.</div>
        ","arrowleft","ITI","","","","","","",""
"","","","","","html-keyboard-response","46","175700","0.0-7.3-1.3","6102a52c8a4ed0d104d68a15","6573617f270241e5da3d355d","6576bfd79f5482df46746903","986","./stimuli//pack_morph_shapes_1/cat_2/diff_1/ex_2_1_4.gif","arrowleft","response","ArrowRight","4","2","1","test","false",""
"","","","","","html-keyboard-response","47","177211","0.0-7.3-2.3","6102a52c8a4ed0d104d68a15","6573617f270241e5da3d355d","6576bfd79f5482df46746903","null","<p> <font color=""red"" size=""5vw""> Wrong category! </font> <br> <br> <font color=""red"" size=""8vw""> - $0.05 </font> </p>","null","feedback","","","","","","","-0.03"
"","","","","","html-keyboard-response","48","177829","0.0-7.4-0.4","6102a52c8a4ed0d104d68a15","6573617f270241e5da3d355d","6576bfd79f5482df46746903","618","
            
        <div style=""text-align: center; position: fixed; top: 5vh; left: 40vw;"">
            <div style=""margin:0 auto; width: 20vw; top: 8vh; font-size: 2vw""> 
            <font color=""green""> Bonus : $-0.03 </font>
            </div>
        </div>
    
            <div> Please press any key to continue to the next movie.</div>
        ","arrowleft","ITI","","","","","","",""
"","","","","","html-keyboard-response","49","178923","0.0-7.4-1.4","6102a52c8a4ed0d104d68a15","6573617f270241e5da3d355d","6576bfd79f5482df46746903","1092","./stimuli//pack_morph_shapes_1/cat_1/diff_1/ex_1_1_15.gif","arrowright","response","ArrowLeft","15","1","1","test","false",""
"","","","","","html-keyboard-response","50","180434","0.0-7.4-2.4","6102a52c8a4ed0d104d68a15","6573617f270241e5da3d355d","6576bfd79f5482df46746903","null","<p> <font color=""red"" size=""5vw""> Wrong category! </font> </p>","null","feedback","","","","","","","-0.03"
"","","","","","html-keyboard-response","51","181200","0.0-7.5-0.5","6102a52c8a4ed0d104d68a15","6573617f270241e5da3d355d","6576bfd79f5482df46746903","765","
            
        <div style=""text-align: center; position: fixed; top: 5vh; left: 40vw;"">
            <div style=""margin:0 auto; width: 20vw; top: 8vh; font-size: 2vw""> 
            <font color=""green""> Bonus : $-0.03 </font>
            </div>
        </div>
    
            <div> Please press any key to continue to the next movie.</div>
        ","arrowright","ITI","","","","","","",""
"","","","","","html-keyboard-response","52","182183","0.0-7.5-1.5","6102a52c8a4ed0d104d68a15","6573617f270241e5da3d355d","6576bfd79f5482df46746903","982","./stimuli//pack_morph_shapes_1/cat_2/diff_1/ex_2_1_13.gif","arrowright","response","ArrowRight","13","2","1","test","true",""
"","","","","","html-keyboard-response","53","183691","0.0-7.5-2.5","6102a52c8a4ed0d104d68a15","6573617f270241e5da3d355d","6576bfd79f5482df46746903","null","<p> <font color=""green"" size=""5vw""> Correct category! </font> <br> <br> <font color=""green"" size=""8vw""> + $0.06 </font> </p>","null","feedback","","","","","","","0.03"
"","","","","","html-keyboard-response","54","184530","0.0-7.6-0.6","6102a52c8a4ed0d104d68a15","6573617f270241e5da3d355d","6576bfd79f5482df46746903","838","
            
        <div style=""text-align: center; position: fixed; top: 5vh; left: 40vw;"">
            <div style=""margin:0 auto; width: 20vw; top: 8vh; font-size: 2vw""> 
            <font color=""green""> Bonus : $0.03 </font>
            </div>
        </div>
    
            <div> Please press any key to continue to the next movie.</div>
        ","arrowright","ITI","","","","","","",""
"","","","","","html-keyboard-response","55","185230","0.0-7.6-1.6","6102a52c8a4ed0d104d68a15","6573617f270241e5da3d355d","6576bfd79f5482df46746903","698","./stimuli//pack_morph_shapes_1/cat_1/diff_1/ex_1_1_13.gif","arrowleft","response","ArrowLeft","13","1","1","test","true",""
"","","","","","html-keyboard-response","56","186741","0.0-7.6-2.6","6102a52c8a4ed0d104d68a15","6573617f270241e5da3d355d","6576bfd79f5482df46746903","null","<p> <font color=""green"" size=""5vw""> Correct category! </font> <br> <br> <font color=""green"" size=""8vw""> + $0.07 </font> </p>","null","feedback","","","","","","","0.1"
"","","","","","html-keyboard-response","57","187433","0.0-7.7-0.7","6102a52c8a4ed0d104d68a15","6573617f270241e5da3d355d","6576bfd79f5482df46746903","691","
            
        <div style=""text-align: center; position: fixed; top: 5vh; left: 40vw;"">
            <div style=""margin:0 auto; width: 20vw; top: 8vh; font-size: 2vw""> 
            <font color=""green""> Bonus : $0.1 </font>
            </div>
        </div>
    
            <div> Please press any key to continue to the next movie.</div>
        ","arrowleft","ITI","","","","","","",""
"","","","","","html-keyboard-response","58","188589","0.0-7.7-1.7","6102a52c8a4ed0d104d68a15","6573617f270241e5da3d355d","6576bfd79f5482df46746903","1154","./stimuli//pack_morph_shapes_1/cat_1/diff_1/ex_1_1_6.gif","arrowleft","response","ArrowLeft","6","1","1","test","true",""
"","","","","","html-keyboard-response","59","190094","0.0-7.7-2.7","6102a52c8a4ed0d104d68a15","6573617f270241e5da3d355d","6576bfd79f5482df46746903","null","<p> <font color=""green"" size=""5vw""> Correct category! </font> <br> <br> <font color=""green"" size=""8vw""> + $0.06 </font> </p>","null","feedback","","","","","","","0.16"
"","","","","","html-keyboard-response","60","190906","0.0-7.8-0.8","6102a52c8a4ed0d104d68a15","6573617f270241e5da3d355d","6576bfd79f5482df46746903","812","
            
        <div style=""text-align: center; position: fixed; top: 5vh; left: 40vw;"">
            <div style=""margin:0 auto; width: 20vw; top: 8vh; font-size: 2vw""> 
            <font color=""green""> Bonus : $0.16 </font>
            </div>
        </div>
    
            <div> Please press any key to continue to the next movie.</div>
        ","arrowleft","ITI","","","","","","",""
"","","","","","html-keyboard-response","61","191947","0.0-7.8-1.8","6102a52c8a4ed0d104d68a15","6573617f270241e5da3d355d","6576bfd79f5482df46746903","1039","./stimuli//pack_morph_shapes_1/cat_1/diff_1/ex_1_1_9.gif","arrowleft","response","ArrowLeft","9","1","1","test","true",""
"","","","","","html-keyboard-response","62","193464","0.0-7.8-2.8","6102a52c8a4ed0d104d68a15","6573617f270241e5da3d355d","6576bfd79f5482df46746903","null","<p> <font color=""green"" size=""5vw""> Correct category! </font> <br> <br> <font color=""green"" size=""8vw""> + $0.06 </font> </p>","null","feedback","","","","","","","0.22"
"","","","","","html-keyboard-response","63","194131","0.0-7.9-0.9","6102a52c8a4ed0d104d68a15","6573617f270241e5da3d355d","6576bfd79f5482df46746903","667","
            
        <div style=""text-align: center; position: fixed; top: 5vh; left: 40vw;"">
            <div style=""margin:0 auto; width: 20vw; top: 8vh; font-size: 2vw""> 
            <font color=""green""> Bonus : $0.22 </font>
            </div>
        </div>
    
            <div> Please press any key to continue to the next movie.</div>
        ","arrowleft","ITI","","","","","","",""
"","","","","","html-keyboard-response","64","194925","0.0-7.9-1.9","6102a52c8a4ed0d104d68a15","6573617f270241e5da3d355d","6576bfd79f5482df46746903","788","./stimuli//pack_morph_shapes_1/cat_1/diff_2/ex_1_2_12.gif","arrowleft","response","ArrowLeft","12","1","2","test","true",""
"","","","","","html-keyboard-response","65","196427","0.0-7.9-2.9","6102a52c8a4ed0d104d68a15","6573617f270241e5da3d355d","6576bfd79f5482df46746903","null","<p> <font color=""green"" size=""5vw""> Correct category! </font> <br> <br> <font color=""green"" size=""8vw""> + $0.07 </font> </p>","null","feedback","","","","","","","0.29"
"","","","","","html-keyboard-response","66","197090","0.0-7.10-0.10","6102a52c8a4ed0d104d68a15","6573617f270241e5da3d355d","6576bfd79f5482df46746903","662","
            
        <div style=""text-align: center; position: fixed; top: 5vh; left: 40vw;"">
            <div style=""margin:0 auto; width: 20vw; top: 8vh; font-size: 2vw""> 
            <font color=""green""> Bonus : $0.29 </font>
            </div>
        </div>
    
            <div> Please press any key to continue to the next movie.</div>
        ","arrowleft","ITI","","","","","","",""
"","","","","","html-keyboard-response","67","198186","0.0-7.10-1.10","6102a52c8a4ed0d104d68a15","6573617f270241e5da3d355d","6576bfd79f5482df46746903","1095","./stimuli//pack_morph_shapes_1/cat_1/diff_2/ex_1_2_1.gif","arrowleft","response","ArrowLeft","1","1","2","test","true",""
"","","","","","html-keyboard-response","68","199686","0.0-7.10-2.10","6102a52c8a4ed0d104d68a15","6573617f270241e5da3d355d","6576bfd79f5482df46746903","null","<p> <font color=""green"" size=""5vw""> Correct category! </font> <br> <br> <font color=""green"" size=""8vw""> + $0.06 </font> </p>","null","feedback","","","","","","","0.35"
"","","","","","html-keyboard-response","69","200206","0.0-7.11-0.11","6102a52c8a4ed0d104d68a15","6573617f270241e5da3d355d","6576bfd79f5482df46746903","519","
            
        <div style=""text-align: center; position: fixed; top: 5vh; left: 40vw;"">
            <div style=""margin:0 auto; width: 20vw; top: 8vh; font-size: 2vw""> 
            <font color=""green""> Bonus : $0.35 </font>
            </div>
        </div>
    
            <div> Please press any key to continue to the next movie.</div>
        ","arrowleft","ITI","","","","","","",""
"","","","","","html-keyboard-response","70","201306","0.0-7.11-1.11","6102a52c8a4ed0d104d68a15","6573617f270241e5da3d355d","6576bfd79f5482df46746903","1099","./stimuli//pack_morph_shapes_1/cat_2/diff_2/ex_2_2_17.gif","arrowleft","response","ArrowRight","17","2","2","test","false",""
"","","","","","html-keyboard-response","71","202818","0.0-7.11-2.11","6102a52c8a4ed0d104d68a15","6573617f270241e5da3d355d","6576bfd79f5482df46746903","null","<p> <font color=""red"" size=""5vw""> Wrong category! </font> <br> <br> <font color=""red"" size=""8vw""> - $0.05 </font> </p>","null","feedback","","","","","","","0.3"
"","","","","","html-keyboard-response","72","203207","0.0-7.12-0.12","6102a52c8a4ed0d104d68a15","6573617f270241e5da3d355d","6576bfd79f5482df46746903","388","
            
        <div style=""text-align: center; position: fixed; top: 5vh; left: 40vw;"">
            <div style=""margin:0 auto; width: 20vw; top: 8vh; font-size: 2vw""> 
            <font color=""green""> Bonus : $0.3 </font>
            </div>
        </div>
    
            <div> Please press any key to continue to the next movie.</div>
        ","arrowleft","ITI","","","","","","",""
"","","","","","html-keyboard-response","73","203861","0.0-7.12-1.12","6102a52c8a4ed0d104d68a15","6573617f270241e5da3d355d","6576bfd79f5482df46746903","652","./stimuli//pack_morph_shapes_1/cat_1/diff_2/ex_1_2_1.gif","arrowleft","response","ArrowLeft","1","1","2","test","true",""
"","","","","","html-keyboard-response","74","205366","0.0-7.12-2.12","6102a52c8a4ed0d104d68a15","6573617f270241e5da3d355d","6576bfd79f5482df46746903","null","<p> <font color=""green"" size=""5vw""> Correct category! </font> <br> <br> <font color=""green"" size=""8vw""> + $0.07 </font> </p>","null","feedback","","","","","","","0.37"
"","","","","","html-keyboard-response","75","206098","0.0-7.13-0.13","6102a52c8a4ed0d104d68a15","6573617f270241e5da3d355d","6576bfd79f5482df46746903","731","
            
        <div style=""text-align: center; position: fixed; top: 5vh; left: 40vw;"">
            <div style=""margin:0 auto; width: 20vw; top: 8vh; font-size: 2vw""> 
            <font color=""green""> Bonus : $0.37 </font>
            </div>
        </div>
    
            <div> Please press any key to continue to the next movie.</div>
        ","arrowleft","ITI","","","","","","",""
"","","","","","html-keyboard-response","76","207202","0.0-7.13-1.13","6102a52c8a4ed0d104d68a15","6573617f270241e5da3d355d","6576bfd79f5482df46746903","1104","./stimuli//pack_morph_shapes_1/cat_2/diff_2/ex_2_2_4.gif","arrowleft","response","ArrowRight","4","2","2","test","false",""
"","","","","","html-keyboard-response","77","208709","0.0-7.13-2.13","6102a52c8a4ed0d104d68a15","6573617f270241e5da3d355d","6576bfd79f5482df46746903","null","<p> <font color=""red"" size=""5vw""> Wrong category! </font> <br> <br> <font color=""red"" size=""8vw""> - $0.05 </font> </p>","null","feedback","","","","","","","0.32"
"","","","","","html-keyboard-response","78","209014","0.0-7.14-0.14","6102a52c8a4ed0d104d68a15","6573617f270241e5da3d355d","6576bfd79f5482df46746903","304","
            
        <div style=""text-align: center; position: fixed; top: 5vh; left: 40vw;"">
            <div style=""margin:0 auto; width: 20vw; top: 8vh; font-size: 2vw""> 
            <font color=""green""> Bonus : $0.32 </font>
            </div>
        </div>
    
            <div> Please press any key to continue to the next movie.</div>
        ","arrowleft","ITI","","","","","","",""
"","","","","","html-keyboard-response","79","209794","0.0-7.14-1.14","6102a52c8a4ed0d104d68a15","6573617f270241e5da3d355d","6576bfd79f5482df46746903","779","./stimuli//pack_morph_shapes_1/cat_1/diff_1/ex_1_1_13.gif","arrowright","response","ArrowLeft","13","1","1","test","false",""
"","","","","","html-keyboard-response","80","211306","0.0-7.14-2.14","6102a52c8a4ed0d104d68a15","6573617f270241e5da3d355d","6576bfd79f5482df46746903","null","<p> <font color=""red"" size=""5vw""> Wrong category! </font> <br> <br> <font color=""red"" size=""8vw""> - $0.05 </font> </p>","null","feedback","","","","","","","0.27"
"","","","","","html-keyboard-response","81","211649","0.0-7.15-0.15","6102a52c8a4ed0d104d68a15","6573617f270241e5da3d355d","6576bfd79f5482df46746903","342","
            
        <div style=""text-align: center; position: fixed; top: 5vh; left: 40vw;"">
            <div style=""margin:0 auto; width: 20vw; top: 8vh; font-size: 2vw""> 
            <font color=""green""> Bonus : $0.27 </font>
            </div>
        </div>
    
            <div> Please press any key to continue to the next movie.</div>
        ","arrowright","ITI","","","","","","",""
"","","","","","html-keyboard-response","82","212291","0.0-7.15-1.15","6102a52c8a4ed0d104d68a15","6573617f270241e5da3d355d","6576bfd79f5482df46746903","639","./stimuli//pack_morph_shapes_1/cat_1/diff_1/ex_1_1_13.gif","arrowright","response","ArrowLeft","13","1","1","test","false",""
"","","","","","html-keyboard-response","83","213799","0.0-7.15-2.15","6102a52c8a4ed0d104d68a15","6573617f270241e5da3d355d","6576bfd79f5482df46746903","null","<p> <font color=""red"" size=""5vw""> Wrong category! </font> <br> <br> <font color=""red"" size=""8vw""> - $0.05 </font> </p>","null","feedback","","","","","","","0.22"
"","","","","","html-keyboard-response","84","214438","0.0-7.16-0.16","6102a52c8a4ed0d104d68a15","6573617f270241e5da3d355d","6576bfd79f5482df46746903","638","
            
        <div style=""text-align: center; position: fixed; top: 5vh; left: 40vw;"">
            <div style=""margin:0 auto; width: 20vw; top: 8vh; font-size: 2vw""> 
            <font color=""green""> Bonus : $0.22 </font>
            </div>
        </div>
    
            <div> Please press any key to continue to the next movie.</div>
        ","arrowleft","ITI","","","","","","",""
"","","","","","html-keyboard-response","85","215380","0.0-7.16-1.16","6102a52c8a4ed0d104d68a15","6573617f270241e5da3d355d","6576bfd79f5482df46746903","940","./stimuli//pack_morph_shapes_1/cat_1/diff_1/ex_1_1_15.gif","arrowleft","response","ArrowLeft","15","1","1","test","true",""
"","","","","","html-keyboard-response","86","216885","0.0-7.16-2.16","6102a52c8a4ed0d104d68a15","6573617f270241e5da3d355d","6576bfd79f5482df46746903","null","<p> <font color=""green"" size=""5vw""> Correct category! </font> <br> <br> <font color=""green"" size=""8vw""> + $0.06 </font> </p>","null","feedback","","","","","","","0.28"
"","","","","","html-keyboard-response","87","217621","0.0-7.17-0.17","6102a52c8a4ed0d104d68a15","6573617f270241e5da3d355d","6576bfd79f5482df46746903","735","
            
        <div style=""text-align: center; position: fixed; top: 5vh; left: 40vw;"">
            <div style=""margin:0 auto; width: 20vw; top: 8vh; font-size: 2vw""> 
            <font color=""green""> Bonus : $0.28 </font>
            </div>
        </div>
    
            <div> Please press any key to continue to the next movie.</div>
        ","arrowleft","ITI","","","","","","",""
"","","","","","html-keyboard-response","88","218721","0.0-7.17-1.17","6102a52c8a4ed0d104d68a15","6573617f270241e5da3d355d","6576bfd79f5482df46746903","1098","./stimuli//pack_morph_shapes_1/cat_2/diff_1/ex_2_1_6.gif","arrowleft","response","ArrowRight","6","2","1","test","false",""
"","","","","","html-keyboard-response","89","220235","0.0-7.17-2.17","6102a52c8a4ed0d104d68a15","6573617f270241e5da3d355d","6576bfd79f5482df46746903","null","<p> <font color=""red"" size=""5vw""> Wrong category! </font> <br> <br> <font color=""red"" size=""8vw""> - $0.05 </font> </p>","null","feedback","","","","","","","0.23"
"","","","","","html-keyboard-response","90","220778","0.0-7.18-0.18","6102a52c8a4ed0d104d68a15","6573617f270241e5da3d355d","6576bfd79f5482df46746903","542","
            
        <div style=""text-align: center; position: fixed; top: 5vh; left: 40vw;"">
            <div style=""margin:0 auto; width: 20vw; top: 8vh; font-size: 2vw""> 
            <font color=""green""> Bonus : $0.23 </font>
            </div>
        </div>
    
            <div> Please press any key to continue to the next movie.</div>
        ","arrowright","ITI","","","","","","",""
"","","","","","html-keyboard-response","91","221576","0.0-7.18-1.18","6102a52c8a4ed0d104d68a15","6573617f270241e5da3d355d","6576bfd79f5482df46746903","796","./stimuli//pack_morph_shapes_1/cat_2/diff_1/ex_2_1_12.gif","arrowright","response","ArrowRight","12","2","1","test","true",""
"","","","","","html-keyboard-response","92","223081","0.0-7.18-2.18","6102a52c8a4ed0d104d68a15","6573617f270241e5da3d355d","6576bfd79f5482df46746903","null","<p> <font color=""green"" size=""5vw""> Correct category! </font> <br> <br> <font color=""green"" size=""8vw""> + $0.07 </font> </p>","null","feedback","","","","","","","0.3"
"","","","","","html-keyboard-response","93","223799","0.0-7.19-0.19","6102a52c8a4ed0d104d68a15","6573617f270241e5da3d355d","6576bfd79f5482df46746903","717","
            
        <div style=""text-align: center; position: fixed; top: 5vh; left: 40vw;"">
            <div style=""margin:0 auto; width: 20vw; top: 8vh; font-size: 2vw""> 
            <font color=""green""> Bonus : $0.3 </font>
            </div>
        </div>
    
            <div> Please press any key to continue to the next movie.</div>
        ","arrowright","ITI","","","","","","",""
"","","","","","html-keyboard-response","94","224621","0.0-7.19-1.19","6102a52c8a4ed0d104d68a15","6573617f270241e5da3d355d","6576bfd79f5482df46746903","821","./stimuli//pack_morph_shapes_1/cat_1/diff_1/ex_1_1_11.gif","arrowright","response","ArrowLeft","11","1","1","test","false",""
"","","","","","html-keyboard-response","95","226134","0.0-7.19-2.19","6102a52c8a4ed0d104d68a15","6573617f270241e5da3d355d","6576bfd79f5482df46746903","null","<p> <font color=""red"" size=""5vw""> Wrong category! </font> <br> <br> <font color=""red"" size=""8vw""> - $0.05 </font> </p>","null","feedback","","","","","","","0.25"
"","","","","","html-keyboard-response","96","226833","0.0-7.20-0.20","6102a52c8a4ed0d104d68a15","6573617f270241e5da3d355d","6576bfd79f5482df46746903","698","
            
        <div style=""text-align: center; position: fixed; top: 5vh; left: 40vw;"">
            <div style=""margin:0 auto; width: 20vw; top: 8vh; font-size: 2vw""> 
            <font color=""green""> Bonus : $0.25 </font>
            </div>
        </div>
    
            <div> Please press any key to continue to the next movie.</div>
        ","arrowleft","ITI","","","","","","",""
"","","","","","html-keyboard-response","97","227954","0.0-7.20-1.20","6102a52c8a4ed0d104d68a15","6573617f270241e5da3d355d","6576bfd79f5482df46746903","1120","./stimuli//pack_morph_shapes_1/cat_1/diff_1/ex_1_1_12.gif","arrowleft","response","ArrowLeft","12","1","1","test","true",""
"","","","","","html-keyboard-response","98","229467","0.0-7.20-2.20","6102a52c8a4ed0d104d68a15","6573617f270241e5da3d355d","6576bfd79f5482df46746903","null","<p> <font color=""green"" size=""5vw""> Correct category! </font> <br> <br> <font color=""green"" size=""8vw""> + $0.06 </font> </p>","null","feedback","","","","","","","0.31"
"","","","","","html-keyboard-response","99","230279","0.0-7.21-0.21","6102a52c8a4ed0d104d68a15","6573617f270241e5da3d355d","6576bfd79f5482df46746903","811","
            
        <div style=""text-align: center; position: fixed; top: 5vh; left: 40vw;"">
            <div style=""margin:0 auto; width: 20vw; top: 8vh; font-size: 2vw""> 
            <font color=""green""> Bonus : $0.31 </font>
            </div>
        </div>
    
            <div> Please press any key to continue to the next movie.</div>
        ","arrowleft","ITI","","","","","","",""
"","","","","","html-keyboard-response","100","230925","0.0-7.21-1.21","6102a52c8a4ed0d104d68a15","6573617f270241e5da3d355d","6576bfd79f5482df46746903","644","./stimuli//pack_morph_shapes_1/cat_2/diff_1/ex_2_1_12.gif","arrowleft","response","ArrowRight","12","2","1","test","false",""
"","","","","","html-keyboard-response","101","232430","0.0-7.21-2.21","6102a52c8a4ed0d104d68a15","6573617f270241e5da3d355d","6576bfd79f5482df46746903","null","<p> <font color=""red"" size=""5vw""> Wrong category! </font> <br> <br> <font color=""red"" size=""8vw""> - $0.05 </font> </p>","null","feedback","","","","","","","0.26"
"","","","","","html-keyboard-response","102","232818","0.0-7.22-0.22","6102a52c8a4ed0d104d68a15","6573617f270241e5da3d355d","6576bfd79f5482df46746903","386","
            
        <div style=""text-align: center; position: fixed; top: 5vh; left: 40vw;"">
            <div style=""margin:0 auto; width: 20vw; top: 8vh; font-size: 2vw""> 
            <font color=""green""> Bonus : $0.26 </font>
            </div>
        </div>
    
            <div> Please press any key to continue to the next movie.</div>
        ","arrowleft","ITI","","","","","","",""
"","","","","","html-keyboard-response","103","233382","0.0-7.22-1.22","6102a52c8a4ed0d104d68a15","6573617f270241e5da3d355d","6576bfd79f5482df46746903","563","./stimuli//pack_morph_shapes_1/cat_1/diff_1/ex_1_1_2.gif","arrowleft","response","ArrowLeft","2","1","1","test","true",""
"","","","","","html-keyboard-response","104","234897","0.0-7.22-2.22","6102a52c8a4ed0d104d68a15","6573617f270241e5da3d355d","6576bfd79f5482df46746903","null","<p> <font color=""green"" size=""5vw""> Correct category! </font> <br> <br> <font color=""green"" size=""8vw""> + $0.08 </font> </p>","null","feedback","","","","","","","0.34"
"","","","","","html-keyboard-response","105","235927","0.0-7.23-0.23","6102a52c8a4ed0d104d68a15","6573617f270241e5da3d355d","6576bfd79f5482df46746903","1028","
            
        <div style=""text-align: center; position: fixed; top: 5vh; left: 40vw;"">
            <div style=""margin:0 auto; width: 20vw; top: 8vh; font-size: 2vw""> 
            <font color=""green""> Bonus : $0.34 </font>
            </div>
        </div>
    
            <div> Please press any key to continue to the next movie.</div>
        ","arrowleft","ITI","","","","","","",""
"","","","","","html-keyboard-response","106","236924","0.0-7.23-1.23","6102a52c8a4ed0d104d68a15","6573617f270241e5da3d355d","6576bfd79f5482df46746903","996","./stimuli//pack_morph_shapes_1/cat_1/diff_1/ex_1_1_10.gif","arrowleft","response","ArrowLeft","10","1","1","test","true",""
"","","","","","html-keyboard-response","107","238437","0.0-7.23-2.23","6102a52c8a4ed0d104d68a15","6573617f270241e5da3d355d","6576bfd79f5482df46746903","null","<p> <font color=""green"" size=""5vw""> Correct category! </font> <br> <br> <font color=""green"" size=""8vw""> + $0.06 </font> </p>","null","feedback","","","","","","","0.4"
"","","","","","html-keyboard-response","108","239177","0.0-7.24-0.24","6102a52c8a4ed0d104d68a15","6573617f270241e5da3d355d","6576bfd79f5482df46746903","739","
            
        <div style=""text-align: center; position: fixed; top: 5vh; left: 40vw;"">
            <div style=""margin:0 auto; width: 20vw; top: 8vh; font-size: 2vw""> 
            <font color=""green""> Bonus : $0.4 </font>
            </div>
        </div>
    
            <div> Please press any key to continue to the next movie.</div>
        ","arrowleft","ITI","","","","","","",""
"","","","","","html-keyboard-response","109","240131","0.0-7.24-1.24","6102a52c8a4ed0d104d68a15","6573617f270241e5da3d355d","6576bfd79f5482df46746903","950","./stimuli//pack_morph_shapes_1/cat_1/diff_1/ex_1_1_1.gif","arrowleft","response","ArrowLeft","1","1","1","test","true",""
"","","","","","html-keyboard-response","110","241645","0.0-7.24-2.24","6102a52c8a4ed0d104d68a15","6573617f270241e5da3d355d","6576bfd79f5482df46746903","null","<p> <font color=""green"" size=""5vw""> Correct category! </font> <br> <br> <font color=""green"" size=""8vw""> + $0.06 </font> </p>","null","feedback","","","","","","","0.46"
"","","","","","html-keyboard-response","111","242413","0.0-7.25-0.25","6102a52c8a4ed0d104d68a15","6573617f270241e5da3d355d","6576bfd79f5482df46746903","767","
            
        <div style=""text-align: center; position: fixed; top: 5vh; left: 40vw;"">
            <div style=""margin:0 auto; width: 20vw; top: 8vh; font-size: 2vw""> 
            <font color=""green""> Bonus : $0.46 </font>
            </div>
        </div>
    
            <div> Please press any key to continue to the next movie.</div>
        ","arrowleft","ITI","","","","","","",""
"","","","","","html-keyboard-response","112","243116","0.0-7.25-1.25","6102a52c8a4ed0d104d68a15","6573617f270241e5da3d355d","6576bfd79f5482df46746903","703","./stimuli//pack_morph_shapes_1/cat_2/diff_2/ex_2_2_16.gif","arrowleft","response","ArrowRight","16","2","2","test","false",""
"","","","","","html-keyboard-response","113","244620","0.0-7.25-2.25","6102a52c8a4ed0d104d68a15","6573617f270241e5da3d355d","6576bfd79f5482df46746903","null","<p> <font color=""red"" size=""5vw""> Wrong category! </font> <br> <br> <font color=""red"" size=""8vw""> - $0.05 </font> </p>","null","feedback","","","","","","","0.41"
"","","","","","html-keyboard-response","114","245060","0.0-7.26-0.26","6102a52c8a4ed0d104d68a15","6573617f270241e5da3d355d","6576bfd79f5482df46746903","438","
            
        <div style=""text-align: center; position: fixed; top: 5vh; left: 40vw;"">
            <div style=""margin:0 auto; width: 20vw; top: 8vh; font-size: 2vw""> 
            <font color=""green""> Bonus : $0.41 </font>
            </div>
        </div>
    
            <div> Please press any key to continue to the next movie.</div>
        ","arrowleft","ITI","","","","","","",""
"","","","","","html-keyboard-response","115","245777","0.0-7.26-1.26","6102a52c8a4ed0d104d68a15","6573617f270241e5da3d355d","6576bfd79f5482df46746903","715","./stimuli//pack_morph_shapes_1/cat_1/diff_2/ex_1_2_9.gif","arrowleft","response","ArrowLeft","9","1","2","test","true",""
"","","","","","html-keyboard-response","116","247291","0.0-7.26-2.26","6102a52c8a4ed0d104d68a15","6573617f270241e5da3d355d","6576bfd79f5482df46746903","null","<p> <font color=""green"" size=""5vw""> Correct category! </font> <br> <br> <font color=""green"" size=""8vw""> + $0.07 </font> </p>","null","feedback","","","","","","","0.48"
"","","","","","html-keyboard-response","117","247984","0.0-7.27-0.27","6102a52c8a4ed0d104d68a15","6573617f270241e5da3d355d","6576bfd79f5482df46746903","692","
            
        <div style=""text-align: center; position: fixed; top: 5vh; left: 40vw;"">
            <div style=""margin:0 auto; width: 20vw; top: 8vh; font-size: 2vw""> 
            <font color=""green""> Bonus : $0.48 </font>
            </div>
        </div>
    
            <div> Please press any key to continue to the next movie.</div>
        ","arrowleft","ITI","","","","","","",""
"","","","","","html-keyboard-response","118","248735","0.0-7.27-1.27","6102a52c8a4ed0d104d68a15","6573617f270241e5da3d355d","6576bfd79f5482df46746903","749","./stimuli//pack_morph_shapes_1/cat_1/diff_2/ex_1_2_2.gif","arrowleft","response","ArrowLeft","2","1","2","test","true",""
"","","","","","html-keyboard-response","119","250242","0.0-7.27-2.27","6102a52c8a4ed0d104d68a15","6573617f270241e5da3d355d","6576bfd79f5482df46746903","null","<p> <font color=""green"" size=""5vw""> Correct category! </font> <br> <br> <font color=""green"" size=""8vw""> + $0.07 </font> </p>","null","feedback","","","","","","","0.55"
"","","","","","html-keyboard-response","120","251056","0.0-7.28-0.28","6102a52c8a4ed0d104d68a15","6573617f270241e5da3d355d","6576bfd79f5482df46746903","813","
            
        <div style=""text-align: center; position: fixed; top: 5vh; left: 40vw;"">
            <div style=""margin:0 auto; width: 20vw; top: 8vh; font-size: 2vw""> 
            <font color=""green""> Bonus : $0.55 </font>
            </div>
        </div>
    
            <div> Please press any key to continue to the next movie.</div>
        ","arrowleft","ITI","","","","","","",""
"","","","","","html-keyboard-response","121","251958","0.0-7.28-1.28","6102a52c8a4ed0d104d68a15","6573617f270241e5da3d355d","6576bfd79f5482df46746903","901","./stimuli//pack_morph_shapes_1/cat_2/diff_2/ex_2_2_8.gif","arrowleft","response","ArrowRight","8","2","2","test","false",""
"","","","","","html-keyboard-response","122","253460","0.0-7.28-2.28","6102a52c8a4ed0d104d68a15","6573617f270241e5da3d355d","6576bfd79f5482df46746903","null","<p> <font color=""red"" size=""5vw""> Wrong category! </font> <br> <br> <font color=""red"" size=""8vw""> - $0.05 </font> </p>","null","feedback","","","","","","","0.5"
"","","","","","html-keyboard-response","123","253801","0.0-7.29-0.29","6102a52c8a4ed0d104d68a15","6573617f270241e5da3d355d","6576bfd79f5482df46746903","339","
            
        <div style=""text-align: center; position: fixed; top: 5vh; left: 40vw;"">
            <div style=""margin:0 auto; width: 20vw; top: 8vh; font-size: 2vw""> 
            <font color=""green""> Bonus : $0.5 </font>
            </div>
        </div>
    
            <div> Please press any key to continue to the next movie.</div>
        ","arrowright","ITI","","","","","","",""
"","","","","","html-keyboard-response","124","254402","0.0-7.29-1.29","6102a52c8a4ed0d104d68a15","6573617f270241e5da3d355d","6576bfd79f5482df46746903","599","./stimuli//pack_morph_shapes_1/cat_1/diff_2/ex_1_2_7.gif","arrowright","response","ArrowLeft","7","1","2","test","false",""
"","","","","","html-keyboard-response","125","255903","0.0-7.29-2.29","6102a52c8a4ed0d104d68a15","6573617f270241e5da3d355d","6576bfd79f5482df46746903","null","<p> <font color=""red"" size=""5vw""> Wrong category! </font> <br> <br> <font color=""red"" size=""8vw""> - $0.05 </font> </p>","null","feedback","","","","","","","0.45"
"","","","","","html-keyboard-response","126","256285","0.0-7.30-0.30","6102a52c8a4ed0d104d68a15","6573617f270241e5da3d355d","6576bfd79f5482df46746903","381","
            
        <div style=""text-align: center; position: fixed; top: 5vh; left: 40vw;"">
            <div style=""margin:0 auto; width: 20vw; top: 8vh; font-size: 2vw""> 
            <font color=""green""> Bonus : $0.45 </font>
            </div>
        </div>
    
            <div> Please press any key to continue to the next movie.</div>
        ","arrowright","ITI","","","","","","",""
"","","","","","html-keyboard-response","127","256906","0.0-7.30-1.30","6102a52c8a4ed0d104d68a15","6573617f270241e5da3d355d","6576bfd79f5482df46746903","621","./stimuli//pack_morph_shapes_1/cat_2/diff_1/ex_2_1_4.gif","arrowright","response","ArrowRight","4","2","1","test","true",""
"","","","","","html-keyboard-response","128","258417","0.0-7.30-2.30","6102a52c8a4ed0d104d68a15","6573617f270241e5da3d355d","6576bfd79f5482df46746903","null","<p> <font color=""green"" size=""5vw""> Correct category! </font> <br> <br> <font color=""green"" size=""8vw""> + $0.07 </font> </p>","null","feedback","","","","","","","0.52"
"","","","","","html-keyboard-response","129","259107","0.0-7.31-0.31","6102a52c8a4ed0d104d68a15","6573617f270241e5da3d355d","6576bfd79f5482df46746903","681","
            
        <div style=""text-align: center; position: fixed; top: 5vh; left: 40vw;"">
            <div style=""margin:0 auto; width: 20vw; top: 8vh; font-size: 2vw""> 
            <font color=""green""> Bonus : $0.52 </font>
            </div>
        </div>
    
            <div> Please press any key to continue to the next movie.</div>
        ","arrowright","ITI","","","","","","",""
"","","","","","html-keyboard-response","130","259855","0.0-7.31-1.31","6102a52c8a4ed0d104d68a15","6573617f270241e5da3d355d","6576bfd79f5482df46746903","746","./stimuli//pack_morph_shapes_1/cat_1/diff_1/ex_1_1_14.gif","arrowright","response","ArrowLeft","14","1","1","test","false",""
"","","","","","html-keyboard-response","131","261361","0.0-7.31-2.31","6102a52c8a4ed0d104d68a15","6573617f270241e5da3d355d","6576bfd79f5482df46746903","null","<p> <font color=""red"" size=""5vw""> Wrong category! </font> <br> <br> <font color=""red"" size=""8vw""> - $0.05 </font> </p>","null","feedback","","","","","","","0.47"
"","","","","","html-keyboard-response","132","261690","0.0-7.32-0.32","6102a52c8a4ed0d104d68a15","6573617f270241e5da3d355d","6576bfd79f5482df46746903","328","
            
        <div style=""text-align: center; position: fixed; top: 5vh; left: 40vw;"">
            <div style=""margin:0 auto; width: 20vw; top: 8vh; font-size: 2vw""> 
            <font color=""green""> Bonus : $0.47 </font>
            </div>
        </div>
    
            <div> Please press any key to continue to the next movie.</div>
        ","arrowleft","ITI","","","","","","",""
"","","","","","html-keyboard-response","133","262393","0.0-7.32-1.32","6102a52c8a4ed0d104d68a15","6573617f270241e5da3d355d","6576bfd79f5482df46746903","702","./stimuli//pack_morph_shapes_1/cat_1/diff_1/ex_1_1_11.gif","arrowleft","response","ArrowLeft","11","1","1","test","true",""
"","","","","","html-keyboard-response","134","263898","0.0-7.32-2.32","6102a52c8a4ed0d104d68a15","6573617f270241e5da3d355d","6576bfd79f5482df46746903","null","<p> <font color=""green"" size=""5vw""> Correct category! </font> <br> <br> <font color=""green"" size=""8vw""> + $0.07 </font> </p>","null","feedback","","","","","","","0.54"
"","","","","","html-keyboard-response","135","264315","0.0-7.33-0.33","6102a52c8a4ed0d104d68a15","6573617f270241e5da3d355d","6576bfd79f5482df46746903","416","
            
        <div style=""text-align: center; position: fixed; top: 5vh; left: 40vw;"">
            <div style=""margin:0 auto; width: 20vw; top: 8vh; font-size: 2vw""> 
            <font color=""green""> Bonus : $0.54 </font>
            </div>
        </div>
    
            <div> Please press any key to continue to the next movie.</div>
        ","arrowleft","ITI","","","","","","",""
"","","","","","html-keyboard-response","136","265071","0.0-7.33-1.33","6102a52c8a4ed0d104d68a15","6573617f270241e5da3d355d","6576bfd79f5482df46746903","754","./stimuli//pack_morph_shapes_1/cat_1/diff_1/ex_1_1_12.gif","arrowleft","response","ArrowLeft","12","1","1","test","true",""
"","","","","","html-keyboard-response","137","266584","0.0-7.33-2.33","6102a52c8a4ed0d104d68a15","6573617f270241e5da3d355d","6576bfd79f5482df46746903","null","<p> <font color=""green"" size=""5vw""> Correct category! </font> <br> <br> <font color=""green"" size=""8vw""> + $0.07 </font> </p>","null","feedback","","","","","","","0.61"
"","","","","","html-keyboard-response","138","267378","0.0-7.34-0.34","6102a52c8a4ed0d104d68a15","6573617f270241e5da3d355d","6576bfd79f5482df46746903","794","
            
        <div style=""text-align: center; position: fixed; top: 5vh; left: 40vw;"">
            <div style=""margin:0 auto; width: 20vw; top: 8vh; font-size: 2vw""> 
            <font color=""green""> Bonus : $0.61 </font>
            </div>
        </div>
    
            <div> Please press any key to continue to the next movie.</div>
        ","arrowleft","ITI","","","","","","",""
"","","","","","html-keyboard-response","139","268166","0.0-7.34-1.34","6102a52c8a4ed0d104d68a15","6573617f270241e5da3d355d","6576bfd79f5482df46746903","786","./stimuli//pack_morph_shapes_1/cat_1/diff_1/ex_1_1_15.gif","arrowleft","response","ArrowLeft","15","1","1","test","true",""
"","","","","","html-keyboard-response","140","269680","0.0-7.34-2.34","6102a52c8a4ed0d104d68a15","6573617f270241e5da3d355d","6576bfd79f5482df46746903","null","<p> <font color=""green"" size=""5vw""> Correct category! </font> <br> <br> <font color=""green"" size=""8vw""> + $0.07 </font> </p>","null","feedback","","","","","","","0.68"
"","","","","","html-keyboard-response","141","270215","0.0-7.35-0.35","6102a52c8a4ed0d104d68a15","6573617f270241e5da3d355d","6576bfd79f5482df46746903","534","
            
        <div style=""text-align: center; position: fixed; top: 5vh; left: 40vw;"">
            <div style=""margin:0 auto; width: 20vw; top: 8vh; font-size: 2vw""> 
            <font color=""green""> Bonus : $0.68 </font>
            </div>
        </div>
    
            <div> Please press any key to continue to the next movie.</div>
        ","arrowleft","ITI","","","","","","",""
"","","","","","html-keyboard-response","142","270822","0.0-7.35-1.35","6102a52c8a4ed0d104d68a15","6573617f270241e5da3d355d","6576bfd79f5482df46746903","605","./stimuli//pack_morph_shapes_1/cat_1/diff_2/ex_1_2_9.gif","arrowleft","response","ArrowLeft","9","1","2","test","true",""
"","","","","","html-keyboard-response","143","272328","0.0-7.35-2.35","6102a52c8a4ed0d104d68a15","6573617f270241e5da3d355d","6576bfd79f5482df46746903","null","<p> <font color=""green"" size=""5vw""> Correct category! </font> <br> <br> <font color=""green"" size=""8vw""> + $0.07 </font> </p>","null","feedback","","","","","","","0.75"
"","","","","","html-keyboard-response","144","272828","0.0-7.36-0.36","6102a52c8a4ed0d104d68a15","6573617f270241e5da3d355d","6576bfd79f5482df46746903","499","
            
        <div style=""text-align: center; position: fixed; top: 5vh; left: 40vw;"">
            <div style=""margin:0 auto; width: 20vw; top: 8vh; font-size: 2vw""> 
            <font color=""green""> Bonus : $0.75 </font>
            </div>
        </div>
    
            <div> Please press any key to continue to the next movie.</div>
        ","arrowleft","ITI","","","","","","",""
"","","","","","html-keyboard-response","145","273689","0.0-7.36-1.36","6102a52c8a4ed0d104d68a15","6573617f270241e5da3d355d","6576bfd79f5482df46746903","860","./stimuli//pack_morph_shapes_1/cat_2/diff_2/ex_2_2_4.gif","arrowleft","response","ArrowRight","4","2","2","test","false",""
"","","","","","html-keyboard-response","146","275199","0.0-7.36-2.36","6102a52c8a4ed0d104d68a15","6573617f270241e5da3d355d","6576bfd79f5482df46746903","null","<p> <font color=""red"" size=""5vw""> Wrong category! </font> <br> <br> <font color=""red"" size=""8vw""> - $0.05 </font> </p>","null","feedback","","","","","","","0.7"
"","","","","","html-keyboard-response","147","275545","0.0-7.37-0.37","6102a52c8a4ed0d104d68a15","6573617f270241e5da3d355d","6576bfd79f5482df46746903","345","
            
        <div style=""text-align: center; position: fixed; top: 5vh; left: 40vw;"">
            <div style=""margin:0 auto; width: 20vw; top: 8vh; font-size: 2vw""> 
            <font color=""green""> Bonus : $0.7 </font>
            </div>
        </div>
    
            <div> Please press any key to continue to the next movie.</div>
        ","arrowright","ITI","","","","","","",""
"","","","","","html-keyboard-response","148","276216","0.0-7.37-1.37","6102a52c8a4ed0d104d68a15","6573617f270241e5da3d355d","6576bfd79f5482df46746903","670","./stimuli//pack_morph_shapes_1/cat_2/diff_2/ex_2_2_1.gif","arrowright","response","ArrowRight","1","2","2","test","true",""
"","","","","","html-keyboard-response","149","277720","0.0-7.37-2.37","6102a52c8a4ed0d104d68a15","6573617f270241e5da3d355d","6576bfd79f5482df46746903","null","<p> <font color=""green"" size=""5vw""> Correct category! </font> <br> <br> <font color=""green"" size=""8vw""> + $0.07 </font> </p>","null","feedback","","","","","","","0.77"
"","","","","","html-keyboard-response","150","278313","0.0-7.38-0.38","6102a52c8a4ed0d104d68a15","6573617f270241e5da3d355d","6576bfd79f5482df46746903","592","
            
        <div style=""text-align: center; position: fixed; top: 5vh; left: 40vw;"">
            <div style=""margin:0 auto; width: 20vw; top: 8vh; font-size: 2vw""> 
            <font color=""green""> Bonus : $0.77 </font>
            </div>
        </div>
    
            <div> Please press any key to continue to the next movie.</div>
        ","arrowright","ITI","","","","","","",""
"","","","","","html-keyboard-response","151","279564","0.0-7.38-1.38","6102a52c8a4ed0d104d68a15","6573617f270241e5da3d355d","6576bfd79f5482df46746903","1250","./stimuli//pack_morph_shapes_1/cat_2/diff_2/ex_2_2_2.gif","arrowright","response","ArrowRight","2","2","2","test","true",""
"","","","","","html-keyboard-response","152","281078","0.0-7.38-2.38","6102a52c8a4ed0d104d68a15","6573617f270241e5da3d355d","6576bfd79f5482df46746903","null","<p> <font color=""green"" size=""5vw""> Correct category! </font> <br> <br> <font color=""green"" size=""8vw""> + $0.05 </font> </p>","null","feedback","","","","","","","0.82"
"","","","","","html-keyboard-response","153","281651","0.0-7.39-0.39","6102a52c8a4ed0d104d68a15","6573617f270241e5da3d355d","6576bfd79f5482df46746903","571","
            
        <div style=""text-align: center; position: fixed; top: 5vh; left: 40vw;"">
            <div style=""margin:0 auto; width: 20vw; top: 8vh; font-size: 2vw""> 
            <font color=""green""> Bonus : $0.82 </font>
            </div>
        </div>
    
            <div> Please press any key to continue to the next movie.</div>
        ","arrowright","ITI","","","","","","",""
"","","","","","html-keyboard-response","154","282283","0.0-7.39-1.39","6102a52c8a4ed0d104d68a15","6573617f270241e5da3d355d","6576bfd79f5482df46746903","628","./stimuli//pack_morph_shapes_1/cat_2/diff_2/ex_2_2_9.gif","arrowright","response","ArrowRight","9","2","2","test","true",""
"","","","","","html-keyboard-response","155","283790","0.0-7.39-2.39","6102a52c8a4ed0d104d68a15","6573617f270241e5da3d355d","6576bfd79f5482df46746903","null","<p> <font color=""green"" size=""5vw""> Correct category! </font> <br> <br> <font color=""green"" size=""8vw""> + $0.07 </font> </p>","null","feedback","","","","","","","0.89"
"","","","","","html-keyboard-response","156","284221","0.0-7.40-0.40","6102a52c8a4ed0d104d68a15","6573617f270241e5da3d355d","6576bfd79f5482df46746903","430","
            
        <div style=""text-align: center; position: fixed; top: 5vh; left: 40vw;"">
            <div style=""margin:0 auto; width: 20vw; top: 8vh; font-size: 2vw""> 
            <font color=""green""> Bonus : $0.89 </font>
            </div>
        </div>
    
            <div> Please press any key to continue to the next movie.</div>
        ","arrowright","ITI","","","","","","",""
"","","","","","html-keyboard-response","157","284859","0.0-7.40-1.40","6102a52c8a4ed0d104d68a15","6573617f270241e5da3d355d","6576bfd79f5482df46746903","637","./stimuli//pack_morph_shapes_1/cat_2/diff_3/ex_2_3_1.gif","arrowright","response","ArrowRight","1","2","3","test","true",""
"","","","","","html-keyboard-response","158","286369","0.0-7.40-2.40","6102a52c8a4ed0d104d68a15","6573617f270241e5da3d355d","6576bfd79f5482df46746903","null","<p> <font color=""green"" size=""5vw""> Correct category! </font> <br> <br> <font color=""green"" size=""8vw""> + $0.07 </font> </p>","null","feedback","","","","","","","0.96"
"","","","","","html-keyboard-response","159","286897","0.0-7.41-0.41","6102a52c8a4ed0d104d68a15","6573617f270241e5da3d355d","6576bfd79f5482df46746903","527","
            
        <div style=""text-align: center; position: fixed; top: 5vh; left: 40vw;"">
            <div style=""margin:0 auto; width: 20vw; top: 8vh; font-size: 2vw""> 
            <font color=""green""> Bonus : $0.96 </font>
            </div>
        </div>
    
            <div> Please press any key to continue to the next movie.</div>
        ","arrowright","ITI","","","","","","",""
"","","","","","html-keyboard-response","160","287757","0.0-7.41-1.41","6102a52c8a4ed0d104d68a15","6573617f270241e5da3d355d","6576bfd79f5482df46746903","858","./stimuli//pack_morph_shapes_1/cat_2/diff_3/ex_2_3_9.gif","arrowright","response","ArrowRight","9","2","3","test","true",""
"","","","","","html-keyboard-response","161","289264","0.0-7.41-2.41","6102a52c8a4ed0d104d68a15","6573617f270241e5da3d355d","6576bfd79f5482df46746903","null","<p> <font color=""green"" size=""5vw""> Correct category! </font> <br> <br> <font color=""green"" size=""8vw""> + $0.07 </font> </p>","null","feedback","","","","","","","1.03"
"","","","","","html-keyboard-response","162","289908","0.0-7.42-0.42","6102a52c8a4ed0d104d68a15","6573617f270241e5da3d355d","6576bfd79f5482df46746903","643","
            
        <div style=""text-align: center; position: fixed; top: 5vh; left: 40vw;"">
            <div style=""margin:0 auto; width: 20vw; top: 8vh; font-size: 2vw""> 
            <font color=""green""> Bonus : $1.03 </font>
            </div>
        </div>
    
            <div> Please press any key to continue to the next movie.</div>
        ","arrowright","ITI","","","","","","",""
"","","","","","html-keyboard-response","163","290701","0.0-7.42-1.42","6102a52c8a4ed0d104d68a15","6573617f270241e5da3d355d","6576bfd79f5482df46746903","792","./stimuli//pack_morph_shapes_1/cat_2/diff_3/ex_2_3_5.gif","arrowright","response","ArrowRight","5","2","3","test","true",""
"","","","","","html-keyboard-response","164","292214","0.0-7.42-2.42","6102a52c8a4ed0d104d68a15","6573617f270241e5da3d355d","6576bfd79f5482df46746903","null","<p> <font color=""green"" size=""5vw""> Correct category! </font> <br> <br> <font color=""green"" size=""8vw""> + $0.07 </font> </p>","null","feedback","","","","","","","1.1"
"","","","","","html-keyboard-response","165","292846","0.0-7.43-0.43","6102a52c8a4ed0d104d68a15","6573617f270241e5da3d355d","6576bfd79f5482df46746903","631","
            
        <div style=""text-align: center; position: fixed; top: 5vh; left: 40vw;"">
            <div style=""margin:0 auto; width: 20vw; top: 8vh; font-size: 2vw""> 
            <font color=""green""> Bonus : $1.1 </font>
            </div>
        </div>
    
            <div> Please press any key to continue to the next movie.</div>
        ","arrowright","ITI","","","","","","",""
"","","","","","html-keyboard-response","166","293454","0.0-7.43-1.43","6102a52c8a4ed0d104d68a15","6573617f270241e5da3d355d","6576bfd79f5482df46746903","606","./stimuli//pack_morph_shapes_1/cat_1/diff_3/ex_1_3_12.gif","arrowright","response","ArrowLeft","12","1","3","test","false",""
"","","","","","html-keyboard-response","167","294969","0.0-7.43-2.43","6102a52c8a4ed0d104d68a15","6573617f270241e5da3d355d","6576bfd79f5482df46746903","null","<p> <font color=""red"" size=""5vw""> Wrong category! </font> <br> <br> <font color=""red"" size=""8vw""> - $0.05 </font> </p>","null","feedback","","","","","","","1.05"
"","","","","","html-keyboard-response","168","295273","0.0-7.44-0.44","6102a52c8a4ed0d104d68a15","6573617f270241e5da3d355d","6576bfd79f5482df46746903","302","
            
        <div style=""text-align: center; position: fixed; top: 5vh; left: 40vw;"">
            <div style=""margin:0 auto; width: 20vw; top: 8vh; font-size: 2vw""> 
            <font color=""green""> Bonus : $1.05 </font>
            </div>
        </div>
    
            <div> Please press any key to continue to the next movie.</div>
        ","arrowleft","ITI","","","","","","",""
"","","","","","html-keyboard-response","169","295920","0.0-7.44-1.44","6102a52c8a4ed0d104d68a15","6573617f270241e5da3d355d","6576bfd79f5482df46746903","646","./stimuli//pack_morph_shapes_1/cat_2/diff_3/ex_2_3_10.gif","arrowleft","response","ArrowRight","10","2","3","test","false",""
"","","","","","html-keyboard-response","170","297426","0.0-7.44-2.44","6102a52c8a4ed0d104d68a15","6573617f270241e5da3d355d","6576bfd79f5482df46746903","null","<p> <font color=""red"" size=""5vw""> Wrong category! </font> <br> <br> <font color=""red"" size=""8vw""> - $0.05 </font> </p>","null","feedback","","","","","","","1"
"","","","","","html-keyboard-response","171","297845","0.0-7.45-0.45","6102a52c8a4ed0d104d68a15","6573617f270241e5da3d355d","6576bfd79f5482df46746903","419","
            
        <div style=""text-align: center; position: fixed; top: 5vh; left: 40vw;"">
            <div style=""margin:0 auto; width: 20vw; top: 8vh; font-size: 2vw""> 
            <font color=""green""> Bonus : $1 </font>
            </div>
        </div>
    
            <div> Please press any key to continue to the next movie.</div>
        ","arrowleft","ITI","","","","","","",""
"","","","","","html-keyboard-response","172","298534","0.0-7.45-1.45","6102a52c8a4ed0d104d68a15","6573617f270241e5da3d355d","6576bfd79f5482df46746903","686","./stimuli//pack_morph_shapes_1/cat_1/diff_2/ex_1_2_15.gif","arrowleft","response","ArrowLeft","15","1","2","test","true",""
"","","","","","html-keyboard-response","173","300035","0.0-7.45-2.45","6102a52c8a4ed0d104d68a15","6573617f270241e5da3d355d","6576bfd79f5482df46746903","null","<p> <font color=""green"" size=""5vw""> Correct category! </font> <br> <br> <font color=""green"" size=""8vw""> + $0.07 </font> </p>","null","feedback","","","","","","","1.07"
"","","","","","html-keyboard-response","174","300891","0.0-7.46-0.46","6102a52c8a4ed0d104d68a15","6573617f270241e5da3d355d","6576bfd79f5482df46746903","855","
            
        <div style=""text-align: center; position: fixed; top: 5vh; left: 40vw;"">
            <div style=""margin:0 auto; width: 20vw; top: 8vh; font-size: 2vw""> 
            <font color=""green""> Bonus : $1.07 </font>
            </div>
        </div>
    
            <div> Please press any key to continue to the next movie.</div>
        ","arrowleft","ITI","","","","","","",""
"","","","","","html-keyboard-response","175","301825","0.0-7.46-1.46","6102a52c8a4ed0d104d68a15","6573617f270241e5da3d355d","6576bfd79f5482df46746903","933","./stimuli//pack_morph_shapes_1/cat_2/diff_2/ex_2_2_7.gif","arrowleft","response","ArrowRight","7","2","2","test","false",""
"","","","","","html-keyboard-response","176","303329","0.0-7.46-2.46","6102a52c8a4ed0d104d68a15","6573617f270241e5da3d355d","6576bfd79f5482df46746903","null","<p> <font color=""red"" size=""5vw""> Wrong category! </font> <br> <br> <font color=""red"" size=""8vw""> - $0.05 </font> </p>","null","feedback","","","","","","","1.02"
"","","","","","html-keyboard-response","177","303641","0.0-7.47-0.47","6102a52c8a4ed0d104d68a15","6573617f270241e5da3d355d","6576bfd79f5482df46746903","311","
            
        <div style=""text-align: center; position: fixed; top: 5vh; left: 40vw;"">
            <div style=""margin:0 auto; width: 20vw; top: 8vh; font-size: 2vw""> 
            <font color=""green""> Bonus : $1.02 </font>
            </div>
        </div>
    
            <div> Please press any key to continue to the next movie.</div>
        ","arrowright","ITI","","","","","","",""
"","","","","","html-keyboard-response","178","304274","0.0-7.47-1.47","6102a52c8a4ed0d104d68a15","6573617f270241e5da3d355d","6576bfd79f5482df46746903","632","./stimuli//pack_morph_shapes_1/cat_2/diff_2/ex_2_2_13.gif","arrowright","response","ArrowRight","13","2","2","test","true",""
"","","","","","html-keyboard-response","179","305789","0.0-7.47-2.47","6102a52c8a4ed0d104d68a15","6573617f270241e5da3d355d","6576bfd79f5482df46746903","null","<p> <font color=""green"" size=""5vw""> Correct category! </font> <br> <br> <font color=""green"" size=""8vw""> + $0.07 </font> </p>","null","feedback","","","","","","","1.09"
"","","","","","html-keyboard-response","180","306420","0.0-7.48-0.48","6102a52c8a4ed0d104d68a15","6573617f270241e5da3d355d","6576bfd79f5482df46746903","630","
            
        <div style=""text-align: center; position: fixed; top: 5vh; left: 40vw;"">
            <div style=""margin:0 auto; width: 20vw; top: 8vh; font-size: 2vw""> 
            <font color=""green""> Bonus : $1.09 </font>
            </div>
        </div>
    
            <div> Please press any key to continue to the next movie.</div>
        ","arrowright","ITI","","","","","","",""
"","","","","","html-keyboard-response","181","307211","0.0-7.48-1.48","6102a52c8a4ed0d104d68a15","6573617f270241e5da3d355d","6576bfd79f5482df46746903","788","./stimuli//pack_morph_shapes_1/cat_1/diff_2/ex_1_2_2.gif","arrowright","response","ArrowLeft","2","1","2","test","false",""
"","","","","","html-keyboard-response","182","308723","0.0-7.48-2.48","6102a52c8a4ed0d104d68a15","6573617f270241e5da3d355d","6576bfd79f5482df46746903","null","<p> <font color=""red"" size=""5vw""> Wrong category! </font> <br> <br> <font color=""red"" size=""8vw""> - $0.05 </font> </p>","null","feedback","","","","","","","1.04"
"","","","","","html-keyboard-response","183","309216","0.0-7.49-0.49","6102a52c8a4ed0d104d68a15","6573617f270241e5da3d355d","6576bfd79f5482df46746903","491","
            
        <div style=""text-align: center; position: fixed; top: 5vh; left: 40vw;"">
            <div style=""margin:0 auto; width: 20vw; top: 8vh; font-size: 2vw""> 
            <font color=""green""> Bonus : $1.04 </font>
            </div>
        </div>
    
            <div> Please press any key to continue to the next movie.</div>
        ","arrowleft","ITI","","","","","","",""
"","","","","","html-keyboard-response","184","309952","0.0-7.49-1.49","6102a52c8a4ed0d104d68a15","6573617f270241e5da3d355d","6576bfd79f5482df46746903","735","./stimuli//pack_morph_shapes_1/cat_1/diff_2/ex_1_2_12.gif","arrowleft","response","ArrowLeft","12","1","2","test","true",""
"","","","","","html-keyboard-response","185","311455","0.0-7.49-2.49","6102a52c8a4ed0d104d68a15","6573617f270241e5da3d355d","6576bfd79f5482df46746903","null","<p> <font color=""green"" size=""5vw""> Correct category! </font> <br> <br> <font color=""green"" size=""8vw""> + $0.07 </font> </p>","null","feedback","","","","","","","1.11"
"","","","","","html-keyboard-response","186","312076","0.0-7.50-0.50","6102a52c8a4ed0d104d68a15","6573617f270241e5da3d355d","6576bfd79f5482df46746903","620","
            
        <div style=""text-align: center; position: fixed; top: 5vh; left: 40vw;"">
            <div style=""margin:0 auto; width: 20vw; top: 8vh; font-size: 2vw""> 
            <font color=""green""> Bonus : $1.11 </font>
            </div>
        </div>
    
            <div> Please press any key to continue to the next movie.</div>
        ","arrowleft","ITI","","","","","","",""
"","","","","","html-keyboard-response","187","312631","0.0-7.50-1.50","6102a52c8a4ed0d104d68a15","6573617f270241e5da3d355d","6576bfd79f5482df46746903","554","./stimuli//pack_morph_shapes_1/cat_2/diff_1/ex_2_1_7.gif","arrowleft","response","ArrowRight","7","2","1","test","false",""
"","","","","","html-keyboard-response","188","314141","0.0-7.50-2.50","6102a52c8a4ed0d104d68a15","6573617f270241e5da3d355d","6576bfd79f5482df46746903","null","<p> <font color=""red"" size=""5vw""> Wrong category! </font> <br> <br> <font color=""red"" size=""8vw""> - $0.05 </font> </p>","null","feedback","","","","","","","1.06"
"","","","","","html-keyboard-response","189","314527","0.0-7.51-0.51","6102a52c8a4ed0d104d68a15","6573617f270241e5da3d355d","6576bfd79f5482df46746903","385","
            
        <div style=""text-align: center; position: fixed; top: 5vh; left: 40vw;"">
            <div style=""margin:0 auto; width: 20vw; top: 8vh; font-size: 2vw""> 
            <font color=""green""> Bonus : $1.06 </font>
            </div>
        </div>
    
            <div> Please press any key to continue to the next movie.</div>
        ","arrowright","ITI","","","","","","",""
"","","","","","html-keyboard-response","190","315027","0.0-7.51-1.51","6102a52c8a4ed0d104d68a15","6573617f270241e5da3d355d","6576bfd79f5482df46746903","499","./stimuli//pack_morph_shapes_1/cat_2/diff_1/ex_2_1_16.gif","arrowright","response","ArrowRight","16","2","1","test","true",""
"","","","","","html-keyboard-response","191","316537","0.0-7.51-2.51","6102a52c8a4ed0d104d68a15","6573617f270241e5da3d355d","6576bfd79f5482df46746903","null","<p> <font color=""green"" size=""5vw""> Correct category! </font> <br> <br> <font color=""green"" size=""8vw""> + $0.08 </font> </p>","null","feedback","","","","","","","1.14"
"","","","","","html-keyboard-response","192","317091","0.0-7.52-0.52","6102a52c8a4ed0d104d68a15","6573617f270241e5da3d355d","6576bfd79f5482df46746903","552","
            
        <div style=""text-align: center; position: fixed; top: 5vh; left: 40vw;"">
            <div style=""margin:0 auto; width: 20vw; top: 8vh; font-size: 2vw""> 
            <font color=""green""> Bonus : $1.14 </font>
            </div>
        </div>
    
            <div> Please press any key to continue to the next movie.</div>
        ","arrowright","ITI","","","","","","",""
"","","","","","html-keyboard-response","193","317616","0.0-7.52-1.52","6102a52c8a4ed0d104d68a15","6573617f270241e5da3d355d","6576bfd79f5482df46746903","523","./stimuli//pack_morph_shapes_1/cat_1/diff_1/ex_1_1_14.gif","arrowright","response","ArrowLeft","14","1","1","test","false",""
"","","","","","html-keyboard-response","194","319119","0.0-7.52-2.52","6102a52c8a4ed0d104d68a15","6573617f270241e5da3d355d","6576bfd79f5482df46746903","null","<p> <font color=""red"" size=""5vw""> Wrong category! </font> <br> <br> <font color=""red"" size=""8vw""> - $0.05 </font> </p>","null","feedback","","","","","","","1.09"
"","","","","","html-keyboard-response","195","319504","0.0-7.53-0.53","6102a52c8a4ed0d104d68a15","6573617f270241e5da3d355d","6576bfd79f5482df46746903","383","
            
        <div style=""text-align: center; position: fixed; top: 5vh; left: 40vw;"">
            <div style=""margin:0 auto; width: 20vw; top: 8vh; font-size: 2vw""> 
            <font color=""green""> Bonus : $1.09 </font>
            </div>
        </div>
    
            <div> Please press any key to continue to the next movie.</div>
        ","arrowleft","ITI","","","","","","",""
"","","","","","html-keyboard-response","196","320077","0.0-7.53-1.53","6102a52c8a4ed0d104d68a15","6573617f270241e5da3d355d","6576bfd79f5482df46746903","572","./stimuli//pack_morph_shapes_1/cat_1/diff_1/ex_1_1_12.gif","arrowleft","response","ArrowLeft","12","1","1","test","true",""
"","","","","","html-keyboard-response","197","321590","0.0-7.53-2.53","6102a52c8a4ed0d104d68a15","6573617f270241e5da3d355d","6576bfd79f5482df46746903","null","<p> <font color=""green"" size=""5vw""> Correct category! </font> <br> <br> <font color=""green"" size=""8vw""> + $0.08 </font> </p>","null","feedback","","","","","","","1.17"
"","","","","","html-keyboard-response","198","322090","0.0-7.54-0.54","6102a52c8a4ed0d104d68a15","6573617f270241e5da3d355d","6576bfd79f5482df46746903","499","
            
        <div style=""text-align: center; position: fixed; top: 5vh; left: 40vw;"">
            <div style=""margin:0 auto; width: 20vw; top: 8vh; font-size: 2vw""> 
            <font color=""green""> Bonus : $1.17 </font>
            </div>
        </div>
    
            <div> Please press any key to continue to the next movie.</div>
        ","arrowleft","ITI","","","","","","",""
"","","","","","html-keyboard-response","199","322885","0.0-7.54-1.54","6102a52c8a4ed0d104d68a15","6573617f270241e5da3d355d","6576bfd79f5482df46746903","794","./stimuli//pack_morph_shapes_1/cat_1/diff_1/ex_1_1_1.gif","arrowleft","response","ArrowLeft","1","1","1","test","true",""
"","","","","","html-keyboard-response","200","324393","0.0-7.54-2.54","6102a52c8a4ed0d104d68a15","6573617f270241e5da3d355d","6576bfd79f5482df46746903","null","<p> <font color=""green"" size=""5vw""> Correct category! </font> <br> <br> <font color=""green"" size=""8vw""> + $0.07 </font> </p>","null","feedback","","","","","","","1.24"
"","","","","","html-keyboard-response","201","325007","0.0-7.55-0.55","6102a52c8a4ed0d104d68a15","6573617f270241e5da3d355d","6576bfd79f5482df46746903","613","
            
        <div style=""text-align: center; position: fixed; top: 5vh; left: 40vw;"">
            <div style=""margin:0 auto; width: 20vw; top: 8vh; font-size: 2vw""> 
            <font color=""green""> Bonus : $1.24 </font>
            </div>
        </div>
    
            <div> Please press any key to continue to the next movie.</div>
        ","arrowleft","ITI","","","","","","",""
"","","","","","html-keyboard-response","202","325650","0.0-7.55-1.55","6102a52c8a4ed0d104d68a15","6573617f270241e5da3d355d","6576bfd79f5482df46746903","641","./stimuli//pack_morph_shapes_1/cat_2/diff_1/ex_2_1_17.gif","arrowleft","response","ArrowRight","17","2","1","test","false",""
"","","","","","html-keyboard-response","203","327160","0.0-7.55-2.55","6102a52c8a4ed0d104d68a15","6573617f270241e5da3d355d","6576bfd79f5482df46746903","null","<p> <font color=""red"" size=""5vw""> Wrong category! </font> <br> <br> <font color=""red"" size=""8vw""> - $0.05 </font> </p>","null","feedback","","","","","","","1.19"
"","","","","","html-keyboard-response","204","327536","0.0-7.56-0.56","6102a52c8a4ed0d104d68a15","6573617f270241e5da3d355d","6576bfd79f5482df46746903","375","
            
        <div style=""text-align: center; position: fixed; top: 5vh; left: 40vw;"">
            <div style=""margin:0 auto; width: 20vw; top: 8vh; font-size: 2vw""> 
            <font color=""green""> Bonus : $1.19 </font>
            </div>
        </div>
    
            <div> Please press any key to continue to the next movie.</div>
        ","arrowright","ITI","","","","","","",""
"","","","","","html-keyboard-response","205","328187","0.0-7.56-1.56","6102a52c8a4ed0d104d68a15","6573617f270241e5da3d355d","6576bfd79f5482df46746903","649","./stimuli//pack_morph_shapes_1/cat_1/diff_1/ex_1_1_6.gif","arrowright","response","ArrowLeft","6","1","1","test","false",""
"","","","","","html-keyboard-response","206","329696","0.0-7.56-2.56","6102a52c8a4ed0d104d68a15","6573617f270241e5da3d355d","6576bfd79f5482df46746903","null","<p> <font color=""red"" size=""5vw""> Wrong category! </font> <br> <br> <font color=""red"" size=""8vw""> - $0.05 </font> </p>","null","feedback","","","","","","","1.14"
"","","","","","html-keyboard-response","207","329990","0.0-7.57-0.57","6102a52c8a4ed0d104d68a15","6573617f270241e5da3d355d","6576bfd79f5482df46746903","292","
            
        <div style=""text-align: center; position: fixed; top: 5vh; left: 40vw;"">
            <div style=""margin:0 auto; width: 20vw; top: 8vh; font-size: 2vw""> 
            <font color=""green""> Bonus : $1.14 </font>
            </div>
        </div>
    
            <div> Please press any key to continue to the next movie.</div>
        ","arrowleft","ITI","","","","","","",""
"","","","","","html-keyboard-response","208","330620","0.0-7.57-1.57","6102a52c8a4ed0d104d68a15","6573617f270241e5da3d355d","6576bfd79f5482df46746903","629","./stimuli//pack_morph_shapes_1/cat_2/diff_1/ex_2_1_2.gif","arrowleft","response","ArrowRight","2","2","1","test","false",""
"","","","","","html-keyboard-response","209","332136","0.0-7.57-2.57","6102a52c8a4ed0d104d68a15","6573617f270241e5da3d355d","6576bfd79f5482df46746903","null","<p> <font color=""red"" size=""5vw""> Wrong category! </font> <br> <br> <font color=""red"" size=""8vw""> - $0.05 </font> </p>","null","feedback","","","","","","","1.09"
"","","","","","html-keyboard-response","210","332310","0.0-7.58-0.58","6102a52c8a4ed0d104d68a15","6573617f270241e5da3d355d","6576bfd79f5482df46746903","172","
            
        <div style=""text-align: center; position: fixed; top: 5vh; left: 40vw;"">
            <div style=""margin:0 auto; width: 20vw; top: 8vh; font-size: 2vw""> 
            <font color=""green""> Bonus : $1.09 </font>
            </div>
        </div>
    
            <div> Please press any key to continue to the next movie.</div>
        ","arrowright","ITI","","","","","","",""
"","","","","","html-keyboard-response","211","332800","0.0-7.58-1.58","6102a52c8a4ed0d104d68a15","6573617f270241e5da3d355d","6576bfd79f5482df46746903","488","./stimuli//pack_morph_shapes_1/cat_2/diff_1/ex_2_1_2.gif","arrowright","response","ArrowRight","2","2","1","test","true",""
"","","","","","html-keyboard-response","212","334304","0.0-7.58-2.58","6102a52c8a4ed0d104d68a15","6573617f270241e5da3d355d","6576bfd79f5482df46746903","null","<p> <font color=""green"" size=""5vw""> Correct category! </font> <br> <br> <font color=""green"" size=""8vw""> + $0.08 </font> </p>","null","feedback","","","","","","","1.17"
"","","","","","html-keyboard-response","213","334924","0.0-7.59-0.59","6102a52c8a4ed0d104d68a15","6573617f270241e5da3d355d","6576bfd79f5482df46746903","618","
            
        <div style=""text-align: center; position: fixed; top: 5vh; left: 40vw;"">
            <div style=""margin:0 auto; width: 20vw; top: 8vh; font-size: 2vw""> 
            <font color=""green""> Bonus : $1.17 </font>
            </div>
        </div>
    
            <div> Please press any key to continue to the next movie.</div>
        ","arrowright","ITI","","","","","","",""
"","","","","","html-keyboard-response","214","335478","0.0-7.59-1.59","6102a52c8a4ed0d104d68a15","6573617f270241e5da3d355d","6576bfd79f5482df46746903","554","./stimuli//pack_morph_shapes_1/cat_2/diff_1/ex_2_1_2.gif","arrowright","response","ArrowRight","2","2","1","test","true",""
"","","","","","html-keyboard-response","215","336988","0.0-7.59-2.59","6102a52c8a4ed0d104d68a15","6573617f270241e5da3d355d","6576bfd79f5482df46746903","null","<p> <font color=""green"" size=""5vw""> Correct category! </font> <br> <br> <font color=""green"" size=""8vw""> + $0.08 </font> </p>","null","feedback","","","","","","","1.25"
"","","","","","html-keyboard-response","216","337577","0.0-7.60-0.60","6102a52c8a4ed0d104d68a15","6573617f270241e5da3d355d","6576bfd79f5482df46746903","587","
            
        <div style=""text-align: center; position: fixed; top: 5vh; left: 40vw;"">
            <div style=""margin:0 auto; width: 20vw; top: 8vh; font-size: 2vw""> 
            <font color=""green""> Bonus : $1.25 </font>
            </div>
        </div>
    
            <div> Please press any key to continue to the next movie.</div>
        ","arrowright","ITI","","","","","","",""
"","","","","","html-keyboard-response","217","338039","0.0-7.60-1.60","6102a52c8a4ed0d104d68a15","6573617f270241e5da3d355d","6576bfd79f5482df46746903","462","./stimuli//pack_morph_shapes_1/cat_1/diff_1/ex_1_1_9.gif","arrowright","response","ArrowLeft","9","1","1","test","false",""
"","","","","","html-keyboard-response","218","339556","0.0-7.60-2.60","6102a52c8a4ed0d104d68a15","6573617f270241e5da3d355d","6576bfd79f5482df46746903","null","<p> <font color=""red"" size=""5vw""> Wrong category! </font> <br> <br> <font color=""red"" size=""8vw""> - $0.05 </font> </p>","null","feedback","","","","","","","1.2"
"","","","","","html-keyboard-response","219","339888","0.0-7.61-0.61","6102a52c8a4ed0d104d68a15","6573617f270241e5da3d355d","6576bfd79f5482df46746903","331","
            
        <div style=""text-align: center; position: fixed; top: 5vh; left: 40vw;"">
            <div style=""margin:0 auto; width: 20vw; top: 8vh; font-size: 2vw""> 
            <font color=""green""> Bonus : $1.2 </font>
            </div>
        </div>
    
            <div> Please press any key to continue to the next movie.</div>
        ","arrowright","ITI","","","","","","",""
"","","","","","html-keyboard-response","220","340566","0.0-7.61-1.61","6102a52c8a4ed0d104d68a15","6573617f270241e5da3d355d","6576bfd79f5482df46746903","677","./stimuli//pack_morph_shapes_1/cat_1/diff_1/ex_1_1_5.gif","arrowright","response","ArrowLeft","5","1","1","test","false",""
"","","","","","html-keyboard-response","221","342072","0.0-7.61-2.61","6102a52c8a4ed0d104d68a15","6573617f270241e5da3d355d","6576bfd79f5482df46746903","null","<p> <font color=""red"" size=""5vw""> Wrong category! </font> <br> <br> <font color=""red"" size=""8vw""> - $0.05 </font> </p>","null","feedback","","","","","","","1.15"
"","","","","","html-keyboard-response","222","342424","0.0-7.62-0.62","6102a52c8a4ed0d104d68a15","6573617f270241e5da3d355d","6576bfd79f5482df46746903","352","
            
        <div style=""text-align: center; position: fixed; top: 5vh; left: 40vw;"">
            <div style=""margin:0 auto; width: 20vw; top: 8vh; font-size: 2vw""> 
            <font color=""green""> Bonus : $1.15 </font>
            </div>
        </div>
    
            <div> Please press any key to continue to the next movie.</div>
        ","arrowleft","ITI","","","","","","",""
"","","","","","html-keyboard-response","223","343003","0.0-7.62-1.62","6102a52c8a4ed0d104d68a15","6573617f270241e5da3d355d","6576bfd79f5482df46746903","578","./stimuli//pack_morph_shapes_1/cat_2/diff_1/ex_2_1_17.gif","arrowleft","response","ArrowRight","17","2","1","test","false",""
"","","","","","html-keyboard-response","224","344518","0.0-7.62-2.62","6102a52c8a4ed0d104d68a15","6573617f270241e5da3d355d","6576bfd79f5482df46746903","null","<p> <font color=""red"" size=""5vw""> Wrong category! </font> <br> <br> <font color=""red"" size=""8vw""> - $0.05 </font> </p>","null","feedback","","","","","","","1.1"
"","","","","","html-keyboard-response","225","345074","0.0-7.63-0.63","6102a52c8a4ed0d104d68a15","6573617f270241e5da3d355d","6576bfd79f5482df46746903","556","
            
        <div style=""text-align: center; position: fixed; top: 5vh; left: 40vw;"">
            <div style=""margin:0 auto; width: 20vw; top: 8vh; font-size: 2vw""> 
            <font color=""green""> Bonus : $1.1 </font>
            </div>
        </div>
    
            <div> Please press any key to continue to the next movie.</div>
        ","arrowright","ITI","","","","","","",""
"","","","","","html-keyboard-response","226","345476","0.0-7.63-1.63","6102a52c8a4ed0d104d68a15","6573617f270241e5da3d355d","6576bfd79f5482df46746903","401","./stimuli//pack_morph_shapes_1/cat_1/diff_1/ex_1_1_11.gif","arrowright","response","ArrowLeft","11","1","1","test","false",""
"","","","","","html-keyboard-response","227","346986","0.0-7.63-2.63","6102a52c8a4ed0d104d68a15","6573617f270241e5da3d355d","6576bfd79f5482df46746903","null","<p> <font color=""red"" size=""5vw""> Wrong category! </font> <br> <br> <font color=""red"" size=""8vw""> - $0.05 </font> </p>","null","feedback","","","","","","","1.05"
"","","","","","html-keyboard-response","228","347260","0.0-7.64-0.64","6102a52c8a4ed0d104d68a15","6573617f270241e5da3d355d","6576bfd79f5482df46746903","273","
            
        <div style=""text-align: center; position: fixed; top: 5vh; left: 40vw;"">
            <div style=""margin:0 auto; width: 20vw; top: 8vh; font-size: 2vw""> 
            <font color=""green""> Bonus : $1.05 </font>
            </div>
        </div>
    
            <div> Please press any key to continue to the next movie.</div>
        ","arrowleft","ITI","","","","","","",""
"","","","","","html-keyboard-response","229","348029","0.0-7.64-1.64","6102a52c8a4ed0d104d68a15","6573617f270241e5da3d355d","6576bfd79f5482df46746903","769","./stimuli//pack_morph_shapes_1/cat_1/diff_1/ex_1_1_10.gif","arrowleft","response","ArrowLeft","10","1","1","test","true",""
"","","","","","html-keyboard-response","230","349536","0.0-7.64-2.64","6102a52c8a4ed0d104d68a15","6573617f270241e5da3d355d","6576bfd79f5482df46746903","null","<p> <font color=""green"" size=""5vw""> Correct category! </font> <br> <br> <font color=""green"" size=""8vw""> + $0.07 </font> </p>","null","feedback","","","","","","","1.12"
"","","","","","html-keyboard-response","231","349966","0.0-7.65-0.65","6102a52c8a4ed0d104d68a15","6573617f270241e5da3d355d","6576bfd79f5482df46746903","428","
            
        <div style=""text-align: center; position: fixed; top: 5vh; left: 40vw;"">
            <div style=""margin:0 auto; width: 20vw; top: 8vh; font-size: 2vw""> 
            <font color=""green""> Bonus : $1.12 </font>
            </div>
        </div>
    
            <div> Please press any key to continue to the next movie.</div>
        ","arrowleft","ITI","","","","","","",""
"","","","","","html-keyboard-response","232","350555","0.0-7.65-1.65","6102a52c8a4ed0d104d68a15","6573617f270241e5da3d355d","6576bfd79f5482df46746903","588","./stimuli//pack_morph_shapes_1/cat_2/diff_1/ex_2_1_5.gif","arrowleft","response","ArrowRight","5","2","1","test","false",""
"","","","","","html-keyboard-response","233","352069","0.0-7.65-2.65","6102a52c8a4ed0d104d68a15","6573617f270241e5da3d355d","6576bfd79f5482df46746903","null","<p> <font color=""red"" size=""5vw""> Wrong category! </font> <br> <br> <font color=""red"" size=""8vw""> - $0.05 </font> </p>","null","feedback","","","","","","","1.07"
"","","","","","html-keyboard-response","234","352432","0.0-7.66-0.66","6102a52c8a4ed0d104d68a15","6573617f270241e5da3d355d","6576bfd79f5482df46746903","363","
            
        <div style=""text-align: center; position: fixed; top: 5vh; left: 40vw;"">
            <div style=""margin:0 auto; width: 20vw; top: 8vh; font-size: 2vw""> 
            <font color=""green""> Bonus : $1.07 </font>
            </div>
        </div>
    
            <div> Please press any key to continue to the next movie.</div>
        ","arrowright","ITI","","","","","","",""
"","","","","","html-keyboard-response","235","353094","0.0-7.66-1.66","6102a52c8a4ed0d104d68a15","6573617f270241e5da3d355d","6576bfd79f5482df46746903","659","./stimuli//pack_morph_shapes_1/cat_1/diff_1/ex_1_1_14.gif","arrowright","response","ArrowLeft","14","1","1","test","false",""
"","","","","","html-keyboard-response","236","354600","0.0-7.66-2.66","6102a52c8a4ed0d104d68a15","6573617f270241e5da3d355d","6576bfd79f5482df46746903","null","<p> <font color=""red"" size=""5vw""> Wrong category! </font> <br> <br> <font color=""red"" size=""8vw""> - $0.05 </font> </p>","null","feedback","","","","","","","1.02"
"","","","","","html-keyboard-response","237","354931","0.0-7.67-0.67","6102a52c8a4ed0d104d68a15","6573617f270241e5da3d355d","6576bfd79f5482df46746903","330","
            
        <div style=""text-align: center; position: fixed; top: 5vh; left: 40vw;"">
            <div style=""margin:0 auto; width: 20vw; top: 8vh; font-size: 2vw""> 
            <font color=""green""> Bonus : $1.02 </font>
            </div>
        </div>
    
            <div> Please press any key to continue to the next movie.</div>
        ","arrowright","ITI","","","","","","",""
"","","","","","html-keyboard-response","238","355624","0.0-7.67-1.67","6102a52c8a4ed0d104d68a15","6573617f270241e5da3d355d","6576bfd79f5482df46746903","692","./stimuli//pack_morph_shapes_1/cat_2/diff_1/ex_2_1_10.gif","arrowright","response","ArrowRight","10","2","1","test","true",""
"","","","","","html-keyboard-response","239","357128","0.0-7.67-2.67","6102a52c8a4ed0d104d68a15","6573617f270241e5da3d355d","6576bfd79f5482df46746903","null","<p> <font color=""green"" size=""5vw""> Correct category! </font> <br> <br> <font color=""green"" size=""8vw""> + $0.07 </font> </p>","null","feedback","","","","","","","1.09"
"","","","","","html-keyboard-response","240","357593","0.0-7.68-0.68","6102a52c8a4ed0d104d68a15","6573617f270241e5da3d355d","6576bfd79f5482df46746903","464","
            
        <div style=""text-align: center; position: fixed; top: 5vh; left: 40vw;"">
            <div style=""margin:0 auto; width: 20vw; top: 8vh; font-size: 2vw""> 
            <font color=""green""> Bonus : $1.09 </font>
            </div>
        </div>
    
            <div> Please press any key to continue to the next movie.</div>
        ","arrowright","ITI","","","","","","",""
"","","","","","html-keyboard-response","241","358051","0.0-7.68-1.68","6102a52c8a4ed0d104d68a15","6573617f270241e5da3d355d","6576bfd79f5482df46746903","456","./stimuli//pack_morph_shapes_1/cat_1/diff_1/ex_1_1_7.gif","arrowright","response","ArrowLeft","7","1","1","test","false",""
"","","","","","html-keyboard-response","242","359554","0.0-7.68-2.68","6102a52c8a4ed0d104d68a15","6573617f270241e5da3d355d","6576bfd79f5482df46746903","null","<p> <font color=""red"" size=""5vw""> Wrong category! </font> <br> <br> <font color=""red"" size=""8vw""> - $0.05 </font> </p>","null","feedback","","","","","","","1.04"
"","","","","","html-keyboard-response","243","359984","0.0-7.69-0.69","6102a52c8a4ed0d104d68a15","6573617f270241e5da3d355d","6576bfd79f5482df46746903","429","
            
        <div style=""text-align: center; position: fixed; top: 5vh; left: 40vw;"">
            <div style=""margin:0 auto; width: 20vw; top: 8vh; font-size: 2vw""> 
            <font color=""green""> Bonus : $1.04 </font>
            </div>
        </div>
    
            <div> Please press any key to continue to the next movie.</div>
        ","arrowright","ITI","","","","","","",""
"","","","","","html-keyboard-response","244","360619","0.0-7.69-1.69","6102a52c8a4ed0d104d68a15","6573617f270241e5da3d355d","6576bfd79f5482df46746903","633","./stimuli//pack_morph_shapes_1/cat_1/diff_1/ex_1_1_9.gif","arrowright","response","ArrowLeft","9","1","1","test","false",""
"","","","","","html-keyboard-response","245","362125","0.0-7.69-2.69","6102a52c8a4ed0d104d68a15","6573617f270241e5da3d355d","6576bfd79f5482df46746903","null","<p> <font color=""red"" size=""5vw""> Wrong category! </font> <br> <br> <font color=""red"" size=""8vw""> - $0.05 </font> </p>","null","feedback","","","","","","","0.99"
"","","","","","html-keyboard-response","246","362742","0.0-7.70-0.70","6102a52c8a4ed0d104d68a15","6573617f270241e5da3d355d","6576bfd79f5482df46746903","617","
            
        <div style=""text-align: center; position: fixed; top: 5vh; left: 40vw;"">
            <div style=""margin:0 auto; width: 20vw; top: 8vh; font-size: 2vw""> 
            <font color=""green""> Bonus : $0.99 </font>
            </div>
        </div>
    
            <div> Please press any key to continue to the next movie.</div>
        ","arrowleft","ITI","","","","","","",""
"","","","","","html-keyboard-response","247","364368","0.0-7.70-1.70","6102a52c8a4ed0d104d68a15","6573617f270241e5da3d355d","6576bfd79f5482df46746903","1624","./stimuli//pack_morph_shapes_1/cat_2/diff_1/ex_2_1_2.gif","arrowleft","response","ArrowRight","2","2","1","test","false",""
"","","","","","html-keyboard-response","248","365873","0.0-7.70-2.70","6102a52c8a4ed0d104d68a15","6573617f270241e5da3d355d","6576bfd79f5482df46746903","null","<p> <font color=""red"" size=""5vw""> Wrong category! </font> <br> <br> <font color=""red"" size=""8vw""> - $0.05 </font> </p>","null","feedback","","","","","","","0.94"
"","","","","","html-keyboard-response","249","366401","0.0-7.71-0.71","6102a52c8a4ed0d104d68a15","6573617f270241e5da3d355d","6576bfd79f5482df46746903","527","
            
        <div style=""text-align: center; position: fixed; top: 5vh; left: 40vw;"">
            <div style=""margin:0 auto; width: 20vw; top: 8vh; font-size: 2vw""> 
            <font color=""green""> Bonus : $0.94 </font>
            </div>
        </div>
    
            <div> Please press any key to continue to the next movie.</div>
        ","arrowleft","ITI","","","","","","",""
"","","","","","html-keyboard-response","250","366880","0.0-7.71-1.71","6102a52c8a4ed0d104d68a15","6573617f270241e5da3d355d","6576bfd79f5482df46746903","477","./stimuli//pack_morph_shapes_1/cat_1/diff_1/ex_1_1_7.gif","arrowleft","response","ArrowLeft","7","1","1","test","true",""
"","","","","","html-keyboard-response","251","368390","0.0-7.71-2.71","6102a52c8a4ed0d104d68a15","6573617f270241e5da3d355d","6576bfd79f5482df46746903","null","<p> <font color=""green"" size=""5vw""> Correct category! </font> <br> <br> <font color=""green"" size=""8vw""> + $0.08 </font> </p>","null","feedback","","","","","","","1.02"
"","","","","","html-keyboard-response","252","368871","0.0-7.72-0.72","6102a52c8a4ed0d104d68a15","6573617f270241e5da3d355d","6576bfd79f5482df46746903","480","
            
        <div style=""text-align: center; position: fixed; top: 5vh; left: 40vw;"">
            <div style=""margin:0 auto; width: 20vw; top: 8vh; font-size: 2vw""> 
            <font color=""green""> Bonus : $1.02 </font>
            </div>
        </div>
    
            <div> Please press any key to continue to the next movie.</div>
        ","arrowleft","ITI","","","","","","",""
"","","","","","html-keyboard-response","253","369762","0.0-7.72-1.72","6102a52c8a4ed0d104d68a15","6573617f270241e5da3d355d","6576bfd79f5482df46746903","890","./stimuli//pack_morph_shapes_1/cat_1/diff_1/ex_1_1_2.gif","arrowleft","response","ArrowLeft","2","1","1","test","true",""
"","","","","","html-keyboard-response","254","371275","0.0-7.72-2.72","6102a52c8a4ed0d104d68a15","6573617f270241e5da3d355d","6576bfd79f5482df46746903","null","<p> <font color=""green"" size=""5vw""> Correct category! </font> <br> <br> <font color=""green"" size=""8vw""> + $0.06 </font> </p>","null","feedback","","","","","","","1.08"
