"success","timeout","failed_images","failed_audio","failed_video","trial_type","trial_index","time_elapsed","internal_node_id","subject_id","study_id","session_id","rt","stimulus","response","task","correct_response","exemplar_ID","category","difficulty","phase","correct","bonus"
"true","false","[]","[]","[]","preload","0","9","0.0-0.0","61645511546f08038b19f62c","6573617f270241e5da3d355d","6576bffbca26f96357fe8437","","","","","","","","","","",""
"","","","","","html-keyboard-response","1","6036","0.0-1.0","61645511546f08038b19f62c","6573617f270241e5da3d355d","6576bffbca26f96357fe8437","6024","Welcome to the Category Learning experiment! Press any key to continue.","enter","welcome","","","","","","",""
"","","","","","html-keyboard-response","2","36024","0.0-2.0","61645511546f08038b19f62c","6573617f270241e5da3d355d","6576bffbca26f96357fe8437","29987","
            <p>You will be shown movies. Each movie contains a sequence of shapes changing form. 
            <br> Some shapes are category A, some are category B. <b> Within a single movie, all shapes belong to the same category. </b>
            <br> You will not know in advance which category the shapes of each movie belong to.</p>
            <p> While you watch a movie, you have to guess the category that its shapes belong to <b>(left arrow for category A, right arrow for category B)</b></p>
            <p> After you choose, the screen will show you whether you were correct or not.</p>
            <p>Press any key to continue.</p>
            ","enter","introduction_1","","","","","","",""
"","","","","","html-keyboard-response","3","52897","0.0-3.0","61645511546f08038b19f62c","6573617f270241e5da3d355d","6576bffbca26f96357fe8437","16872","
              <p><b>You will receive a bonus payment for each correct answer! The faster you answer the higher the bonus will be!</b></p>
              <p> So you can increase your bonus by guessing as quickly and accurately as possible.</p>
              <p><b>You will lose $0.05 from your bonus payment for each incorrect answer! The bonus can not become less that $0.</b> </p>
              <p>Press any key to continue.</p>
              ","enter","introduction_2","","","","","","",""
"","","","","","html-keyboard-response","4","58358","0.0-4.0","61645511546f08038b19f62c","6573617f270241e5da3d355d","6576bffbca26f96357fe8437","5460","
            <p> <b>The first 10 trials are a practice round that will not count towards your bonus payment.</b></p>
            <p> You will be notified when practice finishes and the test begins. </p>
            <p> Press any key to begin the practice round.</p>
            ","enter","introduction_3","","","","","","",""
"","","","","","html-keyboard-response","5","61087","0.0-5.0-0.0","61645511546f08038b19f62c","6573617f270241e5da3d355d","6576bffbca26f96357fe8437","2727","
            
        <div style=""text-align: center; position: fixed; top: 5vh; left: 40vw;"">
            <div style=""margin:0 auto; width: 20vw; top: 8vh; font-size: 2vw""> 
            <font color=""green""> Bonus : $0 </font>
            </div>
        </div>
    
            <div> Please press any key to continue to the next movie.</div>
        ","enter","ITI","","","","","","",""
"","","","","","html-keyboard-response","6","63518","0.0-5.0-1.0","61645511546f08038b19f62c","6573617f270241e5da3d355d","6576bffbca26f96357fe8437","2426","./stimuli//pack_morph_shapes_1/cat_1/diff_1/ex_1_1_5.gif","arrowright","response","ArrowLeft","5","1","1","train","false",""
"","","","","","html-keyboard-response","7","65020","0.0-5.0-2.0","61645511546f08038b19f62c","6573617f270241e5da3d355d","6576bffbca26f96357fe8437","null","<p> <font color=""red"" size=""5vw""> Wrong category! </font> </p>","null","feedback","","","","","","","0"
"","","","","","html-keyboard-response","8","67001","0.0-5.0-0.1","61645511546f08038b19f62c","6573617f270241e5da3d355d","6576bffbca26f96357fe8437","1980","
            
        <div style=""text-align: center; position: fixed; top: 5vh; left: 40vw;"">
            <div style=""margin:0 auto; width: 20vw; top: 8vh; font-size: 2vw""> 
            <font color=""green""> Bonus : $0 </font>
            </div>
        </div>
    
            <div> Please press any key to continue to the next movie.</div>
        ","enter","ITI","","","","","","",""
"","","","","","html-keyboard-response","9","71003","0.0-5.0-1.1","61645511546f08038b19f62c","6573617f270241e5da3d355d","6576bffbca26f96357fe8437","null","./stimuli//pack_morph_shapes_1/cat_2/diff_2/ex_2_2_16.gif","null","response","ArrowRight","16","2","2","train","false",""
"","","","","","html-keyboard-response","10","72505","0.0-5.0-2.1","61645511546f08038b19f62c","6573617f270241e5da3d355d","6576bffbca26f96357fe8437","null","<p> <font color=""red"" size=""5vw""> Time out! </font> <br> Please try to respond as quickly as possible. </p>","null","feedback","","","","","","","0"
"","","","","","html-keyboard-response","11","74754","0.0-5.0-0.2","61645511546f08038b19f62c","6573617f270241e5da3d355d","6576bffbca26f96357fe8437","2248","
            
        <div style=""text-align: center; position: fixed; top: 5vh; left: 40vw;"">
            <div style=""margin:0 auto; width: 20vw; top: 8vh; font-size: 2vw""> 
            <font color=""green""> Bonus : $0 </font>
            </div>
        </div>
    
            <div> Please press any key to continue to the next movie.</div>
        ","enter","ITI","","","","","","",""
"","","","","","html-keyboard-response","12","76423","0.0-5.0-1.2","61645511546f08038b19f62c","6573617f270241e5da3d355d","6576bffbca26f96357fe8437","1668","./stimuli//pack_morph_shapes_1/cat_2/diff_1/ex_2_1_12.gif","arrowleft","response","ArrowRight","12","2","1","train","false",""
"","","","","","html-keyboard-response","13","77924","0.0-5.0-2.2","61645511546f08038b19f62c","6573617f270241e5da3d355d","6576bffbca26f96357fe8437","null","<p> <font color=""red"" size=""5vw""> Wrong category! </font> </p>","null","feedback","","","","","","","0"
"","","","","","html-keyboard-response","14","80754","0.0-5.0-0.3","61645511546f08038b19f62c","6573617f270241e5da3d355d","6576bffbca26f96357fe8437","2829","
            
        <div style=""text-align: center; position: fixed; top: 5vh; left: 40vw;"">
            <div style=""margin:0 auto; width: 20vw; top: 8vh; font-size: 2vw""> 
            <font color=""green""> Bonus : $0 </font>
            </div>
        </div>
    
            <div> Please press any key to continue to the next movie.</div>
        ","enter","ITI","","","","","","",""
"","","","","","html-keyboard-response","15","82521","0.0-5.0-1.3","61645511546f08038b19f62c","6573617f270241e5da3d355d","6576bffbca26f96357fe8437","1766","./stimuli//pack_morph_shapes_1/cat_1/diff_1/ex_1_1_10.gif","arrowleft","response","ArrowLeft","10","1","1","train","true",""
"","","","","","html-keyboard-response","16","84022","0.0-5.0-2.3","61645511546f08038b19f62c","6573617f270241e5da3d355d","6576bffbca26f96357fe8437","null","<p> <font color=""green"" size=""5vw""> Correct category! </font> </p>","null","feedback","","","","","","","0"
"","","","","","html-keyboard-response","17","84860","0.0-5.0-0.4","61645511546f08038b19f62c","6573617f270241e5da3d355d","6576bffbca26f96357fe8437","836","
            
        <div style=""text-align: center; position: fixed; top: 5vh; left: 40vw;"">
            <div style=""margin:0 auto; width: 20vw; top: 8vh; font-size: 2vw""> 
            <font color=""green""> Bonus : $0 </font>
            </div>
        </div>
    
            <div> Please press any key to continue to the next movie.</div>
        ","enter","ITI","","","","","","",""
"","","","","","html-keyboard-response","18","87583","0.0-5.0-1.4","61645511546f08038b19f62c","6573617f270241e5da3d355d","6576bffbca26f96357fe8437","2722","./stimuli//pack_morph_shapes_1/cat_1/diff_2/ex_1_2_3.gif","arrowleft","response","ArrowLeft","3","1","2","train","true",""
"","","","","","html-keyboard-response","19","89085","0.0-5.0-2.4","61645511546f08038b19f62c","6573617f270241e5da3d355d","6576bffbca26f96357fe8437","null","<p> <font color=""green"" size=""5vw""> Correct category! </font> </p>","null","feedback","","","","","","","0"
"","","","","","html-keyboard-response","20","90265","0.0-5.0-0.5","61645511546f08038b19f62c","6573617f270241e5da3d355d","6576bffbca26f96357fe8437","1179","
            
        <div style=""text-align: center; position: fixed; top: 5vh; left: 40vw;"">
            <div style=""margin:0 auto; width: 20vw; top: 8vh; font-size: 2vw""> 
            <font color=""green""> Bonus : $0 </font>
            </div>
        </div>
    
            <div> Please press any key to continue to the next movie.</div>
        ","enter","ITI","","","","","","",""
"","","","","","html-keyboard-response","21","91804","0.0-5.0-1.5","61645511546f08038b19f62c","6573617f270241e5da3d355d","6576bffbca26f96357fe8437","1538","./stimuli//pack_morph_shapes_1/cat_2/diff_1/ex_2_1_13.gif","arrowright","response","ArrowRight","13","2","1","train","true",""
"","","","","","html-keyboard-response","22","93305","0.0-5.0-2.5","61645511546f08038b19f62c","6573617f270241e5da3d355d","6576bffbca26f96357fe8437","null","<p> <font color=""green"" size=""5vw""> Correct category! </font> </p>","null","feedback","","","","","","","0"
"","","","","","html-keyboard-response","23","94706","0.0-5.0-0.6","61645511546f08038b19f62c","6573617f270241e5da3d355d","6576bffbca26f96357fe8437","1401","
            
        <div style=""text-align: center; position: fixed; top: 5vh; left: 40vw;"">
            <div style=""margin:0 auto; width: 20vw; top: 8vh; font-size: 2vw""> 
            <font color=""green""> Bonus : $0 </font>
            </div>
        </div>
    
            <div> Please press any key to continue to the next movie.</div>
        ","enter","ITI","","","","","","",""
"","","","","","html-keyboard-response","24","95621","0.0-5.0-1.6","61645511546f08038b19f62c","6573617f270241e5da3d355d","6576bffbca26f96357fe8437","913","./stimuli//pack_morph_shapes_1/cat_2/diff_1/ex_2_1_8.gif","arrowright","response","ArrowRight","8","2","1","train","true",""
"","","","","","html-keyboard-response","25","97122","0.0-5.0-2.6","61645511546f08038b19f62c","6573617f270241e5da3d355d","6576bffbca26f96357fe8437","null","<p> <font color=""green"" size=""5vw""> Correct category! </font> </p>","null","feedback","","","","","","","0"
"","","","","","html-keyboard-response","26","98060","0.0-5.0-0.7","61645511546f08038b19f62c","6573617f270241e5da3d355d","6576bffbca26f96357fe8437","937","
            
        <div style=""text-align: center; position: fixed; top: 5vh; left: 40vw;"">
            <div style=""margin:0 auto; width: 20vw; top: 8vh; font-size: 2vw""> 
            <font color=""green""> Bonus : $0 </font>
            </div>
        </div>
    
            <div> Please press any key to continue to the next movie.</div>
        ","enter","ITI","","","","","","",""
"","","","","","html-keyboard-response","27","99243","0.0-5.0-1.7","61645511546f08038b19f62c","6573617f270241e5da3d355d","6576bffbca26f96357fe8437","1182","./stimuli//pack_morph_shapes_1/cat_1/diff_1/ex_1_1_15.gif","arrowleft","response","ArrowLeft","15","1","1","train","true",""
"","","","","","html-keyboard-response","28","100744","0.0-5.0-2.7","61645511546f08038b19f62c","6573617f270241e5da3d355d","6576bffbca26f96357fe8437","null","<p> <font color=""green"" size=""5vw""> Correct category! </font> </p>","null","feedback","","","","","","","0"
"","","","","","html-keyboard-response","29","101595","0.0-5.0-0.8","61645511546f08038b19f62c","6573617f270241e5da3d355d","6576bffbca26f96357fe8437","849","
            
        <div style=""text-align: center; position: fixed; top: 5vh; left: 40vw;"">
            <div style=""margin:0 auto; width: 20vw; top: 8vh; font-size: 2vw""> 
            <font color=""green""> Bonus : $0 </font>
            </div>
        </div>
    
            <div> Please press any key to continue to the next movie.</div>
        ","enter","ITI","","","","","","",""
"","","","","","html-keyboard-response","30","103373","0.0-5.0-1.8","61645511546f08038b19f62c","6573617f270241e5da3d355d","6576bffbca26f96357fe8437","1777","./stimuli//pack_morph_shapes_1/cat_1/diff_2/ex_1_2_11.gif","arrowleft","response","ArrowLeft","11","1","2","train","true",""
"","","","","","html-keyboard-response","31","104874","0.0-5.0-2.8","61645511546f08038b19f62c","6573617f270241e5da3d355d","6576bffbca26f96357fe8437","null","<p> <font color=""green"" size=""5vw""> Correct category! </font> </p>","null","feedback","","","","","","","0"
"","","","","","html-keyboard-response","32","105427","0.0-5.0-0.9","61645511546f08038b19f62c","6573617f270241e5da3d355d","6576bffbca26f96357fe8437","552","
            
        <div style=""text-align: center; position: fixed; top: 5vh; left: 40vw;"">
            <div style=""margin:0 auto; width: 20vw; top: 8vh; font-size: 2vw""> 
            <font color=""green""> Bonus : $0 </font>
            </div>
        </div>
    
            <div> Please press any key to continue to the next movie.</div>
        ","enter","ITI","","","","","","",""
"","","","","","html-keyboard-response","33","106351","0.0-5.0-1.9","61645511546f08038b19f62c","6573617f270241e5da3d355d","6576bffbca26f96357fe8437","923","./stimuli//pack_morph_shapes_1/cat_2/diff_2/ex_2_2_7.gif","arrowright","response","ArrowRight","7","2","2","train","true",""
"","","","","","html-keyboard-response","34","107853","0.0-5.0-2.9","61645511546f08038b19f62c","6573617f270241e5da3d355d","6576bffbca26f96357fe8437","null","<p> <font color=""green"" size=""5vw""> Correct category! </font> </p>","null","feedback","","","","","","","0"
"","","","","","html-keyboard-response","35","113305","0.0-6.0","61645511546f08038b19f62c","6573617f270241e5da3d355d","6576bffbca26f96357fe8437","5450","
            <b> <p> The practice round has finished.</p>
            <b> <p> For the rest of the experiment you will receive a bonus payment for each correct answer, which will be higher the faster you answer!</b></p>
            <b> </p> Also you will lose $0.05 from your bonus payment for each incorrect answer!</p>
            <p> Press any key to begin the test. </p>
            ","enter","intermission","","","","","","",""
"","","","","","html-keyboard-response","36","115082","0.0-7.0-0.0","61645511546f08038b19f62c","6573617f270241e5da3d355d","6576bffbca26f96357fe8437","1777","
            
        <div style=""text-align: center; position: fixed; top: 5vh; left: 40vw;"">
            <div style=""margin:0 auto; width: 20vw; top: 8vh; font-size: 2vw""> 
            <font color=""green""> Bonus : $0 </font>
            </div>
        </div>
    
            <div> Please press any key to continue to the next movie.</div>
        ","enter","ITI","","","","","","",""
"","","","","","html-keyboard-response","37","116199","0.0-7.0-1.0","61645511546f08038b19f62c","6573617f270241e5da3d355d","6576bffbca26f96357fe8437","1114","./stimuli//pack_morph_shapes_1/cat_1/diff_1/ex_1_1_17.gif","arrowleft","response","ArrowLeft","17","1","1","test","true",""
"","","","","","html-keyboard-response","38","117701","0.0-7.0-2.0","61645511546f08038b19f62c","6573617f270241e5da3d355d","6576bffbca26f96357fe8437","null","<p> <font color=""green"" size=""5vw""> Correct category! </font> <br> <br> <font color=""green"" size=""8vw""> + $0.06 </font> </p>","null","feedback","","","","","","","0.06"
"","","","","","html-keyboard-response","39","118089","0.0-7.1-0.1","61645511546f08038b19f62c","6573617f270241e5da3d355d","6576bffbca26f96357fe8437","386","
            
        <div style=""text-align: center; position: fixed; top: 5vh; left: 40vw;"">
            <div style=""margin:0 auto; width: 20vw; top: 8vh; font-size: 2vw""> 
            <font color=""green""> Bonus : $0.06 </font>
            </div>
        </div>
    
            <div> Please press any key to continue to the next movie.</div>
        ","enter","ITI","","","","","","",""
"","","","","","html-keyboard-response","40","118968","0.0-7.1-1.1","61645511546f08038b19f62c","6573617f270241e5da3d355d","6576bffbca26f96357fe8437","877","./stimuli//pack_morph_shapes_1/cat_2/diff_1/ex_2_1_14.gif","arrowright","response","ArrowRight","14","2","1","test","true",""
"","","","","","html-keyboard-response","41","120469","0.0-7.1-2.1","61645511546f08038b19f62c","6573617f270241e5da3d355d","6576bffbca26f96357fe8437","null","<p> <font color=""green"" size=""5vw""> Correct category! </font> <br> <br> <font color=""green"" size=""8vw""> + $0.06 </font> </p>","null","feedback","","","","","","","0.12"
"","","","","","html-keyboard-response","42","120838","0.0-7.2-0.2","61645511546f08038b19f62c","6573617f270241e5da3d355d","6576bffbca26f96357fe8437","368","
            
        <div style=""text-align: center; position: fixed; top: 5vh; left: 40vw;"">
            <div style=""margin:0 auto; width: 20vw; top: 8vh; font-size: 2vw""> 
            <font color=""green""> Bonus : $0.12 </font>
            </div>
        </div>
    
            <div> Please press any key to continue to the next movie.</div>
        ","enter","ITI","","","","","","",""
"","","","","","html-keyboard-response","43","121891","0.0-7.2-1.2","61645511546f08038b19f62c","6573617f270241e5da3d355d","6576bffbca26f96357fe8437","1051","./stimuli//pack_morph_shapes_1/cat_1/diff_1/ex_1_1_7.gif","arrowleft","response","ArrowLeft","7","1","1","test","true",""
"","","","","","html-keyboard-response","44","123392","0.0-7.2-2.2","61645511546f08038b19f62c","6573617f270241e5da3d355d","6576bffbca26f96357fe8437","null","<p> <font color=""green"" size=""5vw""> Correct category! </font> <br> <br> <font color=""green"" size=""8vw""> + $0.06 </font> </p>","null","feedback","","","","","","","0.18"
"","","","","","html-keyboard-response","45","123716","0.0-7.3-0.3","61645511546f08038b19f62c","6573617f270241e5da3d355d","6576bffbca26f96357fe8437","322","
            
        <div style=""text-align: center; position: fixed; top: 5vh; left: 40vw;"">
            <div style=""margin:0 auto; width: 20vw; top: 8vh; font-size: 2vw""> 
            <font color=""green""> Bonus : $0.18 </font>
            </div>
        </div>
    
            <div> Please press any key to continue to the next movie.</div>
        ","enter","ITI","","","","","","",""
"","","","","","html-keyboard-response","46","124661","0.0-7.3-1.3","61645511546f08038b19f62c","6573617f270241e5da3d355d","6576bffbca26f96357fe8437","944","./stimuli//pack_morph_shapes_1/cat_1/diff_1/ex_1_1_12.gif","arrowleft","response","ArrowLeft","12","1","1","test","true",""
"","","","","","html-keyboard-response","47","126162","0.0-7.3-2.3","61645511546f08038b19f62c","6573617f270241e5da3d355d","6576bffbca26f96357fe8437","null","<p> <font color=""green"" size=""5vw""> Correct category! </font> <br> <br> <font color=""green"" size=""8vw""> + $0.06 </font> </p>","null","feedback","","","","","","","0.24"
"","","","","","html-keyboard-response","48","127389","0.0-7.4-0.4","61645511546f08038b19f62c","6573617f270241e5da3d355d","6576bffbca26f96357fe8437","1226","
            
        <div style=""text-align: center; position: fixed; top: 5vh; left: 40vw;"">
            <div style=""margin:0 auto; width: 20vw; top: 8vh; font-size: 2vw""> 
            <font color=""green""> Bonus : $0.24 </font>
            </div>
        </div>
    
            <div> Please press any key to continue to the next movie.</div>
        ","enter","ITI","","","","","","",""
"","","","","","html-keyboard-response","49","128336","0.0-7.4-1.4","61645511546f08038b19f62c","6573617f270241e5da3d355d","6576bffbca26f96357fe8437","944","./stimuli//pack_morph_shapes_1/cat_1/diff_1/ex_1_1_7.gif","arrowleft","response","ArrowLeft","7","1","1","test","true",""
"","","","","","html-keyboard-response","50","129841","0.0-7.4-2.4","61645511546f08038b19f62c","6573617f270241e5da3d355d","6576bffbca26f96357fe8437","null","<p> <font color=""green"" size=""5vw""> Correct category! </font> <br> <br> <font color=""green"" size=""8vw""> + $0.06 </font> </p>","null","feedback","","","","","","","0.3"
"","","","","","html-keyboard-response","51","129965","0.0-7.5-0.5","61645511546f08038b19f62c","6573617f270241e5da3d355d","6576bffbca26f96357fe8437","123","
            
        <div style=""text-align: center; position: fixed; top: 5vh; left: 40vw;"">
            <div style=""margin:0 auto; width: 20vw; top: 8vh; font-size: 2vw""> 
            <font color=""green""> Bonus : $0.3 </font>
            </div>
        </div>
    
            <div> Please press any key to continue to the next movie.</div>
        ","enter","ITI","","","","","","",""
"","","","","","html-keyboard-response","52","130848","0.0-7.5-1.5","61645511546f08038b19f62c","6573617f270241e5da3d355d","6576bffbca26f96357fe8437","881","./stimuli//pack_morph_shapes_1/cat_2/diff_2/ex_2_2_15.gif","arrowright","response","ArrowRight","15","2","2","test","true",""
"","","","","","html-keyboard-response","53","132349","0.0-7.5-2.5","61645511546f08038b19f62c","6573617f270241e5da3d355d","6576bffbca26f96357fe8437","null","<p> <font color=""green"" size=""5vw""> Correct category! </font> <br> <br> <font color=""green"" size=""8vw""> + $0.06 </font> </p>","null","feedback","","","","","","","0.36"
"","","","","","html-keyboard-response","54","133554","0.0-7.6-0.6","61645511546f08038b19f62c","6573617f270241e5da3d355d","6576bffbca26f96357fe8437","1204","
            
        <div style=""text-align: center; position: fixed; top: 5vh; left: 40vw;"">
            <div style=""margin:0 auto; width: 20vw; top: 8vh; font-size: 2vw""> 
            <font color=""green""> Bonus : $0.36 </font>
            </div>
        </div>
    
            <div> Please press any key to continue to the next movie.</div>
        ","enter","ITI","","","","","","",""
"","","","","","html-keyboard-response","55","134562","0.0-7.6-1.6","61645511546f08038b19f62c","6573617f270241e5da3d355d","6576bffbca26f96357fe8437","1007","./stimuli//pack_morph_shapes_1/cat_2/diff_2/ex_2_2_11.gif","arrowright","response","ArrowRight","11","2","2","test","true",""
"","","","","","html-keyboard-response","56","136063","0.0-7.6-2.6","61645511546f08038b19f62c","6573617f270241e5da3d355d","6576bffbca26f96357fe8437","null","<p> <font color=""green"" size=""5vw""> Correct category! </font> <br> <br> <font color=""green"" size=""8vw""> + $0.06 </font> </p>","null","feedback","","","","","","","0.42"
"","","","","","html-keyboard-response","57","137295","0.0-7.7-0.7","61645511546f08038b19f62c","6573617f270241e5da3d355d","6576bffbca26f96357fe8437","1230","
            
        <div style=""text-align: center; position: fixed; top: 5vh; left: 40vw;"">
            <div style=""margin:0 auto; width: 20vw; top: 8vh; font-size: 2vw""> 
            <font color=""green""> Bonus : $0.42 </font>
            </div>
        </div>
    
            <div> Please press any key to continue to the next movie.</div>
        ","enter","ITI","","","","","","",""
"","","","","","html-keyboard-response","58","138179","0.0-7.7-1.7","61645511546f08038b19f62c","6573617f270241e5da3d355d","6576bffbca26f96357fe8437","884","./stimuli//pack_morph_shapes_1/cat_1/diff_2/ex_1_2_6.gif","arrowleft","response","ArrowLeft","6","1","2","test","true",""
"","","","","","html-keyboard-response","59","139682","0.0-7.7-2.7","61645511546f08038b19f62c","6573617f270241e5da3d355d","6576bffbca26f96357fe8437","null","<p> <font color=""green"" size=""5vw""> Correct category! </font> <br> <br> <font color=""green"" size=""8vw""> + $0.06 </font> </p>","null","feedback","","","","","","","0.48"
"","","","","","html-keyboard-response","60","139788","0.0-7.8-0.8","61645511546f08038b19f62c","6573617f270241e5da3d355d","6576bffbca26f96357fe8437","104","
            
        <div style=""text-align: center; position: fixed; top: 5vh; left: 40vw;"">
            <div style=""margin:0 auto; width: 20vw; top: 8vh; font-size: 2vw""> 
            <font color=""green""> Bonus : $0.48 </font>
            </div>
        </div>
    
            <div> Please press any key to continue to the next movie.</div>
        ","enter","ITI","","","","","","",""
"","","","","","html-keyboard-response","61","140711","0.0-7.8-1.8","61645511546f08038b19f62c","6573617f270241e5da3d355d","6576bffbca26f96357fe8437","921","./stimuli//pack_morph_shapes_1/cat_2/diff_2/ex_2_2_10.gif","arrowright","response","ArrowRight","10","2","2","test","true",""
"","","","","","html-keyboard-response","62","142212","0.0-7.8-2.8","61645511546f08038b19f62c","6573617f270241e5da3d355d","6576bffbca26f96357fe8437","null","<p> <font color=""green"" size=""5vw""> Correct category! </font> <br> <br> <font color=""green"" size=""8vw""> + $0.06 </font> </p>","null","feedback","","","","","","","0.54"
"","","","","","html-keyboard-response","63","144314","0.0-7.9-0.9","61645511546f08038b19f62c","6573617f270241e5da3d355d","6576bffbca26f96357fe8437","2101","
            
        <div style=""text-align: center; position: fixed; top: 5vh; left: 40vw;"">
            <div style=""margin:0 auto; width: 20vw; top: 8vh; font-size: 2vw""> 
            <font color=""green""> Bonus : $0.54 </font>
            </div>
        </div>
    
            <div> Please press any key to continue to the next movie.</div>
        ","enter","ITI","","","","","","",""
"","","","","","html-keyboard-response","64","145256","0.0-7.9-1.9","61645511546f08038b19f62c","6573617f270241e5da3d355d","6576bffbca26f96357fe8437","941","./stimuli//pack_morph_shapes_1/cat_2/diff_2/ex_2_2_11.gif","arrowright","response","ArrowRight","11","2","2","test","true",""
"","","","","","html-keyboard-response","65","146758","0.0-7.9-2.9","61645511546f08038b19f62c","6573617f270241e5da3d355d","6576bffbca26f96357fe8437","null","<p> <font color=""green"" size=""5vw""> Correct category! </font> <br> <br> <font color=""green"" size=""8vw""> + $0.06 </font> </p>","null","feedback","","","","","","","0.6"
"","","","","","html-keyboard-response","66","147334","0.0-7.10-0.10","61645511546f08038b19f62c","6573617f270241e5da3d355d","6576bffbca26f96357fe8437","575","
            
        <div style=""text-align: center; position: fixed; top: 5vh; left: 40vw;"">
            <div style=""margin:0 auto; width: 20vw; top: 8vh; font-size: 2vw""> 
            <font color=""green""> Bonus : $0.6 </font>
            </div>
        </div>
    
            <div> Please press any key to continue to the next movie.</div>
        ","enter","ITI","","","","","","",""
"","","","","","html-keyboard-response","67","148536","0.0-7.10-1.10","61645511546f08038b19f62c","6573617f270241e5da3d355d","6576bffbca26f96357fe8437","1201","./stimuli//pack_morph_shapes_1/cat_1/diff_3/ex_1_3_5.gif","arrowleft","response","ArrowLeft","5","1","3","test","true",""
"","","","","","html-keyboard-response","68","150037","0.0-7.10-2.10","61645511546f08038b19f62c","6573617f270241e5da3d355d","6576bffbca26f96357fe8437","null","<p> <font color=""green"" size=""5vw""> Correct category! </font> <br> <br> <font color=""green"" size=""8vw""> + $0.05 </font> </p>","null","feedback","","","","","","","0.65"
"","","","","","html-keyboard-response","69","150723","0.0-7.11-0.11","61645511546f08038b19f62c","6573617f270241e5da3d355d","6576bffbca26f96357fe8437","684","
            
        <div style=""text-align: center; position: fixed; top: 5vh; left: 40vw;"">
            <div style=""margin:0 auto; width: 20vw; top: 8vh; font-size: 2vw""> 
            <font color=""green""> Bonus : $0.65 </font>
            </div>
        </div>
    
            <div> Please press any key to continue to the next movie.</div>
        ","enter","ITI","","","","","","",""
"","","","","","html-keyboard-response","70","151510","0.0-7.11-1.11","61645511546f08038b19f62c","6573617f270241e5da3d355d","6576bffbca26f96357fe8437","785","./stimuli//pack_morph_shapes_1/cat_1/diff_3/ex_1_3_5.gif","arrowleft","response","ArrowLeft","5","1","3","test","true",""
"","","","","","html-keyboard-response","71","153012","0.0-7.11-2.11","61645511546f08038b19f62c","6573617f270241e5da3d355d","6576bffbca26f96357fe8437","null","<p> <font color=""green"" size=""5vw""> Correct category! </font> <br> <br> <font color=""green"" size=""8vw""> + $0.07 </font> </p>","null","feedback","","","","","","","0.72"
"","","","","","html-keyboard-response","72","153344","0.0-7.12-0.12","61645511546f08038b19f62c","6573617f270241e5da3d355d","6576bffbca26f96357fe8437","332","
            
        <div style=""text-align: center; position: fixed; top: 5vh; left: 40vw;"">
            <div style=""margin:0 auto; width: 20vw; top: 8vh; font-size: 2vw""> 
            <font color=""green""> Bonus : $0.72 </font>
            </div>
        </div>
    
            <div> Please press any key to continue to the next movie.</div>
        ","enter","ITI","","","","","","",""
"","","","","","html-keyboard-response","73","154173","0.0-7.12-1.12","61645511546f08038b19f62c","6573617f270241e5da3d355d","6576bffbca26f96357fe8437","828","./stimuli//pack_morph_shapes_1/cat_1/diff_3/ex_1_3_15.gif","arrowleft","response","ArrowLeft","15","1","3","test","true",""
"","","","","","html-keyboard-response","74","155675","0.0-7.12-2.12","61645511546f08038b19f62c","6573617f270241e5da3d355d","6576bffbca26f96357fe8437","null","<p> <font color=""green"" size=""5vw""> Correct category! </font> <br> <br> <font color=""green"" size=""8vw""> + $0.07 </font> </p>","null","feedback","","","","","","","0.79"
"","","","","","html-keyboard-response","75","155946","0.0-7.13-0.13","61645511546f08038b19f62c","6573617f270241e5da3d355d","6576bffbca26f96357fe8437","270","
            
        <div style=""text-align: center; position: fixed; top: 5vh; left: 40vw;"">
            <div style=""margin:0 auto; width: 20vw; top: 8vh; font-size: 2vw""> 
            <font color=""green""> Bonus : $0.79 </font>
            </div>
        </div>
    
            <div> Please press any key to continue to the next movie.</div>
        ","enter","ITI","","","","","","",""
"","","","","","html-keyboard-response","76","156783","0.0-7.13-1.13","61645511546f08038b19f62c","6573617f270241e5da3d355d","6576bffbca26f96357fe8437","835","./stimuli//pack_morph_shapes_1/cat_1/diff_3/ex_1_3_7.gif","arrowleft","response","ArrowLeft","7","1","3","test","true",""
"","","","","","html-keyboard-response","77","158284","0.0-7.13-2.13","61645511546f08038b19f62c","6573617f270241e5da3d355d","6576bffbca26f96357fe8437","null","<p> <font color=""green"" size=""5vw""> Correct category! </font> <br> <br> <font color=""green"" size=""8vw""> + $0.07 </font> </p>","null","feedback","","","","","","","0.86"
"","","","","","html-keyboard-response","78","158590","0.0-7.14-0.14","61645511546f08038b19f62c","6573617f270241e5da3d355d","6576bffbca26f96357fe8437","304","
            
        <div style=""text-align: center; position: fixed; top: 5vh; left: 40vw;"">
            <div style=""margin:0 auto; width: 20vw; top: 8vh; font-size: 2vw""> 
            <font color=""green""> Bonus : $0.86 </font>
            </div>
        </div>
    
            <div> Please press any key to continue to the next movie.</div>
        ","enter","ITI","","","","","","",""
"","","","","","html-keyboard-response","79","160182","0.0-7.14-1.14","61645511546f08038b19f62c","6573617f270241e5da3d355d","6576bffbca26f96357fe8437","1590","./stimuli//pack_morph_shapes_1/cat_1/diff_3/ex_1_3_13.gif","arrowright","response","ArrowLeft","13","1","3","test","false",""
"","","","","","html-keyboard-response","80","161683","0.0-7.14-2.14","61645511546f08038b19f62c","6573617f270241e5da3d355d","6576bffbca26f96357fe8437","null","<p> <font color=""red"" size=""5vw""> Wrong category! </font> <br> <br> <font color=""red"" size=""8vw""> - $0.05 </font> </p>","null","feedback","","","","","","","0.81"
"","","","","","html-keyboard-response","81","161901","0.0-7.15-0.15","61645511546f08038b19f62c","6573617f270241e5da3d355d","6576bffbca26f96357fe8437","217","
            
        <div style=""text-align: center; position: fixed; top: 5vh; left: 40vw;"">
            <div style=""margin:0 auto; width: 20vw; top: 8vh; font-size: 2vw""> 
            <font color=""green""> Bonus : $0.81 </font>
            </div>
        </div>
    
            <div> Please press any key to continue to the next movie.</div>
        ","enter","ITI","","","","","","",""
"","","","","","html-keyboard-response","82","162931","0.0-7.15-1.15","61645511546f08038b19f62c","6573617f270241e5da3d355d","6576bffbca26f96357fe8437","1028","./stimuli//pack_morph_shapes_1/cat_1/diff_4/ex_1_4_12.gif","arrowleft","response","ArrowLeft","12","1","4","test","true",""
"","","","","","html-keyboard-response","83","164432","0.0-7.15-2.15","61645511546f08038b19f62c","6573617f270241e5da3d355d","6576bffbca26f96357fe8437","null","<p> <font color=""green"" size=""5vw""> Correct category! </font> <br> <br> <font color=""green"" size=""8vw""> + $0.06 </font> </p>","null","feedback","","","","","","","0.87"
"","","","","","html-keyboard-response","84","164819","0.0-7.16-0.16","61645511546f08038b19f62c","6573617f270241e5da3d355d","6576bffbca26f96357fe8437","387","
            
        <div style=""text-align: center; position: fixed; top: 5vh; left: 40vw;"">
            <div style=""margin:0 auto; width: 20vw; top: 8vh; font-size: 2vw""> 
            <font color=""green""> Bonus : $0.87 </font>
            </div>
        </div>
    
            <div> Please press any key to continue to the next movie.</div>
        ","enter","ITI","","","","","","",""
"","","","","","html-keyboard-response","85","165760","0.0-7.16-1.16","61645511546f08038b19f62c","6573617f270241e5da3d355d","6576bffbca26f96357fe8437","939","./stimuli//pack_morph_shapes_1/cat_1/diff_4/ex_1_4_10.gif","arrowleft","response","ArrowLeft","10","1","4","test","true",""
"","","","","","html-keyboard-response","86","167261","0.0-7.16-2.16","61645511546f08038b19f62c","6573617f270241e5da3d355d","6576bffbca26f96357fe8437","null","<p> <font color=""green"" size=""5vw""> Correct category! </font> <br> <br> <font color=""green"" size=""8vw""> + $0.06 </font> </p>","null","feedback","","","","","","","0.93"
"","","","","","html-keyboard-response","87","168450","0.0-7.17-0.17","61645511546f08038b19f62c","6573617f270241e5da3d355d","6576bffbca26f96357fe8437","1187","
            
        <div style=""text-align: center; position: fixed; top: 5vh; left: 40vw;"">
            <div style=""margin:0 auto; width: 20vw; top: 8vh; font-size: 2vw""> 
            <font color=""green""> Bonus : $0.93 </font>
            </div>
        </div>
    
            <div> Please press any key to continue to the next movie.</div>
        ","enter","ITI","","","","","","",""
"","","","","","html-keyboard-response","88","169286","0.0-7.17-1.17","61645511546f08038b19f62c","6573617f270241e5da3d355d","6576bffbca26f96357fe8437","835","./stimuli//pack_morph_shapes_1/cat_1/diff_4/ex_1_4_12.gif","arrowleft","response","ArrowLeft","12","1","4","test","true",""
"","","","","","html-keyboard-response","89","170787","0.0-7.17-2.17","61645511546f08038b19f62c","6573617f270241e5da3d355d","6576bffbca26f96357fe8437","null","<p> <font color=""green"" size=""5vw""> Correct category! </font> <br> <br> <font color=""green"" size=""8vw""> + $0.07 </font> </p>","null","feedback","","","","","","","1"
"","","","","","html-keyboard-response","90","171182","0.0-7.18-0.18","61645511546f08038b19f62c","6573617f270241e5da3d355d","6576bffbca26f96357fe8437","393","
            
        <div style=""text-align: center; position: fixed; top: 5vh; left: 40vw;"">
            <div style=""margin:0 auto; width: 20vw; top: 8vh; font-size: 2vw""> 
            <font color=""green""> Bonus : $1 </font>
            </div>
        </div>
    
            <div> Please press any key to continue to the next movie.</div>
        ","enter","ITI","","","","","","",""
"","","","","","html-keyboard-response","91","171966","0.0-7.18-1.18","61645511546f08038b19f62c","6573617f270241e5da3d355d","6576bffbca26f96357fe8437","783","./stimuli//pack_morph_shapes_1/cat_1/diff_4/ex_1_4_17.gif","arrowleft","response","ArrowLeft","17","1","4","test","true",""
"","","","","","html-keyboard-response","92","173468","0.0-7.18-2.18","61645511546f08038b19f62c","6573617f270241e5da3d355d","6576bffbca26f96357fe8437","null","<p> <font color=""green"" size=""5vw""> Correct category! </font> <br> <br> <font color=""green"" size=""8vw""> + $0.07 </font> </p>","null","feedback","","","","","","","1.07"
"","","","","","html-keyboard-response","93","173825","0.0-7.19-0.19","61645511546f08038b19f62c","6573617f270241e5da3d355d","6576bffbca26f96357fe8437","355","
            
        <div style=""text-align: center; position: fixed; top: 5vh; left: 40vw;"">
            <div style=""margin:0 auto; width: 20vw; top: 8vh; font-size: 2vw""> 
            <font color=""green""> Bonus : $1.07 </font>
            </div>
        </div>
    
            <div> Please press any key to continue to the next movie.</div>
        ","enter","ITI","","","","","","",""
"","","","","","html-keyboard-response","94","174449","0.0-7.19-1.19","61645511546f08038b19f62c","6573617f270241e5da3d355d","6576bffbca26f96357fe8437","623","./stimuli//pack_morph_shapes_1/cat_2/diff_4/ex_2_4_2.gif","arrowleft","response","ArrowRight","2","2","4","test","false",""
"","","","","","html-keyboard-response","95","175950","0.0-7.19-2.19","61645511546f08038b19f62c","6573617f270241e5da3d355d","6576bffbca26f96357fe8437","null","<p> <font color=""red"" size=""5vw""> Wrong category! </font> <br> <br> <font color=""red"" size=""8vw""> - $0.05 </font> </p>","null","feedback","","","","","","","1.02"
"","","","","","html-keyboard-response","96","176089","0.0-7.20-0.20","61645511546f08038b19f62c","6573617f270241e5da3d355d","6576bffbca26f96357fe8437","138","
            
        <div style=""text-align: center; position: fixed; top: 5vh; left: 40vw;"">
            <div style=""margin:0 auto; width: 20vw; top: 8vh; font-size: 2vw""> 
            <font color=""green""> Bonus : $1.02 </font>
            </div>
        </div>
    
            <div> Please press any key to continue to the next movie.</div>
        ","enter","ITI","","","","","","",""
"","","","","","html-keyboard-response","97","177137","0.0-7.20-1.20","61645511546f08038b19f62c","6573617f270241e5da3d355d","6576bffbca26f96357fe8437","1044","./stimuli//pack_morph_shapes_1/cat_2/diff_5/ex_2_5_15.gif","arrowleft","response","ArrowRight","15","2","5","test","false",""
"","","","","","html-keyboard-response","98","178638","0.0-7.20-2.20","61645511546f08038b19f62c","6573617f270241e5da3d355d","6576bffbca26f96357fe8437","null","<p> <font color=""red"" size=""5vw""> Wrong category! </font> <br> <br> <font color=""red"" size=""8vw""> - $0.05 </font> </p>","null","feedback","","","","","","","0.97"
"","","","","","html-keyboard-response","99","179284","0.0-7.21-0.21","61645511546f08038b19f62c","6573617f270241e5da3d355d","6576bffbca26f96357fe8437","646","
            
        <div style=""text-align: center; position: fixed; top: 5vh; left: 40vw;"">
            <div style=""margin:0 auto; width: 20vw; top: 8vh; font-size: 2vw""> 
            <font color=""green""> Bonus : $0.97 </font>
            </div>
        </div>
    
            <div> Please press any key to continue to the next movie.</div>
        ","enter","ITI","","","","","","",""
"","","","","","html-keyboard-response","100","180204","0.0-7.21-1.21","61645511546f08038b19f62c","6573617f270241e5da3d355d","6576bffbca26f96357fe8437","919","./stimuli//pack_morph_shapes_1/cat_1/diff_5/ex_1_5_5.gif","arrowright","response","ArrowLeft","5","1","5","test","false",""
"","","","","","html-keyboard-response","101","181705","0.0-7.21-2.21","61645511546f08038b19f62c","6573617f270241e5da3d355d","6576bffbca26f96357fe8437","null","<p> <font color=""red"" size=""5vw""> Wrong category! </font> <br> <br> <font color=""red"" size=""8vw""> - $0.05 </font> </p>","null","feedback","","","","","","","0.92"
"","","","","","html-keyboard-response","102","181725","0.0-7.22-0.22","61645511546f08038b19f62c","6573617f270241e5da3d355d","6576bffbca26f96357fe8437","19","
            
        <div style=""text-align: center; position: fixed; top: 5vh; left: 40vw;"">
            <div style=""margin:0 auto; width: 20vw; top: 8vh; font-size: 2vw""> 
            <font color=""green""> Bonus : $0.92 </font>
            </div>
        </div>
    
            <div> Please press any key to continue to the next movie.</div>
        ","enter","ITI","","","","","","",""
"","","","","","html-keyboard-response","103","183257","0.0-7.22-1.22","61645511546f08038b19f62c","6573617f270241e5da3d355d","6576bffbca26f96357fe8437","1531","./stimuli//pack_morph_shapes_1/cat_2/diff_5/ex_2_5_4.gif","arrowright","response","ArrowRight","4","2","5","test","true",""
"","","","","","html-keyboard-response","104","184758","0.0-7.22-2.22","61645511546f08038b19f62c","6573617f270241e5da3d355d","6576bffbca26f96357fe8437","null","<p> <font color=""green"" size=""5vw""> Correct category! </font> <br> <br> <font color=""green"" size=""8vw""> + $0.05 </font> </p>","null","feedback","","","","","","","0.97"
"","","","","","html-keyboard-response","105","185176","0.0-7.23-0.23","61645511546f08038b19f62c","6573617f270241e5da3d355d","6576bffbca26f96357fe8437","416","
            
        <div style=""text-align: center; position: fixed; top: 5vh; left: 40vw;"">
            <div style=""margin:0 auto; width: 20vw; top: 8vh; font-size: 2vw""> 
            <font color=""green""> Bonus : $0.97 </font>
            </div>
        </div>
    
            <div> Please press any key to continue to the next movie.</div>
        ","enter","ITI","","","","","","",""
"","","","","","html-keyboard-response","106","186247","0.0-7.23-1.23","61645511546f08038b19f62c","6573617f270241e5da3d355d","6576bffbca26f96357fe8437","1069","./stimuli//pack_morph_shapes_1/cat_1/diff_5/ex_1_5_8.gif","arrowleft","response","ArrowLeft","8","1","5","test","true",""
"","","","","","html-keyboard-response","107","187748","0.0-7.23-2.23","61645511546f08038b19f62c","6573617f270241e5da3d355d","6576bffbca26f96357fe8437","null","<p> <font color=""green"" size=""5vw""> Correct category! </font> <br> <br> <font color=""green"" size=""8vw""> + $0.06 </font> </p>","null","feedback","","","","","","","1.03"
"","","","","","html-keyboard-response","108","187761","0.0-7.24-0.24","61645511546f08038b19f62c","6573617f270241e5da3d355d","6576bffbca26f96357fe8437","12","
            
        <div style=""text-align: center; position: fixed; top: 5vh; left: 40vw;"">
            <div style=""margin:0 auto; width: 20vw; top: 8vh; font-size: 2vw""> 
            <font color=""green""> Bonus : $1.03 </font>
            </div>
        </div>
    
            <div> Please press any key to continue to the next movie.</div>
        ","enter","ITI","","","","","","",""
"","","","","","html-keyboard-response","109","189769","0.0-7.24-1.24","61645511546f08038b19f62c","6573617f270241e5da3d355d","6576bffbca26f96357fe8437","2006","./stimuli//pack_morph_shapes_1/cat_2/diff_5/ex_2_5_17.gif","arrowright","response","ArrowRight","17","2","5","test","true",""
"","","","","","html-keyboard-response","110","191270","0.0-7.24-2.24","61645511546f08038b19f62c","6573617f270241e5da3d355d","6576bffbca26f96357fe8437","null","<p> <font color=""green"" size=""5vw""> Correct category! </font> <br> <br> <font color=""green"" size=""8vw""> + $0.04 </font> </p>","null","feedback","","","","","","","1.07"
"","","","","","html-keyboard-response","111","191704","0.0-7.25-0.25","61645511546f08038b19f62c","6573617f270241e5da3d355d","6576bffbca26f96357fe8437","432","
            
        <div style=""text-align: center; position: fixed; top: 5vh; left: 40vw;"">
            <div style=""margin:0 auto; width: 20vw; top: 8vh; font-size: 2vw""> 
            <font color=""green""> Bonus : $1.07 </font>
            </div>
        </div>
    
            <div> Please press any key to continue to the next movie.</div>
        ","enter","ITI","","","","","","",""
"","","","","","html-keyboard-response","112","193177","0.0-7.25-1.25","61645511546f08038b19f62c","6573617f270241e5da3d355d","6576bffbca26f96357fe8437","1471","./stimuli//pack_morph_shapes_1/cat_1/diff_4/ex_1_4_16.gif","arrowleft","response","ArrowLeft","16","1","4","test","true",""
"","","","","","html-keyboard-response","113","194678","0.0-7.25-2.25","61645511546f08038b19f62c","6573617f270241e5da3d355d","6576bffbca26f96357fe8437","null","<p> <font color=""green"" size=""5vw""> Correct category! </font> <br> <br> <font color=""green"" size=""8vw""> + $0.05 </font> </p>","null","feedback","","","","","","","1.12"
"","","","","","html-keyboard-response","114","195273","0.0-7.26-0.26","61645511546f08038b19f62c","6573617f270241e5da3d355d","6576bffbca26f96357fe8437","595","
            
        <div style=""text-align: center; position: fixed; top: 5vh; left: 40vw;"">
            <div style=""margin:0 auto; width: 20vw; top: 8vh; font-size: 2vw""> 
            <font color=""green""> Bonus : $1.12 </font>
            </div>
        </div>
    
            <div> Please press any key to continue to the next movie.</div>
        ","enter","ITI","","","","","","",""
"","","","","","html-keyboard-response","115","196824","0.0-7.26-1.26","61645511546f08038b19f62c","6573617f270241e5da3d355d","6576bffbca26f96357fe8437","1550","./stimuli//pack_morph_shapes_1/cat_1/diff_4/ex_1_4_2.gif","arrowleft","response","ArrowLeft","2","1","4","test","true",""
"","","","","","html-keyboard-response","116","198326","0.0-7.26-2.26","61645511546f08038b19f62c","6573617f270241e5da3d355d","6576bffbca26f96357fe8437","null","<p> <font color=""green"" size=""5vw""> Correct category! </font> <br> <br> <font color=""green"" size=""8vw""> + $0.05 </font> </p>","null","feedback","","","","","","","1.17"
"","","","","","html-keyboard-response","117","198693","0.0-7.27-0.27","61645511546f08038b19f62c","6573617f270241e5da3d355d","6576bffbca26f96357fe8437","366","
            
        <div style=""text-align: center; position: fixed; top: 5vh; left: 40vw;"">
            <div style=""margin:0 auto; width: 20vw; top: 8vh; font-size: 2vw""> 
            <font color=""green""> Bonus : $1.17 </font>
            </div>
        </div>
    
            <div> Please press any key to continue to the next movie.</div>
        ","enter","ITI","","","","","","",""
"","","","","","html-keyboard-response","118","199861","0.0-7.27-1.27","61645511546f08038b19f62c","6573617f270241e5da3d355d","6576bffbca26f96357fe8437","1166","./stimuli//pack_morph_shapes_1/cat_2/diff_4/ex_2_4_9.gif","arrowright","response","ArrowRight","9","2","4","test","true",""
"","","","","","html-keyboard-response","119","201362","0.0-7.27-2.27","61645511546f08038b19f62c","6573617f270241e5da3d355d","6576bffbca26f96357fe8437","null","<p> <font color=""green"" size=""5vw""> Correct category! </font> <br> <br> <font color=""green"" size=""8vw""> + $0.06 </font> </p>","null","feedback","","","","","","","1.23"
"","","","","","html-keyboard-response","120","201695","0.0-7.28-0.28","61645511546f08038b19f62c","6573617f270241e5da3d355d","6576bffbca26f96357fe8437","331","
            
        <div style=""text-align: center; position: fixed; top: 5vh; left: 40vw;"">
            <div style=""margin:0 auto; width: 20vw; top: 8vh; font-size: 2vw""> 
            <font color=""green""> Bonus : $1.23 </font>
            </div>
        </div>
    
            <div> Please press any key to continue to the next movie.</div>
        ","enter","ITI","","","","","","",""
"","","","","","html-keyboard-response","121","202360","0.0-7.28-1.28","61645511546f08038b19f62c","6573617f270241e5da3d355d","6576bffbca26f96357fe8437","663","./stimuli//pack_morph_shapes_1/cat_2/diff_4/ex_2_4_2.gif","arrowright","response","ArrowRight","2","2","4","test","true",""
"","","","","","html-keyboard-response","122","203861","0.0-7.28-2.28","61645511546f08038b19f62c","6573617f270241e5da3d355d","6576bffbca26f96357fe8437","null","<p> <font color=""green"" size=""5vw""> Correct category! </font> <br> <br> <font color=""green"" size=""8vw""> + $0.07 </font> </p>","null","feedback","","","","","","","1.3"
"","","","","","html-keyboard-response","123","203928","0.0-7.29-0.29","61645511546f08038b19f62c","6573617f270241e5da3d355d","6576bffbca26f96357fe8437","66","
            
        <div style=""text-align: center; position: fixed; top: 5vh; left: 40vw;"">
            <div style=""margin:0 auto; width: 20vw; top: 8vh; font-size: 2vw""> 
            <font color=""green""> Bonus : $1.3 </font>
            </div>
        </div>
    
            <div> Please press any key to continue to the next movie.</div>
        ","enter","ITI","","","","","","",""
"","","","","","html-keyboard-response","124","204833","0.0-7.29-1.29","61645511546f08038b19f62c","6573617f270241e5da3d355d","6576bffbca26f96357fe8437","904","./stimuli//pack_morph_shapes_1/cat_2/diff_4/ex_2_4_6.gif","arrowright","response","ArrowRight","6","2","4","test","true",""
"","","","","","html-keyboard-response","125","206334","0.0-7.29-2.29","61645511546f08038b19f62c","6573617f270241e5da3d355d","6576bffbca26f96357fe8437","null","<p> <font color=""green"" size=""5vw""> Correct category! </font> <br> <br> <font color=""green"" size=""8vw""> + $0.06 </font> </p>","null","feedback","","","","","","","1.36"
"","","","","","html-keyboard-response","126","206581","0.0-7.30-0.30","61645511546f08038b19f62c","6573617f270241e5da3d355d","6576bffbca26f96357fe8437","246","
            
        <div style=""text-align: center; position: fixed; top: 5vh; left: 40vw;"">
            <div style=""margin:0 auto; width: 20vw; top: 8vh; font-size: 2vw""> 
            <font color=""green""> Bonus : $1.36 </font>
            </div>
        </div>
    
            <div> Please press any key to continue to the next movie.</div>
        ","enter","ITI","","","","","","",""
"","","","","","html-keyboard-response","127","207953","0.0-7.30-1.30","61645511546f08038b19f62c","6573617f270241e5da3d355d","6576bffbca26f96357fe8437","1370","./stimuli//pack_morph_shapes_1/cat_1/diff_5/ex_1_5_5.gif","arrowleft","response","ArrowLeft","5","1","5","test","true",""
"","","","","","html-keyboard-response","128","209454","0.0-7.30-2.30","61645511546f08038b19f62c","6573617f270241e5da3d355d","6576bffbca26f96357fe8437","null","<p> <font color=""green"" size=""5vw""> Correct category! </font> <br> <br> <font color=""green"" size=""8vw""> + $0.05 </font> </p>","null","feedback","","","","","","","1.41"
"","","","","","html-keyboard-response","129","209743","0.0-7.31-0.31","61645511546f08038b19f62c","6573617f270241e5da3d355d","6576bffbca26f96357fe8437","287","
            
        <div style=""text-align: center; position: fixed; top: 5vh; left: 40vw;"">
            <div style=""margin:0 auto; width: 20vw; top: 8vh; font-size: 2vw""> 
            <font color=""green""> Bonus : $1.41 </font>
            </div>
        </div>
    
            <div> Please press any key to continue to the next movie.</div>
        ","enter","ITI","","","","","","",""
"","","","","","html-keyboard-response","130","210888","0.0-7.31-1.31","61645511546f08038b19f62c","6573617f270241e5da3d355d","6576bffbca26f96357fe8437","1144","./stimuli//pack_morph_shapes_1/cat_1/diff_5/ex_1_5_4.gif","arrowleft","response","ArrowLeft","4","1","5","test","true",""
"","","","","","html-keyboard-response","131","212389","0.0-7.31-2.31","61645511546f08038b19f62c","6573617f270241e5da3d355d","6576bffbca26f96357fe8437","null","<p> <font color=""green"" size=""5vw""> Correct category! </font> <br> <br> <font color=""green"" size=""8vw""> + $0.06 </font> </p>","null","feedback","","","","","","","1.47"
"","","","","","html-keyboard-response","132","212912","0.0-7.32-0.32","61645511546f08038b19f62c","6573617f270241e5da3d355d","6576bffbca26f96357fe8437","522","
            
        <div style=""text-align: center; position: fixed; top: 5vh; left: 40vw;"">
            <div style=""margin:0 auto; width: 20vw; top: 8vh; font-size: 2vw""> 
            <font color=""green""> Bonus : $1.47 </font>
            </div>
        </div>
    
            <div> Please press any key to continue to the next movie.</div>
        ","arrowright","ITI","","","","","","",""
"","","","","","html-keyboard-response","133","214030","0.0-7.32-1.32","61645511546f08038b19f62c","6573617f270241e5da3d355d","6576bffbca26f96357fe8437","1117","./stimuli//pack_morph_shapes_1/cat_1/diff_5/ex_1_5_6.gif","arrowleft","response","ArrowLeft","6","1","5","test","true",""
"","","","","","html-keyboard-response","134","215531","0.0-7.32-2.32","61645511546f08038b19f62c","6573617f270241e5da3d355d","6576bffbca26f96357fe8437","null","<p> <font color=""green"" size=""5vw""> Correct category! </font> <br> <br> <font color=""green"" size=""8vw""> + $0.06 </font> </p>","null","feedback","","","","","","","1.53"
"","","","","","html-keyboard-response","135","215709","0.0-7.33-0.33","61645511546f08038b19f62c","6573617f270241e5da3d355d","6576bffbca26f96357fe8437","176","
            
        <div style=""text-align: center; position: fixed; top: 5vh; left: 40vw;"">
            <div style=""margin:0 auto; width: 20vw; top: 8vh; font-size: 2vw""> 
            <font color=""green""> Bonus : $1.53 </font>
            </div>
        </div>
    
            <div> Please press any key to continue to the next movie.</div>
        ","enter","ITI","","","","","","",""
"","","","","","html-keyboard-response","136","216706","0.0-7.33-1.33","61645511546f08038b19f62c","6573617f270241e5da3d355d","6576bffbca26f96357fe8437","996","./stimuli//pack_morph_shapes_1/cat_1/diff_5/ex_1_5_16.gif","arrowright","response","ArrowLeft","16","1","5","test","false",""
"","","","","","html-keyboard-response","137","218207","0.0-7.33-2.33","61645511546f08038b19f62c","6573617f270241e5da3d355d","6576bffbca26f96357fe8437","null","<p> <font color=""red"" size=""5vw""> Wrong category! </font> <br> <br> <font color=""red"" size=""8vw""> - $0.05 </font> </p>","null","feedback","","","","","","","1.48"
"","","","","","html-keyboard-response","138","218554","0.0-7.34-0.34","61645511546f08038b19f62c","6573617f270241e5da3d355d","6576bffbca26f96357fe8437","346","
            
        <div style=""text-align: center; position: fixed; top: 5vh; left: 40vw;"">
            <div style=""margin:0 auto; width: 20vw; top: 8vh; font-size: 2vw""> 
            <font color=""green""> Bonus : $1.48 </font>
            </div>
        </div>
    
            <div> Please press any key to continue to the next movie.</div>
        ","enter","ITI","","","","","","",""
"","","","","","html-keyboard-response","139","220293","0.0-7.34-1.34","61645511546f08038b19f62c","6573617f270241e5da3d355d","6576bffbca26f96357fe8437","1737","./stimuli//pack_morph_shapes_1/cat_2/diff_5/ex_2_5_9.gif","arrowright","response","ArrowRight","9","2","5","test","true",""
"","","","","","html-keyboard-response","140","221794","0.0-7.34-2.34","61645511546f08038b19f62c","6573617f270241e5da3d355d","6576bffbca26f96357fe8437","null","<p> <font color=""green"" size=""5vw""> Correct category! </font> <br> <br> <font color=""green"" size=""8vw""> + $0.04 </font> </p>","null","feedback","","","","","","","1.52"
"","","","","","html-keyboard-response","141","222122","0.0-7.35-0.35","61645511546f08038b19f62c","6573617f270241e5da3d355d","6576bffbca26f96357fe8437","325","
            
        <div style=""text-align: center; position: fixed; top: 5vh; left: 40vw;"">
            <div style=""margin:0 auto; width: 20vw; top: 8vh; font-size: 2vw""> 
            <font color=""green""> Bonus : $1.52 </font>
            </div>
        </div>
    
            <div> Please press any key to continue to the next movie.</div>
        ","enter","ITI","","","","","","",""
"","","","","","html-keyboard-response","142","223569","0.0-7.35-1.35","61645511546f08038b19f62c","6573617f270241e5da3d355d","6576bffbca26f96357fe8437","1445","./stimuli//pack_morph_shapes_1/cat_2/diff_5/ex_2_5_7.gif","arrowright","response","ArrowRight","7","2","5","test","true",""
"","","","","","html-keyboard-response","143","225070","0.0-7.35-2.35","61645511546f08038b19f62c","6573617f270241e5da3d355d","6576bffbca26f96357fe8437","null","<p> <font color=""green"" size=""5vw""> Correct category! </font> <br> <br> <font color=""green"" size=""8vw""> + $0.05 </font> </p>","null","feedback","","","","","","","1.57"
"","","","","","html-keyboard-response","144","227824","0.0-7.36-0.36","61645511546f08038b19f62c","6573617f270241e5da3d355d","6576bffbca26f96357fe8437","2753","
            
        <div style=""text-align: center; position: fixed; top: 5vh; left: 40vw;"">
            <div style=""margin:0 auto; width: 20vw; top: 8vh; font-size: 2vw""> 
            <font color=""green""> Bonus : $1.57 </font>
            </div>
        </div>
    
            <div> Please press any key to continue to the next movie.</div>
        ","enter","ITI","","","","","","",""
"","","","","","html-keyboard-response","145","228859","0.0-7.36-1.36","61645511546f08038b19f62c","6573617f270241e5da3d355d","6576bffbca26f96357fe8437","1033","./stimuli//pack_morph_shapes_1/cat_1/diff_5/ex_1_5_12.gif","arrowleft","response","ArrowLeft","12","1","5","test","true",""
"","","","","","html-keyboard-response","146","230360","0.0-7.36-2.36","61645511546f08038b19f62c","6573617f270241e5da3d355d","6576bffbca26f96357fe8437","null","<p> <font color=""green"" size=""5vw""> Correct category! </font> <br> <br> <font color=""green"" size=""8vw""> + $0.06 </font> </p>","null","feedback","","","","","","","1.63"
"","","","","","html-keyboard-response","147","231575","0.0-7.37-0.37","61645511546f08038b19f62c","6573617f270241e5da3d355d","6576bffbca26f96357fe8437","1214","
            
        <div style=""text-align: center; position: fixed; top: 5vh; left: 40vw;"">
            <div style=""margin:0 auto; width: 20vw; top: 8vh; font-size: 2vw""> 
            <font color=""green""> Bonus : $1.63 </font>
            </div>
        </div>
    
            <div> Please press any key to continue to the next movie.</div>
        ","enter","ITI","","","","","","",""
"","","","","","html-keyboard-response","148","232339","0.0-7.37-1.37","61645511546f08038b19f62c","6573617f270241e5da3d355d","6576bffbca26f96357fe8437","762","./stimuli//pack_morph_shapes_1/cat_1/diff_5/ex_1_5_5.gif","arrowleft","response","ArrowLeft","5","1","5","test","true",""
"","","","","","html-keyboard-response","149","233841","0.0-7.37-2.37","61645511546f08038b19f62c","6573617f270241e5da3d355d","6576bffbca26f96357fe8437","null","<p> <font color=""green"" size=""5vw""> Correct category! </font> <br> <br> <font color=""green"" size=""8vw""> + $0.07 </font> </p>","null","feedback","","","","","","","1.7"
"","","","","","html-keyboard-response","150","233975","0.0-7.38-0.38","61645511546f08038b19f62c","6573617f270241e5da3d355d","6576bffbca26f96357fe8437","133","
            
        <div style=""text-align: center; position: fixed; top: 5vh; left: 40vw;"">
            <div style=""margin:0 auto; width: 20vw; top: 8vh; font-size: 2vw""> 
            <font color=""green""> Bonus : $1.7 </font>
            </div>
        </div>
    
            <div> Please press any key to continue to the next movie.</div>
        ","enter","ITI","","","","","","",""
"","","","","","html-keyboard-response","151","235040","0.0-7.38-1.38","61645511546f08038b19f62c","6573617f270241e5da3d355d","6576bffbca26f96357fe8437","1064","./stimuli//pack_morph_shapes_1/cat_2/diff_5/ex_2_5_11.gif","arrowright","response","ArrowRight","11","2","5","test","true",""
"","","","","","html-keyboard-response","152","236541","0.0-7.38-2.38","61645511546f08038b19f62c","6573617f270241e5da3d355d","6576bffbca26f96357fe8437","null","<p> <font color=""green"" size=""5vw""> Correct category! </font> <br> <br> <font color=""green"" size=""8vw""> + $0.06 </font> </p>","null","feedback","","","","","","","1.76"
"","","","","","html-keyboard-response","153","237421","0.0-7.39-0.39","61645511546f08038b19f62c","6573617f270241e5da3d355d","6576bffbca26f96357fe8437","879","
            
        <div style=""text-align: center; position: fixed; top: 5vh; left: 40vw;"">
            <div style=""margin:0 auto; width: 20vw; top: 8vh; font-size: 2vw""> 
            <font color=""green""> Bonus : $1.76 </font>
            </div>
        </div>
    
            <div> Please press any key to continue to the next movie.</div>
        ","enter","ITI","","","","","","",""
"","","","","","html-keyboard-response","154","238163","0.0-7.39-1.39","61645511546f08038b19f62c","6573617f270241e5da3d355d","6576bffbca26f96357fe8437","741","./stimuli//pack_morph_shapes_1/cat_2/diff_5/ex_2_5_17.gif","arrowright","response","ArrowRight","17","2","5","test","true",""
"","","","","","html-keyboard-response","155","239665","0.0-7.39-2.39","61645511546f08038b19f62c","6573617f270241e5da3d355d","6576bffbca26f96357fe8437","null","<p> <font color=""green"" size=""5vw""> Correct category! </font> <br> <br> <font color=""green"" size=""8vw""> + $0.07 </font> </p>","null","feedback","","","","","","","1.83"
"","","","","","html-keyboard-response","156","240435","0.0-7.40-0.40","61645511546f08038b19f62c","6573617f270241e5da3d355d","6576bffbca26f96357fe8437","770","
            
        <div style=""text-align: center; position: fixed; top: 5vh; left: 40vw;"">
            <div style=""margin:0 auto; width: 20vw; top: 8vh; font-size: 2vw""> 
            <font color=""green""> Bonus : $1.83 </font>
            </div>
        </div>
    
            <div> Please press any key to continue to the next movie.</div>
        ","enter","ITI","","","","","","",""
"","","","","","html-keyboard-response","157","241158","0.0-7.40-1.40","61645511546f08038b19f62c","6573617f270241e5da3d355d","6576bffbca26f96357fe8437","721","./stimuli//pack_morph_shapes_1/cat_1/diff_5/ex_1_5_13.gif","arrowright","response","ArrowLeft","13","1","5","test","false",""
"","","","","","html-keyboard-response","158","242660","0.0-7.40-2.40","61645511546f08038b19f62c","6573617f270241e5da3d355d","6576bffbca26f96357fe8437","null","<p> <font color=""red"" size=""5vw""> Wrong category! </font> <br> <br> <font color=""red"" size=""8vw""> - $0.05 </font> </p>","null","feedback","","","","","","","1.78"
"","","","","","html-keyboard-response","159","242682","0.0-7.41-0.41","61645511546f08038b19f62c","6573617f270241e5da3d355d","6576bffbca26f96357fe8437","22","
            
        <div style=""text-align: center; position: fixed; top: 5vh; left: 40vw;"">
            <div style=""margin:0 auto; width: 20vw; top: 8vh; font-size: 2vw""> 
            <font color=""green""> Bonus : $1.78 </font>
            </div>
        </div>
    
            <div> Please press any key to continue to the next movie.</div>
        ","enter","ITI","","","","","","",""
"","","","","","html-keyboard-response","160","244930","0.0-7.41-1.41","61645511546f08038b19f62c","6573617f270241e5da3d355d","6576bffbca26f96357fe8437","2246","./stimuli//pack_morph_shapes_1/cat_1/diff_5/ex_1_5_11.gif","arrowleft","response","ArrowLeft","11","1","5","test","true",""
"","","","","","html-keyboard-response","161","246431","0.0-7.41-2.41","61645511546f08038b19f62c","6573617f270241e5da3d355d","6576bffbca26f96357fe8437","null","<p> <font color=""green"" size=""5vw""> Correct category! </font> <br> <br> <font color=""green"" size=""8vw""> + $0.03 </font> </p>","null","feedback","","","","","","","1.81"
"","","","","","html-keyboard-response","162","246512","0.0-7.42-0.42","61645511546f08038b19f62c","6573617f270241e5da3d355d","6576bffbca26f96357fe8437","79","
            
        <div style=""text-align: center; position: fixed; top: 5vh; left: 40vw;"">
            <div style=""margin:0 auto; width: 20vw; top: 8vh; font-size: 2vw""> 
            <font color=""green""> Bonus : $1.81 </font>
            </div>
        </div>
    
            <div> Please press any key to continue to the next movie.</div>
        ","enter","ITI","","","","","","",""
"","","","","","html-keyboard-response","163","247517","0.0-7.42-1.42","61645511546f08038b19f62c","6573617f270241e5da3d355d","6576bffbca26f96357fe8437","1004","./stimuli//pack_morph_shapes_1/cat_2/diff_5/ex_2_5_3.gif","arrowleft","response","ArrowRight","3","2","5","test","false",""
"","","","","","html-keyboard-response","164","249018","0.0-7.42-2.42","61645511546f08038b19f62c","6573617f270241e5da3d355d","6576bffbca26f96357fe8437","null","<p> <font color=""red"" size=""5vw""> Wrong category! </font> <br> <br> <font color=""red"" size=""8vw""> - $0.05 </font> </p>","null","feedback","","","","","","","1.76"
"","","","","","html-keyboard-response","165","249594","0.0-7.43-0.43","61645511546f08038b19f62c","6573617f270241e5da3d355d","6576bffbca26f96357fe8437","575","
            
        <div style=""text-align: center; position: fixed; top: 5vh; left: 40vw;"">
            <div style=""margin:0 auto; width: 20vw; top: 8vh; font-size: 2vw""> 
            <font color=""green""> Bonus : $1.76 </font>
            </div>
        </div>
    
            <div> Please press any key to continue to the next movie.</div>
        ","enter","ITI","","","","","","",""
"","","","","","html-keyboard-response","166","250666","0.0-7.43-1.43","61645511546f08038b19f62c","6573617f270241e5da3d355d","6576bffbca26f96357fe8437","1071","./stimuli//pack_morph_shapes_1/cat_1/diff_4/ex_1_4_7.gif","arrowleft","response","ArrowLeft","7","1","4","test","true",""
"","","","","","html-keyboard-response","167","252167","0.0-7.43-2.43","61645511546f08038b19f62c","6573617f270241e5da3d355d","6576bffbca26f96357fe8437","null","<p> <font color=""green"" size=""5vw""> Correct category! </font> <br> <br> <font color=""green"" size=""8vw""> + $0.06 </font> </p>","null","feedback","","","","","","","1.82"
"","","","","","html-keyboard-response","168","252232","0.0-7.44-0.44","61645511546f08038b19f62c","6573617f270241e5da3d355d","6576bffbca26f96357fe8437","64","
            
        <div style=""text-align: center; position: fixed; top: 5vh; left: 40vw;"">
            <div style=""margin:0 auto; width: 20vw; top: 8vh; font-size: 2vw""> 
            <font color=""green""> Bonus : $1.82 </font>
            </div>
        </div>
    
            <div> Please press any key to continue to the next movie.</div>
        ","enter","ITI","","","","","","",""
"","","","","","html-keyboard-response","169","253778","0.0-7.44-1.44","61645511546f08038b19f62c","6573617f270241e5da3d355d","6576bffbca26f96357fe8437","1545","./stimuli//pack_morph_shapes_1/cat_1/diff_4/ex_1_4_1.gif","arrowleft","response","ArrowLeft","1","1","4","test","true",""
"","","","","","html-keyboard-response","170","255279","0.0-7.44-2.44","61645511546f08038b19f62c","6573617f270241e5da3d355d","6576bffbca26f96357fe8437","null","<p> <font color=""green"" size=""5vw""> Correct category! </font> <br> <br> <font color=""green"" size=""8vw""> + $0.05 </font> </p>","null","feedback","","","","","","","1.87"
"","","","","","html-keyboard-response","171","255418","0.0-7.45-0.45","61645511546f08038b19f62c","6573617f270241e5da3d355d","6576bffbca26f96357fe8437","138","
            
        <div style=""text-align: center; position: fixed; top: 5vh; left: 40vw;"">
            <div style=""margin:0 auto; width: 20vw; top: 8vh; font-size: 2vw""> 
            <font color=""green""> Bonus : $1.87 </font>
            </div>
        </div>
    
            <div> Please press any key to continue to the next movie.</div>
        ","enter","ITI","","","","","","",""
"","","","","","html-keyboard-response","172","256672","0.0-7.45-1.45","61645511546f08038b19f62c","6573617f270241e5da3d355d","6576bffbca26f96357fe8437","1251","./stimuli//pack_morph_shapes_1/cat_2/diff_4/ex_2_4_13.gif","arrowright","response","ArrowRight","13","2","4","test","true",""
"","","","","","html-keyboard-response","173","258173","0.0-7.45-2.45","61645511546f08038b19f62c","6573617f270241e5da3d355d","6576bffbca26f96357fe8437","null","<p> <font color=""green"" size=""5vw""> Correct category! </font> <br> <br> <font color=""green"" size=""8vw""> + $0.05 </font> </p>","null","feedback","","","","","","","1.92"
"","","","","","html-keyboard-response","174","258550","0.0-7.46-0.46","61645511546f08038b19f62c","6573617f270241e5da3d355d","6576bffbca26f96357fe8437","375","
            
        <div style=""text-align: center; position: fixed; top: 5vh; left: 40vw;"">
            <div style=""margin:0 auto; width: 20vw; top: 8vh; font-size: 2vw""> 
            <font color=""green""> Bonus : $1.92 </font>
            </div>
        </div>
    
            <div> Please press any key to continue to the next movie.</div>
        ","enter","ITI","","","","","","",""
"","","","","","html-keyboard-response","175","259595","0.0-7.46-1.46","61645511546f08038b19f62c","6573617f270241e5da3d355d","6576bffbca26f96357fe8437","1043","./stimuli//pack_morph_shapes_1/cat_2/diff_4/ex_2_4_9.gif","arrowright","response","ArrowRight","9","2","4","test","true",""
"","","","","","html-keyboard-response","176","261096","0.0-7.46-2.46","61645511546f08038b19f62c","6573617f270241e5da3d355d","6576bffbca26f96357fe8437","null","<p> <font color=""green"" size=""5vw""> Correct category! </font> <br> <br> <font color=""green"" size=""8vw""> + $0.06 </font> </p>","null","feedback","","","","","","","1.98"
"","","","","","html-keyboard-response","177","261349","0.0-7.47-0.47","61645511546f08038b19f62c","6573617f270241e5da3d355d","6576bffbca26f96357fe8437","252","
            
        <div style=""text-align: center; position: fixed; top: 5vh; left: 40vw;"">
            <div style=""margin:0 auto; width: 20vw; top: 8vh; font-size: 2vw""> 
            <font color=""green""> Bonus : $1.98 </font>
            </div>
        </div>
    
            <div> Please press any key to continue to the next movie.</div>
        ","enter","ITI","","","","","","",""
"","","","","","html-keyboard-response","178","262857","0.0-7.47-1.47","61645511546f08038b19f62c","6573617f270241e5da3d355d","6576bffbca26f96357fe8437","1507","./stimuli//pack_morph_shapes_1/cat_1/diff_4/ex_1_4_7.gif","arrowleft","response","ArrowLeft","7","1","4","test","true",""
"","","","","","html-keyboard-response","179","264359","0.0-7.47-2.47","61645511546f08038b19f62c","6573617f270241e5da3d355d","6576bffbca26f96357fe8437","null","<p> <font color=""green"" size=""5vw""> Correct category! </font> <br> <br> <font color=""green"" size=""8vw""> + $0.05 </font> </p>","null","feedback","","","","","","","2.03"
"","","","","","html-keyboard-response","180","264863","0.0-7.48-0.48","61645511546f08038b19f62c","6573617f270241e5da3d355d","6576bffbca26f96357fe8437","503","
            
        <div style=""text-align: center; position: fixed; top: 5vh; left: 40vw;"">
            <div style=""margin:0 auto; width: 20vw; top: 8vh; font-size: 2vw""> 
            <font color=""green""> Bonus : $2.03 </font>
            </div>
        </div>
    
            <div> Please press any key to continue to the next movie.</div>
        ","enter","ITI","","","","","","",""
"","","","","","html-keyboard-response","181","265647","0.0-7.48-1.48","61645511546f08038b19f62c","6573617f270241e5da3d355d","6576bffbca26f96357fe8437","782","./stimuli//pack_morph_shapes_1/cat_2/diff_5/ex_2_5_11.gif","arrowright","response","ArrowRight","11","2","5","test","true",""
"","","","","","html-keyboard-response","182","267148","0.0-7.48-2.48","61645511546f08038b19f62c","6573617f270241e5da3d355d","6576bffbca26f96357fe8437","null","<p> <font color=""green"" size=""5vw""> Correct category! </font> <br> <br> <font color=""green"" size=""8vw""> + $0.07 </font> </p>","null","feedback","","","","","","","2.1"
"","","","","","html-keyboard-response","183","267861","0.0-7.49-0.49","61645511546f08038b19f62c","6573617f270241e5da3d355d","6576bffbca26f96357fe8437","712","
            
        <div style=""text-align: center; position: fixed; top: 5vh; left: 40vw;"">
            <div style=""margin:0 auto; width: 20vw; top: 8vh; font-size: 2vw""> 
            <font color=""green""> Bonus : $2.1 </font>
            </div>
        </div>
    
            <div> Please press any key to continue to the next movie.</div>
        ","enter","ITI","","","","","","",""
"","","","","","html-keyboard-response","184","268846","0.0-7.49-1.49","61645511546f08038b19f62c","6573617f270241e5da3d355d","6576bffbca26f96357fe8437","983","./stimuli//pack_morph_shapes_1/cat_1/diff_5/ex_1_5_13.gif","arrowleft","response","ArrowLeft","13","1","5","test","true",""
"","","","","","html-keyboard-response","185","270347","0.0-7.49-2.49","61645511546f08038b19f62c","6573617f270241e5da3d355d","6576bffbca26f96357fe8437","null","<p> <font color=""green"" size=""5vw""> Correct category! </font> <br> <br> <font color=""green"" size=""8vw""> + $0.06 </font> </p>","null","feedback","","","","","","","2.16"
"","","","","","html-keyboard-response","186","270743","0.0-7.50-0.50","61645511546f08038b19f62c","6573617f270241e5da3d355d","6576bffbca26f96357fe8437","395","
            
        <div style=""text-align: center; position: fixed; top: 5vh; left: 40vw;"">
            <div style=""margin:0 auto; width: 20vw; top: 8vh; font-size: 2vw""> 
            <font color=""green""> Bonus : $2.16 </font>
            </div>
        </div>
    
            <div> Please press any key to continue to the next movie.</div>
        ","enter","ITI","","","","","","",""
"","","","","","html-keyboard-response","187","271463","0.0-7.50-1.50","61645511546f08038b19f62c","6573617f270241e5da3d355d","6576bffbca26f96357fe8437","718","./stimuli//pack_morph_shapes_1/cat_2/diff_5/ex_2_5_3.gif","arrowright","response","ArrowRight","3","2","5","test","true",""
"","","","","","html-keyboard-response","188","272964","0.0-7.50-2.50","61645511546f08038b19f62c","6573617f270241e5da3d355d","6576bffbca26f96357fe8437","null","<p> <font color=""green"" size=""5vw""> Correct category! </font> <br> <br> <font color=""green"" size=""8vw""> + $0.07 </font> </p>","null","feedback","","","","","","","2.23"
"","","","","","html-keyboard-response","189","272981","0.0-7.51-0.51","61645511546f08038b19f62c","6573617f270241e5da3d355d","6576bffbca26f96357fe8437","16","
            
        <div style=""text-align: center; position: fixed; top: 5vh; left: 40vw;"">
            <div style=""margin:0 auto; width: 20vw; top: 8vh; font-size: 2vw""> 
            <font color=""green""> Bonus : $2.23 </font>
            </div>
        </div>
    
            <div> Please press any key to continue to the next movie.</div>
        ","enter","ITI","","","","","","",""
"","","","","","html-keyboard-response","190","273889","0.0-7.51-1.51","61645511546f08038b19f62c","6573617f270241e5da3d355d","6576bffbca26f96357fe8437","906","./stimuli//pack_morph_shapes_1/cat_1/diff_5/ex_1_5_3.gif","arrowleft","response","ArrowLeft","3","1","5","test","true",""
"","","","","","html-keyboard-response","191","275390","0.0-7.51-2.51","61645511546f08038b19f62c","6573617f270241e5da3d355d","6576bffbca26f96357fe8437","null","<p> <font color=""green"" size=""5vw""> Correct category! </font> <br> <br> <font color=""green"" size=""8vw""> + $0.06 </font> </p>","null","feedback","","","","","","","2.29"
"","","","","","html-keyboard-response","192","276258","0.0-7.52-0.52","61645511546f08038b19f62c","6573617f270241e5da3d355d","6576bffbca26f96357fe8437","867","
            
        <div style=""text-align: center; position: fixed; top: 5vh; left: 40vw;"">
            <div style=""margin:0 auto; width: 20vw; top: 8vh; font-size: 2vw""> 
            <font color=""green""> Bonus : $2.29 </font>
            </div>
        </div>
    
            <div> Please press any key to continue to the next movie.</div>
        ","enter","ITI","","","","","","",""
"","","","","","html-keyboard-response","193","277001","0.0-7.52-1.52","61645511546f08038b19f62c","6573617f270241e5da3d355d","6576bffbca26f96357fe8437","742","./stimuli//pack_morph_shapes_1/cat_1/diff_5/ex_1_5_1.gif","arrowleft","response","ArrowLeft","1","1","5","test","true",""
"","","","","","html-keyboard-response","194","278502","0.0-7.52-2.52","61645511546f08038b19f62c","6573617f270241e5da3d355d","6576bffbca26f96357fe8437","null","<p> <font color=""green"" size=""5vw""> Correct category! </font> <br> <br> <font color=""green"" size=""8vw""> + $0.07 </font> </p>","null","feedback","","","","","","","2.36"
"","","","","","html-keyboard-response","195","278849","0.0-7.53-0.53","61645511546f08038b19f62c","6573617f270241e5da3d355d","6576bffbca26f96357fe8437","346","
            
        <div style=""text-align: center; position: fixed; top: 5vh; left: 40vw;"">
            <div style=""margin:0 auto; width: 20vw; top: 8vh; font-size: 2vw""> 
            <font color=""green""> Bonus : $2.36 </font>
            </div>
        </div>
    
            <div> Please press any key to continue to the next movie.</div>
        ","enter","ITI","","","","","","",""
"","","","","","html-keyboard-response","196","279525","0.0-7.53-1.53","61645511546f08038b19f62c","6573617f270241e5da3d355d","6576bffbca26f96357fe8437","675","./stimuli//pack_morph_shapes_1/cat_1/diff_5/ex_1_5_10.gif","arrowright","response","ArrowLeft","10","1","5","test","false",""
"","","","","","html-keyboard-response","197","281026","0.0-7.53-2.53","61645511546f08038b19f62c","6573617f270241e5da3d355d","6576bffbca26f96357fe8437","null","<p> <font color=""red"" size=""5vw""> Wrong category! </font> <br> <br> <font color=""red"" size=""8vw""> - $0.05 </font> </p>","null","feedback","","","","","","","2.31"
"","","","","","html-keyboard-response","198","281254","0.0-7.54-0.54","61645511546f08038b19f62c","6573617f270241e5da3d355d","6576bffbca26f96357fe8437","227","
            
        <div style=""text-align: center; position: fixed; top: 5vh; left: 40vw;"">
            <div style=""margin:0 auto; width: 20vw; top: 8vh; font-size: 2vw""> 
            <font color=""green""> Bonus : $2.31 </font>
            </div>
        </div>
    
            <div> Please press any key to continue to the next movie.</div>
        ","enter","ITI","","","","","","",""
"","","","","","html-keyboard-response","199","281975","0.0-7.54-1.54","61645511546f08038b19f62c","6573617f270241e5da3d355d","6576bffbca26f96357fe8437","721","./stimuli//pack_morph_shapes_1/cat_2/diff_5/ex_2_5_5.gif","arrowleft","response","ArrowRight","5","2","5","test","false",""
"","","","","","html-keyboard-response","200","283477","0.0-7.54-2.54","61645511546f08038b19f62c","6573617f270241e5da3d355d","6576bffbca26f96357fe8437","null","<p> <font color=""red"" size=""5vw""> Wrong category! </font> <br> <br> <font color=""red"" size=""8vw""> - $0.05 </font> </p>","null","feedback","","","","","","","2.26"
"","","","","","html-keyboard-response","201","284323","0.0-7.55-0.55","61645511546f08038b19f62c","6573617f270241e5da3d355d","6576bffbca26f96357fe8437","845","
            
        <div style=""text-align: center; position: fixed; top: 5vh; left: 40vw;"">
            <div style=""margin:0 auto; width: 20vw; top: 8vh; font-size: 2vw""> 
            <font color=""green""> Bonus : $2.26 </font>
            </div>
        </div>
    
            <div> Please press any key to continue to the next movie.</div>
        ","enter","ITI","","","","","","",""
"","","","","","html-keyboard-response","202","285183","0.0-7.55-1.55","61645511546f08038b19f62c","6573617f270241e5da3d355d","6576bffbca26f96357fe8437","858","./stimuli//pack_morph_shapes_1/cat_1/diff_4/ex_1_4_1.gif","arrowleft","response","ArrowLeft","1","1","4","test","true",""
"","","","","","html-keyboard-response","203","286684","0.0-7.55-2.55","61645511546f08038b19f62c","6573617f270241e5da3d355d","6576bffbca26f96357fe8437","null","<p> <font color=""green"" size=""5vw""> Correct category! </font> <br> <br> <font color=""green"" size=""8vw""> + $0.07 </font> </p>","null","feedback","","","","","","","2.33"
"","","","","","html-keyboard-response","204","287402","0.0-7.56-0.56","61645511546f08038b19f62c","6573617f270241e5da3d355d","6576bffbca26f96357fe8437","717","
            
        <div style=""text-align: center; position: fixed; top: 5vh; left: 40vw;"">
            <div style=""margin:0 auto; width: 20vw; top: 8vh; font-size: 2vw""> 
            <font color=""green""> Bonus : $2.33 </font>
            </div>
        </div>
    
            <div> Please press any key to continue to the next movie.</div>
        ","enter","ITI","","","","","","",""
"","","","","","html-keyboard-response","205","288331","0.0-7.56-1.56","61645511546f08038b19f62c","6573617f270241e5da3d355d","6576bffbca26f96357fe8437","928","./stimuli//pack_morph_shapes_1/cat_2/diff_4/ex_2_4_8.gif","arrowright","response","ArrowRight","8","2","4","test","true",""
"","","","","","html-keyboard-response","206","289833","0.0-7.56-2.56","61645511546f08038b19f62c","6573617f270241e5da3d355d","6576bffbca26f96357fe8437","null","<p> <font color=""green"" size=""5vw""> Correct category! </font> <br> <br> <font color=""green"" size=""8vw""> + $0.06 </font> </p>","null","feedback","","","","","","","2.39"
"","","","","","html-keyboard-response","207","290414","0.0-7.57-0.57","61645511546f08038b19f62c","6573617f270241e5da3d355d","6576bffbca26f96357fe8437","580","
            
        <div style=""text-align: center; position: fixed; top: 5vh; left: 40vw;"">
            <div style=""margin:0 auto; width: 20vw; top: 8vh; font-size: 2vw""> 
            <font color=""green""> Bonus : $2.39 </font>
            </div>
        </div>
    
            <div> Please press any key to continue to the next movie.</div>
        ","enter","ITI","","","","","","",""
"","","","","","html-keyboard-response","208","291321","0.0-7.57-1.57","61645511546f08038b19f62c","6573617f270241e5da3d355d","6576bffbca26f96357fe8437","906","./stimuli//pack_morph_shapes_1/cat_2/diff_4/ex_2_4_15.gif","arrowright","response","ArrowRight","15","2","4","test","true",""
"","","","","","html-keyboard-response","209","292822","0.0-7.57-2.57","61645511546f08038b19f62c","6573617f270241e5da3d355d","6576bffbca26f96357fe8437","null","<p> <font color=""green"" size=""5vw""> Correct category! </font> <br> <br> <font color=""green"" size=""8vw""> + $0.06 </font> </p>","null","feedback","","","","","","","2.45"
"","","","","","html-keyboard-response","210","293021","0.0-7.58-0.58","61645511546f08038b19f62c","6573617f270241e5da3d355d","6576bffbca26f96357fe8437","198","
            
        <div style=""text-align: center; position: fixed; top: 5vh; left: 40vw;"">
            <div style=""margin:0 auto; width: 20vw; top: 8vh; font-size: 2vw""> 
            <font color=""green""> Bonus : $2.45 </font>
            </div>
        </div>
    
            <div> Please press any key to continue to the next movie.</div>
        ","enter","ITI","","","","","","",""
"","","","","","html-keyboard-response","211","293788","0.0-7.58-1.58","61645511546f08038b19f62c","6573617f270241e5da3d355d","6576bffbca26f96357fe8437","765","./stimuli//pack_morph_shapes_1/cat_1/diff_4/ex_1_4_5.gif","arrowright","response","ArrowLeft","5","1","4","test","false",""
"","","","","","html-keyboard-response","212","295289","0.0-7.58-2.58","61645511546f08038b19f62c","6573617f270241e5da3d355d","6576bffbca26f96357fe8437","null","<p> <font color=""red"" size=""5vw""> Wrong category! </font> <br> <br> <font color=""red"" size=""8vw""> - $0.05 </font> </p>","null","feedback","","","","","","","2.4"
"","","","","","html-keyboard-response","213","295811","0.0-7.59-0.59","61645511546f08038b19f62c","6573617f270241e5da3d355d","6576bffbca26f96357fe8437","521","
            
        <div style=""text-align: center; position: fixed; top: 5vh; left: 40vw;"">
            <div style=""margin:0 auto; width: 20vw; top: 8vh; font-size: 2vw""> 
            <font color=""green""> Bonus : $2.4 </font>
            </div>
        </div>
    
            <div> Please press any key to continue to the next movie.</div>
        ","enter","ITI","","","","","","",""
"","","","","","html-keyboard-response","214","296409","0.0-7.59-1.59","61645511546f08038b19f62c","6573617f270241e5da3d355d","6576bffbca26f96357fe8437","596","./stimuli//pack_morph_shapes_1/cat_1/diff_4/ex_1_4_5.gif","arrowleft","response","ArrowLeft","5","1","4","test","true",""
"","","","","","html-keyboard-response","215","297910","0.0-7.59-2.59","61645511546f08038b19f62c","6573617f270241e5da3d355d","6576bffbca26f96357fe8437","null","<p> <font color=""green"" size=""5vw""> Correct category! </font> <br> <br> <font color=""green"" size=""8vw""> + $0.07 </font> </p>","null","feedback","","","","","","","2.47"
"","","","","","html-keyboard-response","216","298276","0.0-7.60-0.60","61645511546f08038b19f62c","6573617f270241e5da3d355d","6576bffbca26f96357fe8437","365","
            
        <div style=""text-align: center; position: fixed; top: 5vh; left: 40vw;"">
            <div style=""margin:0 auto; width: 20vw; top: 8vh; font-size: 2vw""> 
            <font color=""green""> Bonus : $2.47 </font>
            </div>
        </div>
    
            <div> Please press any key to continue to the next movie.</div>
        ","enter","ITI","","","","","","",""
"","","","","","html-keyboard-response","217","299010","0.0-7.60-1.60","61645511546f08038b19f62c","6573617f270241e5da3d355d","6576bffbca26f96357fe8437","733","./stimuli//pack_morph_shapes_1/cat_1/diff_5/ex_1_5_7.gif","arrowleft","response","ArrowLeft","7","1","5","test","true",""
"","","","","","html-keyboard-response","218","300511","0.0-7.60-2.60","61645511546f08038b19f62c","6573617f270241e5da3d355d","6576bffbca26f96357fe8437","null","<p> <font color=""green"" size=""5vw""> Correct category! </font> <br> <br> <font color=""green"" size=""8vw""> + $0.07 </font> </p>","null","feedback","","","","","","","2.54"
"","","","","","html-keyboard-response","219","300931","0.0-7.61-0.61","61645511546f08038b19f62c","6573617f270241e5da3d355d","6576bffbca26f96357fe8437","419","
            
        <div style=""text-align: center; position: fixed; top: 5vh; left: 40vw;"">
            <div style=""margin:0 auto; width: 20vw; top: 8vh; font-size: 2vw""> 
            <font color=""green""> Bonus : $2.54 </font>
            </div>
        </div>
    
            <div> Please press any key to continue to the next movie.</div>
        ","enter","ITI","","","","","","",""
"","","","","","html-keyboard-response","220","301903","0.0-7.61-1.61","61645511546f08038b19f62c","6573617f270241e5da3d355d","6576bffbca26f96357fe8437","971","./stimuli//pack_morph_shapes_1/cat_1/diff_5/ex_1_5_9.gif","arrowleft","response","ArrowLeft","9","1","5","test","true",""
"","","","","","html-keyboard-response","221","303404","0.0-7.61-2.61","61645511546f08038b19f62c","6573617f270241e5da3d355d","6576bffbca26f96357fe8437","null","<p> <font color=""green"" size=""5vw""> Correct category! </font> <br> <br> <font color=""green"" size=""8vw""> + $0.06 </font> </p>","null","feedback","","","","","","","2.6"
"","","","","","html-keyboard-response","222","303514","0.0-7.62-0.62","61645511546f08038b19f62c","6573617f270241e5da3d355d","6576bffbca26f96357fe8437","108","
            
        <div style=""text-align: center; position: fixed; top: 5vh; left: 40vw;"">
            <div style=""margin:0 auto; width: 20vw; top: 8vh; font-size: 2vw""> 
            <font color=""green""> Bonus : $2.6 </font>
            </div>
        </div>
    
            <div> Please press any key to continue to the next movie.</div>
        ","enter","ITI","","","","","","",""
"","","","","","html-keyboard-response","223","304427","0.0-7.62-1.62","61645511546f08038b19f62c","6573617f270241e5da3d355d","6576bffbca26f96357fe8437","912","./stimuli//pack_morph_shapes_1/cat_2/diff_5/ex_2_5_14.gif","arrowleft","response","ArrowRight","14","2","5","test","false",""
"","","","","","html-keyboard-response","224","305928","0.0-7.62-2.62","61645511546f08038b19f62c","6573617f270241e5da3d355d","6576bffbca26f96357fe8437","null","<p> <font color=""red"" size=""5vw""> Wrong category! </font> <br> <br> <font color=""red"" size=""8vw""> - $0.05 </font> </p>","null","feedback","","","","","","","2.55"
"","","","","","html-keyboard-response","225","306219","0.0-7.63-0.63","61645511546f08038b19f62c","6573617f270241e5da3d355d","6576bffbca26f96357fe8437","290","
            
        <div style=""text-align: center; position: fixed; top: 5vh; left: 40vw;"">
            <div style=""margin:0 auto; width: 20vw; top: 8vh; font-size: 2vw""> 
            <font color=""green""> Bonus : $2.55 </font>
            </div>
        </div>
    
            <div> Please press any key to continue to the next movie.</div>
        ","enter","ITI","","","","","","",""
"","","","","","html-keyboard-response","226","307326","0.0-7.63-1.63","61645511546f08038b19f62c","6573617f270241e5da3d355d","6576bffbca26f96357fe8437","1105","./stimuli//pack_morph_shapes_1/cat_1/diff_5/ex_1_5_11.gif","arrowleft","response","ArrowLeft","11","1","5","test","true",""
"","","","","","html-keyboard-response","227","308828","0.0-7.63-2.63","61645511546f08038b19f62c","6573617f270241e5da3d355d","6576bffbca26f96357fe8437","null","<p> <font color=""green"" size=""5vw""> Correct category! </font> <br> <br> <font color=""green"" size=""8vw""> + $0.06 </font> </p>","null","feedback","","","","","","","2.61"
"","","","","","html-keyboard-response","228","309174","0.0-7.64-0.64","61645511546f08038b19f62c","6573617f270241e5da3d355d","6576bffbca26f96357fe8437","345","
            
        <div style=""text-align: center; position: fixed; top: 5vh; left: 40vw;"">
            <div style=""margin:0 auto; width: 20vw; top: 8vh; font-size: 2vw""> 
            <font color=""green""> Bonus : $2.61 </font>
            </div>
        </div>
    
            <div> Please press any key to continue to the next movie.</div>
        ","enter","ITI","","","","","","",""
"","","","","","html-keyboard-response","229","310260","0.0-7.64-1.64","61645511546f08038b19f62c","6573617f270241e5da3d355d","6576bffbca26f96357fe8437","1084","./stimuli//pack_morph_shapes_1/cat_1/diff_5/ex_1_5_4.gif","arrowleft","response","ArrowLeft","4","1","5","test","true",""
"","","","","","html-keyboard-response","230","311761","0.0-7.64-2.64","61645511546f08038b19f62c","6573617f270241e5da3d355d","6576bffbca26f96357fe8437","null","<p> <font color=""green"" size=""5vw""> Correct category! </font> <br> <br> <font color=""green"" size=""8vw""> + $0.06 </font> </p>","null","feedback","","","","","","","2.67"
"","","","","","html-keyboard-response","231","312834","0.0-7.65-0.65","61645511546f08038b19f62c","6573617f270241e5da3d355d","6576bffbca26f96357fe8437","1071","
            
        <div style=""text-align: center; position: fixed; top: 5vh; left: 40vw;"">
            <div style=""margin:0 auto; width: 20vw; top: 8vh; font-size: 2vw""> 
            <font color=""green""> Bonus : $2.67 </font>
            </div>
        </div>
    
            <div> Please press any key to continue to the next movie.</div>
        ","enter","ITI","","","","","","",""
"","","","","","html-keyboard-response","232","313765","0.0-7.65-1.65","61645511546f08038b19f62c","6573617f270241e5da3d355d","6576bffbca26f96357fe8437","930","./stimuli//pack_morph_shapes_1/cat_1/diff_5/ex_1_5_4.gif","arrowleft","response","ArrowLeft","4","1","5","test","true",""
"","","","","","html-keyboard-response","233","315267","0.0-7.65-2.65","61645511546f08038b19f62c","6573617f270241e5da3d355d","6576bffbca26f96357fe8437","null","<p> <font color=""green"" size=""5vw""> Correct category! </font> <br> <br> <font color=""green"" size=""8vw""> + $0.06 </font> </p>","null","feedback","","","","","","","2.73"
"","","","","","html-keyboard-response","234","316182","0.0-7.66-0.66","61645511546f08038b19f62c","6573617f270241e5da3d355d","6576bffbca26f96357fe8437","914","
            
        <div style=""text-align: center; position: fixed; top: 5vh; left: 40vw;"">
            <div style=""margin:0 auto; width: 20vw; top: 8vh; font-size: 2vw""> 
            <font color=""green""> Bonus : $2.73 </font>
            </div>
        </div>
    
            <div> Please press any key to continue to the next movie.</div>
        ","enter","ITI","","","","","","",""
"","","","","","html-keyboard-response","235","317111","0.0-7.66-1.66","61645511546f08038b19f62c","6573617f270241e5da3d355d","6576bffbca26f96357fe8437","928","./stimuli//pack_morph_shapes_1/cat_1/diff_5/ex_1_5_15.gif","arrowright","response","ArrowLeft","15","1","5","test","false",""
"","","","","","html-keyboard-response","236","318612","0.0-7.66-2.66","61645511546f08038b19f62c","6573617f270241e5da3d355d","6576bffbca26f96357fe8437","null","<p> <font color=""red"" size=""5vw""> Wrong category! </font> <br> <br> <font color=""red"" size=""8vw""> - $0.05 </font> </p>","null","feedback","","","","","","","2.68"
"","","","","","html-keyboard-response","237","318793","0.0-7.67-0.67","61645511546f08038b19f62c","6573617f270241e5da3d355d","6576bffbca26f96357fe8437","179","
            
        <div style=""text-align: center; position: fixed; top: 5vh; left: 40vw;"">
            <div style=""margin:0 auto; width: 20vw; top: 8vh; font-size: 2vw""> 
            <font color=""green""> Bonus : $2.68 </font>
            </div>
        </div>
    
            <div> Please press any key to continue to the next movie.</div>
        ","enter","ITI","","","","","","",""
"","","","","","html-keyboard-response","238","319886","0.0-7.67-1.67","61645511546f08038b19f62c","6573617f270241e5da3d355d","6576bffbca26f96357fe8437","1092","./stimuli//pack_morph_shapes_1/cat_2/diff_4/ex_2_4_15.gif","arrowright","response","ArrowRight","15","2","4","test","true",""
"","","","","","html-keyboard-response","239","321387","0.0-7.67-2.67","61645511546f08038b19f62c","6573617f270241e5da3d355d","6576bffbca26f96357fe8437","null","<p> <font color=""green"" size=""5vw""> Correct category! </font> <br> <br> <font color=""green"" size=""8vw""> + $0.06 </font> </p>","null","feedback","","","","","","","2.74"
"","","","","","html-keyboard-response","240","322865","0.0-7.68-0.68","61645511546f08038b19f62c","6573617f270241e5da3d355d","6576bffbca26f96357fe8437","1477","
            
        <div style=""text-align: center; position: fixed; top: 5vh; left: 40vw;"">
            <div style=""margin:0 auto; width: 20vw; top: 8vh; font-size: 2vw""> 
            <font color=""green""> Bonus : $2.74 </font>
            </div>
        </div>
    
            <div> Please press any key to continue to the next movie.</div>
        ","enter","ITI","","","","","","",""
"","","","","","html-keyboard-response","241","323866","0.0-7.68-1.68","61645511546f08038b19f62c","6573617f270241e5da3d355d","6576bffbca26f96357fe8437","999","./stimuli//pack_morph_shapes_1/cat_2/diff_4/ex_2_4_9.gif","arrowright","response","ArrowRight","9","2","4","test","true",""
"","","","","","html-keyboard-response","242","325367","0.0-7.68-2.68","61645511546f08038b19f62c","6573617f270241e5da3d355d","6576bffbca26f96357fe8437","null","<p> <font color=""green"" size=""5vw""> Correct category! </font> <br> <br> <font color=""green"" size=""8vw""> + $0.06 </font> </p>","null","feedback","","","","","","","2.8"
"","","","","","html-keyboard-response","243","325856","0.0-7.69-0.69","61645511546f08038b19f62c","6573617f270241e5da3d355d","6576bffbca26f96357fe8437","488","
            
        <div style=""text-align: center; position: fixed; top: 5vh; left: 40vw;"">
            <div style=""margin:0 auto; width: 20vw; top: 8vh; font-size: 2vw""> 
            <font color=""green""> Bonus : $2.8 </font>
            </div>
        </div>
    
            <div> Please press any key to continue to the next movie.</div>
        ","enter","ITI","","","","","","",""
"","","","","","html-keyboard-response","244","327028","0.0-7.69-1.69","61645511546f08038b19f62c","6573617f270241e5da3d355d","6576bffbca26f96357fe8437","1170","./stimuli//pack_morph_shapes_1/cat_1/diff_4/ex_1_4_5.gif","arrowleft","response","ArrowLeft","5","1","4","test","true",""
"","","","","","html-keyboard-response","245","328529","0.0-7.69-2.69","61645511546f08038b19f62c","6573617f270241e5da3d355d","6576bffbca26f96357fe8437","null","<p> <font color=""green"" size=""5vw""> Correct category! </font> <br> <br> <font color=""green"" size=""8vw""> + $0.06 </font> </p>","null","feedback","","","","","","","2.86"
"","","","","","html-keyboard-response","246","329022","0.0-7.70-0.70","61645511546f08038b19f62c","6573617f270241e5da3d355d","6576bffbca26f96357fe8437","493","
            
        <div style=""text-align: center; position: fixed; top: 5vh; left: 40vw;"">
            <div style=""margin:0 auto; width: 20vw; top: 8vh; font-size: 2vw""> 
            <font color=""green""> Bonus : $2.86 </font>
            </div>
        </div>
    
            <div> Please press any key to continue to the next movie.</div>
        ","enter","ITI","","","","","","",""
"","","","","","html-keyboard-response","247","330108","0.0-7.70-1.70","61645511546f08038b19f62c","6573617f270241e5da3d355d","6576bffbca26f96357fe8437","1085","./stimuli//pack_morph_shapes_1/cat_1/diff_4/ex_1_4_3.gif","arrowleft","response","ArrowLeft","3","1","4","test","true",""
"","","","","","html-keyboard-response","248","331609","0.0-7.70-2.70","61645511546f08038b19f62c","6573617f270241e5da3d355d","6576bffbca26f96357fe8437","null","<p> <font color=""green"" size=""5vw""> Correct category! </font> <br> <br> <font color=""green"" size=""8vw""> + $0.06 </font> </p>","null","feedback","","","","","","","2.92"
"","","","","","html-keyboard-response","249","331727","0.0-7.71-0.71","61645511546f08038b19f62c","6573617f270241e5da3d355d","6576bffbca26f96357fe8437","117","
            
        <div style=""text-align: center; position: fixed; top: 5vh; left: 40vw;"">
            <div style=""margin:0 auto; width: 20vw; top: 8vh; font-size: 2vw""> 
            <font color=""green""> Bonus : $2.92 </font>
            </div>
        </div>
    
            <div> Please press any key to continue to the next movie.</div>
        ","enter","ITI","","","","","","",""
"","","","","","html-keyboard-response","250","332751","0.0-7.71-1.71","61645511546f08038b19f62c","6573617f270241e5da3d355d","6576bffbca26f96357fe8437","1021","./stimuli//pack_morph_shapes_1/cat_1/diff_4/ex_1_4_1.gif","arrowleft","response","ArrowLeft","1","1","4","test","true",""
"","","","","","html-keyboard-response","251","334251","0.0-7.71-2.71","61645511546f08038b19f62c","6573617f270241e5da3d355d","6576bffbca26f96357fe8437","null","<p> <font color=""green"" size=""5vw""> Correct category! </font> <br> <br> <font color=""green"" size=""8vw""> + $0.06 </font> </p>","null","feedback","","","","","","","2.98"
"","","","","","html-keyboard-response","252","334257","0.0-7.72-0.72","61645511546f08038b19f62c","6573617f270241e5da3d355d","6576bffbca26f96357fe8437","4","
            
        <div style=""text-align: center; position: fixed; top: 5vh; left: 40vw;"">
            <div style=""margin:0 auto; width: 20vw; top: 8vh; font-size: 2vw""> 
            <font color=""green""> Bonus : $2.98 </font>
            </div>
        </div>
    
            <div> Please press any key to continue to the next movie.</div>
        ","enter","ITI","","","","","","",""
"","","","","","html-keyboard-response","253","335280","0.0-7.72-1.72","61645511546f08038b19f62c","6573617f270241e5da3d355d","6576bffbca26f96357fe8437","1021","./stimuli//pack_morph_shapes_1/cat_1/diff_5/ex_1_5_9.gif","arrowleft","response","ArrowLeft","9","1","5","test","true",""
"","","","","","html-keyboard-response","254","336781","0.0-7.72-2.72","61645511546f08038b19f62c","6573617f270241e5da3d355d","6576bffbca26f96357fe8437","null","<p> <font color=""green"" size=""5vw""> Correct category! </font> <br> <br> <font color=""green"" size=""8vw""> + $0.06 </font> </p>","null","feedback","","","","","","","3.04"
