"success","timeout","failed_images","failed_audio","failed_video","trial_type","trial_index","time_elapsed","internal_node_id","subject_id","study_id","session_id","rt","stimulus","response","task","correct_response","exemplar_ID","category","difficulty","phase","correct","bonus"
"true","false","[]","[]","[]","preload","0","4","0.0-0.0","5f7a102a52556c6551a9173e","655cb802637e0dbe2941dbc4","655cb8d4ab39770cf4c4b6d0","","","","","","","","","","",""
"","","","","","html-keyboard-response","1","2646","0.0-1.0","5f7a102a52556c6551a9173e","655cb802637e0dbe2941dbc4","655cb8d4ab39770cf4c4b6d0","2641","Welcome to the Category Learning experiment! Press any key to continue."," ","welcome","","","","","","",""
"","","","","","html-keyboard-response","2","13885","0.0-2.0","5f7a102a52556c6551a9173e","655cb802637e0dbe2941dbc4","655cb8d4ab39770cf4c4b6d0","11238","
            <p>You will be shown images of black shapes. Some are category A, some are category B.
            <br>You will not know in advance which category a specific shape belongs to.</p>
            <p>After you see an image, you will be asked to guess its category <b>(left arrow for category A, right arrow for category B)</b></p>
            <p>After you choose, the screen will show you whether you were correct or not.</p>
            <p>Please try to respond as quickly and accurately as possible every time.</p>
            <p>Press any key to continue.</p>
            "," ","introduction_1","","","","","","",""
"","","","","","html-keyboard-response","3","26566","0.0-3.0","5f7a102a52556c6551a9173e","655cb802637e0dbe2941dbc4","655cb8d4ab39770cf4c4b6d0","12680","
              <p><b>You will receive a bonus payment depending on your performance!</b></p>
              <p><b>You start with a $10 bonus and each time you guess a shape's category incorrectly $0.05 will be subtracted from the bonus. <br> After the end of the experiment you will receive the remaining bonus as payment.</b></p>
              <p>Press any key to continue.</p>
              "," ","introduction_1","","","","","","",""
"","","","","","html-keyboard-response","4","34107","0.0-4.0","5f7a102a52556c6551a9173e","655cb802637e0dbe2941dbc4","655cb8d4ab39770cf4c4b6d0","7540","
            <p> <b>The first 10 trials are a practice round that will not count towards your bonus payment.</b></p>
            <p> You will be notified when practice finishes and the test begins. </p>
            <p> Press any key to begin the practice round.</p>
            "," ","introduction_2","","","","","","",""
"","","","","","html-keyboard-response","5","38674","0.0-5.0-0.0","5f7a102a52556c6551a9173e","655cb802637e0dbe2941dbc4","655cb8d4ab39770cf4c4b6d0","4565","
            
        <div style=""text-align: center; position: fixed; top: 5vh; left: 40vw;"">
            <div style=""margin:0 auto; width: 20vw; top: 8vh; font-size: 2vw""> 
            <font color=""green""> Bonus : $10 </font>
            </div>
        </div>
    
            <div> Please press any key to continue to the next image.</div>
        "," ","ITI","","","","","","",""
"","","","","","html-keyboard-response","6","39278","0.0-5.0-1.0","5f7a102a52556c6551a9173e","655cb802637e0dbe2941dbc4","655cb8d4ab39770cf4c4b6d0","null","
        
        <div style=""text-align: center; position: fixed; top: 5vh; left: 40vw;"">
            <div style=""margin:0 auto; width: 20vw; top: 8vh; font-size: 2vw""> 
            <font color=""green""> Bonus : $10 </font>
            </div>
        </div>
    
        <img class=""stim"" src=./stimuli//pack_shapes_diff/cat_2/diff_2/ex_2_2_13.png></img>
    ","null","stimulus","","","","","","",""
"","","","","","html-keyboard-response","7","40281","0.0-5.0-2.0","5f7a102a52556c6551a9173e","655cb802637e0dbe2941dbc4","655cb8d4ab39770cf4c4b6d0","null","
        <div style=""text-align: center; position: fixed; top: 5vh; left: 40vw;"">
            <div style=""margin:0 auto; width: 20vw; top: 8vh; font-size: 2vw""> 
            <font color=""green""> Bonus : $10 </font>
            </div>
        </div>
    ","null","","","","","","","",""
"","","","","","html-keyboard-response","8","44284","0.0-5.0-3.0","5f7a102a52556c6551a9173e","655cb802637e0dbe2941dbc4","655cb8d4ab39770cf4c4b6d0","null","./stimuli//pack_shapes_diff/cat_2/diff_2/ex_2_2_13.png","null","response","ArrowRight","13","2","2","train","false",""
"","","","","","html-keyboard-response","9","45787","0.0-5.0-4.0","5f7a102a52556c6551a9173e","655cb802637e0dbe2941dbc4","655cb8d4ab39770cf4c4b6d0","null","<p> <font color=""red"" size=""5vw""> Time out! </font> <br> Please try to respond as quickly as possible. </p>","null","feedback","","","","","","","10"
"","","","","","html-keyboard-response","10","49008","0.0-5.0-0.1","5f7a102a52556c6551a9173e","655cb802637e0dbe2941dbc4","655cb8d4ab39770cf4c4b6d0","3219","
            
        <div style=""text-align: center; position: fixed; top: 5vh; left: 40vw;"">
            <div style=""margin:0 auto; width: 20vw; top: 8vh; font-size: 2vw""> 
            <font color=""green""> Bonus : $10 </font>
            </div>
        </div>
    
            <div> Please press any key to continue to the next image.</div>
        "," ","ITI","","","","","","",""
"","","","","","html-keyboard-response","11","49611","0.0-5.0-1.1","5f7a102a52556c6551a9173e","655cb802637e0dbe2941dbc4","655cb8d4ab39770cf4c4b6d0","null","
        
        <div style=""text-align: center; position: fixed; top: 5vh; left: 40vw;"">
            <div style=""margin:0 auto; width: 20vw; top: 8vh; font-size: 2vw""> 
            <font color=""green""> Bonus : $10 </font>
            </div>
        </div>
    
        <img class=""stim"" src=./stimuli//pack_shapes_diff/cat_2/diff_1/ex_2_1_7.png></img>
    ","null","stimulus","","","","","","",""
"","","","","","html-keyboard-response","12","50613","0.0-5.0-2.1","5f7a102a52556c6551a9173e","655cb802637e0dbe2941dbc4","655cb8d4ab39770cf4c4b6d0","null","
        <div style=""text-align: center; position: fixed; top: 5vh; left: 40vw;"">
            <div style=""margin:0 auto; width: 20vw; top: 8vh; font-size: 2vw""> 
            <font color=""green""> Bonus : $10 </font>
            </div>
        </div>
    ","null","","","","","","","",""
"","","","","","html-keyboard-response","13","54325","0.0-5.0-3.1","5f7a102a52556c6551a9173e","655cb802637e0dbe2941dbc4","655cb8d4ab39770cf4c4b6d0","3710","./stimuli//pack_shapes_diff/cat_2/diff_1/ex_2_1_7.png","arrowleft","response","ArrowRight","7","2","1","train","false",""
"","","","","","html-keyboard-response","14","55827","0.0-5.0-4.1","5f7a102a52556c6551a9173e","655cb802637e0dbe2941dbc4","655cb8d4ab39770cf4c4b6d0","null","<p> <font color=""red"" size=""5vw""> Wrong category! </font> </p>","null","feedback","","","","","","","10"
"","","","","","html-keyboard-response","15","60060","0.0-5.0-0.2","5f7a102a52556c6551a9173e","655cb802637e0dbe2941dbc4","655cb8d4ab39770cf4c4b6d0","4231","
            
        <div style=""text-align: center; position: fixed; top: 5vh; left: 40vw;"">
            <div style=""margin:0 auto; width: 20vw; top: 8vh; font-size: 2vw""> 
            <font color=""green""> Bonus : $10 </font>
            </div>
        </div>
    
            <div> Please press any key to continue to the next image.</div>
        "," ","ITI","","","","","","",""
"","","","","","html-keyboard-response","16","60662","0.0-5.0-1.2","5f7a102a52556c6551a9173e","655cb802637e0dbe2941dbc4","655cb8d4ab39770cf4c4b6d0","null","
        
        <div style=""text-align: center; position: fixed; top: 5vh; left: 40vw;"">
            <div style=""margin:0 auto; width: 20vw; top: 8vh; font-size: 2vw""> 
            <font color=""green""> Bonus : $10 </font>
            </div>
        </div>
    
        <img class=""stim"" src=./stimuli//pack_shapes_diff/cat_1/diff_2/ex_1_2_5.png></img>
    ","null","stimulus","","","","","","",""
"","","","","","html-keyboard-response","17","61665","0.0-5.0-2.2","5f7a102a52556c6551a9173e","655cb802637e0dbe2941dbc4","655cb8d4ab39770cf4c4b6d0","null","
        <div style=""text-align: center; position: fixed; top: 5vh; left: 40vw;"">
            <div style=""margin:0 auto; width: 20vw; top: 8vh; font-size: 2vw""> 
            <font color=""green""> Bonus : $10 </font>
            </div>
        </div>
    ","null","","","","","","","",""
"","","","","","html-keyboard-response","18","62140","0.0-5.0-3.2","5f7a102a52556c6551a9173e","655cb802637e0dbe2941dbc4","655cb8d4ab39770cf4c4b6d0","475","./stimuli//pack_shapes_diff/cat_1/diff_2/ex_1_2_5.png","arrowleft","response","ArrowLeft","5","1","2","train","true",""
"","","","","","html-keyboard-response","19","63643","0.0-5.0-4.2","5f7a102a52556c6551a9173e","655cb802637e0dbe2941dbc4","655cb8d4ab39770cf4c4b6d0","null","<p> <font color=""green"" size=""5vw""> Correct category! </font> </p>","null","feedback","","","","","","","10"
"","","","","","html-keyboard-response","20","65326","0.0-5.0-0.3","5f7a102a52556c6551a9173e","655cb802637e0dbe2941dbc4","655cb8d4ab39770cf4c4b6d0","1683","
            
        <div style=""text-align: center; position: fixed; top: 5vh; left: 40vw;"">
            <div style=""margin:0 auto; width: 20vw; top: 8vh; font-size: 2vw""> 
            <font color=""green""> Bonus : $10 </font>
            </div>
        </div>
    
            <div> Please press any key to continue to the next image.</div>
        "," ","ITI","","","","","","",""
"","","","","","html-keyboard-response","21","65929","0.0-5.0-1.3","5f7a102a52556c6551a9173e","655cb802637e0dbe2941dbc4","655cb8d4ab39770cf4c4b6d0","null","
        
        <div style=""text-align: center; position: fixed; top: 5vh; left: 40vw;"">
            <div style=""margin:0 auto; width: 20vw; top: 8vh; font-size: 2vw""> 
            <font color=""green""> Bonus : $10 </font>
            </div>
        </div>
    
        <img class=""stim"" src=./stimuli//pack_shapes_diff/cat_1/diff_2/ex_1_2_2.png></img>
    ","null","stimulus","","","","","","",""
"","","","","","html-keyboard-response","22","66931","0.0-5.0-2.3","5f7a102a52556c6551a9173e","655cb802637e0dbe2941dbc4","655cb8d4ab39770cf4c4b6d0","null","
        <div style=""text-align: center; position: fixed; top: 5vh; left: 40vw;"">
            <div style=""margin:0 auto; width: 20vw; top: 8vh; font-size: 2vw""> 
            <font color=""green""> Bonus : $10 </font>
            </div>
        </div>
    ","null","","","","","","","",""
"","","","","","html-keyboard-response","23","67247","0.0-5.0-3.3","5f7a102a52556c6551a9173e","655cb802637e0dbe2941dbc4","655cb8d4ab39770cf4c4b6d0","315","./stimuli//pack_shapes_diff/cat_1/diff_2/ex_1_2_2.png","arrowleft","response","ArrowLeft","2","1","2","train","true",""
"","","","","","html-keyboard-response","24","68750","0.0-5.0-4.3","5f7a102a52556c6551a9173e","655cb802637e0dbe2941dbc4","655cb8d4ab39770cf4c4b6d0","null","<p> <font color=""green"" size=""5vw""> Correct category! </font> </p>","null","feedback","","","","","","","10"
"","","","","","html-keyboard-response","25","70001","0.0-5.0-0.4","5f7a102a52556c6551a9173e","655cb802637e0dbe2941dbc4","655cb8d4ab39770cf4c4b6d0","1250","
            
        <div style=""text-align: center; position: fixed; top: 5vh; left: 40vw;"">
            <div style=""margin:0 auto; width: 20vw; top: 8vh; font-size: 2vw""> 
            <font color=""green""> Bonus : $10 </font>
            </div>
        </div>
    
            <div> Please press any key to continue to the next image.</div>
        "," ","ITI","","","","","","",""
"","","","","","html-keyboard-response","26","70604","0.0-5.0-1.4","5f7a102a52556c6551a9173e","655cb802637e0dbe2941dbc4","655cb8d4ab39770cf4c4b6d0","null","
        
        <div style=""text-align: center; position: fixed; top: 5vh; left: 40vw;"">
            <div style=""margin:0 auto; width: 20vw; top: 8vh; font-size: 2vw""> 
            <font color=""green""> Bonus : $10 </font>
            </div>
        </div>
    
        <img class=""stim"" src=./stimuli//pack_shapes_diff/cat_2/diff_1/ex_2_1_10.png></img>
    ","null","stimulus","","","","","","",""
"","","","","","html-keyboard-response","27","71607","0.0-5.0-2.4","5f7a102a52556c6551a9173e","655cb802637e0dbe2941dbc4","655cb8d4ab39770cf4c4b6d0","null","
        <div style=""text-align: center; position: fixed; top: 5vh; left: 40vw;"">
            <div style=""margin:0 auto; width: 20vw; top: 8vh; font-size: 2vw""> 
            <font color=""green""> Bonus : $10 </font>
            </div>
        </div>
    ","null","","","","","","","",""
"","","","","","html-keyboard-response","28","71995","0.0-5.0-3.4","5f7a102a52556c6551a9173e","655cb802637e0dbe2941dbc4","655cb8d4ab39770cf4c4b6d0","387","./stimuli//pack_shapes_diff/cat_2/diff_1/ex_2_1_10.png","arrowright","response","ArrowRight","10","2","1","train","true",""
"","","","","","html-keyboard-response","29","73497","0.0-5.0-4.4","5f7a102a52556c6551a9173e","655cb802637e0dbe2941dbc4","655cb8d4ab39770cf4c4b6d0","null","<p> <font color=""green"" size=""5vw""> Correct category! </font> </p>","null","feedback","","","","","","","10"
"","","","","","html-keyboard-response","30","74643","0.0-5.0-0.5","5f7a102a52556c6551a9173e","655cb802637e0dbe2941dbc4","655cb8d4ab39770cf4c4b6d0","1145","
            
        <div style=""text-align: center; position: fixed; top: 5vh; left: 40vw;"">
            <div style=""margin:0 auto; width: 20vw; top: 8vh; font-size: 2vw""> 
            <font color=""green""> Bonus : $10 </font>
            </div>
        </div>
    
            <div> Please press any key to continue to the next image.</div>
        "," ","ITI","","","","","","",""
"","","","","","html-keyboard-response","31","75246","0.0-5.0-1.5","5f7a102a52556c6551a9173e","655cb802637e0dbe2941dbc4","655cb8d4ab39770cf4c4b6d0","null","
        
        <div style=""text-align: center; position: fixed; top: 5vh; left: 40vw;"">
            <div style=""margin:0 auto; width: 20vw; top: 8vh; font-size: 2vw""> 
            <font color=""green""> Bonus : $10 </font>
            </div>
        </div>
    
        <img class=""stim"" src=./stimuli//pack_shapes_diff/cat_1/diff_1/ex_1_1_5.png></img>
    ","null","stimulus","","","","","","",""
"","","","","","html-keyboard-response","32","76248","0.0-5.0-2.5","5f7a102a52556c6551a9173e","655cb802637e0dbe2941dbc4","655cb8d4ab39770cf4c4b6d0","null","
        <div style=""text-align: center; position: fixed; top: 5vh; left: 40vw;"">
            <div style=""margin:0 auto; width: 20vw; top: 8vh; font-size: 2vw""> 
            <font color=""green""> Bonus : $10 </font>
            </div>
        </div>
    ","null","","","","","","","",""
"","","","","","html-keyboard-response","33","76588","0.0-5.0-3.5","5f7a102a52556c6551a9173e","655cb802637e0dbe2941dbc4","655cb8d4ab39770cf4c4b6d0","339","./stimuli//pack_shapes_diff/cat_1/diff_1/ex_1_1_5.png","arrowleft","response","ArrowLeft","5","1","1","train","true",""
"","","","","","html-keyboard-response","34","78091","0.0-5.0-4.5","5f7a102a52556c6551a9173e","655cb802637e0dbe2941dbc4","655cb8d4ab39770cf4c4b6d0","null","<p> <font color=""green"" size=""5vw""> Correct category! </font> </p>","null","feedback","","","","","","","10"
"","","","","","html-keyboard-response","35","79625","0.0-5.0-0.6","5f7a102a52556c6551a9173e","655cb802637e0dbe2941dbc4","655cb8d4ab39770cf4c4b6d0","1533","
            
        <div style=""text-align: center; position: fixed; top: 5vh; left: 40vw;"">
            <div style=""margin:0 auto; width: 20vw; top: 8vh; font-size: 2vw""> 
            <font color=""green""> Bonus : $10 </font>
            </div>
        </div>
    
            <div> Please press any key to continue to the next image.</div>
        "," ","ITI","","","","","","",""
"","","","","","html-keyboard-response","36","80228","0.0-5.0-1.6","5f7a102a52556c6551a9173e","655cb802637e0dbe2941dbc4","655cb8d4ab39770cf4c4b6d0","null","
        
        <div style=""text-align: center; position: fixed; top: 5vh; left: 40vw;"">
            <div style=""margin:0 auto; width: 20vw; top: 8vh; font-size: 2vw""> 
            <font color=""green""> Bonus : $10 </font>
            </div>
        </div>
    
        <img class=""stim"" src=./stimuli//pack_shapes_diff/cat_2/diff_1/ex_2_1_3.png></img>
    ","null","stimulus","","","","","","",""
"","","","","","html-keyboard-response","37","81230","0.0-5.0-2.6","5f7a102a52556c6551a9173e","655cb802637e0dbe2941dbc4","655cb8d4ab39770cf4c4b6d0","null","
        <div style=""text-align: center; position: fixed; top: 5vh; left: 40vw;"">
            <div style=""margin:0 auto; width: 20vw; top: 8vh; font-size: 2vw""> 
            <font color=""green""> Bonus : $10 </font>
            </div>
        </div>
    ","null","","","","","","","",""
"","","","","","html-keyboard-response","38","81499","0.0-5.0-3.6","5f7a102a52556c6551a9173e","655cb802637e0dbe2941dbc4","655cb8d4ab39770cf4c4b6d0","268","./stimuli//pack_shapes_diff/cat_2/diff_1/ex_2_1_3.png","arrowright","response","ArrowRight","3","2","1","train","true",""
"","","","","","html-keyboard-response","39","83002","0.0-5.0-4.6","5f7a102a52556c6551a9173e","655cb802637e0dbe2941dbc4","655cb8d4ab39770cf4c4b6d0","null","<p> <font color=""green"" size=""5vw""> Correct category! </font> </p>","null","feedback","","","","","","","10"
"","","","","","html-keyboard-response","40","84027","0.0-5.0-0.7","5f7a102a52556c6551a9173e","655cb802637e0dbe2941dbc4","655cb8d4ab39770cf4c4b6d0","1025","
            
        <div style=""text-align: center; position: fixed; top: 5vh; left: 40vw;"">
            <div style=""margin:0 auto; width: 20vw; top: 8vh; font-size: 2vw""> 
            <font color=""green""> Bonus : $10 </font>
            </div>
        </div>
    
            <div> Please press any key to continue to the next image.</div>
        ","arrowleft","ITI","","","","","","",""
"","","","","","html-keyboard-response","41","84629","0.0-5.0-1.7","5f7a102a52556c6551a9173e","655cb802637e0dbe2941dbc4","655cb8d4ab39770cf4c4b6d0","null","
        
        <div style=""text-align: center; position: fixed; top: 5vh; left: 40vw;"">
            <div style=""margin:0 auto; width: 20vw; top: 8vh; font-size: 2vw""> 
            <font color=""green""> Bonus : $10 </font>
            </div>
        </div>
    
        <img class=""stim"" src=./stimuli//pack_shapes_diff/cat_1/diff_1/ex_1_1_1.png></img>
    ","null","stimulus","","","","","","",""
"","","","","","html-keyboard-response","42","85631","0.0-5.0-2.7","5f7a102a52556c6551a9173e","655cb802637e0dbe2941dbc4","655cb8d4ab39770cf4c4b6d0","null","
        <div style=""text-align: center; position: fixed; top: 5vh; left: 40vw;"">
            <div style=""margin:0 auto; width: 20vw; top: 8vh; font-size: 2vw""> 
            <font color=""green""> Bonus : $10 </font>
            </div>
        </div>
    ","null","","","","","","","",""
"","","","","","html-keyboard-response","43","85990","0.0-5.0-3.7","5f7a102a52556c6551a9173e","655cb802637e0dbe2941dbc4","655cb8d4ab39770cf4c4b6d0","358","./stimuli//pack_shapes_diff/cat_1/diff_1/ex_1_1_1.png","arrowleft","response","ArrowLeft","1","1","1","train","true",""
"","","","","","html-keyboard-response","44","87492","0.0-5.0-4.7","5f7a102a52556c6551a9173e","655cb802637e0dbe2941dbc4","655cb8d4ab39770cf4c4b6d0","null","<p> <font color=""green"" size=""5vw""> Correct category! </font> </p>","null","feedback","","","","","","","10"
"","","","","","html-keyboard-response","45","88612","0.0-5.0-0.8","5f7a102a52556c6551a9173e","655cb802637e0dbe2941dbc4","655cb8d4ab39770cf4c4b6d0","1119","
            
        <div style=""text-align: center; position: fixed; top: 5vh; left: 40vw;"">
            <div style=""margin:0 auto; width: 20vw; top: 8vh; font-size: 2vw""> 
            <font color=""green""> Bonus : $10 </font>
            </div>
        </div>
    
            <div> Please press any key to continue to the next image.</div>
        ","arrowleft","ITI","","","","","","",""
"","","","","","html-keyboard-response","46","89215","0.0-5.0-1.8","5f7a102a52556c6551a9173e","655cb802637e0dbe2941dbc4","655cb8d4ab39770cf4c4b6d0","null","
        
        <div style=""text-align: center; position: fixed; top: 5vh; left: 40vw;"">
            <div style=""margin:0 auto; width: 20vw; top: 8vh; font-size: 2vw""> 
            <font color=""green""> Bonus : $10 </font>
            </div>
        </div>
    
        <img class=""stim"" src=./stimuli//pack_shapes_diff/cat_2/diff_2/ex_2_2_17.png></img>
    ","null","stimulus","","","","","","",""
"","","","","","html-keyboard-response","47","90217","0.0-5.0-2.8","5f7a102a52556c6551a9173e","655cb802637e0dbe2941dbc4","655cb8d4ab39770cf4c4b6d0","null","
        <div style=""text-align: center; position: fixed; top: 5vh; left: 40vw;"">
            <div style=""margin:0 auto; width: 20vw; top: 8vh; font-size: 2vw""> 
            <font color=""green""> Bonus : $10 </font>
            </div>
        </div>
    ","null","","","","","","","",""
"","","","","","html-keyboard-response","48","90894","0.0-5.0-3.8","5f7a102a52556c6551a9173e","655cb802637e0dbe2941dbc4","655cb8d4ab39770cf4c4b6d0","677","./stimuli//pack_shapes_diff/cat_2/diff_2/ex_2_2_17.png","arrowleft","response","ArrowRight","17","2","2","train","false",""
"","","","","","html-keyboard-response","49","92396","0.0-5.0-4.8","5f7a102a52556c6551a9173e","655cb802637e0dbe2941dbc4","655cb8d4ab39770cf4c4b6d0","null","<p> <font color=""red"" size=""5vw""> Wrong category! </font> </p>","null","feedback","","","","","","","10"
"","","","","","html-keyboard-response","50","93577","0.0-5.0-0.9","5f7a102a52556c6551a9173e","655cb802637e0dbe2941dbc4","655cb8d4ab39770cf4c4b6d0","1179","
            
        <div style=""text-align: center; position: fixed; top: 5vh; left: 40vw;"">
            <div style=""margin:0 auto; width: 20vw; top: 8vh; font-size: 2vw""> 
            <font color=""green""> Bonus : $10 </font>
            </div>
        </div>
    
            <div> Please press any key to continue to the next image.</div>
        ","arrowleft","ITI","","","","","","",""
"","","","","","html-keyboard-response","51","94180","0.0-5.0-1.9","5f7a102a52556c6551a9173e","655cb802637e0dbe2941dbc4","655cb8d4ab39770cf4c4b6d0","null","
        
        <div style=""text-align: center; position: fixed; top: 5vh; left: 40vw;"">
            <div style=""margin:0 auto; width: 20vw; top: 8vh; font-size: 2vw""> 
            <font color=""green""> Bonus : $10 </font>
            </div>
        </div>
    
        <img class=""stim"" src=./stimuli//pack_shapes_diff/cat_1/diff_1/ex_1_1_3.png></img>
    ","null","stimulus","","","","","","",""
"","","","","","html-keyboard-response","52","95182","0.0-5.0-2.9","5f7a102a52556c6551a9173e","655cb802637e0dbe2941dbc4","655cb8d4ab39770cf4c4b6d0","null","
        <div style=""text-align: center; position: fixed; top: 5vh; left: 40vw;"">
            <div style=""margin:0 auto; width: 20vw; top: 8vh; font-size: 2vw""> 
            <font color=""green""> Bonus : $10 </font>
            </div>
        </div>
    ","null","","","","","","","",""
"","","","","","html-keyboard-response","53","95518","0.0-5.0-3.9","5f7a102a52556c6551a9173e","655cb802637e0dbe2941dbc4","655cb8d4ab39770cf4c4b6d0","336","./stimuli//pack_shapes_diff/cat_1/diff_1/ex_1_1_3.png","arrowleft","response","ArrowLeft","3","1","1","train","true",""
"","","","","","html-keyboard-response","54","97021","0.0-5.0-4.9","5f7a102a52556c6551a9173e","655cb802637e0dbe2941dbc4","655cb8d4ab39770cf4c4b6d0","null","<p> <font color=""green"" size=""5vw""> Correct category! </font> </p>","null","feedback","","","","","","","10"
"","","","","","html-keyboard-response","55","103051","0.0-6.0","5f7a102a52556c6551a9173e","655cb802637e0dbe2941dbc4","655cb8d4ab39770cf4c4b6d0","6029","
            <b> <p> The practice round has finished.</p>
            <b> For the rest of the experiment if you guess incorrectly $0.05 will be subtracted from your bonus!</b>
            <p> Press any key to begin the test. </p>
            ","arrowleft","intermission","","","","","","",""
"","","","","","html-keyboard-response","56","105725","0.0-7.0-0.0","5f7a102a52556c6551a9173e","655cb802637e0dbe2941dbc4","655cb8d4ab39770cf4c4b6d0","2673","
            
        <div style=""text-align: center; position: fixed; top: 5vh; left: 40vw;"">
            <div style=""margin:0 auto; width: 20vw; top: 8vh; font-size: 2vw""> 
            <font color=""green""> Bonus : $10 </font>
            </div>
        </div>
    
            <div> Please press any key to continue to the next image.</div>
        ","arrowleft","ITI","","","","","","",""
"","","","","","html-keyboard-response","57","106329","0.0-7.0-1.0","5f7a102a52556c6551a9173e","655cb802637e0dbe2941dbc4","655cb8d4ab39770cf4c4b6d0","null","
        
        <div style=""text-align: center; position: fixed; top: 5vh; left: 40vw;"">
            <div style=""margin:0 auto; width: 20vw; top: 8vh; font-size: 2vw""> 
            <font color=""green""> Bonus : $10 </font>
            </div>
        </div>
    
        <img class=""stim"" src=./stimuli//pack_shapes_diff/cat_2/diff_1/ex_2_1_4.png></img>
    ","null","stimulus","","","","","","",""
"","","","","","html-keyboard-response","58","107331","0.0-7.0-2.0","5f7a102a52556c6551a9173e","655cb802637e0dbe2941dbc4","655cb8d4ab39770cf4c4b6d0","null","
        <div style=""text-align: center; position: fixed; top: 5vh; left: 40vw;"">
            <div style=""margin:0 auto; width: 20vw; top: 8vh; font-size: 2vw""> 
            <font color=""green""> Bonus : $10 </font>
            </div>
        </div>
    ","null","","","","","","","",""
"","","","","","html-keyboard-response","59","108378","0.0-7.0-3.0","5f7a102a52556c6551a9173e","655cb802637e0dbe2941dbc4","655cb8d4ab39770cf4c4b6d0","1046","./stimuli//pack_shapes_diff/cat_2/diff_1/ex_2_1_4.png","arrowright","response","ArrowRight","4","2","1","test","true",""
"","","","","","html-keyboard-response","60","109881","0.0-7.0-4.0","5f7a102a52556c6551a9173e","655cb802637e0dbe2941dbc4","655cb8d4ab39770cf4c4b6d0","null","<p> <font color=""green"" size=""5vw""> Correct category! </font></p>","null","feedback","","","","","","","10"
"","","","","","html-keyboard-response","61","110946","0.0-7.1-0.1","5f7a102a52556c6551a9173e","655cb802637e0dbe2941dbc4","655cb8d4ab39770cf4c4b6d0","1064","
            
        <div style=""text-align: center; position: fixed; top: 5vh; left: 40vw;"">
            <div style=""margin:0 auto; width: 20vw; top: 8vh; font-size: 2vw""> 
            <font color=""green""> Bonus : $10 </font>
            </div>
        </div>
    
            <div> Please press any key to continue to the next image.</div>
        ","arrowleft","ITI","","","","","","",""
"","","","","","html-keyboard-response","62","111548","0.0-7.1-1.1","5f7a102a52556c6551a9173e","655cb802637e0dbe2941dbc4","655cb8d4ab39770cf4c4b6d0","null","
        
        <div style=""text-align: center; position: fixed; top: 5vh; left: 40vw;"">
            <div style=""margin:0 auto; width: 20vw; top: 8vh; font-size: 2vw""> 
            <font color=""green""> Bonus : $10 </font>
            </div>
        </div>
    
        <img class=""stim"" src=./stimuli//pack_shapes_diff/cat_2/diff_1/ex_2_1_15.png></img>
    ","null","stimulus","","","","","","",""
"","","","","","html-keyboard-response","63","112550","0.0-7.1-2.1","5f7a102a52556c6551a9173e","655cb802637e0dbe2941dbc4","655cb8d4ab39770cf4c4b6d0","null","
        <div style=""text-align: center; position: fixed; top: 5vh; left: 40vw;"">
            <div style=""margin:0 auto; width: 20vw; top: 8vh; font-size: 2vw""> 
            <font color=""green""> Bonus : $10 </font>
            </div>
        </div>
    ","null","","","","","","","",""
"","","","","","html-keyboard-response","64","113020","0.0-7.1-3.1","5f7a102a52556c6551a9173e","655cb802637e0dbe2941dbc4","655cb8d4ab39770cf4c4b6d0","469","./stimuli//pack_shapes_diff/cat_2/diff_1/ex_2_1_15.png","arrowright","response","ArrowRight","15","2","1","test","true",""
"","","","","","html-keyboard-response","65","114522","0.0-7.1-4.1","5f7a102a52556c6551a9173e","655cb802637e0dbe2941dbc4","655cb8d4ab39770cf4c4b6d0","null","<p> <font color=""green"" size=""5vw""> Correct category! </font></p>","null","feedback","","","","","","","10"
"","","","","","html-keyboard-response","66","115260","0.0-7.2-0.2","5f7a102a52556c6551a9173e","655cb802637e0dbe2941dbc4","655cb8d4ab39770cf4c4b6d0","737","
            
        <div style=""text-align: center; position: fixed; top: 5vh; left: 40vw;"">
            <div style=""margin:0 auto; width: 20vw; top: 8vh; font-size: 2vw""> 
            <font color=""green""> Bonus : $10 </font>
            </div>
        </div>
    
            <div> Please press any key to continue to the next image.</div>
        ","arrowleft","ITI","","","","","","",""
"","","","","","html-keyboard-response","67","115863","0.0-7.2-1.2","5f7a102a52556c6551a9173e","655cb802637e0dbe2941dbc4","655cb8d4ab39770cf4c4b6d0","null","
        
        <div style=""text-align: center; position: fixed; top: 5vh; left: 40vw;"">
            <div style=""margin:0 auto; width: 20vw; top: 8vh; font-size: 2vw""> 
            <font color=""green""> Bonus : $10 </font>
            </div>
        </div>
    
        <img class=""stim"" src=./stimuli//pack_shapes_diff/cat_1/diff_1/ex_1_1_8.png></img>
    ","null","stimulus","","","","","","",""
"","","","","","html-keyboard-response","68","116865","0.0-7.2-2.2","5f7a102a52556c6551a9173e","655cb802637e0dbe2941dbc4","655cb8d4ab39770cf4c4b6d0","null","
        <div style=""text-align: center; position: fixed; top: 5vh; left: 40vw;"">
            <div style=""margin:0 auto; width: 20vw; top: 8vh; font-size: 2vw""> 
            <font color=""green""> Bonus : $10 </font>
            </div>
        </div>
    ","null","","","","","","","",""
"","","","","","html-keyboard-response","69","117280","0.0-7.2-3.2","5f7a102a52556c6551a9173e","655cb802637e0dbe2941dbc4","655cb8d4ab39770cf4c4b6d0","413","./stimuli//pack_shapes_diff/cat_1/diff_1/ex_1_1_8.png","arrowleft","response","ArrowLeft","8","1","1","test","true",""
"","","","","","html-keyboard-response","70","118782","0.0-7.2-4.2","5f7a102a52556c6551a9173e","655cb802637e0dbe2941dbc4","655cb8d4ab39770cf4c4b6d0","null","<p> <font color=""green"" size=""5vw""> Correct category! </font></p>","null","feedback","","","","","","","10"
"","","","","","html-keyboard-response","71","120457","0.0-7.3-0.3","5f7a102a52556c6551a9173e","655cb802637e0dbe2941dbc4","655cb8d4ab39770cf4c4b6d0","1674","
            
        <div style=""text-align: center; position: fixed; top: 5vh; left: 40vw;"">
            <div style=""margin:0 auto; width: 20vw; top: 8vh; font-size: 2vw""> 
            <font color=""green""> Bonus : $10 </font>
            </div>
        </div>
    
            <div> Please press any key to continue to the next image.</div>
        ","arrowleft","ITI","","","","","","",""
"","","","","","html-keyboard-response","72","121060","0.0-7.3-1.3","5f7a102a52556c6551a9173e","655cb802637e0dbe2941dbc4","655cb8d4ab39770cf4c4b6d0","null","
        
        <div style=""text-align: center; position: fixed; top: 5vh; left: 40vw;"">
            <div style=""margin:0 auto; width: 20vw; top: 8vh; font-size: 2vw""> 
            <font color=""green""> Bonus : $10 </font>
            </div>
        </div>
    
        <img class=""stim"" src=./stimuli//pack_shapes_diff/cat_2/diff_1/ex_2_1_6.png></img>
    ","null","stimulus","","","","","","",""
"","","","","","html-keyboard-response","73","122061","0.0-7.3-2.3","5f7a102a52556c6551a9173e","655cb802637e0dbe2941dbc4","655cb8d4ab39770cf4c4b6d0","null","
        <div style=""text-align: center; position: fixed; top: 5vh; left: 40vw;"">
            <div style=""margin:0 auto; width: 20vw; top: 8vh; font-size: 2vw""> 
            <font color=""green""> Bonus : $10 </font>
            </div>
        </div>
    ","null","","","","","","","",""
"","","","","","html-keyboard-response","74","122445","0.0-7.3-3.3","5f7a102a52556c6551a9173e","655cb802637e0dbe2941dbc4","655cb8d4ab39770cf4c4b6d0","383","./stimuli//pack_shapes_diff/cat_2/diff_1/ex_2_1_6.png","arrowright","response","ArrowRight","6","2","1","test","true",""
"","","","","","html-keyboard-response","75","123946","0.0-7.3-4.3","5f7a102a52556c6551a9173e","655cb802637e0dbe2941dbc4","655cb8d4ab39770cf4c4b6d0","null","<p> <font color=""green"" size=""5vw""> Correct category! </font></p>","null","feedback","","","","","","","10"
"","","","","","html-keyboard-response","76","125281","0.0-7.4-0.4","5f7a102a52556c6551a9173e","655cb802637e0dbe2941dbc4","655cb8d4ab39770cf4c4b6d0","1333","
            
        <div style=""text-align: center; position: fixed; top: 5vh; left: 40vw;"">
            <div style=""margin:0 auto; width: 20vw; top: 8vh; font-size: 2vw""> 
            <font color=""green""> Bonus : $10 </font>
            </div>
        </div>
    
            <div> Please press any key to continue to the next image.</div>
        ","arrowleft","ITI","","","","","","",""
"","","","","","html-keyboard-response","77","125883","0.0-7.4-1.4","5f7a102a52556c6551a9173e","655cb802637e0dbe2941dbc4","655cb8d4ab39770cf4c4b6d0","null","
        
        <div style=""text-align: center; position: fixed; top: 5vh; left: 40vw;"">
            <div style=""margin:0 auto; width: 20vw; top: 8vh; font-size: 2vw""> 
            <font color=""green""> Bonus : $10 </font>
            </div>
        </div>
    
        <img class=""stim"" src=./stimuli//pack_shapes_diff/cat_2/diff_1/ex_2_1_4.png></img>
    ","null","stimulus","","","","","","",""
"","","","","","html-keyboard-response","78","126886","0.0-7.4-2.4","5f7a102a52556c6551a9173e","655cb802637e0dbe2941dbc4","655cb8d4ab39770cf4c4b6d0","null","
        <div style=""text-align: center; position: fixed; top: 5vh; left: 40vw;"">
            <div style=""margin:0 auto; width: 20vw; top: 8vh; font-size: 2vw""> 
            <font color=""green""> Bonus : $10 </font>
            </div>
        </div>
    ","null","","","","","","","",""
"","","","","","html-keyboard-response","79","127339","0.0-7.4-3.4","5f7a102a52556c6551a9173e","655cb802637e0dbe2941dbc4","655cb8d4ab39770cf4c4b6d0","453","./stimuli//pack_shapes_diff/cat_2/diff_1/ex_2_1_4.png","arrowright","response","ArrowRight","4","2","1","test","true",""
"","","","","","html-keyboard-response","80","128842","0.0-7.4-4.4","5f7a102a52556c6551a9173e","655cb802637e0dbe2941dbc4","655cb8d4ab39770cf4c4b6d0","null","<p> <font color=""green"" size=""5vw""> Correct category! </font></p>","null","feedback","","","","","","","10"
"","","","","","html-keyboard-response","81","129716","0.0-7.5-0.5","5f7a102a52556c6551a9173e","655cb802637e0dbe2941dbc4","655cb8d4ab39770cf4c4b6d0","874","
            
        <div style=""text-align: center; position: fixed; top: 5vh; left: 40vw;"">
            <div style=""margin:0 auto; width: 20vw; top: 8vh; font-size: 2vw""> 
            <font color=""green""> Bonus : $10 </font>
            </div>
        </div>
    
            <div> Please press any key to continue to the next image.</div>
        ","arrowleft","ITI","","","","","","",""
"","","","","","html-keyboard-response","82","130319","0.0-7.5-1.5","5f7a102a52556c6551a9173e","655cb802637e0dbe2941dbc4","655cb8d4ab39770cf4c4b6d0","null","
        
        <div style=""text-align: center; position: fixed; top: 5vh; left: 40vw;"">
            <div style=""margin:0 auto; width: 20vw; top: 8vh; font-size: 2vw""> 
            <font color=""green""> Bonus : $10 </font>
            </div>
        </div>
    
        <img class=""stim"" src=./stimuli//pack_shapes_diff/cat_2/diff_2/ex_2_2_11.png></img>
    ","null","stimulus","","","","","","",""
"","","","","","html-keyboard-response","83","131321","0.0-7.5-2.5","5f7a102a52556c6551a9173e","655cb802637e0dbe2941dbc4","655cb8d4ab39770cf4c4b6d0","null","
        <div style=""text-align: center; position: fixed; top: 5vh; left: 40vw;"">
            <div style=""margin:0 auto; width: 20vw; top: 8vh; font-size: 2vw""> 
            <font color=""green""> Bonus : $10 </font>
            </div>
        </div>
    ","null","","","","","","","",""
"","","","","","html-keyboard-response","84","131754","0.0-7.5-3.5","5f7a102a52556c6551a9173e","655cb802637e0dbe2941dbc4","655cb8d4ab39770cf4c4b6d0","432","./stimuli//pack_shapes_diff/cat_2/diff_2/ex_2_2_11.png","arrowright","response","ArrowRight","11","2","2","test","true",""
"","","","","","html-keyboard-response","85","133256","0.0-7.5-4.5","5f7a102a52556c6551a9173e","655cb802637e0dbe2941dbc4","655cb8d4ab39770cf4c4b6d0","null","<p> <font color=""green"" size=""5vw""> Correct category! </font></p>","null","feedback","","","","","","","10"
"","","","","","html-keyboard-response","86","133945","0.0-7.6-0.6","5f7a102a52556c6551a9173e","655cb802637e0dbe2941dbc4","655cb8d4ab39770cf4c4b6d0","688","
            
        <div style=""text-align: center; position: fixed; top: 5vh; left: 40vw;"">
            <div style=""margin:0 auto; width: 20vw; top: 8vh; font-size: 2vw""> 
            <font color=""green""> Bonus : $10 </font>
            </div>
        </div>
    
            <div> Please press any key to continue to the next image.</div>
        ","arrowleft","ITI","","","","","","",""
"","","","","","html-keyboard-response","87","134548","0.0-7.6-1.6","5f7a102a52556c6551a9173e","655cb802637e0dbe2941dbc4","655cb8d4ab39770cf4c4b6d0","null","
        
        <div style=""text-align: center; position: fixed; top: 5vh; left: 40vw;"">
            <div style=""margin:0 auto; width: 20vw; top: 8vh; font-size: 2vw""> 
            <font color=""green""> Bonus : $10 </font>
            </div>
        </div>
    
        <img class=""stim"" src=./stimuli//pack_shapes_diff/cat_2/diff_2/ex_2_2_3.png></img>
    ","null","stimulus","","","","","","",""
"","","","","","html-keyboard-response","88","135549","0.0-7.6-2.6","5f7a102a52556c6551a9173e","655cb802637e0dbe2941dbc4","655cb8d4ab39770cf4c4b6d0","null","
        <div style=""text-align: center; position: fixed; top: 5vh; left: 40vw;"">
            <div style=""margin:0 auto; width: 20vw; top: 8vh; font-size: 2vw""> 
            <font color=""green""> Bonus : $10 </font>
            </div>
        </div>
    ","null","","","","","","","",""
"","","","","","html-keyboard-response","89","135959","0.0-7.6-3.6","5f7a102a52556c6551a9173e","655cb802637e0dbe2941dbc4","655cb8d4ab39770cf4c4b6d0","409","./stimuli//pack_shapes_diff/cat_2/diff_2/ex_2_2_3.png","arrowright","response","ArrowRight","3","2","2","test","true",""
"","","","","","html-keyboard-response","90","137462","0.0-7.6-4.6","5f7a102a52556c6551a9173e","655cb802637e0dbe2941dbc4","655cb8d4ab39770cf4c4b6d0","null","<p> <font color=""green"" size=""5vw""> Correct category! </font></p>","null","feedback","","","","","","","10"
"","","","","","html-keyboard-response","91","138253","0.0-7.7-0.7","5f7a102a52556c6551a9173e","655cb802637e0dbe2941dbc4","655cb8d4ab39770cf4c4b6d0","790","
            
        <div style=""text-align: center; position: fixed; top: 5vh; left: 40vw;"">
            <div style=""margin:0 auto; width: 20vw; top: 8vh; font-size: 2vw""> 
            <font color=""green""> Bonus : $10 </font>
            </div>
        </div>
    
            <div> Please press any key to continue to the next image.</div>
        ","arrowleft","ITI","","","","","","",""
"","","","","","html-keyboard-response","92","138856","0.0-7.7-1.7","5f7a102a52556c6551a9173e","655cb802637e0dbe2941dbc4","655cb8d4ab39770cf4c4b6d0","null","
        
        <div style=""text-align: center; position: fixed; top: 5vh; left: 40vw;"">
            <div style=""margin:0 auto; width: 20vw; top: 8vh; font-size: 2vw""> 
            <font color=""green""> Bonus : $10 </font>
            </div>
        </div>
    
        <img class=""stim"" src=./stimuli//pack_shapes_diff/cat_2/diff_2/ex_2_2_16.png></img>
    ","null","stimulus","","","","","","",""
"","","","","","html-keyboard-response","93","139858","0.0-7.7-2.7","5f7a102a52556c6551a9173e","655cb802637e0dbe2941dbc4","655cb8d4ab39770cf4c4b6d0","null","
        <div style=""text-align: center; position: fixed; top: 5vh; left: 40vw;"">
            <div style=""margin:0 auto; width: 20vw; top: 8vh; font-size: 2vw""> 
            <font color=""green""> Bonus : $10 </font>
            </div>
        </div>
    ","null","","","","","","","",""
"","","","","","html-keyboard-response","94","140221","0.0-7.7-3.7","5f7a102a52556c6551a9173e","655cb802637e0dbe2941dbc4","655cb8d4ab39770cf4c4b6d0","362","./stimuli//pack_shapes_diff/cat_2/diff_2/ex_2_2_16.png","arrowright","response","ArrowRight","16","2","2","test","true",""
"","","","","","html-keyboard-response","95","141723","0.0-7.7-4.7","5f7a102a52556c6551a9173e","655cb802637e0dbe2941dbc4","655cb8d4ab39770cf4c4b6d0","null","<p> <font color=""green"" size=""5vw""> Correct category! </font></p>","null","feedback","","","","","","","10"
"","","","","","html-keyboard-response","96","142521","0.0-7.8-0.8","5f7a102a52556c6551a9173e","655cb802637e0dbe2941dbc4","655cb8d4ab39770cf4c4b6d0","797","
            
        <div style=""text-align: center; position: fixed; top: 5vh; left: 40vw;"">
            <div style=""margin:0 auto; width: 20vw; top: 8vh; font-size: 2vw""> 
            <font color=""green""> Bonus : $10 </font>
            </div>
        </div>
    
            <div> Please press any key to continue to the next image.</div>
        ","arrowleft","ITI","","","","","","",""
"","","","","","html-keyboard-response","97","143124","0.0-7.8-1.8","5f7a102a52556c6551a9173e","655cb802637e0dbe2941dbc4","655cb8d4ab39770cf4c4b6d0","null","
        
        <div style=""text-align: center; position: fixed; top: 5vh; left: 40vw;"">
            <div style=""margin:0 auto; width: 20vw; top: 8vh; font-size: 2vw""> 
            <font color=""green""> Bonus : $10 </font>
            </div>
        </div>
    
        <img class=""stim"" src=./stimuli//pack_shapes_diff/cat_2/diff_2/ex_2_2_4.png></img>
    ","null","stimulus","","","","","","",""
"","","","","","html-keyboard-response","98","144126","0.0-7.8-2.8","5f7a102a52556c6551a9173e","655cb802637e0dbe2941dbc4","655cb8d4ab39770cf4c4b6d0","null","
        <div style=""text-align: center; position: fixed; top: 5vh; left: 40vw;"">
            <div style=""margin:0 auto; width: 20vw; top: 8vh; font-size: 2vw""> 
            <font color=""green""> Bonus : $10 </font>
            </div>
        </div>
    ","null","","","","","","","",""
"","","","","","html-keyboard-response","99","144519","0.0-7.8-3.8","5f7a102a52556c6551a9173e","655cb802637e0dbe2941dbc4","655cb8d4ab39770cf4c4b6d0","392","./stimuli//pack_shapes_diff/cat_2/diff_2/ex_2_2_4.png","arrowright","response","ArrowRight","4","2","2","test","true",""
"","","","","","html-keyboard-response","100","146022","0.0-7.8-4.8","5f7a102a52556c6551a9173e","655cb802637e0dbe2941dbc4","655cb8d4ab39770cf4c4b6d0","null","<p> <font color=""green"" size=""5vw""> Correct category! </font></p>","null","feedback","","","","","","","10"
"","","","","","html-keyboard-response","101","147616","0.0-7.9-0.9","5f7a102a52556c6551a9173e","655cb802637e0dbe2941dbc4","655cb8d4ab39770cf4c4b6d0","1592","
            
        <div style=""text-align: center; position: fixed; top: 5vh; left: 40vw;"">
            <div style=""margin:0 auto; width: 20vw; top: 8vh; font-size: 2vw""> 
            <font color=""green""> Bonus : $10 </font>
            </div>
        </div>
    
            <div> Please press any key to continue to the next image.</div>
        ","arrowleft","ITI","","","","","","",""
"","","","","","html-keyboard-response","102","148219","0.0-7.9-1.9","5f7a102a52556c6551a9173e","655cb802637e0dbe2941dbc4","655cb8d4ab39770cf4c4b6d0","null","
        
        <div style=""text-align: center; position: fixed; top: 5vh; left: 40vw;"">
            <div style=""margin:0 auto; width: 20vw; top: 8vh; font-size: 2vw""> 
            <font color=""green""> Bonus : $10 </font>
            </div>
        </div>
    
        <img class=""stim"" src=./stimuli//pack_shapes_diff/cat_2/diff_2/ex_2_2_3.png></img>
    ","null","stimulus","","","","","","",""
"","","","","","html-keyboard-response","103","149221","0.0-7.9-2.9","5f7a102a52556c6551a9173e","655cb802637e0dbe2941dbc4","655cb8d4ab39770cf4c4b6d0","null","
        <div style=""text-align: center; position: fixed; top: 5vh; left: 40vw;"">
            <div style=""margin:0 auto; width: 20vw; top: 8vh; font-size: 2vw""> 
            <font color=""green""> Bonus : $10 </font>
            </div>
        </div>
    ","null","","","","","","","",""
"","","","","","html-keyboard-response","104","149614","0.0-7.9-3.9","5f7a102a52556c6551a9173e","655cb802637e0dbe2941dbc4","655cb8d4ab39770cf4c4b6d0","392","./stimuli//pack_shapes_diff/cat_2/diff_2/ex_2_2_3.png","arrowright","response","ArrowRight","3","2","2","test","true",""
"","","","","","html-keyboard-response","105","151115","0.0-7.9-4.9","5f7a102a52556c6551a9173e","655cb802637e0dbe2941dbc4","655cb8d4ab39770cf4c4b6d0","null","<p> <font color=""green"" size=""5vw""> Correct category! </font></p>","null","feedback","","","","","","","10"
"","","","","","html-keyboard-response","106","152102","0.0-7.10-0.10","5f7a102a52556c6551a9173e","655cb802637e0dbe2941dbc4","655cb8d4ab39770cf4c4b6d0","986","
            
        <div style=""text-align: center; position: fixed; top: 5vh; left: 40vw;"">
            <div style=""margin:0 auto; width: 20vw; top: 8vh; font-size: 2vw""> 
            <font color=""green""> Bonus : $10 </font>
            </div>
        </div>
    
            <div> Please press any key to continue to the next image.</div>
        ","arrowleft","ITI","","","","","","",""
"","","","","","html-keyboard-response","107","152703","0.0-7.10-1.10","5f7a102a52556c6551a9173e","655cb802637e0dbe2941dbc4","655cb8d4ab39770cf4c4b6d0","null","
        
        <div style=""text-align: center; position: fixed; top: 5vh; left: 40vw;"">
            <div style=""margin:0 auto; width: 20vw; top: 8vh; font-size: 2vw""> 
            <font color=""green""> Bonus : $10 </font>
            </div>
        </div>
    
        <img class=""stim"" src=./stimuli//pack_shapes_diff/cat_1/diff_3/ex_1_3_7.png></img>
    ","null","stimulus","","","","","","",""
"","","","","","html-keyboard-response","108","153704","0.0-7.10-2.10","5f7a102a52556c6551a9173e","655cb802637e0dbe2941dbc4","655cb8d4ab39770cf4c4b6d0","null","
        <div style=""text-align: center; position: fixed; top: 5vh; left: 40vw;"">
            <div style=""margin:0 auto; width: 20vw; top: 8vh; font-size: 2vw""> 
            <font color=""green""> Bonus : $10 </font>
            </div>
        </div>
    ","null","","","","","","","",""
"","","","","","html-keyboard-response","109","154143","0.0-7.10-3.10","5f7a102a52556c6551a9173e","655cb802637e0dbe2941dbc4","655cb8d4ab39770cf4c4b6d0","438","./stimuli//pack_shapes_diff/cat_1/diff_3/ex_1_3_7.png","arrowleft","response","ArrowLeft","7","1","3","test","true",""
"","","","","","html-keyboard-response","110","155646","0.0-7.10-4.10","5f7a102a52556c6551a9173e","655cb802637e0dbe2941dbc4","655cb8d4ab39770cf4c4b6d0","null","<p> <font color=""green"" size=""5vw""> Correct category! </font></p>","null","feedback","","","","","","","10"
"","","","","","html-keyboard-response","111","156539","0.0-7.11-0.11","5f7a102a52556c6551a9173e","655cb802637e0dbe2941dbc4","655cb8d4ab39770cf4c4b6d0","893","
            
        <div style=""text-align: center; position: fixed; top: 5vh; left: 40vw;"">
            <div style=""margin:0 auto; width: 20vw; top: 8vh; font-size: 2vw""> 
            <font color=""green""> Bonus : $10 </font>
            </div>
        </div>
    
            <div> Please press any key to continue to the next image.</div>
        ","arrowleft","ITI","","","","","","",""
"","","","","","html-keyboard-response","112","157142","0.0-7.11-1.11","5f7a102a52556c6551a9173e","655cb802637e0dbe2941dbc4","655cb8d4ab39770cf4c4b6d0","null","
        
        <div style=""text-align: center; position: fixed; top: 5vh; left: 40vw;"">
            <div style=""margin:0 auto; width: 20vw; top: 8vh; font-size: 2vw""> 
            <font color=""green""> Bonus : $10 </font>
            </div>
        </div>
    
        <img class=""stim"" src=./stimuli//pack_shapes_diff/cat_2/diff_3/ex_2_3_2.png></img>
    ","null","stimulus","","","","","","",""
"","","","","","html-keyboard-response","113","158144","0.0-7.11-2.11","5f7a102a52556c6551a9173e","655cb802637e0dbe2941dbc4","655cb8d4ab39770cf4c4b6d0","null","
        <div style=""text-align: center; position: fixed; top: 5vh; left: 40vw;"">
            <div style=""margin:0 auto; width: 20vw; top: 8vh; font-size: 2vw""> 
            <font color=""green""> Bonus : $10 </font>
            </div>
        </div>
    ","null","","","","","","","",""
"","","","","","html-keyboard-response","114","158548","0.0-7.11-3.11","5f7a102a52556c6551a9173e","655cb802637e0dbe2941dbc4","655cb8d4ab39770cf4c4b6d0","403","./stimuli//pack_shapes_diff/cat_2/diff_3/ex_2_3_2.png","arrowright","response","ArrowRight","2","2","3","test","true",""
"","","","","","html-keyboard-response","115","160049","0.0-7.11-4.11","5f7a102a52556c6551a9173e","655cb802637e0dbe2941dbc4","655cb8d4ab39770cf4c4b6d0","null","<p> <font color=""green"" size=""5vw""> Correct category! </font></p>","null","feedback","","","","","","","10"
"","","","","","html-keyboard-response","116","160778","0.0-7.12-0.12","5f7a102a52556c6551a9173e","655cb802637e0dbe2941dbc4","655cb8d4ab39770cf4c4b6d0","728","
            
        <div style=""text-align: center; position: fixed; top: 5vh; left: 40vw;"">
            <div style=""margin:0 auto; width: 20vw; top: 8vh; font-size: 2vw""> 
            <font color=""green""> Bonus : $10 </font>
            </div>
        </div>
    
            <div> Please press any key to continue to the next image.</div>
        ","arrowleft","ITI","","","","","","",""
"","","","","","html-keyboard-response","117","161381","0.0-7.12-1.12","5f7a102a52556c6551a9173e","655cb802637e0dbe2941dbc4","655cb8d4ab39770cf4c4b6d0","null","
        
        <div style=""text-align: center; position: fixed; top: 5vh; left: 40vw;"">
            <div style=""margin:0 auto; width: 20vw; top: 8vh; font-size: 2vw""> 
            <font color=""green""> Bonus : $10 </font>
            </div>
        </div>
    
        <img class=""stim"" src=./stimuli//pack_shapes_diff/cat_2/diff_3/ex_2_3_4.png></img>
    ","null","stimulus","","","","","","",""
"","","","","","html-keyboard-response","118","162383","0.0-7.12-2.12","5f7a102a52556c6551a9173e","655cb802637e0dbe2941dbc4","655cb8d4ab39770cf4c4b6d0","null","
        <div style=""text-align: center; position: fixed; top: 5vh; left: 40vw;"">
            <div style=""margin:0 auto; width: 20vw; top: 8vh; font-size: 2vw""> 
            <font color=""green""> Bonus : $10 </font>
            </div>
        </div>
    ","null","","","","","","","",""
"","","","","","html-keyboard-response","119","162809","0.0-7.12-3.12","5f7a102a52556c6551a9173e","655cb802637e0dbe2941dbc4","655cb8d4ab39770cf4c4b6d0","426","./stimuli//pack_shapes_diff/cat_2/diff_3/ex_2_3_4.png","arrowright","response","ArrowRight","4","2","3","test","true",""
"","","","","","html-keyboard-response","120","164312","0.0-7.12-4.12","5f7a102a52556c6551a9173e","655cb802637e0dbe2941dbc4","655cb8d4ab39770cf4c4b6d0","null","<p> <font color=""green"" size=""5vw""> Correct category! </font></p>","null","feedback","","","","","","","10"
"","","","","","html-keyboard-response","121","164784","0.0-7.13-0.13","5f7a102a52556c6551a9173e","655cb802637e0dbe2941dbc4","655cb8d4ab39770cf4c4b6d0","471","
            
        <div style=""text-align: center; position: fixed; top: 5vh; left: 40vw;"">
            <div style=""margin:0 auto; width: 20vw; top: 8vh; font-size: 2vw""> 
            <font color=""green""> Bonus : $10 </font>
            </div>
        </div>
    
            <div> Please press any key to continue to the next image.</div>
        ","arrowleft","ITI","","","","","","",""
"","","","","","html-keyboard-response","122","165387","0.0-7.13-1.13","5f7a102a52556c6551a9173e","655cb802637e0dbe2941dbc4","655cb8d4ab39770cf4c4b6d0","null","
        
        <div style=""text-align: center; position: fixed; top: 5vh; left: 40vw;"">
            <div style=""margin:0 auto; width: 20vw; top: 8vh; font-size: 2vw""> 
            <font color=""green""> Bonus : $10 </font>
            </div>
        </div>
    
        <img class=""stim"" src=./stimuli//pack_shapes_diff/cat_1/diff_3/ex_1_3_2.png></img>
    ","null","stimulus","","","","","","",""
"","","","","","html-keyboard-response","123","166389","0.0-7.13-2.13","5f7a102a52556c6551a9173e","655cb802637e0dbe2941dbc4","655cb8d4ab39770cf4c4b6d0","null","
        <div style=""text-align: center; position: fixed; top: 5vh; left: 40vw;"">
            <div style=""margin:0 auto; width: 20vw; top: 8vh; font-size: 2vw""> 
            <font color=""green""> Bonus : $10 </font>
            </div>
        </div>
    ","null","","","","","","","",""
"","","","","","html-keyboard-response","124","166794","0.0-7.13-3.13","5f7a102a52556c6551a9173e","655cb802637e0dbe2941dbc4","655cb8d4ab39770cf4c4b6d0","404","./stimuli//pack_shapes_diff/cat_1/diff_3/ex_1_3_2.png","arrowleft","response","ArrowLeft","2","1","3","test","true",""
"","","","","","html-keyboard-response","125","168296","0.0-7.13-4.13","5f7a102a52556c6551a9173e","655cb802637e0dbe2941dbc4","655cb8d4ab39770cf4c4b6d0","null","<p> <font color=""green"" size=""5vw""> Correct category! </font></p>","null","feedback","","","","","","","10"
"","","","","","html-keyboard-response","126","168977","0.0-7.14-0.14","5f7a102a52556c6551a9173e","655cb802637e0dbe2941dbc4","655cb8d4ab39770cf4c4b6d0","679","
            
        <div style=""text-align: center; position: fixed; top: 5vh; left: 40vw;"">
            <div style=""margin:0 auto; width: 20vw; top: 8vh; font-size: 2vw""> 
            <font color=""green""> Bonus : $10 </font>
            </div>
        </div>
    
            <div> Please press any key to continue to the next image.</div>
        ","arrowleft","ITI","","","","","","",""
"","","","","","html-keyboard-response","127","169580","0.0-7.14-1.14","5f7a102a52556c6551a9173e","655cb802637e0dbe2941dbc4","655cb8d4ab39770cf4c4b6d0","null","
        
        <div style=""text-align: center; position: fixed; top: 5vh; left: 40vw;"">
            <div style=""margin:0 auto; width: 20vw; top: 8vh; font-size: 2vw""> 
            <font color=""green""> Bonus : $10 </font>
            </div>
        </div>
    
        <img class=""stim"" src=./stimuli//pack_shapes_diff/cat_2/diff_3/ex_2_3_8.png></img>
    ","null","stimulus","","","","","","",""
"","","","","","html-keyboard-response","128","170582","0.0-7.14-2.14","5f7a102a52556c6551a9173e","655cb802637e0dbe2941dbc4","655cb8d4ab39770cf4c4b6d0","null","
        <div style=""text-align: center; position: fixed; top: 5vh; left: 40vw;"">
            <div style=""margin:0 auto; width: 20vw; top: 8vh; font-size: 2vw""> 
            <font color=""green""> Bonus : $10 </font>
            </div>
        </div>
    ","null","","","","","","","",""
"","","","","","html-keyboard-response","129","170933","0.0-7.14-3.14","5f7a102a52556c6551a9173e","655cb802637e0dbe2941dbc4","655cb8d4ab39770cf4c4b6d0","350","./stimuli//pack_shapes_diff/cat_2/diff_3/ex_2_3_8.png","arrowright","response","ArrowRight","8","2","3","test","true",""
"","","","","","html-keyboard-response","130","172435","0.0-7.14-4.14","5f7a102a52556c6551a9173e","655cb802637e0dbe2941dbc4","655cb8d4ab39770cf4c4b6d0","null","<p> <font color=""green"" size=""5vw""> Correct category! </font></p>","null","feedback","","","","","","","10"
"","","","","","html-keyboard-response","131","173477","0.0-7.15-0.15","5f7a102a52556c6551a9173e","655cb802637e0dbe2941dbc4","655cb8d4ab39770cf4c4b6d0","1041","
            
        <div style=""text-align: center; position: fixed; top: 5vh; left: 40vw;"">
            <div style=""margin:0 auto; width: 20vw; top: 8vh; font-size: 2vw""> 
            <font color=""green""> Bonus : $10 </font>
            </div>
        </div>
    
            <div> Please press any key to continue to the next image.</div>
        ","arrowleft","ITI","","","","","","",""
"","","","","","html-keyboard-response","132","174080","0.0-7.15-1.15","5f7a102a52556c6551a9173e","655cb802637e0dbe2941dbc4","655cb8d4ab39770cf4c4b6d0","null","
        
        <div style=""text-align: center; position: fixed; top: 5vh; left: 40vw;"">
            <div style=""margin:0 auto; width: 20vw; top: 8vh; font-size: 2vw""> 
            <font color=""green""> Bonus : $10 </font>
            </div>
        </div>
    
        <img class=""stim"" src=./stimuli//pack_shapes_diff/cat_1/diff_4/ex_1_4_4.png></img>
    ","null","stimulus","","","","","","",""
"","","","","","html-keyboard-response","133","175082","0.0-7.15-2.15","5f7a102a52556c6551a9173e","655cb802637e0dbe2941dbc4","655cb8d4ab39770cf4c4b6d0","null","
        <div style=""text-align: center; position: fixed; top: 5vh; left: 40vw;"">
            <div style=""margin:0 auto; width: 20vw; top: 8vh; font-size: 2vw""> 
            <font color=""green""> Bonus : $10 </font>
            </div>
        </div>
    ","null","","","","","","","",""
"","","","","","html-keyboard-response","134","175389","0.0-7.15-3.15","5f7a102a52556c6551a9173e","655cb802637e0dbe2941dbc4","655cb8d4ab39770cf4c4b6d0","306","./stimuli//pack_shapes_diff/cat_1/diff_4/ex_1_4_4.png","arrowleft","response","ArrowLeft","4","1","4","test","true",""
"","","","","","html-keyboard-response","135","176891","0.0-7.15-4.15","5f7a102a52556c6551a9173e","655cb802637e0dbe2941dbc4","655cb8d4ab39770cf4c4b6d0","null","<p> <font color=""green"" size=""5vw""> Correct category! </font></p>","null","feedback","","","","","","","10"
"","","","","","html-keyboard-response","136","177788","0.0-7.16-0.16","5f7a102a52556c6551a9173e","655cb802637e0dbe2941dbc4","655cb8d4ab39770cf4c4b6d0","896","
            
        <div style=""text-align: center; position: fixed; top: 5vh; left: 40vw;"">
            <div style=""margin:0 auto; width: 20vw; top: 8vh; font-size: 2vw""> 
            <font color=""green""> Bonus : $10 </font>
            </div>
        </div>
    
            <div> Please press any key to continue to the next image.</div>
        ","arrowleft","ITI","","","","","","",""
"","","","","","html-keyboard-response","137","178391","0.0-7.16-1.16","5f7a102a52556c6551a9173e","655cb802637e0dbe2941dbc4","655cb8d4ab39770cf4c4b6d0","null","
        
        <div style=""text-align: center; position: fixed; top: 5vh; left: 40vw;"">
            <div style=""margin:0 auto; width: 20vw; top: 8vh; font-size: 2vw""> 
            <font color=""green""> Bonus : $10 </font>
            </div>
        </div>
    
        <img class=""stim"" src=./stimuli//pack_shapes_diff/cat_1/diff_4/ex_1_4_5.png></img>
    ","null","stimulus","","","","","","",""
"","","","","","html-keyboard-response","138","179394","0.0-7.16-2.16","5f7a102a52556c6551a9173e","655cb802637e0dbe2941dbc4","655cb8d4ab39770cf4c4b6d0","null","
        <div style=""text-align: center; position: fixed; top: 5vh; left: 40vw;"">
            <div style=""margin:0 auto; width: 20vw; top: 8vh; font-size: 2vw""> 
            <font color=""green""> Bonus : $10 </font>
            </div>
        </div>
    ","null","","","","","","","",""
"","","","","","html-keyboard-response","139","179753","0.0-7.16-3.16","5f7a102a52556c6551a9173e","655cb802637e0dbe2941dbc4","655cb8d4ab39770cf4c4b6d0","358","./stimuli//pack_shapes_diff/cat_1/diff_4/ex_1_4_5.png","arrowleft","response","ArrowLeft","5","1","4","test","true",""
"","","","","","html-keyboard-response","140","181255","0.0-7.16-4.16","5f7a102a52556c6551a9173e","655cb802637e0dbe2941dbc4","655cb8d4ab39770cf4c4b6d0","null","<p> <font color=""green"" size=""5vw""> Correct category! </font></p>","null","feedback","","","","","","","10"
"","","","","","html-keyboard-response","141","182105","0.0-7.17-0.17","5f7a102a52556c6551a9173e","655cb802637e0dbe2941dbc4","655cb8d4ab39770cf4c4b6d0","848","
            
        <div style=""text-align: center; position: fixed; top: 5vh; left: 40vw;"">
            <div style=""margin:0 auto; width: 20vw; top: 8vh; font-size: 2vw""> 
            <font color=""green""> Bonus : $10 </font>
            </div>
        </div>
    
            <div> Please press any key to continue to the next image.</div>
        ","arrowleft","ITI","","","","","","",""
"","","","","","html-keyboard-response","142","182707","0.0-7.17-1.17","5f7a102a52556c6551a9173e","655cb802637e0dbe2941dbc4","655cb8d4ab39770cf4c4b6d0","null","
        
        <div style=""text-align: center; position: fixed; top: 5vh; left: 40vw;"">
            <div style=""margin:0 auto; width: 20vw; top: 8vh; font-size: 2vw""> 
            <font color=""green""> Bonus : $10 </font>
            </div>
        </div>
    
        <img class=""stim"" src=./stimuli//pack_shapes_diff/cat_1/diff_4/ex_1_4_3.png></img>
    ","null","stimulus","","","","","","",""
"","","","","","html-keyboard-response","143","183709","0.0-7.17-2.17","5f7a102a52556c6551a9173e","655cb802637e0dbe2941dbc4","655cb8d4ab39770cf4c4b6d0","null","
        <div style=""text-align: center; position: fixed; top: 5vh; left: 40vw;"">
            <div style=""margin:0 auto; width: 20vw; top: 8vh; font-size: 2vw""> 
            <font color=""green""> Bonus : $10 </font>
            </div>
        </div>
    ","null","","","","","","","",""
"","","","","","html-keyboard-response","144","184057","0.0-7.17-3.17","5f7a102a52556c6551a9173e","655cb802637e0dbe2941dbc4","655cb8d4ab39770cf4c4b6d0","347","./stimuli//pack_shapes_diff/cat_1/diff_4/ex_1_4_3.png","arrowleft","response","ArrowLeft","3","1","4","test","true",""
"","","","","","html-keyboard-response","145","185559","0.0-7.17-4.17","5f7a102a52556c6551a9173e","655cb802637e0dbe2941dbc4","655cb8d4ab39770cf4c4b6d0","null","<p> <font color=""green"" size=""5vw""> Correct category! </font></p>","null","feedback","","","","","","","10"
"","","","","","html-keyboard-response","146","186302","0.0-7.18-0.18","5f7a102a52556c6551a9173e","655cb802637e0dbe2941dbc4","655cb8d4ab39770cf4c4b6d0","742","
            
        <div style=""text-align: center; position: fixed; top: 5vh; left: 40vw;"">
            <div style=""margin:0 auto; width: 20vw; top: 8vh; font-size: 2vw""> 
            <font color=""green""> Bonus : $10 </font>
            </div>
        </div>
    
            <div> Please press any key to continue to the next image.</div>
        ","arrowleft","ITI","","","","","","",""
"","","","","","html-keyboard-response","147","186904","0.0-7.18-1.18","5f7a102a52556c6551a9173e","655cb802637e0dbe2941dbc4","655cb8d4ab39770cf4c4b6d0","null","
        
        <div style=""text-align: center; position: fixed; top: 5vh; left: 40vw;"">
            <div style=""margin:0 auto; width: 20vw; top: 8vh; font-size: 2vw""> 
            <font color=""green""> Bonus : $10 </font>
            </div>
        </div>
    
        <img class=""stim"" src=./stimuli//pack_shapes_diff/cat_1/diff_4/ex_1_4_3.png></img>
    ","null","stimulus","","","","","","",""
"","","","","","html-keyboard-response","148","187906","0.0-7.18-2.18","5f7a102a52556c6551a9173e","655cb802637e0dbe2941dbc4","655cb8d4ab39770cf4c4b6d0","null","
        <div style=""text-align: center; position: fixed; top: 5vh; left: 40vw;"">
            <div style=""margin:0 auto; width: 20vw; top: 8vh; font-size: 2vw""> 
            <font color=""green""> Bonus : $10 </font>
            </div>
        </div>
    ","null","","","","","","","",""
"","","","","","html-keyboard-response","149","188240","0.0-7.18-3.18","5f7a102a52556c6551a9173e","655cb802637e0dbe2941dbc4","655cb8d4ab39770cf4c4b6d0","333","./stimuli//pack_shapes_diff/cat_1/diff_4/ex_1_4_3.png","arrowleft","response","ArrowLeft","3","1","4","test","true",""
"","","","","","html-keyboard-response","150","189742","0.0-7.18-4.18","5f7a102a52556c6551a9173e","655cb802637e0dbe2941dbc4","655cb8d4ab39770cf4c4b6d0","null","<p> <font color=""green"" size=""5vw""> Correct category! </font></p>","null","feedback","","","","","","","10"
"","","","","","html-keyboard-response","151","190461","0.0-7.19-0.19","5f7a102a52556c6551a9173e","655cb802637e0dbe2941dbc4","655cb8d4ab39770cf4c4b6d0","719","
            
        <div style=""text-align: center; position: fixed; top: 5vh; left: 40vw;"">
            <div style=""margin:0 auto; width: 20vw; top: 8vh; font-size: 2vw""> 
            <font color=""green""> Bonus : $10 </font>
            </div>
        </div>
    
            <div> Please press any key to continue to the next image.</div>
        ","arrowleft","ITI","","","","","","",""
"","","","","","html-keyboard-response","152","191064","0.0-7.19-1.19","5f7a102a52556c6551a9173e","655cb802637e0dbe2941dbc4","655cb8d4ab39770cf4c4b6d0","null","
        
        <div style=""text-align: center; position: fixed; top: 5vh; left: 40vw;"">
            <div style=""margin:0 auto; width: 20vw; top: 8vh; font-size: 2vw""> 
            <font color=""green""> Bonus : $10 </font>
            </div>
        </div>
    
        <img class=""stim"" src=./stimuli//pack_shapes_diff/cat_1/diff_4/ex_1_4_5.png></img>
    ","null","stimulus","","","","","","",""
"","","","","","html-keyboard-response","153","192066","0.0-7.19-2.19","5f7a102a52556c6551a9173e","655cb802637e0dbe2941dbc4","655cb8d4ab39770cf4c4b6d0","null","
        <div style=""text-align: center; position: fixed; top: 5vh; left: 40vw;"">
            <div style=""margin:0 auto; width: 20vw; top: 8vh; font-size: 2vw""> 
            <font color=""green""> Bonus : $10 </font>
            </div>
        </div>
    ","null","","","","","","","",""
"","","","","","html-keyboard-response","154","192643","0.0-7.19-3.19","5f7a102a52556c6551a9173e","655cb802637e0dbe2941dbc4","655cb8d4ab39770cf4c4b6d0","577","./stimuli//pack_shapes_diff/cat_1/diff_4/ex_1_4_5.png","arrowleft","response","ArrowLeft","5","1","4","test","true",""
"","","","","","html-keyboard-response","155","194145","0.0-7.19-4.19","5f7a102a52556c6551a9173e","655cb802637e0dbe2941dbc4","655cb8d4ab39770cf4c4b6d0","null","<p> <font color=""green"" size=""5vw""> Correct category! </font></p>","null","feedback","","","","","","","10"
"","","","","","html-keyboard-response","156","194762","0.0-7.20-0.20","5f7a102a52556c6551a9173e","655cb802637e0dbe2941dbc4","655cb8d4ab39770cf4c4b6d0","616","
            
        <div style=""text-align: center; position: fixed; top: 5vh; left: 40vw;"">
            <div style=""margin:0 auto; width: 20vw; top: 8vh; font-size: 2vw""> 
            <font color=""green""> Bonus : $10 </font>
            </div>
        </div>
    
            <div> Please press any key to continue to the next image.</div>
        ","arrowleft","ITI","","","","","","",""
"","","","","","html-keyboard-response","157","195365","0.0-7.20-1.20","5f7a102a52556c6551a9173e","655cb802637e0dbe2941dbc4","655cb8d4ab39770cf4c4b6d0","null","
        
        <div style=""text-align: center; position: fixed; top: 5vh; left: 40vw;"">
            <div style=""margin:0 auto; width: 20vw; top: 8vh; font-size: 2vw""> 
            <font color=""green""> Bonus : $10 </font>
            </div>
        </div>
    
        <img class=""stim"" src=./stimuli//pack_shapes_diff/cat_1/diff_5/ex_1_5_8.png></img>
    ","null","stimulus","","","","","","",""
"","","","","","html-keyboard-response","158","196367","0.0-7.20-2.20","5f7a102a52556c6551a9173e","655cb802637e0dbe2941dbc4","655cb8d4ab39770cf4c4b6d0","null","
        <div style=""text-align: center; position: fixed; top: 5vh; left: 40vw;"">
            <div style=""margin:0 auto; width: 20vw; top: 8vh; font-size: 2vw""> 
            <font color=""green""> Bonus : $10 </font>
            </div>
        </div>
    ","null","","","","","","","",""
"","","","","","html-keyboard-response","159","196787","0.0-7.20-3.20","5f7a102a52556c6551a9173e","655cb802637e0dbe2941dbc4","655cb8d4ab39770cf4c4b6d0","418","./stimuli//pack_shapes_diff/cat_1/diff_5/ex_1_5_8.png","arrowleft","response","ArrowLeft","8","1","5","test","true",""
"","","","","","html-keyboard-response","160","198289","0.0-7.20-4.20","5f7a102a52556c6551a9173e","655cb802637e0dbe2941dbc4","655cb8d4ab39770cf4c4b6d0","null","<p> <font color=""green"" size=""5vw""> Correct category! </font></p>","null","feedback","","","","","","","10"
"","","","","","html-keyboard-response","161","199080","0.0-7.21-0.21","5f7a102a52556c6551a9173e","655cb802637e0dbe2941dbc4","655cb8d4ab39770cf4c4b6d0","790","
            
        <div style=""text-align: center; position: fixed; top: 5vh; left: 40vw;"">
            <div style=""margin:0 auto; width: 20vw; top: 8vh; font-size: 2vw""> 
            <font color=""green""> Bonus : $10 </font>
            </div>
        </div>
    
            <div> Please press any key to continue to the next image.</div>
        ","arrowleft","ITI","","","","","","",""
"","","","","","html-keyboard-response","162","199683","0.0-7.21-1.21","5f7a102a52556c6551a9173e","655cb802637e0dbe2941dbc4","655cb8d4ab39770cf4c4b6d0","null","
        
        <div style=""text-align: center; position: fixed; top: 5vh; left: 40vw;"">
            <div style=""margin:0 auto; width: 20vw; top: 8vh; font-size: 2vw""> 
            <font color=""green""> Bonus : $10 </font>
            </div>
        </div>
    
        <img class=""stim"" src=./stimuli//pack_shapes_diff/cat_1/diff_5/ex_1_5_11.png></img>
    ","null","stimulus","","","","","","",""
"","","","","","html-keyboard-response","163","200684","0.0-7.21-2.21","5f7a102a52556c6551a9173e","655cb802637e0dbe2941dbc4","655cb8d4ab39770cf4c4b6d0","null","
        <div style=""text-align: center; position: fixed; top: 5vh; left: 40vw;"">
            <div style=""margin:0 auto; width: 20vw; top: 8vh; font-size: 2vw""> 
            <font color=""green""> Bonus : $10 </font>
            </div>
        </div>
    ","null","","","","","","","",""
"","","","","","html-keyboard-response","164","201130","0.0-7.21-3.21","5f7a102a52556c6551a9173e","655cb802637e0dbe2941dbc4","655cb8d4ab39770cf4c4b6d0","445","./stimuli//pack_shapes_diff/cat_1/diff_5/ex_1_5_11.png","arrowright","response","ArrowLeft","11","1","5","test","false",""
"","","","","","html-keyboard-response","165","202632","0.0-7.21-4.21","5f7a102a52556c6551a9173e","655cb802637e0dbe2941dbc4","655cb8d4ab39770cf4c4b6d0","null","<p> <font size=""4vw""> Wrong category! </font> <br> <br> <font color=""red"" size=""7vw""> - $0.05 points </font> </p>","null","feedback","","","","","","","9.95"
"","","","","","html-keyboard-response","166","203262","0.0-7.22-0.22","5f7a102a52556c6551a9173e","655cb802637e0dbe2941dbc4","655cb8d4ab39770cf4c4b6d0","629","
            
        <div style=""text-align: center; position: fixed; top: 5vh; left: 40vw;"">
            <div style=""margin:0 auto; width: 20vw; top: 8vh; font-size: 2vw""> 
            <font color=""green""> Bonus : $9.95 </font>
            </div>
        </div>
    
            <div> Please press any key to continue to the next image.</div>
        ","arrowleft","ITI","","","","","","",""
"","","","","","html-keyboard-response","167","203865","0.0-7.22-1.22","5f7a102a52556c6551a9173e","655cb802637e0dbe2941dbc4","655cb8d4ab39770cf4c4b6d0","null","
        
        <div style=""text-align: center; position: fixed; top: 5vh; left: 40vw;"">
            <div style=""margin:0 auto; width: 20vw; top: 8vh; font-size: 2vw""> 
            <font color=""green""> Bonus : $9.95 </font>
            </div>
        </div>
    
        <img class=""stim"" src=./stimuli//pack_shapes_diff/cat_1/diff_5/ex_1_5_6.png></img>
    ","null","stimulus","","","","","","",""
"","","","","","html-keyboard-response","168","204867","0.0-7.22-2.22","5f7a102a52556c6551a9173e","655cb802637e0dbe2941dbc4","655cb8d4ab39770cf4c4b6d0","null","
        <div style=""text-align: center; position: fixed; top: 5vh; left: 40vw;"">
            <div style=""margin:0 auto; width: 20vw; top: 8vh; font-size: 2vw""> 
            <font color=""green""> Bonus : $9.95 </font>
            </div>
        </div>
    ","null","","","","","","","",""
"","","","","","html-keyboard-response","169","204960","0.0-7.22-3.22","5f7a102a52556c6551a9173e","655cb802637e0dbe2941dbc4","655cb8d4ab39770cf4c4b6d0","92","./stimuli//pack_shapes_diff/cat_1/diff_5/ex_1_5_6.png","arrowleft","response","ArrowLeft","6","1","5","test","true",""
"","","","","","html-keyboard-response","170","206462","0.0-7.22-4.22","5f7a102a52556c6551a9173e","655cb802637e0dbe2941dbc4","655cb8d4ab39770cf4c4b6d0","null","<p> <font color=""green"" size=""5vw""> Correct category! </font></p>","null","feedback","","","","","","","9.95"
"","","","","","html-keyboard-response","171","207315","0.0-7.23-0.23","5f7a102a52556c6551a9173e","655cb802637e0dbe2941dbc4","655cb8d4ab39770cf4c4b6d0","852","
            
        <div style=""text-align: center; position: fixed; top: 5vh; left: 40vw;"">
            <div style=""margin:0 auto; width: 20vw; top: 8vh; font-size: 2vw""> 
            <font color=""green""> Bonus : $9.95 </font>
            </div>
        </div>
    
            <div> Please press any key to continue to the next image.</div>
        ","arrowleft","ITI","","","","","","",""
"","","","","","html-keyboard-response","172","207918","0.0-7.23-1.23","5f7a102a52556c6551a9173e","655cb802637e0dbe2941dbc4","655cb8d4ab39770cf4c4b6d0","null","
        
        <div style=""text-align: center; position: fixed; top: 5vh; left: 40vw;"">
            <div style=""margin:0 auto; width: 20vw; top: 8vh; font-size: 2vw""> 
            <font color=""green""> Bonus : $9.95 </font>
            </div>
        </div>
    
        <img class=""stim"" src=./stimuli//pack_shapes_diff/cat_2/diff_5/ex_2_5_4.png></img>
    ","null","stimulus","","","","","","",""
"","","","","","html-keyboard-response","173","208920","0.0-7.23-2.23","5f7a102a52556c6551a9173e","655cb802637e0dbe2941dbc4","655cb8d4ab39770cf4c4b6d0","null","
        <div style=""text-align: center; position: fixed; top: 5vh; left: 40vw;"">
            <div style=""margin:0 auto; width: 20vw; top: 8vh; font-size: 2vw""> 
            <font color=""green""> Bonus : $9.95 </font>
            </div>
        </div>
    ","null","","","","","","","",""
"","","","","","html-keyboard-response","174","209291","0.0-7.23-3.23","5f7a102a52556c6551a9173e","655cb802637e0dbe2941dbc4","655cb8d4ab39770cf4c4b6d0","370","./stimuli//pack_shapes_diff/cat_2/diff_5/ex_2_5_4.png","arrowleft","response","ArrowRight","4","2","5","test","false",""
"","","","","","html-keyboard-response","175","210793","0.0-7.23-4.23","5f7a102a52556c6551a9173e","655cb802637e0dbe2941dbc4","655cb8d4ab39770cf4c4b6d0","null","<p> <font size=""4vw""> Wrong category! </font> <br> <br> <font color=""red"" size=""7vw""> - $0.05 points </font> </p>","null","feedback","","","","","","","9.9"
"","","","","","html-keyboard-response","176","211427","0.0-7.24-0.24","5f7a102a52556c6551a9173e","655cb802637e0dbe2941dbc4","655cb8d4ab39770cf4c4b6d0","633","
            
        <div style=""text-align: center; position: fixed; top: 5vh; left: 40vw;"">
            <div style=""margin:0 auto; width: 20vw; top: 8vh; font-size: 2vw""> 
            <font color=""green""> Bonus : $9.9 </font>
            </div>
        </div>
    
            <div> Please press any key to continue to the next image.</div>
        ","arrowleft","ITI","","","","","","",""
"","","","","","html-keyboard-response","177","212030","0.0-7.24-1.24","5f7a102a52556c6551a9173e","655cb802637e0dbe2941dbc4","655cb8d4ab39770cf4c4b6d0","null","
        
        <div style=""text-align: center; position: fixed; top: 5vh; left: 40vw;"">
            <div style=""margin:0 auto; width: 20vw; top: 8vh; font-size: 2vw""> 
            <font color=""green""> Bonus : $9.9 </font>
            </div>
        </div>
    
        <img class=""stim"" src=./stimuli//pack_shapes_diff/cat_1/diff_5/ex_1_5_15.png></img>
    ","null","stimulus","","","","","","",""
"","","","","","html-keyboard-response","178","213031","0.0-7.24-2.24","5f7a102a52556c6551a9173e","655cb802637e0dbe2941dbc4","655cb8d4ab39770cf4c4b6d0","null","
        <div style=""text-align: center; position: fixed; top: 5vh; left: 40vw;"">
            <div style=""margin:0 auto; width: 20vw; top: 8vh; font-size: 2vw""> 
            <font color=""green""> Bonus : $9.9 </font>
            </div>
        </div>
    ","null","","","","","","","",""
"","","","","","html-keyboard-response","179","213358","0.0-7.24-3.24","5f7a102a52556c6551a9173e","655cb802637e0dbe2941dbc4","655cb8d4ab39770cf4c4b6d0","327","./stimuli//pack_shapes_diff/cat_1/diff_5/ex_1_5_15.png","arrowright","response","ArrowLeft","15","1","5","test","false",""
"","","","","","html-keyboard-response","180","214860","0.0-7.24-4.24","5f7a102a52556c6551a9173e","655cb802637e0dbe2941dbc4","655cb8d4ab39770cf4c4b6d0","null","<p> <font size=""4vw""> Wrong category! </font> <br> <br> <font color=""red"" size=""7vw""> - $0.05 points </font> </p>","null","feedback","","","","","","","9.85"
"","","","","","html-keyboard-response","181","215720","0.0-7.25-0.25","5f7a102a52556c6551a9173e","655cb802637e0dbe2941dbc4","655cb8d4ab39770cf4c4b6d0","859","
            
        <div style=""text-align: center; position: fixed; top: 5vh; left: 40vw;"">
            <div style=""margin:0 auto; width: 20vw; top: 8vh; font-size: 2vw""> 
            <font color=""green""> Bonus : $9.85 </font>
            </div>
        </div>
    
            <div> Please press any key to continue to the next image.</div>
        ","arrowleft","ITI","","","","","","",""
"","","","","","html-keyboard-response","182","216323","0.0-7.25-1.25","5f7a102a52556c6551a9173e","655cb802637e0dbe2941dbc4","655cb8d4ab39770cf4c4b6d0","null","
        
        <div style=""text-align: center; position: fixed; top: 5vh; left: 40vw;"">
            <div style=""margin:0 auto; width: 20vw; top: 8vh; font-size: 2vw""> 
            <font color=""green""> Bonus : $9.85 </font>
            </div>
        </div>
    
        <img class=""stim"" src=./stimuli//pack_shapes_diff/cat_1/diff_4/ex_1_4_6.png></img>
    ","null","stimulus","","","","","","",""
"","","","","","html-keyboard-response","183","217325","0.0-7.25-2.25","5f7a102a52556c6551a9173e","655cb802637e0dbe2941dbc4","655cb8d4ab39770cf4c4b6d0","null","
        <div style=""text-align: center; position: fixed; top: 5vh; left: 40vw;"">
            <div style=""margin:0 auto; width: 20vw; top: 8vh; font-size: 2vw""> 
            <font color=""green""> Bonus : $9.85 </font>
            </div>
        </div>
    ","null","","","","","","","",""
"","","","","","html-keyboard-response","184","217638","0.0-7.25-3.25","5f7a102a52556c6551a9173e","655cb802637e0dbe2941dbc4","655cb8d4ab39770cf4c4b6d0","312","./stimuli//pack_shapes_diff/cat_1/diff_4/ex_1_4_6.png","arrowleft","response","ArrowLeft","6","1","4","test","true",""
"","","","","","html-keyboard-response","185","219140","0.0-7.25-4.25","5f7a102a52556c6551a9173e","655cb802637e0dbe2941dbc4","655cb8d4ab39770cf4c4b6d0","null","<p> <font color=""green"" size=""5vw""> Correct category! </font></p>","null","feedback","","","","","","","9.85"
"","","","","","html-keyboard-response","186","220024","0.0-7.26-0.26","5f7a102a52556c6551a9173e","655cb802637e0dbe2941dbc4","655cb8d4ab39770cf4c4b6d0","883","
            
        <div style=""text-align: center; position: fixed; top: 5vh; left: 40vw;"">
            <div style=""margin:0 auto; width: 20vw; top: 8vh; font-size: 2vw""> 
            <font color=""green""> Bonus : $9.85 </font>
            </div>
        </div>
    
            <div> Please press any key to continue to the next image.</div>
        ","arrowleft","ITI","","","","","","",""
"","","","","","html-keyboard-response","187","220626","0.0-7.26-1.26","5f7a102a52556c6551a9173e","655cb802637e0dbe2941dbc4","655cb8d4ab39770cf4c4b6d0","null","
        
        <div style=""text-align: center; position: fixed; top: 5vh; left: 40vw;"">
            <div style=""margin:0 auto; width: 20vw; top: 8vh; font-size: 2vw""> 
            <font color=""green""> Bonus : $9.85 </font>
            </div>
        </div>
    
        <img class=""stim"" src=./stimuli//pack_shapes_diff/cat_2/diff_4/ex_2_4_10.png></img>
    ","null","stimulus","","","","","","",""
"","","","","","html-keyboard-response","188","221628","0.0-7.26-2.26","5f7a102a52556c6551a9173e","655cb802637e0dbe2941dbc4","655cb8d4ab39770cf4c4b6d0","null","
        <div style=""text-align: center; position: fixed; top: 5vh; left: 40vw;"">
            <div style=""margin:0 auto; width: 20vw; top: 8vh; font-size: 2vw""> 
            <font color=""green""> Bonus : $9.85 </font>
            </div>
        </div>
    ","null","","","","","","","",""
"","","","","","html-keyboard-response","189","222066","0.0-7.26-3.26","5f7a102a52556c6551a9173e","655cb802637e0dbe2941dbc4","655cb8d4ab39770cf4c4b6d0","437","./stimuli//pack_shapes_diff/cat_2/diff_4/ex_2_4_10.png","arrowright","response","ArrowRight","10","2","4","test","true",""
"","","","","","html-keyboard-response","190","223568","0.0-7.26-4.26","5f7a102a52556c6551a9173e","655cb802637e0dbe2941dbc4","655cb8d4ab39770cf4c4b6d0","null","<p> <font color=""green"" size=""5vw""> Correct category! </font></p>","null","feedback","","","","","","","9.85"
"","","","","","html-keyboard-response","191","224471","0.0-7.27-0.27","5f7a102a52556c6551a9173e","655cb802637e0dbe2941dbc4","655cb8d4ab39770cf4c4b6d0","901","
            
        <div style=""text-align: center; position: fixed; top: 5vh; left: 40vw;"">
            <div style=""margin:0 auto; width: 20vw; top: 8vh; font-size: 2vw""> 
            <font color=""green""> Bonus : $9.85 </font>
            </div>
        </div>
    
            <div> Please press any key to continue to the next image.</div>
        ","arrowleft","ITI","","","","","","",""
"","","","","","html-keyboard-response","192","225074","0.0-7.27-1.27","5f7a102a52556c6551a9173e","655cb802637e0dbe2941dbc4","655cb8d4ab39770cf4c4b6d0","null","
        
        <div style=""text-align: center; position: fixed; top: 5vh; left: 40vw;"">
            <div style=""margin:0 auto; width: 20vw; top: 8vh; font-size: 2vw""> 
            <font color=""green""> Bonus : $9.85 </font>
            </div>
        </div>
    
        <img class=""stim"" src=./stimuli//pack_shapes_diff/cat_1/diff_4/ex_1_4_2.png></img>
    ","null","stimulus","","","","","","",""
"","","","","","html-keyboard-response","193","226076","0.0-7.27-2.27","5f7a102a52556c6551a9173e","655cb802637e0dbe2941dbc4","655cb8d4ab39770cf4c4b6d0","null","
        <div style=""text-align: center; position: fixed; top: 5vh; left: 40vw;"">
            <div style=""margin:0 auto; width: 20vw; top: 8vh; font-size: 2vw""> 
            <font color=""green""> Bonus : $9.85 </font>
            </div>
        </div>
    ","null","","","","","","","",""
"","","","","","html-keyboard-response","194","226436","0.0-7.27-3.27","5f7a102a52556c6551a9173e","655cb802637e0dbe2941dbc4","655cb8d4ab39770cf4c4b6d0","360","./stimuli//pack_shapes_diff/cat_1/diff_4/ex_1_4_2.png","arrowleft","response","ArrowLeft","2","1","4","test","true",""
"","","","","","html-keyboard-response","195","227938","0.0-7.27-4.27","5f7a102a52556c6551a9173e","655cb802637e0dbe2941dbc4","655cb8d4ab39770cf4c4b6d0","null","<p> <font color=""green"" size=""5vw""> Correct category! </font></p>","null","feedback","","","","","","","9.85"
"","","","","","html-keyboard-response","196","228942","0.0-7.28-0.28","5f7a102a52556c6551a9173e","655cb802637e0dbe2941dbc4","655cb8d4ab39770cf4c4b6d0","1002","
            
        <div style=""text-align: center; position: fixed; top: 5vh; left: 40vw;"">
            <div style=""margin:0 auto; width: 20vw; top: 8vh; font-size: 2vw""> 
            <font color=""green""> Bonus : $9.85 </font>
            </div>
        </div>
    
            <div> Please press any key to continue to the next image.</div>
        ","arrowleft","ITI","","","","","","",""
"","","","","","html-keyboard-response","197","229545","0.0-7.28-1.28","5f7a102a52556c6551a9173e","655cb802637e0dbe2941dbc4","655cb8d4ab39770cf4c4b6d0","null","
        
        <div style=""text-align: center; position: fixed; top: 5vh; left: 40vw;"">
            <div style=""margin:0 auto; width: 20vw; top: 8vh; font-size: 2vw""> 
            <font color=""green""> Bonus : $9.85 </font>
            </div>
        </div>
    
        <img class=""stim"" src=./stimuli//pack_shapes_diff/cat_1/diff_4/ex_1_4_2.png></img>
    ","null","stimulus","","","","","","",""
"","","","","","html-keyboard-response","198","230547","0.0-7.28-2.28","5f7a102a52556c6551a9173e","655cb802637e0dbe2941dbc4","655cb8d4ab39770cf4c4b6d0","null","
        <div style=""text-align: center; position: fixed; top: 5vh; left: 40vw;"">
            <div style=""margin:0 auto; width: 20vw; top: 8vh; font-size: 2vw""> 
            <font color=""green""> Bonus : $9.85 </font>
            </div>
        </div>
    ","null","","","","","","","",""
"","","","","","html-keyboard-response","199","231025","0.0-7.28-3.28","5f7a102a52556c6551a9173e","655cb802637e0dbe2941dbc4","655cb8d4ab39770cf4c4b6d0","477","./stimuli//pack_shapes_diff/cat_1/diff_4/ex_1_4_2.png","arrowleft","response","ArrowLeft","2","1","4","test","true",""
"","","","","","html-keyboard-response","200","232527","0.0-7.28-4.28","5f7a102a52556c6551a9173e","655cb802637e0dbe2941dbc4","655cb8d4ab39770cf4c4b6d0","null","<p> <font color=""green"" size=""5vw""> Correct category! </font></p>","null","feedback","","","","","","","9.85"
"","","","","","html-keyboard-response","201","233360","0.0-7.29-0.29","5f7a102a52556c6551a9173e","655cb802637e0dbe2941dbc4","655cb8d4ab39770cf4c4b6d0","832","
            
        <div style=""text-align: center; position: fixed; top: 5vh; left: 40vw;"">
            <div style=""margin:0 auto; width: 20vw; top: 8vh; font-size: 2vw""> 
            <font color=""green""> Bonus : $9.85 </font>
            </div>
        </div>
    
            <div> Please press any key to continue to the next image.</div>
        ","arrowleft","ITI","","","","","","",""
"","","","","","html-keyboard-response","202","233963","0.0-7.29-1.29","5f7a102a52556c6551a9173e","655cb802637e0dbe2941dbc4","655cb8d4ab39770cf4c4b6d0","null","
        
        <div style=""text-align: center; position: fixed; top: 5vh; left: 40vw;"">
            <div style=""margin:0 auto; width: 20vw; top: 8vh; font-size: 2vw""> 
            <font color=""green""> Bonus : $9.85 </font>
            </div>
        </div>
    
        <img class=""stim"" src=./stimuli//pack_shapes_diff/cat_2/diff_4/ex_2_4_11.png></img>
    ","null","stimulus","","","","","","",""
"","","","","","html-keyboard-response","203","234965","0.0-7.29-2.29","5f7a102a52556c6551a9173e","655cb802637e0dbe2941dbc4","655cb8d4ab39770cf4c4b6d0","null","
        <div style=""text-align: center; position: fixed; top: 5vh; left: 40vw;"">
            <div style=""margin:0 auto; width: 20vw; top: 8vh; font-size: 2vw""> 
            <font color=""green""> Bonus : $9.85 </font>
            </div>
        </div>
    ","null","","","","","","","",""
"","","","","","html-keyboard-response","204","235449","0.0-7.29-3.29","5f7a102a52556c6551a9173e","655cb802637e0dbe2941dbc4","655cb8d4ab39770cf4c4b6d0","483","./stimuli//pack_shapes_diff/cat_2/diff_4/ex_2_4_11.png","arrowright","response","ArrowRight","11","2","4","test","true",""
"","","","","","html-keyboard-response","205","236950","0.0-7.29-4.29","5f7a102a52556c6551a9173e","655cb802637e0dbe2941dbc4","655cb8d4ab39770cf4c4b6d0","null","<p> <font color=""green"" size=""5vw""> Correct category! </font></p>","null","feedback","","","","","","","9.85"
"","","","","","html-keyboard-response","206","237524","0.0-7.30-0.30","5f7a102a52556c6551a9173e","655cb802637e0dbe2941dbc4","655cb8d4ab39770cf4c4b6d0","572","
            
        <div style=""text-align: center; position: fixed; top: 5vh; left: 40vw;"">
            <div style=""margin:0 auto; width: 20vw; top: 8vh; font-size: 2vw""> 
            <font color=""green""> Bonus : $9.85 </font>
            </div>
        </div>
    
            <div> Please press any key to continue to the next image.</div>
        ","arrowleft","ITI","","","","","","",""
"","","","","","html-keyboard-response","207","238127","0.0-7.30-1.30","5f7a102a52556c6551a9173e","655cb802637e0dbe2941dbc4","655cb8d4ab39770cf4c4b6d0","null","
        
        <div style=""text-align: center; position: fixed; top: 5vh; left: 40vw;"">
            <div style=""margin:0 auto; width: 20vw; top: 8vh; font-size: 2vw""> 
            <font color=""green""> Bonus : $9.85 </font>
            </div>
        </div>
    
        <img class=""stim"" src=./stimuli//pack_shapes_diff/cat_1/diff_5/ex_1_5_1.png></img>
    ","null","stimulus","","","","","","",""
"","","","","","html-keyboard-response","208","239129","0.0-7.30-2.30","5f7a102a52556c6551a9173e","655cb802637e0dbe2941dbc4","655cb8d4ab39770cf4c4b6d0","null","
        <div style=""text-align: center; position: fixed; top: 5vh; left: 40vw;"">
            <div style=""margin:0 auto; width: 20vw; top: 8vh; font-size: 2vw""> 
            <font color=""green""> Bonus : $9.85 </font>
            </div>
        </div>
    ","null","","","","","","","",""
"","","","","","html-keyboard-response","209","239464","0.0-7.30-3.30","5f7a102a52556c6551a9173e","655cb802637e0dbe2941dbc4","655cb8d4ab39770cf4c4b6d0","334","./stimuli//pack_shapes_diff/cat_1/diff_5/ex_1_5_1.png","arrowleft","response","ArrowLeft","1","1","5","test","true",""
"","","","","","html-keyboard-response","210","240965","0.0-7.30-4.30","5f7a102a52556c6551a9173e","655cb802637e0dbe2941dbc4","655cb8d4ab39770cf4c4b6d0","null","<p> <font color=""green"" size=""5vw""> Correct category! </font></p>","null","feedback","","","","","","","9.85"
"","","","","","html-keyboard-response","211","241811","0.0-7.31-0.31","5f7a102a52556c6551a9173e","655cb802637e0dbe2941dbc4","655cb8d4ab39770cf4c4b6d0","845","
            
        <div style=""text-align: center; position: fixed; top: 5vh; left: 40vw;"">
            <div style=""margin:0 auto; width: 20vw; top: 8vh; font-size: 2vw""> 
            <font color=""green""> Bonus : $9.85 </font>
            </div>
        </div>
    
            <div> Please press any key to continue to the next image.</div>
        ","arrowleft","ITI","","","","","","",""
"","","","","","html-keyboard-response","212","242414","0.0-7.31-1.31","5f7a102a52556c6551a9173e","655cb802637e0dbe2941dbc4","655cb8d4ab39770cf4c4b6d0","null","
        
        <div style=""text-align: center; position: fixed; top: 5vh; left: 40vw;"">
            <div style=""margin:0 auto; width: 20vw; top: 8vh; font-size: 2vw""> 
            <font color=""green""> Bonus : $9.85 </font>
            </div>
        </div>
    
        <img class=""stim"" src=./stimuli//pack_shapes_diff/cat_2/diff_5/ex_2_5_14.png></img>
    ","null","stimulus","","","","","","",""
"","","","","","html-keyboard-response","213","243415","0.0-7.31-2.31","5f7a102a52556c6551a9173e","655cb802637e0dbe2941dbc4","655cb8d4ab39770cf4c4b6d0","null","
        <div style=""text-align: center; position: fixed; top: 5vh; left: 40vw;"">
            <div style=""margin:0 auto; width: 20vw; top: 8vh; font-size: 2vw""> 
            <font color=""green""> Bonus : $9.85 </font>
            </div>
        </div>
    ","null","","","","","","","",""
"","","","","","html-keyboard-response","214","243780","0.0-7.31-3.31","5f7a102a52556c6551a9173e","655cb802637e0dbe2941dbc4","655cb8d4ab39770cf4c4b6d0","364","./stimuli//pack_shapes_diff/cat_2/diff_5/ex_2_5_14.png","arrowleft","response","ArrowRight","14","2","5","test","false",""
"","","","","","html-keyboard-response","215","245282","0.0-7.31-4.31","5f7a102a52556c6551a9173e","655cb802637e0dbe2941dbc4","655cb8d4ab39770cf4c4b6d0","null","<p> <font size=""4vw""> Wrong category! </font> <br> <br> <font color=""red"" size=""7vw""> - $0.05 points </font> </p>","null","feedback","","","","","","","9.8"
"","","","","","html-keyboard-response","216","246045","0.0-7.32-0.32","5f7a102a52556c6551a9173e","655cb802637e0dbe2941dbc4","655cb8d4ab39770cf4c4b6d0","762","
            
        <div style=""text-align: center; position: fixed; top: 5vh; left: 40vw;"">
            <div style=""margin:0 auto; width: 20vw; top: 8vh; font-size: 2vw""> 
            <font color=""green""> Bonus : $9.8 </font>
            </div>
        </div>
    
            <div> Please press any key to continue to the next image.</div>
        ","arrowleft","ITI","","","","","","",""
"","","","","","html-keyboard-response","217","246648","0.0-7.32-1.32","5f7a102a52556c6551a9173e","655cb802637e0dbe2941dbc4","655cb8d4ab39770cf4c4b6d0","null","
        
        <div style=""text-align: center; position: fixed; top: 5vh; left: 40vw;"">
            <div style=""margin:0 auto; width: 20vw; top: 8vh; font-size: 2vw""> 
            <font color=""green""> Bonus : $9.8 </font>
            </div>
        </div>
    
        <img class=""stim"" src=./stimuli//pack_shapes_diff/cat_1/diff_5/ex_1_5_16.png></img>
    ","null","stimulus","","","","","","",""
"","","","","","html-keyboard-response","218","247651","0.0-7.32-2.32","5f7a102a52556c6551a9173e","655cb802637e0dbe2941dbc4","655cb8d4ab39770cf4c4b6d0","null","
        <div style=""text-align: center; position: fixed; top: 5vh; left: 40vw;"">
            <div style=""margin:0 auto; width: 20vw; top: 8vh; font-size: 2vw""> 
            <font color=""green""> Bonus : $9.8 </font>
            </div>
        </div>
    ","null","","","","","","","",""
"","","","","","html-keyboard-response","219","248007","0.0-7.32-3.32","5f7a102a52556c6551a9173e","655cb802637e0dbe2941dbc4","655cb8d4ab39770cf4c4b6d0","356","./stimuli//pack_shapes_diff/cat_1/diff_5/ex_1_5_16.png","arrowright","response","ArrowLeft","16","1","5","test","false",""
"","","","","","html-keyboard-response","220","249510","0.0-7.32-4.32","5f7a102a52556c6551a9173e","655cb802637e0dbe2941dbc4","655cb8d4ab39770cf4c4b6d0","null","<p> <font size=""4vw""> Wrong category! </font> <br> <br> <font color=""red"" size=""7vw""> - $0.05 points </font> </p>","null","feedback","","","","","","","9.75"
"","","","","","html-keyboard-response","221","250347","0.0-7.33-0.33","5f7a102a52556c6551a9173e","655cb802637e0dbe2941dbc4","655cb8d4ab39770cf4c4b6d0","837","
            
        <div style=""text-align: center; position: fixed; top: 5vh; left: 40vw;"">
            <div style=""margin:0 auto; width: 20vw; top: 8vh; font-size: 2vw""> 
            <font color=""green""> Bonus : $9.75 </font>
            </div>
        </div>
    
            <div> Please press any key to continue to the next image.</div>
        ","arrowleft","ITI","","","","","","",""
"","","","","","html-keyboard-response","222","250951","0.0-7.33-1.33","5f7a102a52556c6551a9173e","655cb802637e0dbe2941dbc4","655cb8d4ab39770cf4c4b6d0","null","
        
        <div style=""text-align: center; position: fixed; top: 5vh; left: 40vw;"">
            <div style=""margin:0 auto; width: 20vw; top: 8vh; font-size: 2vw""> 
            <font color=""green""> Bonus : $9.75 </font>
            </div>
        </div>
    
        <img class=""stim"" src=./stimuli//pack_shapes_diff/cat_1/diff_5/ex_1_5_15.png></img>
    ","null","stimulus","","","","","","",""
"","","","","","html-keyboard-response","223","251953","0.0-7.33-2.33","5f7a102a52556c6551a9173e","655cb802637e0dbe2941dbc4","655cb8d4ab39770cf4c4b6d0","null","
        <div style=""text-align: center; position: fixed; top: 5vh; left: 40vw;"">
            <div style=""margin:0 auto; width: 20vw; top: 8vh; font-size: 2vw""> 
            <font color=""green""> Bonus : $9.75 </font>
            </div>
        </div>
    ","null","","","","","","","",""
"","","","","","html-keyboard-response","224","252276","0.0-7.33-3.33","5f7a102a52556c6551a9173e","655cb802637e0dbe2941dbc4","655cb8d4ab39770cf4c4b6d0","323","./stimuli//pack_shapes_diff/cat_1/diff_5/ex_1_5_15.png","arrowleft","response","ArrowLeft","15","1","5","test","true",""
"","","","","","html-keyboard-response","225","253779","0.0-7.33-4.33","5f7a102a52556c6551a9173e","655cb802637e0dbe2941dbc4","655cb8d4ab39770cf4c4b6d0","null","<p> <font color=""green"" size=""5vw""> Correct category! </font></p>","null","feedback","","","","","","","9.75"
"","","","","","html-keyboard-response","226","254395","0.0-7.34-0.34","5f7a102a52556c6551a9173e","655cb802637e0dbe2941dbc4","655cb8d4ab39770cf4c4b6d0","616","
            
        <div style=""text-align: center; position: fixed; top: 5vh; left: 40vw;"">
            <div style=""margin:0 auto; width: 20vw; top: 8vh; font-size: 2vw""> 
            <font color=""green""> Bonus : $9.75 </font>
            </div>
        </div>
    
            <div> Please press any key to continue to the next image.</div>
        ","arrowleft","ITI","","","","","","",""
"","","","","","html-keyboard-response","227","254998","0.0-7.34-1.34","5f7a102a52556c6551a9173e","655cb802637e0dbe2941dbc4","655cb8d4ab39770cf4c4b6d0","null","
        
        <div style=""text-align: center; position: fixed; top: 5vh; left: 40vw;"">
            <div style=""margin:0 auto; width: 20vw; top: 8vh; font-size: 2vw""> 
            <font color=""green""> Bonus : $9.75 </font>
            </div>
        </div>
    
        <img class=""stim"" src=./stimuli//pack_shapes_diff/cat_2/diff_5/ex_2_5_14.png></img>
    ","null","stimulus","","","","","","",""
"","","","","","html-keyboard-response","228","256000","0.0-7.34-2.34","5f7a102a52556c6551a9173e","655cb802637e0dbe2941dbc4","655cb8d4ab39770cf4c4b6d0","null","
        <div style=""text-align: center; position: fixed; top: 5vh; left: 40vw;"">
            <div style=""margin:0 auto; width: 20vw; top: 8vh; font-size: 2vw""> 
            <font color=""green""> Bonus : $9.75 </font>
            </div>
        </div>
    ","null","","","","","","","",""
"","","","","","html-keyboard-response","229","256403","0.0-7.34-3.34","5f7a102a52556c6551a9173e","655cb802637e0dbe2941dbc4","655cb8d4ab39770cf4c4b6d0","402","./stimuli//pack_shapes_diff/cat_2/diff_5/ex_2_5_14.png","arrowright","response","ArrowRight","14","2","5","test","true",""
"","","","","","html-keyboard-response","230","257905","0.0-7.34-4.34","5f7a102a52556c6551a9173e","655cb802637e0dbe2941dbc4","655cb8d4ab39770cf4c4b6d0","null","<p> <font color=""green"" size=""5vw""> Correct category! </font></p>","null","feedback","","","","","","","9.75"
"","","","","","html-keyboard-response","231","258489","0.0-7.35-0.35","5f7a102a52556c6551a9173e","655cb802637e0dbe2941dbc4","655cb8d4ab39770cf4c4b6d0","583","
            
        <div style=""text-align: center; position: fixed; top: 5vh; left: 40vw;"">
            <div style=""margin:0 auto; width: 20vw; top: 8vh; font-size: 2vw""> 
            <font color=""green""> Bonus : $9.75 </font>
            </div>
        </div>
    
            <div> Please press any key to continue to the next image.</div>
        ","arrowleft","ITI","","","","","","",""
"","","","","","html-keyboard-response","232","259094","0.0-7.35-1.35","5f7a102a52556c6551a9173e","655cb802637e0dbe2941dbc4","655cb8d4ab39770cf4c4b6d0","null","
        
        <div style=""text-align: center; position: fixed; top: 5vh; left: 40vw;"">
            <div style=""margin:0 auto; width: 20vw; top: 8vh; font-size: 2vw""> 
            <font color=""green""> Bonus : $9.75 </font>
            </div>
        </div>
    
        <img class=""stim"" src=./stimuli//pack_shapes_diff/cat_1/diff_4/ex_1_4_7.png></img>
    ","null","stimulus","","","","","","",""
