"success","timeout","failed_images","failed_audio","failed_video","trial_type","trial_index","time_elapsed","internal_node_id","subject_id","study_id","session_id","rt","stimulus","response","task","correct_response","exemplar_ID","category","difficulty","phase","correct","bonus"
"true","false","[]","[]","[]","preload","0","2","0.0-0.0","6102f8a9d697ea8a10d9234f","655cb802637e0dbe2941dbc4","655cb8d410be4d9ffa657e64","","","","","","","","","","",""
"","","","","","html-keyboard-response","1","4681","0.0-1.0","6102f8a9d697ea8a10d9234f","655cb802637e0dbe2941dbc4","655cb8d410be4d9ffa657e64","4678","Welcome to the Category Learning experiment! Press any key to continue.","arrowup","welcome","","","","","","",""
"","","","","","html-keyboard-response","2","40556","0.0-2.0","6102f8a9d697ea8a10d9234f","655cb802637e0dbe2941dbc4","655cb8d410be4d9ffa657e64","35874","
            <p>You will be shown images of black shapes. Some are category A, some are category B.
            <br>You will not know in advance which category a specific shape belongs to.</p>
            <p>After you see an image, you will be asked to guess its category <b>(left arrow for category A, right arrow for category B)</b></p>
            <p>After you choose, the screen will show you whether you were correct or not.</p>
            <p>Please try to respond as quickly and accurately as possible every time.</p>
            <p>Press any key to continue.</p>
            ","arrowleft","introduction_1","","","","","","",""
"","","","","","html-keyboard-response","3","60031","0.0-3.0","6102f8a9d697ea8a10d9234f","655cb802637e0dbe2941dbc4","655cb8d410be4d9ffa657e64","19467","
              <p><b>You will receive a bonus payment depending on your performance!</b></p>
              <p><b>You start with a $10 bonus and each time you guess a shape's category incorrectly $0.05 will be subtracted from the bonus. <br> After the end of the experiment you will receive the remaining bonus as payment.</b></p>
              <p>Press any key to continue.</p>
              ","arrowright","introduction_1","","","","","","",""
"","","","","","html-keyboard-response","4","70305","0.0-4.0","6102f8a9d697ea8a10d9234f","655cb802637e0dbe2941dbc4","655cb8d410be4d9ffa657e64","10273","
            <p> <b>The first 10 trials are a practice round that will not count towards your bonus payment.</b></p>
            <p> You will be notified when practice finishes and the test begins. </p>
            <p> Press any key to begin the practice round.</p>
            ","arrowleft","introduction_2","","","","","","",""
"","","","","","html-keyboard-response","5","73534","0.0-5.0-0.0","6102f8a9d697ea8a10d9234f","655cb802637e0dbe2941dbc4","655cb8d410be4d9ffa657e64","2983","
            
        <div style=""text-align: center; position: fixed; top: 5vh; left: 40vw;"">
            <div style=""margin:0 auto; width: 20vw; top: 8vh; font-size: 2vw""> 
            <font color=""green""> Bonus : $10 </font>
            </div>
        </div>
    
            <div> Please press any key to continue to the next image.</div>
        ","arrowleft","ITI","","","","","","",""
"","","","","","html-keyboard-response","6","74148","0.0-5.0-1.0","6102f8a9d697ea8a10d9234f","655cb802637e0dbe2941dbc4","655cb8d410be4d9ffa657e64","null","
        
        <div style=""text-align: center; position: fixed; top: 5vh; left: 40vw;"">
            <div style=""margin:0 auto; width: 20vw; top: 8vh; font-size: 2vw""> 
            <font color=""green""> Bonus : $10 </font>
            </div>
        </div>
    
        <img class=""stim"" src=./stimuli//pack_shapes_diff/cat_2/diff_2/ex_2_2_10.png></img>
    ","null","stimulus","","","","","","",""
"","","","","","html-keyboard-response","7","75150","0.0-5.0-2.0","6102f8a9d697ea8a10d9234f","655cb802637e0dbe2941dbc4","655cb8d410be4d9ffa657e64","null","
        <div style=""text-align: center; position: fixed; top: 5vh; left: 40vw;"">
            <div style=""margin:0 auto; width: 20vw; top: 8vh; font-size: 2vw""> 
            <font color=""green""> Bonus : $10 </font>
            </div>
        </div>
    ","null","","","","","","","",""
"","","","","","html-keyboard-response","8","76158","0.0-5.0-3.0","6102f8a9d697ea8a10d9234f","655cb802637e0dbe2941dbc4","655cb8d410be4d9ffa657e64","1007","./stimuli//pack_shapes_diff/cat_2/diff_2/ex_2_2_10.png","arrowleft","response","ArrowRight","10","2","2","train","false",""
"","","","","","html-keyboard-response","9","77661","0.0-5.0-4.0","6102f8a9d697ea8a10d9234f","655cb802637e0dbe2941dbc4","655cb8d410be4d9ffa657e64","null","<p> <font color=""red"" size=""5vw""> Wrong category! </font> </p>","null","feedback","","","","","","","10"
"","","","","","html-keyboard-response","10","81392","0.0-5.0-0.1","6102f8a9d697ea8a10d9234f","655cb802637e0dbe2941dbc4","655cb8d410be4d9ffa657e64","3730","
            
        <div style=""text-align: center; position: fixed; top: 5vh; left: 40vw;"">
            <div style=""margin:0 auto; width: 20vw; top: 8vh; font-size: 2vw""> 
            <font color=""green""> Bonus : $10 </font>
            </div>
        </div>
    
            <div> Please press any key to continue to the next image.</div>
        ","arrowright","ITI","","","","","","",""
"","","","","","html-keyboard-response","11","81994","0.0-5.0-1.1","6102f8a9d697ea8a10d9234f","655cb802637e0dbe2941dbc4","655cb8d410be4d9ffa657e64","null","
        
        <div style=""text-align: center; position: fixed; top: 5vh; left: 40vw;"">
            <div style=""margin:0 auto; width: 20vw; top: 8vh; font-size: 2vw""> 
            <font color=""green""> Bonus : $10 </font>
            </div>
        </div>
    
        <img class=""stim"" src=./stimuli//pack_shapes_diff/cat_1/diff_2/ex_1_2_2.png></img>
    ","null","stimulus","","","","","","",""
"","","","","","html-keyboard-response","12","83007","0.0-5.0-2.1","6102f8a9d697ea8a10d9234f","655cb802637e0dbe2941dbc4","655cb8d410be4d9ffa657e64","null","
        <div style=""text-align: center; position: fixed; top: 5vh; left: 40vw;"">
            <div style=""margin:0 auto; width: 20vw; top: 8vh; font-size: 2vw""> 
            <font color=""green""> Bonus : $10 </font>
            </div>
        </div>
    ","null","","","","","","","",""
"","","","","","html-keyboard-response","13","83967","0.0-5.0-3.1","6102f8a9d697ea8a10d9234f","655cb802637e0dbe2941dbc4","655cb8d410be4d9ffa657e64","960","./stimuli//pack_shapes_diff/cat_1/diff_2/ex_1_2_2.png","arrowright","response","ArrowLeft","2","1","2","train","false",""
"","","","","","html-keyboard-response","14","85480","0.0-5.0-4.1","6102f8a9d697ea8a10d9234f","655cb802637e0dbe2941dbc4","655cb8d410be4d9ffa657e64","null","<p> <font color=""red"" size=""5vw""> Wrong category! </font> </p>","null","feedback","","","","","","","10"
"","","","","","html-keyboard-response","15","86736","0.0-5.0-0.2","6102f8a9d697ea8a10d9234f","655cb802637e0dbe2941dbc4","655cb8d410be4d9ffa657e64","1255","
            
        <div style=""text-align: center; position: fixed; top: 5vh; left: 40vw;"">
            <div style=""margin:0 auto; width: 20vw; top: 8vh; font-size: 2vw""> 
            <font color=""green""> Bonus : $10 </font>
            </div>
        </div>
    
            <div> Please press any key to continue to the next image.</div>
        ","arrowright","ITI","","","","","","",""
"","","","","","html-keyboard-response","16","87352","0.0-5.0-1.2","6102f8a9d697ea8a10d9234f","655cb802637e0dbe2941dbc4","655cb8d410be4d9ffa657e64","null","
        
        <div style=""text-align: center; position: fixed; top: 5vh; left: 40vw;"">
            <div style=""margin:0 auto; width: 20vw; top: 8vh; font-size: 2vw""> 
            <font color=""green""> Bonus : $10 </font>
            </div>
        </div>
    
        <img class=""stim"" src=./stimuli//pack_shapes_diff/cat_1/diff_1/ex_1_1_3.png></img>
    ","null","stimulus","","","","","","",""
"","","","","","html-keyboard-response","17","88364","0.0-5.0-2.2","6102f8a9d697ea8a10d9234f","655cb802637e0dbe2941dbc4","655cb8d410be4d9ffa657e64","null","
        <div style=""text-align: center; position: fixed; top: 5vh; left: 40vw;"">
            <div style=""margin:0 auto; width: 20vw; top: 8vh; font-size: 2vw""> 
            <font color=""green""> Bonus : $10 </font>
            </div>
        </div>
    ","null","","","","","","","",""
"","","","","","html-keyboard-response","18","88735","0.0-5.0-3.2","6102f8a9d697ea8a10d9234f","655cb802637e0dbe2941dbc4","655cb8d410be4d9ffa657e64","371","./stimuli//pack_shapes_diff/cat_1/diff_1/ex_1_1_3.png","arrowleft","response","ArrowLeft","3","1","1","train","true",""
"","","","","","html-keyboard-response","19","90246","0.0-5.0-4.2","6102f8a9d697ea8a10d9234f","655cb802637e0dbe2941dbc4","655cb8d410be4d9ffa657e64","null","<p> <font color=""green"" size=""5vw""> Correct category! </font> </p>","null","feedback","","","","","","","10"
"","","","","","html-keyboard-response","20","91137","0.0-5.0-0.3","6102f8a9d697ea8a10d9234f","655cb802637e0dbe2941dbc4","655cb8d410be4d9ffa657e64","890","
            
        <div style=""text-align: center; position: fixed; top: 5vh; left: 40vw;"">
            <div style=""margin:0 auto; width: 20vw; top: 8vh; font-size: 2vw""> 
            <font color=""green""> Bonus : $10 </font>
            </div>
        </div>
    
            <div> Please press any key to continue to the next image.</div>
        ","arrowleft","ITI","","","","","","",""
"","","","","","html-keyboard-response","21","91741","0.0-5.0-1.3","6102f8a9d697ea8a10d9234f","655cb802637e0dbe2941dbc4","655cb8d410be4d9ffa657e64","null","
        
        <div style=""text-align: center; position: fixed; top: 5vh; left: 40vw;"">
            <div style=""margin:0 auto; width: 20vw; top: 8vh; font-size: 2vw""> 
            <font color=""green""> Bonus : $10 </font>
            </div>
        </div>
    
        <img class=""stim"" src=./stimuli//pack_shapes_diff/cat_1/diff_1/ex_1_1_4.png></img>
    ","null","stimulus","","","","","","",""
"","","","","","html-keyboard-response","22","92752","0.0-5.0-2.3","6102f8a9d697ea8a10d9234f","655cb802637e0dbe2941dbc4","655cb8d410be4d9ffa657e64","null","
        <div style=""text-align: center; position: fixed; top: 5vh; left: 40vw;"">
            <div style=""margin:0 auto; width: 20vw; top: 8vh; font-size: 2vw""> 
            <font color=""green""> Bonus : $10 </font>
            </div>
        </div>
    ","null","","","","","","","",""
"","","","","","html-keyboard-response","23","93264","0.0-5.0-3.3","6102f8a9d697ea8a10d9234f","655cb802637e0dbe2941dbc4","655cb8d410be4d9ffa657e64","511","./stimuli//pack_shapes_diff/cat_1/diff_1/ex_1_1_4.png","arrowleft","response","ArrowLeft","4","1","1","train","true",""
"","","","","","html-keyboard-response","24","94778","0.0-5.0-4.3","6102f8a9d697ea8a10d9234f","655cb802637e0dbe2941dbc4","655cb8d410be4d9ffa657e64","null","<p> <font color=""green"" size=""5vw""> Correct category! </font> </p>","null","feedback","","","","","","","10"
"","","","","","html-keyboard-response","25","95519","0.0-5.0-0.4","6102f8a9d697ea8a10d9234f","655cb802637e0dbe2941dbc4","655cb8d410be4d9ffa657e64","741","
            
        <div style=""text-align: center; position: fixed; top: 5vh; left: 40vw;"">
            <div style=""margin:0 auto; width: 20vw; top: 8vh; font-size: 2vw""> 
            <font color=""green""> Bonus : $10 </font>
            </div>
        </div>
    
            <div> Please press any key to continue to the next image.</div>
        ","arrowleft","ITI","","","","","","",""
"","","","","","html-keyboard-response","26","96130","0.0-5.0-1.4","6102f8a9d697ea8a10d9234f","655cb802637e0dbe2941dbc4","655cb8d410be4d9ffa657e64","null","
        
        <div style=""text-align: center; position: fixed; top: 5vh; left: 40vw;"">
            <div style=""margin:0 auto; width: 20vw; top: 8vh; font-size: 2vw""> 
            <font color=""green""> Bonus : $10 </font>
            </div>
        </div>
    
        <img class=""stim"" src=./stimuli//pack_shapes_diff/cat_2/diff_1/ex_2_1_17.png></img>
    ","null","stimulus","","","","","","",""
"","","","","","html-keyboard-response","27","97133","0.0-5.0-2.4","6102f8a9d697ea8a10d9234f","655cb802637e0dbe2941dbc4","655cb8d410be4d9ffa657e64","null","
        <div style=""text-align: center; position: fixed; top: 5vh; left: 40vw;"">
            <div style=""margin:0 auto; width: 20vw; top: 8vh; font-size: 2vw""> 
            <font color=""green""> Bonus : $10 </font>
            </div>
        </div>
    ","null","","","","","","","",""
"","","","","","html-keyboard-response","28","97470","0.0-5.0-3.4","6102f8a9d697ea8a10d9234f","655cb802637e0dbe2941dbc4","655cb8d410be4d9ffa657e64","336","./stimuli//pack_shapes_diff/cat_2/diff_1/ex_2_1_17.png","arrowright","response","ArrowRight","17","2","1","train","true",""
"","","","","","html-keyboard-response","29","98978","0.0-5.0-4.4","6102f8a9d697ea8a10d9234f","655cb802637e0dbe2941dbc4","655cb8d410be4d9ffa657e64","null","<p> <font color=""green"" size=""5vw""> Correct category! </font> </p>","null","feedback","","","","","","","10"
"","","","","","html-keyboard-response","30","99744","0.0-5.0-0.5","6102f8a9d697ea8a10d9234f","655cb802637e0dbe2941dbc4","655cb8d410be4d9ffa657e64","765","
            
        <div style=""text-align: center; position: fixed; top: 5vh; left: 40vw;"">
            <div style=""margin:0 auto; width: 20vw; top: 8vh; font-size: 2vw""> 
            <font color=""green""> Bonus : $10 </font>
            </div>
        </div>
    
            <div> Please press any key to continue to the next image.</div>
        ","arrowright","ITI","","","","","","",""
"","","","","","html-keyboard-response","31","100346","0.0-5.0-1.5","6102f8a9d697ea8a10d9234f","655cb802637e0dbe2941dbc4","655cb8d410be4d9ffa657e64","null","
        
        <div style=""text-align: center; position: fixed; top: 5vh; left: 40vw;"">
            <div style=""margin:0 auto; width: 20vw; top: 8vh; font-size: 2vw""> 
            <font color=""green""> Bonus : $10 </font>
            </div>
        </div>
    
        <img class=""stim"" src=./stimuli//pack_shapes_diff/cat_2/diff_2/ex_2_2_15.png></img>
    ","null","stimulus","","","","","","",""
"","","","","","html-keyboard-response","32","101353","0.0-5.0-2.5","6102f8a9d697ea8a10d9234f","655cb802637e0dbe2941dbc4","655cb8d410be4d9ffa657e64","null","
        <div style=""text-align: center; position: fixed; top: 5vh; left: 40vw;"">
            <div style=""margin:0 auto; width: 20vw; top: 8vh; font-size: 2vw""> 
            <font color=""green""> Bonus : $10 </font>
            </div>
        </div>
    ","null","","","","","","","",""
"","","","","","html-keyboard-response","33","101827","0.0-5.0-3.5","6102f8a9d697ea8a10d9234f","655cb802637e0dbe2941dbc4","655cb8d410be4d9ffa657e64","473","./stimuli//pack_shapes_diff/cat_2/diff_2/ex_2_2_15.png","arrowright","response","ArrowRight","15","2","2","train","true",""
"","","","","","html-keyboard-response","34","103340","0.0-5.0-4.5","6102f8a9d697ea8a10d9234f","655cb802637e0dbe2941dbc4","655cb8d410be4d9ffa657e64","null","<p> <font color=""green"" size=""5vw""> Correct category! </font> </p>","null","feedback","","","","","","","10"
"","","","","","html-keyboard-response","35","104064","0.0-5.0-0.6","6102f8a9d697ea8a10d9234f","655cb802637e0dbe2941dbc4","655cb8d410be4d9ffa657e64","723","
            
        <div style=""text-align: center; position: fixed; top: 5vh; left: 40vw;"">
            <div style=""margin:0 auto; width: 20vw; top: 8vh; font-size: 2vw""> 
            <font color=""green""> Bonus : $10 </font>
            </div>
        </div>
    
            <div> Please press any key to continue to the next image.</div>
        ","arrowright","ITI","","","","","","",""
"","","","","","html-keyboard-response","36","104673","0.0-5.0-1.6","6102f8a9d697ea8a10d9234f","655cb802637e0dbe2941dbc4","655cb8d410be4d9ffa657e64","null","
        
        <div style=""text-align: center; position: fixed; top: 5vh; left: 40vw;"">
            <div style=""margin:0 auto; width: 20vw; top: 8vh; font-size: 2vw""> 
            <font color=""green""> Bonus : $10 </font>
            </div>
        </div>
    
        <img class=""stim"" src=./stimuli//pack_shapes_diff/cat_2/diff_1/ex_2_1_6.png></img>
    ","null","stimulus","","","","","","",""
"","","","","","html-keyboard-response","37","105680","0.0-5.0-2.6","6102f8a9d697ea8a10d9234f","655cb802637e0dbe2941dbc4","655cb8d410be4d9ffa657e64","null","
        <div style=""text-align: center; position: fixed; top: 5vh; left: 40vw;"">
            <div style=""margin:0 auto; width: 20vw; top: 8vh; font-size: 2vw""> 
            <font color=""green""> Bonus : $10 </font>
            </div>
        </div>
    ","null","","","","","","","",""
"","","","","","html-keyboard-response","38","106031","0.0-5.0-3.6","6102f8a9d697ea8a10d9234f","655cb802637e0dbe2941dbc4","655cb8d410be4d9ffa657e64","350","./stimuli//pack_shapes_diff/cat_2/diff_1/ex_2_1_6.png","arrowright","response","ArrowRight","6","2","1","train","true",""
"","","","","","html-keyboard-response","39","107532","0.0-5.0-4.6","6102f8a9d697ea8a10d9234f","655cb802637e0dbe2941dbc4","655cb8d410be4d9ffa657e64","null","<p> <font color=""green"" size=""5vw""> Correct category! </font> </p>","null","feedback","","","","","","","10"
"","","","","","html-keyboard-response","40","108367","0.0-5.0-0.7","6102f8a9d697ea8a10d9234f","655cb802637e0dbe2941dbc4","655cb8d410be4d9ffa657e64","834","
            
        <div style=""text-align: center; position: fixed; top: 5vh; left: 40vw;"">
            <div style=""margin:0 auto; width: 20vw; top: 8vh; font-size: 2vw""> 
            <font color=""green""> Bonus : $10 </font>
            </div>
        </div>
    
            <div> Please press any key to continue to the next image.</div>
        ","arrowright","ITI","","","","","","",""
"","","","","","html-keyboard-response","41","108989","0.0-5.0-1.7","6102f8a9d697ea8a10d9234f","655cb802637e0dbe2941dbc4","655cb8d410be4d9ffa657e64","null","
        
        <div style=""text-align: center; position: fixed; top: 5vh; left: 40vw;"">
            <div style=""margin:0 auto; width: 20vw; top: 8vh; font-size: 2vw""> 
            <font color=""green""> Bonus : $10 </font>
            </div>
        </div>
    
        <img class=""stim"" src=./stimuli//pack_shapes_diff/cat_2/diff_1/ex_2_1_2.png></img>
    ","null","stimulus","","","","","","",""
"","","","","","html-keyboard-response","42","109992","0.0-5.0-2.7","6102f8a9d697ea8a10d9234f","655cb802637e0dbe2941dbc4","655cb8d410be4d9ffa657e64","null","
        <div style=""text-align: center; position: fixed; top: 5vh; left: 40vw;"">
            <div style=""margin:0 auto; width: 20vw; top: 8vh; font-size: 2vw""> 
            <font color=""green""> Bonus : $10 </font>
            </div>
        </div>
    ","null","","","","","","","",""
"","","","","","html-keyboard-response","43","110384","0.0-5.0-3.7","6102f8a9d697ea8a10d9234f","655cb802637e0dbe2941dbc4","655cb8d410be4d9ffa657e64","392","./stimuli//pack_shapes_diff/cat_2/diff_1/ex_2_1_2.png","arrowright","response","ArrowRight","2","2","1","train","true",""
"","","","","","html-keyboard-response","44","111893","0.0-5.0-4.7","6102f8a9d697ea8a10d9234f","655cb802637e0dbe2941dbc4","655cb8d410be4d9ffa657e64","null","<p> <font color=""green"" size=""5vw""> Correct category! </font> </p>","null","feedback","","","","","","","10"
"","","","","","html-keyboard-response","45","112671","0.0-5.0-0.8","6102f8a9d697ea8a10d9234f","655cb802637e0dbe2941dbc4","655cb8d410be4d9ffa657e64","778","
            
        <div style=""text-align: center; position: fixed; top: 5vh; left: 40vw;"">
            <div style=""margin:0 auto; width: 20vw; top: 8vh; font-size: 2vw""> 
            <font color=""green""> Bonus : $10 </font>
            </div>
        </div>
    
            <div> Please press any key to continue to the next image.</div>
        ","arrowright","ITI","","","","","","",""
"","","","","","html-keyboard-response","46","113284","0.0-5.0-1.8","6102f8a9d697ea8a10d9234f","655cb802637e0dbe2941dbc4","655cb8d410be4d9ffa657e64","null","
        
        <div style=""text-align: center; position: fixed; top: 5vh; left: 40vw;"">
            <div style=""margin:0 auto; width: 20vw; top: 8vh; font-size: 2vw""> 
            <font color=""green""> Bonus : $10 </font>
            </div>
        </div>
    
        <img class=""stim"" src=./stimuli//pack_shapes_diff/cat_1/diff_1/ex_1_1_13.png></img>
    ","null","stimulus","","","","","","",""
"","","","","","html-keyboard-response","47","114298","0.0-5.0-2.8","6102f8a9d697ea8a10d9234f","655cb802637e0dbe2941dbc4","655cb8d410be4d9ffa657e64","null","
        <div style=""text-align: center; position: fixed; top: 5vh; left: 40vw;"">
            <div style=""margin:0 auto; width: 20vw; top: 8vh; font-size: 2vw""> 
            <font color=""green""> Bonus : $10 </font>
            </div>
        </div>
    ","null","","","","","","","",""
"","","","","","html-keyboard-response","48","114735","0.0-5.0-3.8","6102f8a9d697ea8a10d9234f","655cb802637e0dbe2941dbc4","655cb8d410be4d9ffa657e64","437","./stimuli//pack_shapes_diff/cat_1/diff_1/ex_1_1_13.png","arrowleft","response","ArrowLeft","13","1","1","train","true",""
"","","","","","html-keyboard-response","49","116249","0.0-5.0-4.8","6102f8a9d697ea8a10d9234f","655cb802637e0dbe2941dbc4","655cb8d410be4d9ffa657e64","null","<p> <font color=""green"" size=""5vw""> Correct category! </font> </p>","null","feedback","","","","","","","10"
"","","","","","html-keyboard-response","50","116781","0.0-5.0-0.9","6102f8a9d697ea8a10d9234f","655cb802637e0dbe2941dbc4","655cb8d410be4d9ffa657e64","533","
            
        <div style=""text-align: center; position: fixed; top: 5vh; left: 40vw;"">
            <div style=""margin:0 auto; width: 20vw; top: 8vh; font-size: 2vw""> 
            <font color=""green""> Bonus : $10 </font>
            </div>
        </div>
    
            <div> Please press any key to continue to the next image.</div>
        ","arrowright","ITI","","","","","","",""
"","","","","","html-keyboard-response","51","117402","0.0-5.0-1.9","6102f8a9d697ea8a10d9234f","655cb802637e0dbe2941dbc4","655cb8d410be4d9ffa657e64","null","
        
        <div style=""text-align: center; position: fixed; top: 5vh; left: 40vw;"">
            <div style=""margin:0 auto; width: 20vw; top: 8vh; font-size: 2vw""> 
            <font color=""green""> Bonus : $10 </font>
            </div>
        </div>
    
        <img class=""stim"" src=./stimuli//pack_shapes_diff/cat_1/diff_2/ex_1_2_10.png></img>
    ","null","stimulus","","","","","","",""
"","","","","","html-keyboard-response","52","118419","0.0-5.0-2.9","6102f8a9d697ea8a10d9234f","655cb802637e0dbe2941dbc4","655cb8d410be4d9ffa657e64","null","
        <div style=""text-align: center; position: fixed; top: 5vh; left: 40vw;"">
            <div style=""margin:0 auto; width: 20vw; top: 8vh; font-size: 2vw""> 
            <font color=""green""> Bonus : $10 </font>
            </div>
        </div>
    ","null","","","","","","","",""
"","","","","","html-keyboard-response","53","118845","0.0-5.0-3.9","6102f8a9d697ea8a10d9234f","655cb802637e0dbe2941dbc4","655cb8d410be4d9ffa657e64","425","./stimuli//pack_shapes_diff/cat_1/diff_2/ex_1_2_10.png","arrowleft","response","ArrowLeft","10","1","2","train","true",""
"","","","","","html-keyboard-response","54","120353","0.0-5.0-4.9","6102f8a9d697ea8a10d9234f","655cb802637e0dbe2941dbc4","655cb8d410be4d9ffa657e64","null","<p> <font color=""green"" size=""5vw""> Correct category! </font> </p>","null","feedback","","","","","","","10"
"","","","","","html-keyboard-response","55","125900","0.0-6.0","6102f8a9d697ea8a10d9234f","655cb802637e0dbe2941dbc4","655cb8d410be4d9ffa657e64","5545","
            <b> <p> The practice round has finished.</p>
            <b> For the rest of the experiment if you guess incorrectly $0.05 will be subtracted from your bonus!</b>
            <p> Press any key to begin the test. </p>
            ","arrowleft","intermission","","","","","","",""
"","","","","","html-keyboard-response","56","127644","0.0-7.0-0.0","6102f8a9d697ea8a10d9234f","655cb802637e0dbe2941dbc4","655cb8d410be4d9ffa657e64","1743","
            
        <div style=""text-align: center; position: fixed; top: 5vh; left: 40vw;"">
            <div style=""margin:0 auto; width: 20vw; top: 8vh; font-size: 2vw""> 
            <font color=""green""> Bonus : $10 </font>
            </div>
        </div>
    
            <div> Please press any key to continue to the next image.</div>
        ","arrowleft","ITI","","","","","","",""
"","","","","","html-keyboard-response","57","128252","0.0-7.0-1.0","6102f8a9d697ea8a10d9234f","655cb802637e0dbe2941dbc4","655cb8d410be4d9ffa657e64","null","
        
        <div style=""text-align: center; position: fixed; top: 5vh; left: 40vw;"">
            <div style=""margin:0 auto; width: 20vw; top: 8vh; font-size: 2vw""> 
            <font color=""green""> Bonus : $10 </font>
            </div>
        </div>
    
        <img class=""stim"" src=./stimuli//pack_shapes_diff/cat_2/diff_1/ex_2_1_8.png></img>
    ","null","stimulus","","","","","","",""
"","","","","","html-keyboard-response","58","129254","0.0-7.0-2.0","6102f8a9d697ea8a10d9234f","655cb802637e0dbe2941dbc4","655cb8d410be4d9ffa657e64","null","
        <div style=""text-align: center; position: fixed; top: 5vh; left: 40vw;"">
            <div style=""margin:0 auto; width: 20vw; top: 8vh; font-size: 2vw""> 
            <font color=""green""> Bonus : $10 </font>
            </div>
        </div>
    ","null","","","","","","","",""
"","","","","","html-keyboard-response","59","129276","0.0-7.0-3.0","6102f8a9d697ea8a10d9234f","655cb802637e0dbe2941dbc4","655cb8d410be4d9ffa657e64","21","./stimuli//pack_shapes_diff/cat_2/diff_1/ex_2_1_8.png","arrowright","response","ArrowRight","8","2","1","test","true",""
"","","","","","html-keyboard-response","60","130789","0.0-7.0-4.0","6102f8a9d697ea8a10d9234f","655cb802637e0dbe2941dbc4","655cb8d410be4d9ffa657e64","null","<p> <font color=""green"" size=""5vw""> Correct category! </font></p>","null","feedback","","","","","","","10"
"","","","","","html-keyboard-response","61","131596","0.0-7.1-0.1","6102f8a9d697ea8a10d9234f","655cb802637e0dbe2941dbc4","655cb8d410be4d9ffa657e64","807","
            
        <div style=""text-align: center; position: fixed; top: 5vh; left: 40vw;"">
            <div style=""margin:0 auto; width: 20vw; top: 8vh; font-size: 2vw""> 
            <font color=""green""> Bonus : $10 </font>
            </div>
        </div>
    
            <div> Please press any key to continue to the next image.</div>
        ","arrowleft","ITI","","","","","","",""
"","","","","","html-keyboard-response","62","132200","0.0-7.1-1.1","6102f8a9d697ea8a10d9234f","655cb802637e0dbe2941dbc4","655cb8d410be4d9ffa657e64","null","
        
        <div style=""text-align: center; position: fixed; top: 5vh; left: 40vw;"">
            <div style=""margin:0 auto; width: 20vw; top: 8vh; font-size: 2vw""> 
            <font color=""green""> Bonus : $10 </font>
            </div>
        </div>
    
        <img class=""stim"" src=./stimuli//pack_shapes_diff/cat_1/diff_1/ex_1_1_17.png></img>
    ","null","stimulus","","","","","","",""
"","","","","","html-keyboard-response","63","133207","0.0-7.1-2.1","6102f8a9d697ea8a10d9234f","655cb802637e0dbe2941dbc4","655cb8d410be4d9ffa657e64","null","
        <div style=""text-align: center; position: fixed; top: 5vh; left: 40vw;"">
            <div style=""margin:0 auto; width: 20vw; top: 8vh; font-size: 2vw""> 
            <font color=""green""> Bonus : $10 </font>
            </div>
        </div>
    ","null","","","","","","","",""
"","","","","","html-keyboard-response","64","134284","0.0-7.1-3.1","6102f8a9d697ea8a10d9234f","655cb802637e0dbe2941dbc4","655cb8d410be4d9ffa657e64","1076","./stimuli//pack_shapes_diff/cat_1/diff_1/ex_1_1_17.png","arrowleft","response","ArrowLeft","17","1","1","test","true",""
"","","","","","html-keyboard-response","65","135796","0.0-7.1-4.1","6102f8a9d697ea8a10d9234f","655cb802637e0dbe2941dbc4","655cb8d410be4d9ffa657e64","null","<p> <font color=""green"" size=""5vw""> Correct category! </font></p>","null","feedback","","","","","","","10"
"","","","","","html-keyboard-response","66","136572","0.0-7.2-0.2","6102f8a9d697ea8a10d9234f","655cb802637e0dbe2941dbc4","655cb8d410be4d9ffa657e64","775","
            
        <div style=""text-align: center; position: fixed; top: 5vh; left: 40vw;"">
            <div style=""margin:0 auto; width: 20vw; top: 8vh; font-size: 2vw""> 
            <font color=""green""> Bonus : $10 </font>
            </div>
        </div>
    
            <div> Please press any key to continue to the next image.</div>
        ","arrowright","ITI","","","","","","",""
"","","","","","html-keyboard-response","67","137184","0.0-7.2-1.2","6102f8a9d697ea8a10d9234f","655cb802637e0dbe2941dbc4","655cb8d410be4d9ffa657e64","null","
        
        <div style=""text-align: center; position: fixed; top: 5vh; left: 40vw;"">
            <div style=""margin:0 auto; width: 20vw; top: 8vh; font-size: 2vw""> 
            <font color=""green""> Bonus : $10 </font>
            </div>
        </div>
    
        <img class=""stim"" src=./stimuli//pack_shapes_diff/cat_2/diff_1/ex_2_1_15.png></img>
    ","null","stimulus","","","","","","",""
"","","","","","html-keyboard-response","68","138186","0.0-7.2-2.2","6102f8a9d697ea8a10d9234f","655cb802637e0dbe2941dbc4","655cb8d410be4d9ffa657e64","null","
        <div style=""text-align: center; position: fixed; top: 5vh; left: 40vw;"">
            <div style=""margin:0 auto; width: 20vw; top: 8vh; font-size: 2vw""> 
            <font color=""green""> Bonus : $10 </font>
            </div>
        </div>
    ","null","","","","","","","",""
"","","","","","html-keyboard-response","69","138540","0.0-7.2-3.2","6102f8a9d697ea8a10d9234f","655cb802637e0dbe2941dbc4","655cb8d410be4d9ffa657e64","353","./stimuli//pack_shapes_diff/cat_2/diff_1/ex_2_1_15.png","arrowright","response","ArrowRight","15","2","1","test","true",""
"","","","","","html-keyboard-response","70","140060","0.0-7.2-4.2","6102f8a9d697ea8a10d9234f","655cb802637e0dbe2941dbc4","655cb8d410be4d9ffa657e64","null","<p> <font color=""green"" size=""5vw""> Correct category! </font></p>","null","feedback","","","","","","","10"
"","","","","","html-keyboard-response","71","140780","0.0-7.3-0.3","6102f8a9d697ea8a10d9234f","655cb802637e0dbe2941dbc4","655cb8d410be4d9ffa657e64","719","
            
        <div style=""text-align: center; position: fixed; top: 5vh; left: 40vw;"">
            <div style=""margin:0 auto; width: 20vw; top: 8vh; font-size: 2vw""> 
            <font color=""green""> Bonus : $10 </font>
            </div>
        </div>
    
            <div> Please press any key to continue to the next image.</div>
        ","arrowleft","ITI","","","","","","",""
"","","","","","html-keyboard-response","72","141395","0.0-7.3-1.3","6102f8a9d697ea8a10d9234f","655cb802637e0dbe2941dbc4","655cb8d410be4d9ffa657e64","null","
        
        <div style=""text-align: center; position: fixed; top: 5vh; left: 40vw;"">
            <div style=""margin:0 auto; width: 20vw; top: 8vh; font-size: 2vw""> 
            <font color=""green""> Bonus : $10 </font>
            </div>
        </div>
    
        <img class=""stim"" src=./stimuli//pack_shapes_diff/cat_2/diff_1/ex_2_1_7.png></img>
    ","null","stimulus","","","","","","",""
"","","","","","html-keyboard-response","73","142396","0.0-7.3-2.3","6102f8a9d697ea8a10d9234f","655cb802637e0dbe2941dbc4","655cb8d410be4d9ffa657e64","null","
        <div style=""text-align: center; position: fixed; top: 5vh; left: 40vw;"">
            <div style=""margin:0 auto; width: 20vw; top: 8vh; font-size: 2vw""> 
            <font color=""green""> Bonus : $10 </font>
            </div>
        </div>
    ","null","","","","","","","",""
"","","","","","html-keyboard-response","74","143181","0.0-7.3-3.3","6102f8a9d697ea8a10d9234f","655cb802637e0dbe2941dbc4","655cb8d410be4d9ffa657e64","784","./stimuli//pack_shapes_diff/cat_2/diff_1/ex_2_1_7.png","arrowleft","response","ArrowRight","7","2","1","test","false",""
"","","","","","html-keyboard-response","75","144684","0.0-7.3-4.3","6102f8a9d697ea8a10d9234f","655cb802637e0dbe2941dbc4","655cb8d410be4d9ffa657e64","null","<p> <font size=""4vw""> Wrong category! </font> <br> <br> <font color=""red"" size=""7vw""> - $0.05 points </font> </p>","null","feedback","","","","","","","9.95"
"","","","","","html-keyboard-response","76","145837","0.0-7.4-0.4","6102f8a9d697ea8a10d9234f","655cb802637e0dbe2941dbc4","655cb8d410be4d9ffa657e64","1151","
            
        <div style=""text-align: center; position: fixed; top: 5vh; left: 40vw;"">
            <div style=""margin:0 auto; width: 20vw; top: 8vh; font-size: 2vw""> 
            <font color=""green""> Bonus : $9.95 </font>
            </div>
        </div>
    
            <div> Please press any key to continue to the next image.</div>
        ","arrowright","ITI","","","","","","",""
"","","","","","html-keyboard-response","77","146451","0.0-7.4-1.4","6102f8a9d697ea8a10d9234f","655cb802637e0dbe2941dbc4","655cb8d410be4d9ffa657e64","null","
        
        <div style=""text-align: center; position: fixed; top: 5vh; left: 40vw;"">
            <div style=""margin:0 auto; width: 20vw; top: 8vh; font-size: 2vw""> 
            <font color=""green""> Bonus : $9.95 </font>
            </div>
        </div>
    
        <img class=""stim"" src=./stimuli//pack_shapes_diff/cat_1/diff_1/ex_1_1_2.png></img>
    ","null","stimulus","","","","","","",""
"","","","","","html-keyboard-response","78","147474","0.0-7.4-2.4","6102f8a9d697ea8a10d9234f","655cb802637e0dbe2941dbc4","655cb8d410be4d9ffa657e64","null","
        <div style=""text-align: center; position: fixed; top: 5vh; left: 40vw;"">
            <div style=""margin:0 auto; width: 20vw; top: 8vh; font-size: 2vw""> 
            <font color=""green""> Bonus : $9.95 </font>
            </div>
        </div>
    ","null","","","","","","","",""
"","","","","","html-keyboard-response","79","147790","0.0-7.4-3.4","6102f8a9d697ea8a10d9234f","655cb802637e0dbe2941dbc4","655cb8d410be4d9ffa657e64","315","./stimuli//pack_shapes_diff/cat_1/diff_1/ex_1_1_2.png","arrowleft","response","ArrowLeft","2","1","1","test","true",""
"","","","","","html-keyboard-response","80","149292","0.0-7.4-4.4","6102f8a9d697ea8a10d9234f","655cb802637e0dbe2941dbc4","655cb8d410be4d9ffa657e64","null","<p> <font color=""green"" size=""5vw""> Correct category! </font></p>","null","feedback","","","","","","","9.95"
"","","","","","html-keyboard-response","81","150188","0.0-7.5-0.5","6102f8a9d697ea8a10d9234f","655cb802637e0dbe2941dbc4","655cb8d410be4d9ffa657e64","895","
            
        <div style=""text-align: center; position: fixed; top: 5vh; left: 40vw;"">
            <div style=""margin:0 auto; width: 20vw; top: 8vh; font-size: 2vw""> 
            <font color=""green""> Bonus : $9.95 </font>
            </div>
        </div>
    
            <div> Please press any key to continue to the next image.</div>
        ","arrowright","ITI","","","","","","",""
"","","","","","html-keyboard-response","82","150793","0.0-7.5-1.5","6102f8a9d697ea8a10d9234f","655cb802637e0dbe2941dbc4","655cb8d410be4d9ffa657e64","null","
        
        <div style=""text-align: center; position: fixed; top: 5vh; left: 40vw;"">
            <div style=""margin:0 auto; width: 20vw; top: 8vh; font-size: 2vw""> 
            <font color=""green""> Bonus : $9.95 </font>
            </div>
        </div>
    
        <img class=""stim"" src=./stimuli//pack_shapes_diff/cat_2/diff_2/ex_2_2_2.png></img>
    ","null","stimulus","","","","","","",""
"","","","","","html-keyboard-response","83","151797","0.0-7.5-2.5","6102f8a9d697ea8a10d9234f","655cb802637e0dbe2941dbc4","655cb8d410be4d9ffa657e64","null","
        <div style=""text-align: center; position: fixed; top: 5vh; left: 40vw;"">
            <div style=""margin:0 auto; width: 20vw; top: 8vh; font-size: 2vw""> 
            <font color=""green""> Bonus : $9.95 </font>
            </div>
        </div>
    ","null","","","","","","","",""
"","","","","","html-keyboard-response","84","152430","0.0-7.5-3.5","6102f8a9d697ea8a10d9234f","655cb802637e0dbe2941dbc4","655cb8d410be4d9ffa657e64","632","./stimuli//pack_shapes_diff/cat_2/diff_2/ex_2_2_2.png","arrowright","response","ArrowRight","2","2","2","test","true",""
"","","","","","html-keyboard-response","85","153931","0.0-7.5-4.5","6102f8a9d697ea8a10d9234f","655cb802637e0dbe2941dbc4","655cb8d410be4d9ffa657e64","null","<p> <font color=""green"" size=""5vw""> Correct category! </font></p>","null","feedback","","","","","","","9.95"
"","","","","","html-keyboard-response","86","154557","0.0-7.6-0.6","6102f8a9d697ea8a10d9234f","655cb802637e0dbe2941dbc4","655cb8d410be4d9ffa657e64","625","
            
        <div style=""text-align: center; position: fixed; top: 5vh; left: 40vw;"">
            <div style=""margin:0 auto; width: 20vw; top: 8vh; font-size: 2vw""> 
            <font color=""green""> Bonus : $9.95 </font>
            </div>
        </div>
    
            <div> Please press any key to continue to the next image.</div>
        ","arrowleft","ITI","","","","","","",""
"","","","","","html-keyboard-response","87","155165","0.0-7.6-1.6","6102f8a9d697ea8a10d9234f","655cb802637e0dbe2941dbc4","655cb8d410be4d9ffa657e64","null","
        
        <div style=""text-align: center; position: fixed; top: 5vh; left: 40vw;"">
            <div style=""margin:0 auto; width: 20vw; top: 8vh; font-size: 2vw""> 
            <font color=""green""> Bonus : $9.95 </font>
            </div>
        </div>
    
        <img class=""stim"" src=./stimuli//pack_shapes_diff/cat_1/diff_2/ex_1_2_11.png></img>
    ","null","stimulus","","","","","","",""
"","","","","","html-keyboard-response","88","156167","0.0-7.6-2.6","6102f8a9d697ea8a10d9234f","655cb802637e0dbe2941dbc4","655cb8d410be4d9ffa657e64","null","
        <div style=""text-align: center; position: fixed; top: 5vh; left: 40vw;"">
            <div style=""margin:0 auto; width: 20vw; top: 8vh; font-size: 2vw""> 
            <font color=""green""> Bonus : $9.95 </font>
            </div>
        </div>
    ","null","","","","","","","",""
"","","","","","html-keyboard-response","89","156621","0.0-7.6-3.6","6102f8a9d697ea8a10d9234f","655cb802637e0dbe2941dbc4","655cb8d410be4d9ffa657e64","453","./stimuli//pack_shapes_diff/cat_1/diff_2/ex_1_2_11.png","arrowleft","response","ArrowLeft","11","1","2","test","true",""
"","","","","","html-keyboard-response","90","158124","0.0-7.6-4.6","6102f8a9d697ea8a10d9234f","655cb802637e0dbe2941dbc4","655cb8d410be4d9ffa657e64","null","<p> <font color=""green"" size=""5vw""> Correct category! </font></p>","null","feedback","","","","","","","9.95"
"","","","","","html-keyboard-response","91","158974","0.0-7.7-0.7","6102f8a9d697ea8a10d9234f","655cb802637e0dbe2941dbc4","655cb8d410be4d9ffa657e64","849","
            
        <div style=""text-align: center; position: fixed; top: 5vh; left: 40vw;"">
            <div style=""margin:0 auto; width: 20vw; top: 8vh; font-size: 2vw""> 
            <font color=""green""> Bonus : $9.95 </font>
            </div>
        </div>
    
            <div> Please press any key to continue to the next image.</div>
        ","arrowup","ITI","","","","","","",""
"","","","","","html-keyboard-response","92","159594","0.0-7.7-1.7","6102f8a9d697ea8a10d9234f","655cb802637e0dbe2941dbc4","655cb8d410be4d9ffa657e64","null","
        
        <div style=""text-align: center; position: fixed; top: 5vh; left: 40vw;"">
            <div style=""margin:0 auto; width: 20vw; top: 8vh; font-size: 2vw""> 
            <font color=""green""> Bonus : $9.95 </font>
            </div>
        </div>
    
        <img class=""stim"" src=./stimuli//pack_shapes_diff/cat_1/diff_2/ex_1_2_15.png></img>
    ","null","stimulus","","","","","","",""
"","","","","","html-keyboard-response","93","160596","0.0-7.7-2.7","6102f8a9d697ea8a10d9234f","655cb802637e0dbe2941dbc4","655cb8d410be4d9ffa657e64","null","
        <div style=""text-align: center; position: fixed; top: 5vh; left: 40vw;"">
            <div style=""margin:0 auto; width: 20vw; top: 8vh; font-size: 2vw""> 
            <font color=""green""> Bonus : $9.95 </font>
            </div>
        </div>
    ","null","","","","","","","",""
"","","","","","html-keyboard-response","94","161037","0.0-7.7-3.7","6102f8a9d697ea8a10d9234f","655cb802637e0dbe2941dbc4","655cb8d410be4d9ffa657e64","440","./stimuli//pack_shapes_diff/cat_1/diff_2/ex_1_2_15.png","arrowleft","response","ArrowLeft","15","1","2","test","true",""
"","","","","","html-keyboard-response","95","162546","0.0-7.7-4.7","6102f8a9d697ea8a10d9234f","655cb802637e0dbe2941dbc4","655cb8d410be4d9ffa657e64","null","<p> <font color=""green"" size=""5vw""> Correct category! </font></p>","null","feedback","","","","","","","9.95"
"","","","","","html-keyboard-response","96","163644","0.0-7.8-0.8","6102f8a9d697ea8a10d9234f","655cb802637e0dbe2941dbc4","655cb8d410be4d9ffa657e64","1097","
            
        <div style=""text-align: center; position: fixed; top: 5vh; left: 40vw;"">
            <div style=""margin:0 auto; width: 20vw; top: 8vh; font-size: 2vw""> 
            <font color=""green""> Bonus : $9.95 </font>
            </div>
        </div>
    
            <div> Please press any key to continue to the next image.</div>
        ","arrowup","ITI","","","","","","",""
"","","","","","html-keyboard-response","97","164248","0.0-7.8-1.8","6102f8a9d697ea8a10d9234f","655cb802637e0dbe2941dbc4","655cb8d410be4d9ffa657e64","null","
        
        <div style=""text-align: center; position: fixed; top: 5vh; left: 40vw;"">
            <div style=""margin:0 auto; width: 20vw; top: 8vh; font-size: 2vw""> 
            <font color=""green""> Bonus : $9.95 </font>
            </div>
        </div>
    
        <img class=""stim"" src=./stimuli//pack_shapes_diff/cat_1/diff_2/ex_1_2_15.png></img>
    ","null","stimulus","","","","","","",""
"","","","","","html-keyboard-response","98","165250","0.0-7.8-2.8","6102f8a9d697ea8a10d9234f","655cb802637e0dbe2941dbc4","655cb8d410be4d9ffa657e64","null","
        <div style=""text-align: center; position: fixed; top: 5vh; left: 40vw;"">
            <div style=""margin:0 auto; width: 20vw; top: 8vh; font-size: 2vw""> 
            <font color=""green""> Bonus : $9.95 </font>
            </div>
        </div>
    ","null","","","","","","","",""
"","","","","","html-keyboard-response","99","165629","0.0-7.8-3.8","6102f8a9d697ea8a10d9234f","655cb802637e0dbe2941dbc4","655cb8d410be4d9ffa657e64","378","./stimuli//pack_shapes_diff/cat_1/diff_2/ex_1_2_15.png","arrowleft","response","ArrowLeft","15","1","2","test","true",""
"","","","","","html-keyboard-response","100","167137","0.0-7.8-4.8","6102f8a9d697ea8a10d9234f","655cb802637e0dbe2941dbc4","655cb8d410be4d9ffa657e64","null","<p> <font color=""green"" size=""5vw""> Correct category! </font></p>","null","feedback","","","","","","","9.95"
"","","","","","html-keyboard-response","101","168173","0.0-7.9-0.9","6102f8a9d697ea8a10d9234f","655cb802637e0dbe2941dbc4","655cb8d410be4d9ffa657e64","1035","
            
        <div style=""text-align: center; position: fixed; top: 5vh; left: 40vw;"">
            <div style=""margin:0 auto; width: 20vw; top: 8vh; font-size: 2vw""> 
            <font color=""green""> Bonus : $9.95 </font>
            </div>
        </div>
    
            <div> Please press any key to continue to the next image.</div>
        ","arrowup","ITI","","","","","","",""
"","","","","","html-keyboard-response","102","168780","0.0-7.9-1.9","6102f8a9d697ea8a10d9234f","655cb802637e0dbe2941dbc4","655cb8d410be4d9ffa657e64","null","
        
        <div style=""text-align: center; position: fixed; top: 5vh; left: 40vw;"">
            <div style=""margin:0 auto; width: 20vw; top: 8vh; font-size: 2vw""> 
            <font color=""green""> Bonus : $9.95 </font>
            </div>
        </div>
    
        <img class=""stim"" src=./stimuli//pack_shapes_diff/cat_1/diff_2/ex_1_2_7.png></img>
    ","null","stimulus","","","","","","",""
"","","","","","html-keyboard-response","103","169790","0.0-7.9-2.9","6102f8a9d697ea8a10d9234f","655cb802637e0dbe2941dbc4","655cb8d410be4d9ffa657e64","null","
        <div style=""text-align: center; position: fixed; top: 5vh; left: 40vw;"">
            <div style=""margin:0 auto; width: 20vw; top: 8vh; font-size: 2vw""> 
            <font color=""green""> Bonus : $9.95 </font>
            </div>
        </div>
    ","null","","","","","","","",""
"","","","","","html-keyboard-response","104","171501","0.0-7.9-3.9","6102f8a9d697ea8a10d9234f","655cb802637e0dbe2941dbc4","655cb8d410be4d9ffa657e64","1710","./stimuli//pack_shapes_diff/cat_1/diff_2/ex_1_2_7.png","arrowleft","response","ArrowLeft","7","1","2","test","true",""
"","","","","","html-keyboard-response","105","173018","0.0-7.9-4.9","6102f8a9d697ea8a10d9234f","655cb802637e0dbe2941dbc4","655cb8d410be4d9ffa657e64","null","<p> <font color=""green"" size=""5vw""> Correct category! </font></p>","null","feedback","","","","","","","9.95"
"","","","","","html-keyboard-response","106","173788","0.0-7.10-0.10","6102f8a9d697ea8a10d9234f","655cb802637e0dbe2941dbc4","655cb8d410be4d9ffa657e64","769","
            
        <div style=""text-align: center; position: fixed; top: 5vh; left: 40vw;"">
            <div style=""margin:0 auto; width: 20vw; top: 8vh; font-size: 2vw""> 
            <font color=""green""> Bonus : $9.95 </font>
            </div>
        </div>
    
            <div> Please press any key to continue to the next image.</div>
        ","arrowleft","ITI","","","","","","",""
"","","","","","html-keyboard-response","107","174398","0.0-7.10-1.10","6102f8a9d697ea8a10d9234f","655cb802637e0dbe2941dbc4","655cb8d410be4d9ffa657e64","null","
        
        <div style=""text-align: center; position: fixed; top: 5vh; left: 40vw;"">
            <div style=""margin:0 auto; width: 20vw; top: 8vh; font-size: 2vw""> 
            <font color=""green""> Bonus : $9.95 </font>
            </div>
        </div>
    
        <img class=""stim"" src=./stimuli//pack_shapes_diff/cat_2/diff_3/ex_2_3_6.png></img>
    ","null","stimulus","","","","","","",""
"","","","","","html-keyboard-response","108","175400","0.0-7.10-2.10","6102f8a9d697ea8a10d9234f","655cb802637e0dbe2941dbc4","655cb8d410be4d9ffa657e64","null","
        <div style=""text-align: center; position: fixed; top: 5vh; left: 40vw;"">
            <div style=""margin:0 auto; width: 20vw; top: 8vh; font-size: 2vw""> 
            <font color=""green""> Bonus : $9.95 </font>
            </div>
        </div>
    ","null","","","","","","","",""
"","","","","","html-keyboard-response","109","175709","0.0-7.10-3.10","6102f8a9d697ea8a10d9234f","655cb802637e0dbe2941dbc4","655cb8d410be4d9ffa657e64","307","./stimuli//pack_shapes_diff/cat_2/diff_3/ex_2_3_6.png","arrowright","response","ArrowRight","6","2","3","test","true",""
"","","","","","html-keyboard-response","110","177227","0.0-7.10-4.10","6102f8a9d697ea8a10d9234f","655cb802637e0dbe2941dbc4","655cb8d410be4d9ffa657e64","null","<p> <font color=""green"" size=""5vw""> Correct category! </font></p>","null","feedback","","","","","","","9.95"
"","","","","","html-keyboard-response","111","177631","0.0-7.11-0.11","6102f8a9d697ea8a10d9234f","655cb802637e0dbe2941dbc4","655cb8d410be4d9ffa657e64","402","
            
        <div style=""text-align: center; position: fixed; top: 5vh; left: 40vw;"">
            <div style=""margin:0 auto; width: 20vw; top: 8vh; font-size: 2vw""> 
            <font color=""green""> Bonus : $9.95 </font>
            </div>
        </div>
    
            <div> Please press any key to continue to the next image.</div>
        ","arrowup","ITI","","","","","","",""
"","","","","","html-keyboard-response","112","178244","0.0-7.11-1.11","6102f8a9d697ea8a10d9234f","655cb802637e0dbe2941dbc4","655cb8d410be4d9ffa657e64","null","
        
        <div style=""text-align: center; position: fixed; top: 5vh; left: 40vw;"">
            <div style=""margin:0 auto; width: 20vw; top: 8vh; font-size: 2vw""> 
            <font color=""green""> Bonus : $9.95 </font>
            </div>
        </div>
    
        <img class=""stim"" src=./stimuli//pack_shapes_diff/cat_1/diff_3/ex_1_3_5.png></img>
    ","null","stimulus","","","","","","",""
"","","","","","html-keyboard-response","113","179246","0.0-7.11-2.11","6102f8a9d697ea8a10d9234f","655cb802637e0dbe2941dbc4","655cb8d410be4d9ffa657e64","null","
        <div style=""text-align: center; position: fixed; top: 5vh; left: 40vw;"">
            <div style=""margin:0 auto; width: 20vw; top: 8vh; font-size: 2vw""> 
            <font color=""green""> Bonus : $9.95 </font>
            </div>
        </div>
    ","null","","","","","","","",""
"","","","","","html-keyboard-response","114","179567","0.0-7.11-3.11","6102f8a9d697ea8a10d9234f","655cb802637e0dbe2941dbc4","655cb8d410be4d9ffa657e64","320","./stimuli//pack_shapes_diff/cat_1/diff_3/ex_1_3_5.png","arrowleft","response","ArrowLeft","5","1","3","test","true",""
"","","","","","html-keyboard-response","115","181081","0.0-7.11-4.11","6102f8a9d697ea8a10d9234f","655cb802637e0dbe2941dbc4","655cb8d410be4d9ffa657e64","null","<p> <font color=""green"" size=""5vw""> Correct category! </font></p>","null","feedback","","","","","","","9.95"
"","","","","","html-keyboard-response","116","181502","0.0-7.12-0.12","6102f8a9d697ea8a10d9234f","655cb802637e0dbe2941dbc4","655cb8d410be4d9ffa657e64","421","
            
        <div style=""text-align: center; position: fixed; top: 5vh; left: 40vw;"">
            <div style=""margin:0 auto; width: 20vw; top: 8vh; font-size: 2vw""> 
            <font color=""green""> Bonus : $9.95 </font>
            </div>
        </div>
    
            <div> Please press any key to continue to the next image.</div>
        ","arrowup","ITI","","","","","","",""
"","","","","","html-keyboard-response","117","182107","0.0-7.12-1.12","6102f8a9d697ea8a10d9234f","655cb802637e0dbe2941dbc4","655cb8d410be4d9ffa657e64","null","
        
        <div style=""text-align: center; position: fixed; top: 5vh; left: 40vw;"">
            <div style=""margin:0 auto; width: 20vw; top: 8vh; font-size: 2vw""> 
            <font color=""green""> Bonus : $9.95 </font>
            </div>
        </div>
    
        <img class=""stim"" src=./stimuli//pack_shapes_diff/cat_1/diff_3/ex_1_3_15.png></img>
    ","null","stimulus","","","","","","",""
"","","","","","html-keyboard-response","118","183115","0.0-7.12-2.12","6102f8a9d697ea8a10d9234f","655cb802637e0dbe2941dbc4","655cb8d410be4d9ffa657e64","null","
        <div style=""text-align: center; position: fixed; top: 5vh; left: 40vw;"">
            <div style=""margin:0 auto; width: 20vw; top: 8vh; font-size: 2vw""> 
            <font color=""green""> Bonus : $9.95 </font>
            </div>
        </div>
    ","null","","","","","","","",""
"","","","","","html-keyboard-response","119","183934","0.0-7.12-3.12","6102f8a9d697ea8a10d9234f","655cb802637e0dbe2941dbc4","655cb8d410be4d9ffa657e64","818","./stimuli//pack_shapes_diff/cat_1/diff_3/ex_1_3_15.png","arrowright","response","ArrowLeft","15","1","3","test","false",""
"","","","","","html-keyboard-response","120","185151","0.0-7.12-4.12","6102f8a9d697ea8a10d9234f","655cb802637e0dbe2941dbc4","655cb8d410be4d9ffa657e64","1216","<p> <font size=""4vw""> Wrong category! </font> <br> <br> <font color=""red"" size=""7vw""> - $0.05 points </font> </p>","arrowup","feedback","","","","","","","9.9"
"","","","","","html-keyboard-response","121","186367","0.0-7.13-0.13","6102f8a9d697ea8a10d9234f","655cb802637e0dbe2941dbc4","655cb8d410be4d9ffa657e64","1215","
            
        <div style=""text-align: center; position: fixed; top: 5vh; left: 40vw;"">
            <div style=""margin:0 auto; width: 20vw; top: 8vh; font-size: 2vw""> 
            <font color=""green""> Bonus : $9.9 </font>
            </div>
        </div>
    
            <div> Please press any key to continue to the next image.</div>
        ","arrowup","ITI","","","","","","",""
"","","","","","html-keyboard-response","122","186976","0.0-7.13-1.13","6102f8a9d697ea8a10d9234f","655cb802637e0dbe2941dbc4","655cb8d410be4d9ffa657e64","null","
        
        <div style=""text-align: center; position: fixed; top: 5vh; left: 40vw;"">
            <div style=""margin:0 auto; width: 20vw; top: 8vh; font-size: 2vw""> 
            <font color=""green""> Bonus : $9.9 </font>
            </div>
        </div>
    
        <img class=""stim"" src=./stimuli//pack_shapes_diff/cat_2/diff_3/ex_2_3_7.png></img>
    ","null","stimulus","","","","","","",""
"","","","","","html-keyboard-response","123","187979","0.0-7.13-2.13","6102f8a9d697ea8a10d9234f","655cb802637e0dbe2941dbc4","655cb8d410be4d9ffa657e64","null","
        <div style=""text-align: center; position: fixed; top: 5vh; left: 40vw;"">
            <div style=""margin:0 auto; width: 20vw; top: 8vh; font-size: 2vw""> 
            <font color=""green""> Bonus : $9.9 </font>
            </div>
        </div>
    ","null","","","","","","","",""
"","","","","","html-keyboard-response","124","188286","0.0-7.13-3.13","6102f8a9d697ea8a10d9234f","655cb802637e0dbe2941dbc4","655cb8d410be4d9ffa657e64","306","./stimuli//pack_shapes_diff/cat_2/diff_3/ex_2_3_7.png","arrowright","response","ArrowRight","7","2","3","test","true",""
"","","","","","html-keyboard-response","125","189797","0.0-7.13-4.13","6102f8a9d697ea8a10d9234f","655cb802637e0dbe2941dbc4","655cb8d410be4d9ffa657e64","null","<p> <font color=""green"" size=""5vw""> Correct category! </font></p>","null","feedback","","","","","","","9.9"
"","","","","","html-keyboard-response","126","190318","0.0-7.14-0.14","6102f8a9d697ea8a10d9234f","655cb802637e0dbe2941dbc4","655cb8d410be4d9ffa657e64","520","
            
        <div style=""text-align: center; position: fixed; top: 5vh; left: 40vw;"">
            <div style=""margin:0 auto; width: 20vw; top: 8vh; font-size: 2vw""> 
            <font color=""green""> Bonus : $9.9 </font>
            </div>
        </div>
    
            <div> Please press any key to continue to the next image.</div>
        ","arrowup","ITI","","","","","","",""
"","","","","","html-keyboard-response","127","190930","0.0-7.14-1.14","6102f8a9d697ea8a10d9234f","655cb802637e0dbe2941dbc4","655cb8d410be4d9ffa657e64","null","
        
        <div style=""text-align: center; position: fixed; top: 5vh; left: 40vw;"">
            <div style=""margin:0 auto; width: 20vw; top: 8vh; font-size: 2vw""> 
            <font color=""green""> Bonus : $9.9 </font>
            </div>
        </div>
    
        <img class=""stim"" src=./stimuli//pack_shapes_diff/cat_2/diff_3/ex_2_3_17.png></img>
    ","null","stimulus","","","","","","",""
"","","","","","html-keyboard-response","128","191932","0.0-7.14-2.14","6102f8a9d697ea8a10d9234f","655cb802637e0dbe2941dbc4","655cb8d410be4d9ffa657e64","null","
        <div style=""text-align: center; position: fixed; top: 5vh; left: 40vw;"">
            <div style=""margin:0 auto; width: 20vw; top: 8vh; font-size: 2vw""> 
            <font color=""green""> Bonus : $9.9 </font>
            </div>
        </div>
    ","null","","","","","","","",""
"","","","","","html-keyboard-response","129","193471","0.0-7.14-3.14","6102f8a9d697ea8a10d9234f","655cb802637e0dbe2941dbc4","655cb8d410be4d9ffa657e64","1538","./stimuli//pack_shapes_diff/cat_2/diff_3/ex_2_3_17.png","arrowright","response","ArrowRight","17","2","3","test","true",""
"","","","","","html-keyboard-response","130","194975","0.0-7.14-4.14","6102f8a9d697ea8a10d9234f","655cb802637e0dbe2941dbc4","655cb8d410be4d9ffa657e64","null","<p> <font color=""green"" size=""5vw""> Correct category! </font></p>","null","feedback","","","","","","","9.9"
"","","","","","html-keyboard-response","131","195727","0.0-7.15-0.15","6102f8a9d697ea8a10d9234f","655cb802637e0dbe2941dbc4","655cb8d410be4d9ffa657e64","751","
            
        <div style=""text-align: center; position: fixed; top: 5vh; left: 40vw;"">
            <div style=""margin:0 auto; width: 20vw; top: 8vh; font-size: 2vw""> 
            <font color=""green""> Bonus : $9.9 </font>
            </div>
        </div>
    
            <div> Please press any key to continue to the next image.</div>
        ","arrowup","ITI","","","","","","",""
"","","","","","html-keyboard-response","132","196340","0.0-7.15-1.15","6102f8a9d697ea8a10d9234f","655cb802637e0dbe2941dbc4","655cb8d410be4d9ffa657e64","null","
        
        <div style=""text-align: center; position: fixed; top: 5vh; left: 40vw;"">
            <div style=""margin:0 auto; width: 20vw; top: 8vh; font-size: 2vw""> 
            <font color=""green""> Bonus : $9.9 </font>
            </div>
        </div>
    
        <img class=""stim"" src=./stimuli//pack_shapes_diff/cat_2/diff_4/ex_2_4_4.png></img>
    ","null","stimulus","","","","","","",""
"","","","","","html-keyboard-response","133","197347","0.0-7.15-2.15","6102f8a9d697ea8a10d9234f","655cb802637e0dbe2941dbc4","655cb8d410be4d9ffa657e64","null","
        <div style=""text-align: center; position: fixed; top: 5vh; left: 40vw;"">
            <div style=""margin:0 auto; width: 20vw; top: 8vh; font-size: 2vw""> 
            <font color=""green""> Bonus : $9.9 </font>
            </div>
        </div>
    ","null","","","","","","","",""
"","","","","","html-keyboard-response","134","197646","0.0-7.15-3.15","6102f8a9d697ea8a10d9234f","655cb802637e0dbe2941dbc4","655cb8d410be4d9ffa657e64","299","./stimuli//pack_shapes_diff/cat_2/diff_4/ex_2_4_4.png","arrowright","response","ArrowRight","4","2","4","test","true",""
"","","","","","html-keyboard-response","135","199166","0.0-7.15-4.15","6102f8a9d697ea8a10d9234f","655cb802637e0dbe2941dbc4","655cb8d410be4d9ffa657e64","null","<p> <font color=""green"" size=""5vw""> Correct category! </font></p>","null","feedback","","","","","","","9.9"
"","","","","","html-keyboard-response","136","199775","0.0-7.16-0.16","6102f8a9d697ea8a10d9234f","655cb802637e0dbe2941dbc4","655cb8d410be4d9ffa657e64","608","
            
        <div style=""text-align: center; position: fixed; top: 5vh; left: 40vw;"">
            <div style=""margin:0 auto; width: 20vw; top: 8vh; font-size: 2vw""> 
            <font color=""green""> Bonus : $9.9 </font>
            </div>
        </div>
    
            <div> Please press any key to continue to the next image.</div>
        ","arrowup","ITI","","","","","","",""
"","","","","","html-keyboard-response","137","200379","0.0-7.16-1.16","6102f8a9d697ea8a10d9234f","655cb802637e0dbe2941dbc4","655cb8d410be4d9ffa657e64","null","
        
        <div style=""text-align: center; position: fixed; top: 5vh; left: 40vw;"">
            <div style=""margin:0 auto; width: 20vw; top: 8vh; font-size: 2vw""> 
            <font color=""green""> Bonus : $9.9 </font>
            </div>
        </div>
    
        <img class=""stim"" src=./stimuli//pack_shapes_diff/cat_1/diff_4/ex_1_4_2.png></img>
    ","null","stimulus","","","","","","",""
"","","","","","html-keyboard-response","138","201386","0.0-7.16-2.16","6102f8a9d697ea8a10d9234f","655cb802637e0dbe2941dbc4","655cb8d410be4d9ffa657e64","null","
        <div style=""text-align: center; position: fixed; top: 5vh; left: 40vw;"">
            <div style=""margin:0 auto; width: 20vw; top: 8vh; font-size: 2vw""> 
            <font color=""green""> Bonus : $9.9 </font>
            </div>
        </div>
    ","null","","","","","","","",""
"","","","","","html-keyboard-response","139","202190","0.0-7.16-3.16","6102f8a9d697ea8a10d9234f","655cb802637e0dbe2941dbc4","655cb8d410be4d9ffa657e64","804","./stimuli//pack_shapes_diff/cat_1/diff_4/ex_1_4_2.png","arrowleft","response","ArrowLeft","2","1","4","test","true",""
"","","","","","html-keyboard-response","140","203707","0.0-7.16-4.16","6102f8a9d697ea8a10d9234f","655cb802637e0dbe2941dbc4","655cb8d410be4d9ffa657e64","null","<p> <font color=""green"" size=""5vw""> Correct category! </font></p>","null","feedback","","","","","","","9.9"
"","","","","","html-keyboard-response","141","205406","0.0-7.17-0.17","6102f8a9d697ea8a10d9234f","655cb802637e0dbe2941dbc4","655cb8d410be4d9ffa657e64","1698","
            
        <div style=""text-align: center; position: fixed; top: 5vh; left: 40vw;"">
            <div style=""margin:0 auto; width: 20vw; top: 8vh; font-size: 2vw""> 
            <font color=""green""> Bonus : $9.9 </font>
            </div>
        </div>
    
            <div> Please press any key to continue to the next image.</div>
        ","arrowup","ITI","","","","","","",""
"","","","","","html-keyboard-response","142","206011","0.0-7.17-1.17","6102f8a9d697ea8a10d9234f","655cb802637e0dbe2941dbc4","655cb8d410be4d9ffa657e64","null","
        
        <div style=""text-align: center; position: fixed; top: 5vh; left: 40vw;"">
            <div style=""margin:0 auto; width: 20vw; top: 8vh; font-size: 2vw""> 
            <font color=""green""> Bonus : $9.9 </font>
            </div>
        </div>
    
        <img class=""stim"" src=./stimuli//pack_shapes_diff/cat_1/diff_4/ex_1_4_13.png></img>
    ","null","stimulus","","","","","","",""
"","","","","","html-keyboard-response","143","207027","0.0-7.17-2.17","6102f8a9d697ea8a10d9234f","655cb802637e0dbe2941dbc4","655cb8d410be4d9ffa657e64","null","
        <div style=""text-align: center; position: fixed; top: 5vh; left: 40vw;"">
            <div style=""margin:0 auto; width: 20vw; top: 8vh; font-size: 2vw""> 
            <font color=""green""> Bonus : $9.9 </font>
            </div>
        </div>
    ","null","","","","","","","",""
"","","","","","html-keyboard-response","144","207600","0.0-7.17-3.17","6102f8a9d697ea8a10d9234f","655cb802637e0dbe2941dbc4","655cb8d410be4d9ffa657e64","572","./stimuli//pack_shapes_diff/cat_1/diff_4/ex_1_4_13.png","arrowleft","response","ArrowLeft","13","1","4","test","true",""
"","","","","","html-keyboard-response","145","209115","0.0-7.17-4.17","6102f8a9d697ea8a10d9234f","655cb802637e0dbe2941dbc4","655cb8d410be4d9ffa657e64","null","<p> <font color=""green"" size=""5vw""> Correct category! </font></p>","null","feedback","","","","","","","9.9"
"","","","","","html-keyboard-response","146","209822","0.0-7.18-0.18","6102f8a9d697ea8a10d9234f","655cb802637e0dbe2941dbc4","655cb8d410be4d9ffa657e64","706","
            
        <div style=""text-align: center; position: fixed; top: 5vh; left: 40vw;"">
            <div style=""margin:0 auto; width: 20vw; top: 8vh; font-size: 2vw""> 
            <font color=""green""> Bonus : $9.9 </font>
            </div>
        </div>
    
            <div> Please press any key to continue to the next image.</div>
        ","arrowup","ITI","","","","","","",""
"","","","","","html-keyboard-response","147","210426","0.0-7.18-1.18","6102f8a9d697ea8a10d9234f","655cb802637e0dbe2941dbc4","655cb8d410be4d9ffa657e64","null","
        
        <div style=""text-align: center; position: fixed; top: 5vh; left: 40vw;"">
            <div style=""margin:0 auto; width: 20vw; top: 8vh; font-size: 2vw""> 
            <font color=""green""> Bonus : $9.9 </font>
            </div>
        </div>
    
        <img class=""stim"" src=./stimuli//pack_shapes_diff/cat_2/diff_4/ex_2_4_3.png></img>
    ","null","stimulus","","","","","","",""
"","","","","","html-keyboard-response","148","211436","0.0-7.18-2.18","6102f8a9d697ea8a10d9234f","655cb802637e0dbe2941dbc4","655cb8d410be4d9ffa657e64","null","
        <div style=""text-align: center; position: fixed; top: 5vh; left: 40vw;"">
            <div style=""margin:0 auto; width: 20vw; top: 8vh; font-size: 2vw""> 
            <font color=""green""> Bonus : $9.9 </font>
            </div>
        </div>
    ","null","","","","","","","",""
"","","","","","html-keyboard-response","149","211839","0.0-7.18-3.18","6102f8a9d697ea8a10d9234f","655cb802637e0dbe2941dbc4","655cb8d410be4d9ffa657e64","403","./stimuli//pack_shapes_diff/cat_2/diff_4/ex_2_4_3.png","arrowright","response","ArrowRight","3","2","4","test","true",""
"","","","","","html-keyboard-response","150","213353","0.0-7.18-4.18","6102f8a9d697ea8a10d9234f","655cb802637e0dbe2941dbc4","655cb8d410be4d9ffa657e64","null","<p> <font color=""green"" size=""5vw""> Correct category! </font></p>","null","feedback","","","","","","","9.9"
"","","","","","html-keyboard-response","151","213840","0.0-7.19-0.19","6102f8a9d697ea8a10d9234f","655cb802637e0dbe2941dbc4","655cb8d410be4d9ffa657e64","486","
            
        <div style=""text-align: center; position: fixed; top: 5vh; left: 40vw;"">
            <div style=""margin:0 auto; width: 20vw; top: 8vh; font-size: 2vw""> 
            <font color=""green""> Bonus : $9.9 </font>
            </div>
        </div>
    
            <div> Please press any key to continue to the next image.</div>
        ","arrowup","ITI","","","","","","",""
"","","","","","html-keyboard-response","152","214455","0.0-7.19-1.19","6102f8a9d697ea8a10d9234f","655cb802637e0dbe2941dbc4","655cb8d410be4d9ffa657e64","null","
        
        <div style=""text-align: center; position: fixed; top: 5vh; left: 40vw;"">
            <div style=""margin:0 auto; width: 20vw; top: 8vh; font-size: 2vw""> 
            <font color=""green""> Bonus : $9.9 </font>
            </div>
        </div>
    
        <img class=""stim"" src=./stimuli//pack_shapes_diff/cat_2/diff_4/ex_2_4_8.png></img>
    ","null","stimulus","","","","","","",""
"","","","","","html-keyboard-response","153","215456","0.0-7.19-2.19","6102f8a9d697ea8a10d9234f","655cb802637e0dbe2941dbc4","655cb8d410be4d9ffa657e64","null","
        <div style=""text-align: center; position: fixed; top: 5vh; left: 40vw;"">
            <div style=""margin:0 auto; width: 20vw; top: 8vh; font-size: 2vw""> 
            <font color=""green""> Bonus : $9.9 </font>
            </div>
        </div>
    ","null","","","","","","","",""
"","","","","","html-keyboard-response","154","215870","0.0-7.19-3.19","6102f8a9d697ea8a10d9234f","655cb802637e0dbe2941dbc4","655cb8d410be4d9ffa657e64","413","./stimuli//pack_shapes_diff/cat_2/diff_4/ex_2_4_8.png","arrowright","response","ArrowRight","8","2","4","test","true",""
"","","","","","html-keyboard-response","155","217375","0.0-7.19-4.19","6102f8a9d697ea8a10d9234f","655cb802637e0dbe2941dbc4","655cb8d410be4d9ffa657e64","null","<p> <font color=""green"" size=""5vw""> Correct category! </font></p>","null","feedback","","","","","","","9.9"
"","","","","","html-keyboard-response","156","217791","0.0-7.20-0.20","6102f8a9d697ea8a10d9234f","655cb802637e0dbe2941dbc4","655cb8d410be4d9ffa657e64","415","
            
        <div style=""text-align: center; position: fixed; top: 5vh; left: 40vw;"">
            <div style=""margin:0 auto; width: 20vw; top: 8vh; font-size: 2vw""> 
            <font color=""green""> Bonus : $9.9 </font>
            </div>
        </div>
    
            <div> Please press any key to continue to the next image.</div>
        ","arrowup","ITI","","","","","","",""
"","","","","","html-keyboard-response","157","218401","0.0-7.20-1.20","6102f8a9d697ea8a10d9234f","655cb802637e0dbe2941dbc4","655cb8d410be4d9ffa657e64","null","
        
        <div style=""text-align: center; position: fixed; top: 5vh; left: 40vw;"">
            <div style=""margin:0 auto; width: 20vw; top: 8vh; font-size: 2vw""> 
            <font color=""green""> Bonus : $9.9 </font>
            </div>
        </div>
    
        <img class=""stim"" src=./stimuli//pack_shapes_diff/cat_1/diff_5/ex_1_5_7.png></img>
    ","null","stimulus","","","","","","",""
"","","","","","html-keyboard-response","158","219402","0.0-7.20-2.20","6102f8a9d697ea8a10d9234f","655cb802637e0dbe2941dbc4","655cb8d410be4d9ffa657e64","null","
        <div style=""text-align: center; position: fixed; top: 5vh; left: 40vw;"">
            <div style=""margin:0 auto; width: 20vw; top: 8vh; font-size: 2vw""> 
            <font color=""green""> Bonus : $9.9 </font>
            </div>
        </div>
    ","null","","","","","","","",""
"","","","","","html-keyboard-response","159","219823","0.0-7.20-3.20","6102f8a9d697ea8a10d9234f","655cb802637e0dbe2941dbc4","655cb8d410be4d9ffa657e64","419","./stimuli//pack_shapes_diff/cat_1/diff_5/ex_1_5_7.png","arrowleft","response","ArrowLeft","7","1","5","test","true",""
"","","","","","html-keyboard-response","160","221337","0.0-7.20-4.20","6102f8a9d697ea8a10d9234f","655cb802637e0dbe2941dbc4","655cb8d410be4d9ffa657e64","null","<p> <font color=""green"" size=""5vw""> Correct category! </font></p>","null","feedback","","","","","","","9.9"
"","","","","","html-keyboard-response","161","221790","0.0-7.21-0.21","6102f8a9d697ea8a10d9234f","655cb802637e0dbe2941dbc4","655cb8d410be4d9ffa657e64","452","
            
        <div style=""text-align: center; position: fixed; top: 5vh; left: 40vw;"">
            <div style=""margin:0 auto; width: 20vw; top: 8vh; font-size: 2vw""> 
            <font color=""green""> Bonus : $9.9 </font>
            </div>
        </div>
    
            <div> Please press any key to continue to the next image.</div>
        ","arrowup","ITI","","","","","","",""
"","","","","","html-keyboard-response","162","222408","0.0-7.21-1.21","6102f8a9d697ea8a10d9234f","655cb802637e0dbe2941dbc4","655cb8d410be4d9ffa657e64","null","
        
        <div style=""text-align: center; position: fixed; top: 5vh; left: 40vw;"">
            <div style=""margin:0 auto; width: 20vw; top: 8vh; font-size: 2vw""> 
            <font color=""green""> Bonus : $9.9 </font>
            </div>
        </div>
    
        <img class=""stim"" src=./stimuli//pack_shapes_diff/cat_1/diff_5/ex_1_5_7.png></img>
    ","null","stimulus","","","","","","",""
"","","","","","html-keyboard-response","163","223425","0.0-7.21-2.21","6102f8a9d697ea8a10d9234f","655cb802637e0dbe2941dbc4","655cb8d410be4d9ffa657e64","null","
        <div style=""text-align: center; position: fixed; top: 5vh; left: 40vw;"">
            <div style=""margin:0 auto; width: 20vw; top: 8vh; font-size: 2vw""> 
            <font color=""green""> Bonus : $9.9 </font>
            </div>
        </div>
    ","null","","","","","","","",""
"","","","","","html-keyboard-response","164","223760","0.0-7.21-3.21","6102f8a9d697ea8a10d9234f","655cb802637e0dbe2941dbc4","655cb8d410be4d9ffa657e64","335","./stimuli//pack_shapes_diff/cat_1/diff_5/ex_1_5_7.png","arrowleft","response","ArrowLeft","7","1","5","test","true",""
"","","","","","html-keyboard-response","165","225279","0.0-7.21-4.21","6102f8a9d697ea8a10d9234f","655cb802637e0dbe2941dbc4","655cb8d410be4d9ffa657e64","null","<p> <font color=""green"" size=""5vw""> Correct category! </font></p>","null","feedback","","","","","","","9.9"
"","","","","","html-keyboard-response","166","225695","0.0-7.22-0.22","6102f8a9d697ea8a10d9234f","655cb802637e0dbe2941dbc4","655cb8d410be4d9ffa657e64","414","
            
        <div style=""text-align: center; position: fixed; top: 5vh; left: 40vw;"">
            <div style=""margin:0 auto; width: 20vw; top: 8vh; font-size: 2vw""> 
            <font color=""green""> Bonus : $9.9 </font>
            </div>
        </div>
    
            <div> Please press any key to continue to the next image.</div>
        ","arrowup","ITI","","","","","","",""
"","","","","","html-keyboard-response","167","226314","0.0-7.22-1.22","6102f8a9d697ea8a10d9234f","655cb802637e0dbe2941dbc4","655cb8d410be4d9ffa657e64","null","
        
        <div style=""text-align: center; position: fixed; top: 5vh; left: 40vw;"">
            <div style=""margin:0 auto; width: 20vw; top: 8vh; font-size: 2vw""> 
            <font color=""green""> Bonus : $9.9 </font>
            </div>
        </div>
    
        <img class=""stim"" src=./stimuli//pack_shapes_diff/cat_1/diff_5/ex_1_5_11.png></img>
    ","null","stimulus","","","","","","",""
"","","","","","html-keyboard-response","168","227332","0.0-7.22-2.22","6102f8a9d697ea8a10d9234f","655cb802637e0dbe2941dbc4","655cb8d410be4d9ffa657e64","null","
        <div style=""text-align: center; position: fixed; top: 5vh; left: 40vw;"">
            <div style=""margin:0 auto; width: 20vw; top: 8vh; font-size: 2vw""> 
            <font color=""green""> Bonus : $9.9 </font>
            </div>
        </div>
    ","null","","","","","","","",""
"","","","","","html-keyboard-response","169","228143","0.0-7.22-3.22","6102f8a9d697ea8a10d9234f","655cb802637e0dbe2941dbc4","655cb8d410be4d9ffa657e64","811","./stimuli//pack_shapes_diff/cat_1/diff_5/ex_1_5_11.png","arrowleft","response","ArrowLeft","11","1","5","test","true",""
"","","","","","html-keyboard-response","170","229651","0.0-7.22-4.22","6102f8a9d697ea8a10d9234f","655cb802637e0dbe2941dbc4","655cb8d410be4d9ffa657e64","null","<p> <font color=""green"" size=""5vw""> Correct category! </font></p>","null","feedback","","","","","","","9.9"
"","","","","","html-keyboard-response","171","230319","0.0-7.23-0.23","6102f8a9d697ea8a10d9234f","655cb802637e0dbe2941dbc4","655cb8d410be4d9ffa657e64","666","
            
        <div style=""text-align: center; position: fixed; top: 5vh; left: 40vw;"">
            <div style=""margin:0 auto; width: 20vw; top: 8vh; font-size: 2vw""> 
            <font color=""green""> Bonus : $9.9 </font>
            </div>
        </div>
    
            <div> Please press any key to continue to the next image.</div>
        ","arrowup","ITI","","","","","","",""
"","","","","","html-keyboard-response","172","230922","0.0-7.23-1.23","6102f8a9d697ea8a10d9234f","655cb802637e0dbe2941dbc4","655cb8d410be4d9ffa657e64","null","
        
        <div style=""text-align: center; position: fixed; top: 5vh; left: 40vw;"">
            <div style=""margin:0 auto; width: 20vw; top: 8vh; font-size: 2vw""> 
            <font color=""green""> Bonus : $9.9 </font>
            </div>
        </div>
    
        <img class=""stim"" src=./stimuli//pack_shapes_diff/cat_2/diff_5/ex_2_5_15.png></img>
    ","null","stimulus","","","","","","",""
"","","","","","html-keyboard-response","173","231940","0.0-7.23-2.23","6102f8a9d697ea8a10d9234f","655cb802637e0dbe2941dbc4","655cb8d410be4d9ffa657e64","null","
        <div style=""text-align: center; position: fixed; top: 5vh; left: 40vw;"">
            <div style=""margin:0 auto; width: 20vw; top: 8vh; font-size: 2vw""> 
            <font color=""green""> Bonus : $9.9 </font>
            </div>
        </div>
    ","null","","","","","","","",""
"","","","","","html-keyboard-response","174","232910","0.0-7.23-3.23","6102f8a9d697ea8a10d9234f","655cb802637e0dbe2941dbc4","655cb8d410be4d9ffa657e64","969","./stimuli//pack_shapes_diff/cat_2/diff_5/ex_2_5_15.png","arrowleft","response","ArrowRight","15","2","5","test","false",""
"","","","","","html-keyboard-response","175","234271","0.0-7.23-4.23","6102f8a9d697ea8a10d9234f","655cb802637e0dbe2941dbc4","655cb8d410be4d9ffa657e64","1360","<p> <font size=""4vw""> Wrong category! </font> <br> <br> <font color=""red"" size=""7vw""> - $0.05 points </font> </p>","arrowup","feedback","","","","","","","9.85"
"","","","","","html-keyboard-response","176","235182","0.0-7.24-0.24","6102f8a9d697ea8a10d9234f","655cb802637e0dbe2941dbc4","655cb8d410be4d9ffa657e64","910","
            
        <div style=""text-align: center; position: fixed; top: 5vh; left: 40vw;"">
            <div style=""margin:0 auto; width: 20vw; top: 8vh; font-size: 2vw""> 
            <font color=""green""> Bonus : $9.85 </font>
            </div>
        </div>
    
            <div> Please press any key to continue to the next image.</div>
        ","arrowup","ITI","","","","","","",""
"","","","","","html-keyboard-response","177","235795","0.0-7.24-1.24","6102f8a9d697ea8a10d9234f","655cb802637e0dbe2941dbc4","655cb8d410be4d9ffa657e64","null","
        
        <div style=""text-align: center; position: fixed; top: 5vh; left: 40vw;"">
            <div style=""margin:0 auto; width: 20vw; top: 8vh; font-size: 2vw""> 
            <font color=""green""> Bonus : $9.85 </font>
            </div>
        </div>
    
        <img class=""stim"" src=./stimuli//pack_shapes_diff/cat_1/diff_5/ex_1_5_8.png></img>
    ","null","stimulus","","","","","","",""
"","","","","","html-keyboard-response","178","236811","0.0-7.24-2.24","6102f8a9d697ea8a10d9234f","655cb802637e0dbe2941dbc4","655cb8d410be4d9ffa657e64","null","
        <div style=""text-align: center; position: fixed; top: 5vh; left: 40vw;"">
            <div style=""margin:0 auto; width: 20vw; top: 8vh; font-size: 2vw""> 
            <font color=""green""> Bonus : $9.85 </font>
            </div>
        </div>
    ","null","","","","","","","",""
"","","","","","html-keyboard-response","179","237153","0.0-7.24-3.24","6102f8a9d697ea8a10d9234f","655cb802637e0dbe2941dbc4","655cb8d410be4d9ffa657e64","341","./stimuli//pack_shapes_diff/cat_1/diff_5/ex_1_5_8.png","arrowleft","response","ArrowLeft","8","1","5","test","true",""
"","","","","","html-keyboard-response","180","238667","0.0-7.24-4.24","6102f8a9d697ea8a10d9234f","655cb802637e0dbe2941dbc4","655cb8d410be4d9ffa657e64","null","<p> <font color=""green"" size=""5vw""> Correct category! </font></p>","null","feedback","","","","","","","9.85"
"","","","","","html-keyboard-response","181","239680","0.0-7.25-0.25","6102f8a9d697ea8a10d9234f","655cb802637e0dbe2941dbc4","655cb8d410be4d9ffa657e64","1012","
            
        <div style=""text-align: center; position: fixed; top: 5vh; left: 40vw;"">
            <div style=""margin:0 auto; width: 20vw; top: 8vh; font-size: 2vw""> 
            <font color=""green""> Bonus : $9.85 </font>
            </div>
        </div>
    
            <div> Please press any key to continue to the next image.</div>
        ","arrowup","ITI","","","","","","",""
"","","","","","html-keyboard-response","182","240287","0.0-7.25-1.25","6102f8a9d697ea8a10d9234f","655cb802637e0dbe2941dbc4","655cb8d410be4d9ffa657e64","null","
        
        <div style=""text-align: center; position: fixed; top: 5vh; left: 40vw;"">
            <div style=""margin:0 auto; width: 20vw; top: 8vh; font-size: 2vw""> 
            <font color=""green""> Bonus : $9.85 </font>
            </div>
        </div>
    
        <img class=""stim"" src=./stimuli//pack_shapes_diff/cat_2/diff_5/ex_2_5_4.png></img>
    ","null","stimulus","","","","","","",""
"","","","","","html-keyboard-response","183","241293","0.0-7.25-2.25","6102f8a9d697ea8a10d9234f","655cb802637e0dbe2941dbc4","655cb8d410be4d9ffa657e64","null","
        <div style=""text-align: center; position: fixed; top: 5vh; left: 40vw;"">
            <div style=""margin:0 auto; width: 20vw; top: 8vh; font-size: 2vw""> 
            <font color=""green""> Bonus : $9.85 </font>
            </div>
        </div>
    ","null","","","","","","","",""
"","","","","","html-keyboard-response","184","241806","0.0-7.25-3.25","6102f8a9d697ea8a10d9234f","655cb802637e0dbe2941dbc4","655cb8d410be4d9ffa657e64","513","./stimuli//pack_shapes_diff/cat_2/diff_5/ex_2_5_4.png","arrowleft","response","ArrowRight","4","2","5","test","false",""
"","","","","","html-keyboard-response","185","243312","0.0-7.25-4.25","6102f8a9d697ea8a10d9234f","655cb802637e0dbe2941dbc4","655cb8d410be4d9ffa657e64","null","<p> <font size=""4vw""> Wrong category! </font> <br> <br> <font color=""red"" size=""7vw""> - $0.05 points </font> </p>","null","feedback","","","","","","","9.8"
"","","","","","html-keyboard-response","186","243454","0.0-7.26-0.26","6102f8a9d697ea8a10d9234f","655cb802637e0dbe2941dbc4","655cb8d410be4d9ffa657e64","141","
            
        <div style=""text-align: center; position: fixed; top: 5vh; left: 40vw;"">
            <div style=""margin:0 auto; width: 20vw; top: 8vh; font-size: 2vw""> 
            <font color=""green""> Bonus : $9.8 </font>
            </div>
        </div>
    
            <div> Please press any key to continue to the next image.</div>
        ","arrowup","ITI","","","","","","",""
"","","","","","html-keyboard-response","187","244061","0.0-7.26-1.26","6102f8a9d697ea8a10d9234f","655cb802637e0dbe2941dbc4","655cb8d410be4d9ffa657e64","null","
        
        <div style=""text-align: center; position: fixed; top: 5vh; left: 40vw;"">
            <div style=""margin:0 auto; width: 20vw; top: 8vh; font-size: 2vw""> 
            <font color=""green""> Bonus : $9.8 </font>
            </div>
        </div>
    
        <img class=""stim"" src=./stimuli//pack_shapes_diff/cat_1/diff_4/ex_1_4_15.png></img>
    ","null","stimulus","","","","","","",""
"","","","","","html-keyboard-response","188","245079","0.0-7.26-2.26","6102f8a9d697ea8a10d9234f","655cb802637e0dbe2941dbc4","655cb8d410be4d9ffa657e64","null","
        <div style=""text-align: center; position: fixed; top: 5vh; left: 40vw;"">
            <div style=""margin:0 auto; width: 20vw; top: 8vh; font-size: 2vw""> 
            <font color=""green""> Bonus : $9.8 </font>
            </div>
        </div>
    ","null","","","","","","","",""
"","","","","","html-keyboard-response","189","245470","0.0-7.26-3.26","6102f8a9d697ea8a10d9234f","655cb802637e0dbe2941dbc4","655cb8d410be4d9ffa657e64","391","./stimuli//pack_shapes_diff/cat_1/diff_4/ex_1_4_15.png","arrowright","response","ArrowLeft","15","1","4","test","false",""
"","","","","","html-keyboard-response","190","246982","0.0-7.26-4.26","6102f8a9d697ea8a10d9234f","655cb802637e0dbe2941dbc4","655cb8d410be4d9ffa657e64","null","<p> <font size=""4vw""> Wrong category! </font> <br> <br> <font color=""red"" size=""7vw""> - $0.05 points </font> </p>","null","feedback","","","","","","","9.75"
"","","","","","html-keyboard-response","191","247855","0.0-7.27-0.27","6102f8a9d697ea8a10d9234f","655cb802637e0dbe2941dbc4","655cb8d410be4d9ffa657e64","873","
            
        <div style=""text-align: center; position: fixed; top: 5vh; left: 40vw;"">
            <div style=""margin:0 auto; width: 20vw; top: 8vh; font-size: 2vw""> 
            <font color=""green""> Bonus : $9.75 </font>
            </div>
        </div>
    
            <div> Please press any key to continue to the next image.</div>
        ","arrowup","ITI","","","","","","",""
"","","","","","html-keyboard-response","192","248469","0.0-7.27-1.27","6102f8a9d697ea8a10d9234f","655cb802637e0dbe2941dbc4","655cb8d410be4d9ffa657e64","null","
        
        <div style=""text-align: center; position: fixed; top: 5vh; left: 40vw;"">
            <div style=""margin:0 auto; width: 20vw; top: 8vh; font-size: 2vw""> 
            <font color=""green""> Bonus : $9.75 </font>
            </div>
        </div>
    
        <img class=""stim"" src=./stimuli//pack_shapes_diff/cat_1/diff_4/ex_1_4_5.png></img>
    ","null","stimulus","","","","","","",""
"","","","","","html-keyboard-response","193","249471","0.0-7.27-2.27","6102f8a9d697ea8a10d9234f","655cb802637e0dbe2941dbc4","655cb8d410be4d9ffa657e64","null","
        <div style=""text-align: center; position: fixed; top: 5vh; left: 40vw;"">
            <div style=""margin:0 auto; width: 20vw; top: 8vh; font-size: 2vw""> 
            <font color=""green""> Bonus : $9.75 </font>
            </div>
        </div>
    ","null","","","","","","","",""
"","","","","","html-keyboard-response","194","249855","0.0-7.27-3.27","6102f8a9d697ea8a10d9234f","655cb802637e0dbe2941dbc4","655cb8d410be4d9ffa657e64","383","./stimuli//pack_shapes_diff/cat_1/diff_4/ex_1_4_5.png","arrowleft","response","ArrowLeft","5","1","4","test","true",""
"","","","","","html-keyboard-response","195","251359","0.0-7.27-4.27","6102f8a9d697ea8a10d9234f","655cb802637e0dbe2941dbc4","655cb8d410be4d9ffa657e64","null","<p> <font color=""green"" size=""5vw""> Correct category! </font></p>","null","feedback","","","","","","","9.75"
"","","","","","html-keyboard-response","196","251966","0.0-7.28-0.28","6102f8a9d697ea8a10d9234f","655cb802637e0dbe2941dbc4","655cb8d410be4d9ffa657e64","606","
            
        <div style=""text-align: center; position: fixed; top: 5vh; left: 40vw;"">
            <div style=""margin:0 auto; width: 20vw; top: 8vh; font-size: 2vw""> 
            <font color=""green""> Bonus : $9.75 </font>
            </div>
        </div>
    
            <div> Please press any key to continue to the next image.</div>
        ","arrowup","ITI","","","","","","",""
"","","","","","html-keyboard-response","197","252578","0.0-7.28-1.28","6102f8a9d697ea8a10d9234f","655cb802637e0dbe2941dbc4","655cb8d410be4d9ffa657e64","null","
        
        <div style=""text-align: center; position: fixed; top: 5vh; left: 40vw;"">
            <div style=""margin:0 auto; width: 20vw; top: 8vh; font-size: 2vw""> 
            <font color=""green""> Bonus : $9.75 </font>
            </div>
        </div>
    
        <img class=""stim"" src=./stimuli//pack_shapes_diff/cat_2/diff_4/ex_2_4_16.png></img>
    ","null","stimulus","","","","","","",""
"","","","","","html-keyboard-response","198","253595","0.0-7.28-2.28","6102f8a9d697ea8a10d9234f","655cb802637e0dbe2941dbc4","655cb8d410be4d9ffa657e64","null","
        <div style=""text-align: center; position: fixed; top: 5vh; left: 40vw;"">
            <div style=""margin:0 auto; width: 20vw; top: 8vh; font-size: 2vw""> 
            <font color=""green""> Bonus : $9.75 </font>
            </div>
        </div>
    ","null","","","","","","","",""
"","","","","","html-keyboard-response","199","254062","0.0-7.28-3.28","6102f8a9d697ea8a10d9234f","655cb802637e0dbe2941dbc4","655cb8d410be4d9ffa657e64","467","./stimuli//pack_shapes_diff/cat_2/diff_4/ex_2_4_16.png","arrowright","response","ArrowRight","16","2","4","test","true",""
"","","","","","html-keyboard-response","200","255567","0.0-7.28-4.28","6102f8a9d697ea8a10d9234f","655cb802637e0dbe2941dbc4","655cb8d410be4d9ffa657e64","null","<p> <font color=""green"" size=""5vw""> Correct category! </font></p>","null","feedback","","","","","","","9.75"
"","","","","","html-keyboard-response","201","256287","0.0-7.29-0.29","6102f8a9d697ea8a10d9234f","655cb802637e0dbe2941dbc4","655cb8d410be4d9ffa657e64","718","
            
        <div style=""text-align: center; position: fixed; top: 5vh; left: 40vw;"">
            <div style=""margin:0 auto; width: 20vw; top: 8vh; font-size: 2vw""> 
            <font color=""green""> Bonus : $9.75 </font>
            </div>
        </div>
    
            <div> Please press any key to continue to the next image.</div>
        ","arrowup","ITI","","","","","","",""
"","","","","","html-keyboard-response","202","256901","0.0-7.29-1.29","6102f8a9d697ea8a10d9234f","655cb802637e0dbe2941dbc4","655cb8d410be4d9ffa657e64","null","
        
        <div style=""text-align: center; position: fixed; top: 5vh; left: 40vw;"">
            <div style=""margin:0 auto; width: 20vw; top: 8vh; font-size: 2vw""> 
            <font color=""green""> Bonus : $9.75 </font>
            </div>
        </div>
    
        <img class=""stim"" src=./stimuli//pack_shapes_diff/cat_2/diff_4/ex_2_4_7.png></img>
    ","null","stimulus","","","","","","",""
"","","","","","html-keyboard-response","203","257903","0.0-7.29-2.29","6102f8a9d697ea8a10d9234f","655cb802637e0dbe2941dbc4","655cb8d410be4d9ffa657e64","null","
        <div style=""text-align: center; position: fixed; top: 5vh; left: 40vw;"">
            <div style=""margin:0 auto; width: 20vw; top: 8vh; font-size: 2vw""> 
            <font color=""green""> Bonus : $9.75 </font>
            </div>
        </div>
    ","null","","","","","","","",""
"","","","","","html-keyboard-response","204","258223","0.0-7.29-3.29","6102f8a9d697ea8a10d9234f","655cb802637e0dbe2941dbc4","655cb8d410be4d9ffa657e64","319","./stimuli//pack_shapes_diff/cat_2/diff_4/ex_2_4_7.png","arrowright","response","ArrowRight","7","2","4","test","true",""
"","","","","","html-keyboard-response","205","259739","0.0-7.29-4.29","6102f8a9d697ea8a10d9234f","655cb802637e0dbe2941dbc4","655cb8d410be4d9ffa657e64","null","<p> <font color=""green"" size=""5vw""> Correct category! </font></p>","null","feedback","","","","","","","9.75"
"","","","","","html-keyboard-response","206","260223","0.0-7.30-0.30","6102f8a9d697ea8a10d9234f","655cb802637e0dbe2941dbc4","655cb8d410be4d9ffa657e64","483","
            
        <div style=""text-align: center; position: fixed; top: 5vh; left: 40vw;"">
            <div style=""margin:0 auto; width: 20vw; top: 8vh; font-size: 2vw""> 
            <font color=""green""> Bonus : $9.75 </font>
            </div>
        </div>
    
            <div> Please press any key to continue to the next image.</div>
        ","arrowup","ITI","","","","","","",""
"","","","","","html-keyboard-response","207","260839","0.0-7.30-1.30","6102f8a9d697ea8a10d9234f","655cb802637e0dbe2941dbc4","655cb8d410be4d9ffa657e64","null","
        
        <div style=""text-align: center; position: fixed; top: 5vh; left: 40vw;"">
            <div style=""margin:0 auto; width: 20vw; top: 8vh; font-size: 2vw""> 
            <font color=""green""> Bonus : $9.75 </font>
            </div>
        </div>
    
        <img class=""stim"" src=./stimuli//pack_shapes_diff/cat_1/diff_4/ex_1_4_8.png></img>
    ","null","stimulus","","","","","","",""
"","","","","","html-keyboard-response","208","261841","0.0-7.30-2.30","6102f8a9d697ea8a10d9234f","655cb802637e0dbe2941dbc4","655cb8d410be4d9ffa657e64","null","
        <div style=""text-align: center; position: fixed; top: 5vh; left: 40vw;"">
            <div style=""margin:0 auto; width: 20vw; top: 8vh; font-size: 2vw""> 
            <font color=""green""> Bonus : $9.75 </font>
            </div>
        </div>
    ","null","","","","","","","",""
"","","","","","html-keyboard-response","209","262205","0.0-7.30-3.30","6102f8a9d697ea8a10d9234f","655cb802637e0dbe2941dbc4","655cb8d410be4d9ffa657e64","364","./stimuli//pack_shapes_diff/cat_1/diff_4/ex_1_4_8.png","arrowright","response","ArrowLeft","8","1","4","test","false",""
"","","","","","html-keyboard-response","210","263714","0.0-7.30-4.30","6102f8a9d697ea8a10d9234f","655cb802637e0dbe2941dbc4","655cb8d410be4d9ffa657e64","null","<p> <font size=""4vw""> Wrong category! </font> <br> <br> <font color=""red"" size=""7vw""> - $0.05 points </font> </p>","null","feedback","","","","","","","9.7"
"","","","","","html-keyboard-response","211","263870","0.0-7.31-0.31","6102f8a9d697ea8a10d9234f","655cb802637e0dbe2941dbc4","655cb8d410be4d9ffa657e64","155","
            
        <div style=""text-align: center; position: fixed; top: 5vh; left: 40vw;"">
            <div style=""margin:0 auto; width: 20vw; top: 8vh; font-size: 2vw""> 
            <font color=""green""> Bonus : $9.7 </font>
            </div>
        </div>
    
            <div> Please press any key to continue to the next image.</div>
        ","arrowup","ITI","","","","","","",""
"","","","","","html-keyboard-response","212","264484","0.0-7.31-1.31","6102f8a9d697ea8a10d9234f","655cb802637e0dbe2941dbc4","655cb8d410be4d9ffa657e64","null","
        
        <div style=""text-align: center; position: fixed; top: 5vh; left: 40vw;"">
            <div style=""margin:0 auto; width: 20vw; top: 8vh; font-size: 2vw""> 
            <font color=""green""> Bonus : $9.7 </font>
            </div>
        </div>
    
        <img class=""stim"" src=./stimuli//pack_shapes_diff/cat_2/diff_3/ex_2_3_4.png></img>
    ","null","stimulus","","","","","","",""
"","","","","","html-keyboard-response","213","265486","0.0-7.31-2.31","6102f8a9d697ea8a10d9234f","655cb802637e0dbe2941dbc4","655cb8d410be4d9ffa657e64","null","
        <div style=""text-align: center; position: fixed; top: 5vh; left: 40vw;"">
            <div style=""margin:0 auto; width: 20vw; top: 8vh; font-size: 2vw""> 
            <font color=""green""> Bonus : $9.7 </font>
            </div>
        </div>
    ","null","","","","","","","",""
"","","","","","html-keyboard-response","214","265823","0.0-7.31-3.31","6102f8a9d697ea8a10d9234f","655cb802637e0dbe2941dbc4","655cb8d410be4d9ffa657e64","336","./stimuli//pack_shapes_diff/cat_2/diff_3/ex_2_3_4.png","arrowright","response","ArrowRight","4","2","3","test","true",""
"","","","","","html-keyboard-response","215","267336","0.0-7.31-4.31","6102f8a9d697ea8a10d9234f","655cb802637e0dbe2941dbc4","655cb8d410be4d9ffa657e64","null","<p> <font color=""green"" size=""5vw""> Correct category! </font></p>","null","feedback","","","","","","","9.7"
"","","","","","html-keyboard-response","216","267809","0.0-7.32-0.32","6102f8a9d697ea8a10d9234f","655cb802637e0dbe2941dbc4","655cb8d410be4d9ffa657e64","471","
            
        <div style=""text-align: center; position: fixed; top: 5vh; left: 40vw;"">
            <div style=""margin:0 auto; width: 20vw; top: 8vh; font-size: 2vw""> 
            <font color=""green""> Bonus : $9.7 </font>
            </div>
        </div>
    
            <div> Please press any key to continue to the next image.</div>
        ","arrowup","ITI","","","","","","",""
"","","","","","html-keyboard-response","217","268422","0.0-7.32-1.32","6102f8a9d697ea8a10d9234f","655cb802637e0dbe2941dbc4","655cb8d410be4d9ffa657e64","null","
        
        <div style=""text-align: center; position: fixed; top: 5vh; left: 40vw;"">
            <div style=""margin:0 auto; width: 20vw; top: 8vh; font-size: 2vw""> 
            <font color=""green""> Bonus : $9.7 </font>
            </div>
        </div>
    
        <img class=""stim"" src=./stimuli//pack_shapes_diff/cat_1/diff_3/ex_1_3_11.png></img>
    ","null","stimulus","","","","","","",""
"","","","","","html-keyboard-response","218","269425","0.0-7.32-2.32","6102f8a9d697ea8a10d9234f","655cb802637e0dbe2941dbc4","655cb8d410be4d9ffa657e64","null","
        <div style=""text-align: center; position: fixed; top: 5vh; left: 40vw;"">
            <div style=""margin:0 auto; width: 20vw; top: 8vh; font-size: 2vw""> 
            <font color=""green""> Bonus : $9.7 </font>
            </div>
        </div>
    ","null","","","","","","","",""
"","","","","","html-keyboard-response","219","269746","0.0-7.32-3.32","6102f8a9d697ea8a10d9234f","655cb802637e0dbe2941dbc4","655cb8d410be4d9ffa657e64","321","./stimuli//pack_shapes_diff/cat_1/diff_3/ex_1_3_11.png","arrowleft","response","ArrowLeft","11","1","3","test","true",""
"","","","","","html-keyboard-response","220","271261","0.0-7.32-4.32","6102f8a9d697ea8a10d9234f","655cb802637e0dbe2941dbc4","655cb8d410be4d9ffa657e64","null","<p> <font color=""green"" size=""5vw""> Correct category! </font></p>","null","feedback","","","","","","","9.7"
"","","","","","html-keyboard-response","221","271919","0.0-7.33-0.33","6102f8a9d697ea8a10d9234f","655cb802637e0dbe2941dbc4","655cb8d410be4d9ffa657e64","657","
            
        <div style=""text-align: center; position: fixed; top: 5vh; left: 40vw;"">
            <div style=""margin:0 auto; width: 20vw; top: 8vh; font-size: 2vw""> 
            <font color=""green""> Bonus : $9.7 </font>
            </div>
        </div>
    
            <div> Please press any key to continue to the next image.</div>
        ","arrowup","ITI","","","","","","",""
"","","","","","html-keyboard-response","222","272530","0.0-7.33-1.33","6102f8a9d697ea8a10d9234f","655cb802637e0dbe2941dbc4","655cb8d410be4d9ffa657e64","null","
        
        <div style=""text-align: center; position: fixed; top: 5vh; left: 40vw;"">
            <div style=""margin:0 auto; width: 20vw; top: 8vh; font-size: 2vw""> 
            <font color=""green""> Bonus : $9.7 </font>
            </div>
        </div>
    
        <img class=""stim"" src=./stimuli//pack_shapes_diff/cat_2/diff_3/ex_2_3_16.png></img>
    ","null","stimulus","","","","","","",""
"","","","","","html-keyboard-response","223","273547","0.0-7.33-2.33","6102f8a9d697ea8a10d9234f","655cb802637e0dbe2941dbc4","655cb8d410be4d9ffa657e64","null","
        <div style=""text-align: center; position: fixed; top: 5vh; left: 40vw;"">
            <div style=""margin:0 auto; width: 20vw; top: 8vh; font-size: 2vw""> 
            <font color=""green""> Bonus : $9.7 </font>
            </div>
        </div>
    ","null","","","","","","","",""
"","","","","","html-keyboard-response","224","273886","0.0-7.33-3.33","6102f8a9d697ea8a10d9234f","655cb802637e0dbe2941dbc4","655cb8d410be4d9ffa657e64","339","./stimuli//pack_shapes_diff/cat_2/diff_3/ex_2_3_16.png","arrowleft","response","ArrowRight","16","2","3","test","false",""
"","","","","","html-keyboard-response","225","275403","0.0-7.33-4.33","6102f8a9d697ea8a10d9234f","655cb802637e0dbe2941dbc4","655cb8d410be4d9ffa657e64","null","<p> <font size=""4vw""> Wrong category! </font> <br> <br> <font color=""red"" size=""7vw""> - $0.05 points </font> </p>","null","feedback","","","","","","","9.65"
"","","","","","html-keyboard-response","226","275584","0.0-7.34-0.34","6102f8a9d697ea8a10d9234f","655cb802637e0dbe2941dbc4","655cb8d410be4d9ffa657e64","179","
            
        <div style=""text-align: center; position: fixed; top: 5vh; left: 40vw;"">
            <div style=""margin:0 auto; width: 20vw; top: 8vh; font-size: 2vw""> 
            <font color=""green""> Bonus : $9.65 </font>
            </div>
        </div>
    
            <div> Please press any key to continue to the next image.</div>
        ","arrowup","ITI","","","","","","",""
"","","","","","html-keyboard-response","227","276205","0.0-7.34-1.34","6102f8a9d697ea8a10d9234f","655cb802637e0dbe2941dbc4","655cb8d410be4d9ffa657e64","null","
        
        <div style=""text-align: center; position: fixed; top: 5vh; left: 40vw;"">
            <div style=""margin:0 auto; width: 20vw; top: 8vh; font-size: 2vw""> 
            <font color=""green""> Bonus : $9.65 </font>
            </div>
        </div>
    
        <img class=""stim"" src=./stimuli//pack_shapes_diff/cat_2/diff_3/ex_2_3_7.png></img>
    ","null","stimulus","","","","","","",""
"","","","","","html-keyboard-response","228","277206","0.0-7.34-2.34","6102f8a9d697ea8a10d9234f","655cb802637e0dbe2941dbc4","655cb8d410be4d9ffa657e64","null","
        <div style=""text-align: center; position: fixed; top: 5vh; left: 40vw;"">
            <div style=""margin:0 auto; width: 20vw; top: 8vh; font-size: 2vw""> 
            <font color=""green""> Bonus : $9.65 </font>
            </div>
        </div>
    ","null","","","","","","","",""
"","","","","","html-keyboard-response","229","277565","0.0-7.34-3.34","6102f8a9d697ea8a10d9234f","655cb802637e0dbe2941dbc4","655cb8d410be4d9ffa657e64","358","./stimuli//pack_shapes_diff/cat_2/diff_3/ex_2_3_7.png","arrowright","response","ArrowRight","7","2","3","test","true",""
"","","","","","html-keyboard-response","230","279072","0.0-7.34-4.34","6102f8a9d697ea8a10d9234f","655cb802637e0dbe2941dbc4","655cb8d410be4d9ffa657e64","null","<p> <font color=""green"" size=""5vw""> Correct category! </font></p>","null","feedback","","","","","","","9.65"
"","","","","","html-keyboard-response","231","280526","0.0-7.35-0.35","6102f8a9d697ea8a10d9234f","655cb802637e0dbe2941dbc4","655cb8d410be4d9ffa657e64","1454","
            
        <div style=""text-align: center; position: fixed; top: 5vh; left: 40vw;"">
            <div style=""margin:0 auto; width: 20vw; top: 8vh; font-size: 2vw""> 
            <font color=""green""> Bonus : $9.65 </font>
            </div>
        </div>
    
            <div> Please press any key to continue to the next image.</div>
        ","arrowup","ITI","","","","","","",""
"","","","","","html-keyboard-response","232","281144","0.0-7.35-1.35","6102f8a9d697ea8a10d9234f","655cb802637e0dbe2941dbc4","655cb8d410be4d9ffa657e64","null","
        
        <div style=""text-align: center; position: fixed; top: 5vh; left: 40vw;"">
            <div style=""margin:0 auto; width: 20vw; top: 8vh; font-size: 2vw""> 
            <font color=""green""> Bonus : $9.65 </font>
            </div>
        </div>
    
