"success","timeout","failed_images","failed_audio","failed_video","trial_type","trial_index","time_elapsed","internal_node_id","subject_id","study_id","session_id","rt","stimulus","response","task","correct_response","exemplar_ID","category","difficulty","phase","correct","bonus"
"true","false","[]","[]","[]","preload","0","3","0.0-0.0","5f09014a50389c18e30f42b3","655cb802637e0dbe2941dbc4","655cb8ce0e1466ed2da6121c","","","","","","","","","","",""
"","","","","","html-keyboard-response","1","3275","0.0-1.0","5f09014a50389c18e30f42b3","655cb802637e0dbe2941dbc4","655cb8ce0e1466ed2da6121c","3272","Welcome to the Category Learning experiment! Press any key to continue.","shift","welcome","","","","","","",""
"","","","","","html-keyboard-response","2","3300","0.0-2.0","5f09014a50389c18e30f42b3","655cb802637e0dbe2941dbc4","655cb8ce0e1466ed2da6121c","23","
            <p>You will be shown images of black shapes. Some are category A, some are category B.
            <br>You will not know in advance which category a specific shape belongs to.</p>
            <p>After you see an image, you will be asked to guess its category <b>(left arrow for category A, right arrow for category B)</b></p>
            <p>After you choose, the screen will show you whether you were correct or not.</p>
            <p>Please try to respond as quickly and accurately as possible every time.</p>
            <p>Press any key to continue.</p>
            ","enter","introduction_1","","","","","","",""
"","","","","","html-keyboard-response","3","12234","0.0-3.0","5f09014a50389c18e30f42b3","655cb802637e0dbe2941dbc4","655cb8ce0e1466ed2da6121c","8934","
              <p><b>You will receive a bonus payment depending on your performance!</b></p>
              <p><b>You start with a $10 bonus and each time you guess a shape's category incorrectly $0.05 will be subtracted from the bonus. <br> After the end of the experiment you will receive the remaining bonus as payment.</b></p>
              <p>Press any key to continue.</p>
              ","enter","introduction_1","","","","","","",""
"","","","","","html-keyboard-response","4","19163","0.0-4.0","5f09014a50389c18e30f42b3","655cb802637e0dbe2941dbc4","655cb8ce0e1466ed2da6121c","6928","
            <p> <b>The first 10 trials are a practice round that will not count towards your bonus payment.</b></p>
            <p> You will be notified when practice finishes and the test begins. </p>
            <p> Press any key to begin the practice round.</p>
            ","enter","introduction_2","","","","","","",""
"","","","","","html-keyboard-response","5","22159","0.0-5.0-0.0","5f09014a50389c18e30f42b3","655cb802637e0dbe2941dbc4","655cb8ce0e1466ed2da6121c","2995","
            
        <div style=""text-align: center; position: fixed; top: 5vh; left: 40vw;"">
            <div style=""margin:0 auto; width: 20vw; top: 8vh; font-size: 2vw""> 
            <font color=""green""> Bonus : $10 </font>
            </div>
        </div>
    
            <div> Please press any key to continue to the next image.</div>
        "," ","ITI","","","","","","",""
"","","","","","html-keyboard-response","6","22763","0.0-5.0-1.0","5f09014a50389c18e30f42b3","655cb802637e0dbe2941dbc4","655cb8ce0e1466ed2da6121c","null","
        
        <div style=""text-align: center; position: fixed; top: 5vh; left: 40vw;"">
            <div style=""margin:0 auto; width: 20vw; top: 8vh; font-size: 2vw""> 
            <font color=""green""> Bonus : $10 </font>
            </div>
        </div>
    
        <img class=""stim"" src=./stimuli//pack_shapes_diff/cat_2/diff_2/ex_2_2_10.png></img>
    ","null","stimulus","","","","","","",""
"","","","","","html-keyboard-response","7","23765","0.0-5.0-2.0","5f09014a50389c18e30f42b3","655cb802637e0dbe2941dbc4","655cb8ce0e1466ed2da6121c","null","
        <div style=""text-align: center; position: fixed; top: 5vh; left: 40vw;"">
            <div style=""margin:0 auto; width: 20vw; top: 8vh; font-size: 2vw""> 
            <font color=""green""> Bonus : $10 </font>
            </div>
        </div>
    ","null","","","","","","","",""
"","","","","","html-keyboard-response","8","27778","0.0-5.0-3.0","5f09014a50389c18e30f42b3","655cb802637e0dbe2941dbc4","655cb8ce0e1466ed2da6121c","null","./stimuli//pack_shapes_diff/cat_2/diff_2/ex_2_2_10.png","null","response","ArrowRight","10","2","2","train","false",""
"","","","","","html-keyboard-response","9","29285","0.0-5.0-4.0","5f09014a50389c18e30f42b3","655cb802637e0dbe2941dbc4","655cb8ce0e1466ed2da6121c","null","<p> <font color=""red"" size=""5vw""> Time out! </font> <br> Please try to respond as quickly as possible. </p>","null","feedback","","","","","","","10"
"","","","","","html-keyboard-response","10","31122","0.0-5.0-0.1","5f09014a50389c18e30f42b3","655cb802637e0dbe2941dbc4","655cb8ce0e1466ed2da6121c","1835","
            
        <div style=""text-align: center; position: fixed; top: 5vh; left: 40vw;"">
            <div style=""margin:0 auto; width: 20vw; top: 8vh; font-size: 2vw""> 
            <font color=""green""> Bonus : $10 </font>
            </div>
        </div>
    
            <div> Please press any key to continue to the next image.</div>
        "," ","ITI","","","","","","",""
"","","","","","html-keyboard-response","11","31727","0.0-5.0-1.1","5f09014a50389c18e30f42b3","655cb802637e0dbe2941dbc4","655cb8ce0e1466ed2da6121c","null","
        
        <div style=""text-align: center; position: fixed; top: 5vh; left: 40vw;"">
            <div style=""margin:0 auto; width: 20vw; top: 8vh; font-size: 2vw""> 
            <font color=""green""> Bonus : $10 </font>
            </div>
        </div>
    
        <img class=""stim"" src=./stimuli//pack_shapes_diff/cat_2/diff_1/ex_2_1_3.png></img>
    ","null","stimulus","","","","","","",""
"","","","","","html-keyboard-response","12","32736","0.0-5.0-2.1","5f09014a50389c18e30f42b3","655cb802637e0dbe2941dbc4","655cb8ce0e1466ed2da6121c","null","
        <div style=""text-align: center; position: fixed; top: 5vh; left: 40vw;"">
            <div style=""margin:0 auto; width: 20vw; top: 8vh; font-size: 2vw""> 
            <font color=""green""> Bonus : $10 </font>
            </div>
        </div>
    ","null","","","","","","","",""
"","","","","","html-keyboard-response","13","36737","0.0-5.0-3.1","5f09014a50389c18e30f42b3","655cb802637e0dbe2941dbc4","655cb8ce0e1466ed2da6121c","null","./stimuli//pack_shapes_diff/cat_2/diff_1/ex_2_1_3.png","null","response","ArrowRight","3","2","1","train","false",""
"","","","","","html-keyboard-response","14","36877","0.0-5.0-4.1","5f09014a50389c18e30f42b3","655cb802637e0dbe2941dbc4","655cb8ce0e1466ed2da6121c","139","<p> <font color=""red"" size=""5vw""> Time out! </font> <br> Please try to respond as quickly as possible. </p>","a","feedback","","","","","","","10"
"","","","","","html-keyboard-response","15","39789","0.0-5.0-0.2","5f09014a50389c18e30f42b3","655cb802637e0dbe2941dbc4","655cb8ce0e1466ed2da6121c","2911","
            
        <div style=""text-align: center; position: fixed; top: 5vh; left: 40vw;"">
            <div style=""margin:0 auto; width: 20vw; top: 8vh; font-size: 2vw""> 
            <font color=""green""> Bonus : $10 </font>
            </div>
        </div>
    
            <div> Please press any key to continue to the next image.</div>
        ","l","ITI","","","","","","",""
"","","","","","html-keyboard-response","16","40400","0.0-5.0-1.2","5f09014a50389c18e30f42b3","655cb802637e0dbe2941dbc4","655cb8ce0e1466ed2da6121c","null","
        
        <div style=""text-align: center; position: fixed; top: 5vh; left: 40vw;"">
            <div style=""margin:0 auto; width: 20vw; top: 8vh; font-size: 2vw""> 
            <font color=""green""> Bonus : $10 </font>
            </div>
        </div>
    
        <img class=""stim"" src=./stimuli//pack_shapes_diff/cat_2/diff_1/ex_2_1_2.png></img>
    ","null","stimulus","","","","","","",""
"","","","","","html-keyboard-response","17","41411","0.0-5.0-2.2","5f09014a50389c18e30f42b3","655cb802637e0dbe2941dbc4","655cb8ce0e1466ed2da6121c","null","
        <div style=""text-align: center; position: fixed; top: 5vh; left: 40vw;"">
            <div style=""margin:0 auto; width: 20vw; top: 8vh; font-size: 2vw""> 
            <font color=""green""> Bonus : $10 </font>
            </div>
        </div>
    ","null","","","","","","","",""
"","","","","","html-keyboard-response","18","45420","0.0-5.0-3.2","5f09014a50389c18e30f42b3","655cb802637e0dbe2941dbc4","655cb8ce0e1466ed2da6121c","null","./stimuli//pack_shapes_diff/cat_2/diff_1/ex_2_1_2.png","null","response","ArrowRight","2","2","1","train","false",""
"","","","","","html-keyboard-response","19","46929","0.0-5.0-4.2","5f09014a50389c18e30f42b3","655cb802637e0dbe2941dbc4","655cb8ce0e1466ed2da6121c","null","<p> <font color=""red"" size=""5vw""> Time out! </font> <br> Please try to respond as quickly as possible. </p>","null","feedback","","","","","","","10"
"","","","","","html-keyboard-response","20","51942","0.0-5.0-0.3","5f09014a50389c18e30f42b3","655cb802637e0dbe2941dbc4","655cb8ce0e1466ed2da6121c","null","
            
        <div style=""text-align: center; position: fixed; top: 5vh; left: 40vw;"">
            <div style=""margin:0 auto; width: 20vw; top: 8vh; font-size: 2vw""> 
            <font color=""green""> Bonus : $10 </font>
            </div>
        </div>
    
            <div> Please press any key to continue to the next image.</div>
        ","null","ITI","","","","","","",""
"","","","","","html-keyboard-response","21","52545","0.0-5.0-1.3","5f09014a50389c18e30f42b3","655cb802637e0dbe2941dbc4","655cb8ce0e1466ed2da6121c","null","
        
        <div style=""text-align: center; position: fixed; top: 5vh; left: 40vw;"">
            <div style=""margin:0 auto; width: 20vw; top: 8vh; font-size: 2vw""> 
            <font color=""green""> Bonus : $10 </font>
            </div>
        </div>
    
        <img class=""stim"" src=./stimuli//pack_shapes_diff/cat_1/diff_1/ex_1_1_4.png></img>
    ","null","stimulus","","","","","","",""
"","","","","","html-keyboard-response","22","53555","0.0-5.0-2.3","5f09014a50389c18e30f42b3","655cb802637e0dbe2941dbc4","655cb8ce0e1466ed2da6121c","null","
        <div style=""text-align: center; position: fixed; top: 5vh; left: 40vw;"">
            <div style=""margin:0 auto; width: 20vw; top: 8vh; font-size: 2vw""> 
            <font color=""green""> Bonus : $10 </font>
            </div>
        </div>
    ","null","","","","","","","",""
"","","","","","html-keyboard-response","23","57563","0.0-5.0-3.3","5f09014a50389c18e30f42b3","655cb802637e0dbe2941dbc4","655cb8ce0e1466ed2da6121c","null","./stimuli//pack_shapes_diff/cat_1/diff_1/ex_1_1_4.png","null","response","ArrowLeft","4","1","1","train","false",""
"","","","","","html-keyboard-response","24","58511","0.0-5.0-4.3","5f09014a50389c18e30f42b3","655cb802637e0dbe2941dbc4","655cb8ce0e1466ed2da6121c","947","<p> <font color=""red"" size=""5vw""> Time out! </font> <br> Please try to respond as quickly as possible. </p>"," ","feedback","","","","","","","10"
"","","","","","html-keyboard-response","25","59348","0.0-5.0-0.4","5f09014a50389c18e30f42b3","655cb802637e0dbe2941dbc4","655cb8ce0e1466ed2da6121c","836","
            
        <div style=""text-align: center; position: fixed; top: 5vh; left: 40vw;"">
            <div style=""margin:0 auto; width: 20vw; top: 8vh; font-size: 2vw""> 
            <font color=""green""> Bonus : $10 </font>
            </div>
        </div>
    
            <div> Please press any key to continue to the next image.</div>
        "," ","ITI","","","","","","",""
"","","","","","html-keyboard-response","26","59956","0.0-5.0-1.4","5f09014a50389c18e30f42b3","655cb802637e0dbe2941dbc4","655cb8ce0e1466ed2da6121c","null","
        
        <div style=""text-align: center; position: fixed; top: 5vh; left: 40vw;"">
            <div style=""margin:0 auto; width: 20vw; top: 8vh; font-size: 2vw""> 
            <font color=""green""> Bonus : $10 </font>
            </div>
        </div>
    
        <img class=""stim"" src=./stimuli//pack_shapes_diff/cat_2/diff_2/ex_2_2_14.png></img>
    ","null","stimulus","","","","","","",""
"","","","","","html-keyboard-response","27","60960","0.0-5.0-2.4","5f09014a50389c18e30f42b3","655cb802637e0dbe2941dbc4","655cb8ce0e1466ed2da6121c","null","
        <div style=""text-align: center; position: fixed; top: 5vh; left: 40vw;"">
            <div style=""margin:0 auto; width: 20vw; top: 8vh; font-size: 2vw""> 
            <font color=""green""> Bonus : $10 </font>
            </div>
        </div>
    ","null","","","","","","","",""
"","","","","","html-keyboard-response","28","64974","0.0-5.0-3.4","5f09014a50389c18e30f42b3","655cb802637e0dbe2941dbc4","655cb8ce0e1466ed2da6121c","null","./stimuli//pack_shapes_diff/cat_2/diff_2/ex_2_2_14.png","null","response","ArrowRight","14","2","2","train","false",""
"","","","","","html-keyboard-response","29","66477","0.0-5.0-4.4","5f09014a50389c18e30f42b3","655cb802637e0dbe2941dbc4","655cb8ce0e1466ed2da6121c","null","<p> <font color=""red"" size=""5vw""> Time out! </font> <br> Please try to respond as quickly as possible. </p>","null","feedback","","","","","","","10"
"","","","","","html-keyboard-response","30","67912","0.0-5.0-0.5","5f09014a50389c18e30f42b3","655cb802637e0dbe2941dbc4","655cb8ce0e1466ed2da6121c","1434","
            
        <div style=""text-align: center; position: fixed; top: 5vh; left: 40vw;"">
            <div style=""margin:0 auto; width: 20vw; top: 8vh; font-size: 2vw""> 
            <font color=""green""> Bonus : $10 </font>
            </div>
        </div>
    
            <div> Please press any key to continue to the next image.</div>
        ","control","ITI","","","","","","",""
"","","","","","html-keyboard-response","31","68525","0.0-5.0-1.5","5f09014a50389c18e30f42b3","655cb802637e0dbe2941dbc4","655cb8ce0e1466ed2da6121c","null","
        
        <div style=""text-align: center; position: fixed; top: 5vh; left: 40vw;"">
            <div style=""margin:0 auto; width: 20vw; top: 8vh; font-size: 2vw""> 
            <font color=""green""> Bonus : $10 </font>
            </div>
        </div>
    
        <img class=""stim"" src=./stimuli//pack_shapes_diff/cat_1/diff_2/ex_1_2_6.png></img>
    ","null","stimulus","","","","","","",""
"","","","","","html-keyboard-response","32","69528","0.0-5.0-2.5","5f09014a50389c18e30f42b3","655cb802637e0dbe2941dbc4","655cb8ce0e1466ed2da6121c","null","
        <div style=""text-align: center; position: fixed; top: 5vh; left: 40vw;"">
            <div style=""margin:0 auto; width: 20vw; top: 8vh; font-size: 2vw""> 
            <font color=""green""> Bonus : $10 </font>
            </div>
        </div>
    ","null","","","","","","","",""
"","","","","","html-keyboard-response","33","73532","0.0-5.0-3.5","5f09014a50389c18e30f42b3","655cb802637e0dbe2941dbc4","655cb8ce0e1466ed2da6121c","null","./stimuli//pack_shapes_diff/cat_1/diff_2/ex_1_2_6.png","null","response","ArrowLeft","6","1","2","train","false",""
"","","","","","html-keyboard-response","34","73759","0.0-5.0-4.5","5f09014a50389c18e30f42b3","655cb802637e0dbe2941dbc4","655cb8ce0e1466ed2da6121c","226","<p> <font color=""red"" size=""5vw""> Time out! </font> <br> Please try to respond as quickly as possible. </p>","shift","feedback","","","","","","","10"
"","","","","","html-keyboard-response","35","74502","0.0-5.0-0.6","5f09014a50389c18e30f42b3","655cb802637e0dbe2941dbc4","655cb8ce0e1466ed2da6121c","742","
            
        <div style=""text-align: center; position: fixed; top: 5vh; left: 40vw;"">
            <div style=""margin:0 auto; width: 20vw; top: 8vh; font-size: 2vw""> 
            <font color=""green""> Bonus : $10 </font>
            </div>
        </div>
    
            <div> Please press any key to continue to the next image.</div>
        ","enter","ITI","","","","","","",""
"","","","","","html-keyboard-response","36","75106","0.0-5.0-1.6","5f09014a50389c18e30f42b3","655cb802637e0dbe2941dbc4","655cb8ce0e1466ed2da6121c","null","
        
        <div style=""text-align: center; position: fixed; top: 5vh; left: 40vw;"">
            <div style=""margin:0 auto; width: 20vw; top: 8vh; font-size: 2vw""> 
            <font color=""green""> Bonus : $10 </font>
            </div>
        </div>
    
        <img class=""stim"" src=./stimuli//pack_shapes_diff/cat_1/diff_2/ex_1_2_4.png></img>
    ","null","stimulus","","","","","","",""
"","","","","","html-keyboard-response","37","76111","0.0-5.0-2.6","5f09014a50389c18e30f42b3","655cb802637e0dbe2941dbc4","655cb8ce0e1466ed2da6121c","null","
        <div style=""text-align: center; position: fixed; top: 5vh; left: 40vw;"">
            <div style=""margin:0 auto; width: 20vw; top: 8vh; font-size: 2vw""> 
            <font color=""green""> Bonus : $10 </font>
            </div>
        </div>
    ","null","","","","","","","",""
"","","","","","html-keyboard-response","38","80127","0.0-5.0-3.6","5f09014a50389c18e30f42b3","655cb802637e0dbe2941dbc4","655cb8ce0e1466ed2da6121c","null","./stimuli//pack_shapes_diff/cat_1/diff_2/ex_1_2_4.png","null","response","ArrowLeft","4","1","2","train","false",""
"","","","","","html-keyboard-response","39","80429","0.0-5.0-4.6","5f09014a50389c18e30f42b3","655cb802637e0dbe2941dbc4","655cb8ce0e1466ed2da6121c","301","<p> <font color=""red"" size=""5vw""> Time out! </font> <br> Please try to respond as quickly as possible. </p>","i","feedback","","","","","","","10"
"","","","","","html-keyboard-response","40","81027","0.0-5.0-0.7","5f09014a50389c18e30f42b3","655cb802637e0dbe2941dbc4","655cb8ce0e1466ed2da6121c","597","
            
        <div style=""text-align: center; position: fixed; top: 5vh; left: 40vw;"">
            <div style=""margin:0 auto; width: 20vw; top: 8vh; font-size: 2vw""> 
            <font color=""green""> Bonus : $10 </font>
            </div>
        </div>
    
            <div> Please press any key to continue to the next image.</div>
        ","g","ITI","","","","","","",""
"","","","","","html-keyboard-response","41","81633","0.0-5.0-1.7","5f09014a50389c18e30f42b3","655cb802637e0dbe2941dbc4","655cb8ce0e1466ed2da6121c","null","
        
        <div style=""text-align: center; position: fixed; top: 5vh; left: 40vw;"">
            <div style=""margin:0 auto; width: 20vw; top: 8vh; font-size: 2vw""> 
            <font color=""green""> Bonus : $10 </font>
            </div>
        </div>
    
        <img class=""stim"" src=./stimuli//pack_shapes_diff/cat_1/diff_1/ex_1_1_17.png></img>
    ","null","stimulus","","","","","","",""
"","","","","","html-keyboard-response","42","82638","0.0-5.0-2.7","5f09014a50389c18e30f42b3","655cb802637e0dbe2941dbc4","655cb8ce0e1466ed2da6121c","null","
        <div style=""text-align: center; position: fixed; top: 5vh; left: 40vw;"">
            <div style=""margin:0 auto; width: 20vw; top: 8vh; font-size: 2vw""> 
            <font color=""green""> Bonus : $10 </font>
            </div>
        </div>
    ","null","","","","","","","",""
"","","","","","html-keyboard-response","43","86475","0.0-5.0-3.7","5f09014a50389c18e30f42b3","655cb802637e0dbe2941dbc4","655cb8ce0e1466ed2da6121c","3836","./stimuli//pack_shapes_diff/cat_1/diff_1/ex_1_1_17.png","arrowright","response","ArrowLeft","17","1","1","train","false",""
"","","","","","html-keyboard-response","44","87980","0.0-5.0-4.7","5f09014a50389c18e30f42b3","655cb802637e0dbe2941dbc4","655cb8ce0e1466ed2da6121c","null","<p> <font color=""red"" size=""5vw""> Wrong category! </font> </p>","null","feedback","","","","","","","10"
"","","","","","html-keyboard-response","45","89366","0.0-5.0-0.8","5f09014a50389c18e30f42b3","655cb802637e0dbe2941dbc4","655cb8ce0e1466ed2da6121c","1385","
            
        <div style=""text-align: center; position: fixed; top: 5vh; left: 40vw;"">
            <div style=""margin:0 auto; width: 20vw; top: 8vh; font-size: 2vw""> 
            <font color=""green""> Bonus : $10 </font>
            </div>
        </div>
    
            <div> Please press any key to continue to the next image.</div>
        "," ","ITI","","","","","","",""
"","","","","","html-keyboard-response","46","89982","0.0-5.0-1.8","5f09014a50389c18e30f42b3","655cb802637e0dbe2941dbc4","655cb8ce0e1466ed2da6121c","null","
        
        <div style=""text-align: center; position: fixed; top: 5vh; left: 40vw;"">
            <div style=""margin:0 auto; width: 20vw; top: 8vh; font-size: 2vw""> 
            <font color=""green""> Bonus : $10 </font>
            </div>
        </div>
    
        <img class=""stim"" src=./stimuli//pack_shapes_diff/cat_1/diff_1/ex_1_1_14.png></img>
    ","null","stimulus","","","","","","",""
"","","","","","html-keyboard-response","47","90994","0.0-5.0-2.8","5f09014a50389c18e30f42b3","655cb802637e0dbe2941dbc4","655cb8ce0e1466ed2da6121c","null","
        <div style=""text-align: center; position: fixed; top: 5vh; left: 40vw;"">
            <div style=""margin:0 auto; width: 20vw; top: 8vh; font-size: 2vw""> 
            <font color=""green""> Bonus : $10 </font>
            </div>
        </div>
    ","null","","","","","","","",""
"","","","","","html-keyboard-response","48","91629","0.0-5.0-3.8","5f09014a50389c18e30f42b3","655cb802637e0dbe2941dbc4","655cb8ce0e1466ed2da6121c","634","./stimuli//pack_shapes_diff/cat_1/diff_1/ex_1_1_14.png","arrowleft","response","ArrowLeft","14","1","1","train","true",""
"","","","","","html-keyboard-response","49","93132","0.0-5.0-4.8","5f09014a50389c18e30f42b3","655cb802637e0dbe2941dbc4","655cb8ce0e1466ed2da6121c","null","<p> <font color=""green"" size=""5vw""> Correct category! </font> </p>","null","feedback","","","","","","","10"
"","","","","","html-keyboard-response","50","94037","0.0-5.0-0.9","5f09014a50389c18e30f42b3","655cb802637e0dbe2941dbc4","655cb8ce0e1466ed2da6121c","904","
            
        <div style=""text-align: center; position: fixed; top: 5vh; left: 40vw;"">
            <div style=""margin:0 auto; width: 20vw; top: 8vh; font-size: 2vw""> 
            <font color=""green""> Bonus : $10 </font>
            </div>
        </div>
    
            <div> Please press any key to continue to the next image.</div>
        "," ","ITI","","","","","","",""
"","","","","","html-keyboard-response","51","94648","0.0-5.0-1.9","5f09014a50389c18e30f42b3","655cb802637e0dbe2941dbc4","655cb8ce0e1466ed2da6121c","null","
        
        <div style=""text-align: center; position: fixed; top: 5vh; left: 40vw;"">
            <div style=""margin:0 auto; width: 20vw; top: 8vh; font-size: 2vw""> 
            <font color=""green""> Bonus : $10 </font>
            </div>
        </div>
    
        <img class=""stim"" src=./stimuli//pack_shapes_diff/cat_2/diff_1/ex_2_1_6.png></img>
    ","null","stimulus","","","","","","",""
"","","","","","html-keyboard-response","52","95661","0.0-5.0-2.9","5f09014a50389c18e30f42b3","655cb802637e0dbe2941dbc4","655cb8ce0e1466ed2da6121c","null","
        <div style=""text-align: center; position: fixed; top: 5vh; left: 40vw;"">
            <div style=""margin:0 auto; width: 20vw; top: 8vh; font-size: 2vw""> 
            <font color=""green""> Bonus : $10 </font>
            </div>
        </div>
    ","null","","","","","","","",""
"","","","","","html-keyboard-response","53","95971","0.0-5.0-3.9","5f09014a50389c18e30f42b3","655cb802637e0dbe2941dbc4","655cb8ce0e1466ed2da6121c","308","./stimuli//pack_shapes_diff/cat_2/diff_1/ex_2_1_6.png","arrowright","response","ArrowRight","6","2","1","train","true",""
"","","","","","html-keyboard-response","54","97487","0.0-5.0-4.9","5f09014a50389c18e30f42b3","655cb802637e0dbe2941dbc4","655cb8ce0e1466ed2da6121c","null","<p> <font color=""green"" size=""5vw""> Correct category! </font> </p>","null","feedback","","","","","","","10"
"","","","","","html-keyboard-response","55","103094","0.0-6.0","5f09014a50389c18e30f42b3","655cb802637e0dbe2941dbc4","655cb8ce0e1466ed2da6121c","5606","
            <b> <p> The practice round has finished.</p>
            <b> For the rest of the experiment if you guess incorrectly $0.05 will be subtracted from your bonus!</b>
            <p> Press any key to begin the test. </p>
            "," ","intermission","","","","","","",""
"","","","","","html-keyboard-response","56","106015","0.0-7.0-0.0","5f09014a50389c18e30f42b3","655cb802637e0dbe2941dbc4","655cb8ce0e1466ed2da6121c","2921","
            
        <div style=""text-align: center; position: fixed; top: 5vh; left: 40vw;"">
            <div style=""margin:0 auto; width: 20vw; top: 8vh; font-size: 2vw""> 
            <font color=""green""> Bonus : $10 </font>
            </div>
        </div>
    
            <div> Please press any key to continue to the next image.</div>
        "," ","ITI","","","","","","",""
"","","","","","html-keyboard-response","57","106633","0.0-7.0-1.0","5f09014a50389c18e30f42b3","655cb802637e0dbe2941dbc4","655cb8ce0e1466ed2da6121c","null","
        
        <div style=""text-align: center; position: fixed; top: 5vh; left: 40vw;"">
            <div style=""margin:0 auto; width: 20vw; top: 8vh; font-size: 2vw""> 
            <font color=""green""> Bonus : $10 </font>
            </div>
        </div>
    
        <img class=""stim"" src=./stimuli//pack_shapes_diff/cat_1/diff_1/ex_1_1_9.png></img>
    ","null","stimulus","","","","","","",""
"","","","","","html-keyboard-response","58","107636","0.0-7.0-2.0","5f09014a50389c18e30f42b3","655cb802637e0dbe2941dbc4","655cb8ce0e1466ed2da6121c","null","
        <div style=""text-align: center; position: fixed; top: 5vh; left: 40vw;"">
            <div style=""margin:0 auto; width: 20vw; top: 8vh; font-size: 2vw""> 
            <font color=""green""> Bonus : $10 </font>
            </div>
        </div>
    ","null","","","","","","","",""
"","","","","","html-keyboard-response","59","108009","0.0-7.0-3.0","5f09014a50389c18e30f42b3","655cb802637e0dbe2941dbc4","655cb8ce0e1466ed2da6121c","372","./stimuli//pack_shapes_diff/cat_1/diff_1/ex_1_1_9.png","arrowleft","response","ArrowLeft","9","1","1","test","true",""
"","","","","","html-keyboard-response","60","109522","0.0-7.0-4.0","5f09014a50389c18e30f42b3","655cb802637e0dbe2941dbc4","655cb8ce0e1466ed2da6121c","null","<p> <font color=""green"" size=""5vw""> Correct category! </font></p>","null","feedback","","","","","","","10"
"","","","","","html-keyboard-response","61","110287","0.0-7.1-0.1","5f09014a50389c18e30f42b3","655cb802637e0dbe2941dbc4","655cb8ce0e1466ed2da6121c","764","
            
        <div style=""text-align: center; position: fixed; top: 5vh; left: 40vw;"">
            <div style=""margin:0 auto; width: 20vw; top: 8vh; font-size: 2vw""> 
            <font color=""green""> Bonus : $10 </font>
            </div>
        </div>
    
            <div> Please press any key to continue to the next image.</div>
        "," ","ITI","","","","","","",""
"","","","","","html-keyboard-response","62","110889","0.0-7.1-1.1","5f09014a50389c18e30f42b3","655cb802637e0dbe2941dbc4","655cb8ce0e1466ed2da6121c","null","
        
        <div style=""text-align: center; position: fixed; top: 5vh; left: 40vw;"">
            <div style=""margin:0 auto; width: 20vw; top: 8vh; font-size: 2vw""> 
            <font color=""green""> Bonus : $10 </font>
            </div>
        </div>
    
        <img class=""stim"" src=./stimuli//pack_shapes_diff/cat_2/diff_1/ex_2_1_12.png></img>
    ","null","stimulus","","","","","","",""
"","","","","","html-keyboard-response","63","111897","0.0-7.1-2.1","5f09014a50389c18e30f42b3","655cb802637e0dbe2941dbc4","655cb8ce0e1466ed2da6121c","null","
        <div style=""text-align: center; position: fixed; top: 5vh; left: 40vw;"">
            <div style=""margin:0 auto; width: 20vw; top: 8vh; font-size: 2vw""> 
            <font color=""green""> Bonus : $10 </font>
            </div>
        </div>
    ","null","","","","","","","",""
"","","","","","html-keyboard-response","64","112186","0.0-7.1-3.1","5f09014a50389c18e30f42b3","655cb802637e0dbe2941dbc4","655cb8ce0e1466ed2da6121c","287","./stimuli//pack_shapes_diff/cat_2/diff_1/ex_2_1_12.png","arrowright","response","ArrowRight","12","2","1","test","true",""
"","","","","","html-keyboard-response","65","113687","0.0-7.1-4.1","5f09014a50389c18e30f42b3","655cb802637e0dbe2941dbc4","655cb8ce0e1466ed2da6121c","null","<p> <font color=""green"" size=""5vw""> Correct category! </font></p>","null","feedback","","","","","","","10"
"","","","","","html-keyboard-response","66","114235","0.0-7.2-0.2","5f09014a50389c18e30f42b3","655cb802637e0dbe2941dbc4","655cb8ce0e1466ed2da6121c","547","
            
        <div style=""text-align: center; position: fixed; top: 5vh; left: 40vw;"">
            <div style=""margin:0 auto; width: 20vw; top: 8vh; font-size: 2vw""> 
            <font color=""green""> Bonus : $10 </font>
            </div>
        </div>
    
            <div> Please press any key to continue to the next image.</div>
        "," ","ITI","","","","","","",""
"","","","","","html-keyboard-response","67","114851","0.0-7.2-1.2","5f09014a50389c18e30f42b3","655cb802637e0dbe2941dbc4","655cb8ce0e1466ed2da6121c","null","
        
        <div style=""text-align: center; position: fixed; top: 5vh; left: 40vw;"">
            <div style=""margin:0 auto; width: 20vw; top: 8vh; font-size: 2vw""> 
            <font color=""green""> Bonus : $10 </font>
            </div>
        </div>
    
        <img class=""stim"" src=./stimuli//pack_shapes_diff/cat_2/diff_1/ex_2_1_14.png></img>
    ","null","stimulus","","","","","","",""
"","","","","","html-keyboard-response","68","115863","0.0-7.2-2.2","5f09014a50389c18e30f42b3","655cb802637e0dbe2941dbc4","655cb8ce0e1466ed2da6121c","null","
        <div style=""text-align: center; position: fixed; top: 5vh; left: 40vw;"">
            <div style=""margin:0 auto; width: 20vw; top: 8vh; font-size: 2vw""> 
            <font color=""green""> Bonus : $10 </font>
            </div>
        </div>
    ","null","","","","","","","",""
"","","","","","html-keyboard-response","69","116179","0.0-7.2-3.2","5f09014a50389c18e30f42b3","655cb802637e0dbe2941dbc4","655cb8ce0e1466ed2da6121c","315","./stimuli//pack_shapes_diff/cat_2/diff_1/ex_2_1_14.png","arrowright","response","ArrowRight","14","2","1","test","true",""
"","","","","","html-keyboard-response","70","117692","0.0-7.2-4.2","5f09014a50389c18e30f42b3","655cb802637e0dbe2941dbc4","655cb8ce0e1466ed2da6121c","null","<p> <font color=""green"" size=""5vw""> Correct category! </font></p>","null","feedback","","","","","","","10"
"","","","","","html-keyboard-response","71","118182","0.0-7.3-0.3","5f09014a50389c18e30f42b3","655cb802637e0dbe2941dbc4","655cb8ce0e1466ed2da6121c","489","
            
        <div style=""text-align: center; position: fixed; top: 5vh; left: 40vw;"">
            <div style=""margin:0 auto; width: 20vw; top: 8vh; font-size: 2vw""> 
            <font color=""green""> Bonus : $10 </font>
            </div>
        </div>
    
            <div> Please press any key to continue to the next image.</div>
        "," ","ITI","","","","","","",""
"","","","","","html-keyboard-response","72","118785","0.0-7.3-1.3","5f09014a50389c18e30f42b3","655cb802637e0dbe2941dbc4","655cb8ce0e1466ed2da6121c","null","
        
        <div style=""text-align: center; position: fixed; top: 5vh; left: 40vw;"">
            <div style=""margin:0 auto; width: 20vw; top: 8vh; font-size: 2vw""> 
            <font color=""green""> Bonus : $10 </font>
            </div>
        </div>
    
        <img class=""stim"" src=./stimuli//pack_shapes_diff/cat_1/diff_1/ex_1_1_11.png></img>
    ","null","stimulus","","","","","","",""
"","","","","","html-keyboard-response","73","119787","0.0-7.3-2.3","5f09014a50389c18e30f42b3","655cb802637e0dbe2941dbc4","655cb8ce0e1466ed2da6121c","null","
        <div style=""text-align: center; position: fixed; top: 5vh; left: 40vw;"">
            <div style=""margin:0 auto; width: 20vw; top: 8vh; font-size: 2vw""> 
            <font color=""green""> Bonus : $10 </font>
            </div>
        </div>
    ","null","","","","","","","",""
"","","","","","html-keyboard-response","74","119906","0.0-7.3-3.3","5f09014a50389c18e30f42b3","655cb802637e0dbe2941dbc4","655cb8ce0e1466ed2da6121c","118","./stimuli//pack_shapes_diff/cat_1/diff_1/ex_1_1_11.png","arrowleft","response","ArrowLeft","11","1","1","test","true",""
"","","","","","html-keyboard-response","75","121428","0.0-7.3-4.3","5f09014a50389c18e30f42b3","655cb802637e0dbe2941dbc4","655cb8ce0e1466ed2da6121c","null","<p> <font color=""green"" size=""5vw""> Correct category! </font></p>","null","feedback","","","","","","","10"
"","","","","","html-keyboard-response","76","122035","0.0-7.4-0.4","5f09014a50389c18e30f42b3","655cb802637e0dbe2941dbc4","655cb8ce0e1466ed2da6121c","606","
            
        <div style=""text-align: center; position: fixed; top: 5vh; left: 40vw;"">
            <div style=""margin:0 auto; width: 20vw; top: 8vh; font-size: 2vw""> 
            <font color=""green""> Bonus : $10 </font>
            </div>
        </div>
    
            <div> Please press any key to continue to the next image.</div>
        "," ","ITI","","","","","","",""
"","","","","","html-keyboard-response","77","122649","0.0-7.4-1.4","5f09014a50389c18e30f42b3","655cb802637e0dbe2941dbc4","655cb8ce0e1466ed2da6121c","null","
        
        <div style=""text-align: center; position: fixed; top: 5vh; left: 40vw;"">
            <div style=""margin:0 auto; width: 20vw; top: 8vh; font-size: 2vw""> 
            <font color=""green""> Bonus : $10 </font>
            </div>
        </div>
    
        <img class=""stim"" src=./stimuli//pack_shapes_diff/cat_1/diff_1/ex_1_1_9.png></img>
    ","null","stimulus","","","","","","",""
"","","","","","html-keyboard-response","78","123656","0.0-7.4-2.4","5f09014a50389c18e30f42b3","655cb802637e0dbe2941dbc4","655cb8ce0e1466ed2da6121c","null","
        <div style=""text-align: center; position: fixed; top: 5vh; left: 40vw;"">
            <div style=""margin:0 auto; width: 20vw; top: 8vh; font-size: 2vw""> 
            <font color=""green""> Bonus : $10 </font>
            </div>
        </div>
    ","null","","","","","","","",""
"","","","","","html-keyboard-response","79","123919","0.0-7.4-3.4","5f09014a50389c18e30f42b3","655cb802637e0dbe2941dbc4","655cb8ce0e1466ed2da6121c","263","./stimuli//pack_shapes_diff/cat_1/diff_1/ex_1_1_9.png","arrowleft","response","ArrowLeft","9","1","1","test","true",""
"","","","","","html-keyboard-response","80","125432","0.0-7.4-4.4","5f09014a50389c18e30f42b3","655cb802637e0dbe2941dbc4","655cb8ce0e1466ed2da6121c","null","<p> <font color=""green"" size=""5vw""> Correct category! </font></p>","null","feedback","","","","","","","10"
"","","","","","html-keyboard-response","81","126327","0.0-7.5-0.5","5f09014a50389c18e30f42b3","655cb802637e0dbe2941dbc4","655cb8ce0e1466ed2da6121c","895","
            
        <div style=""text-align: center; position: fixed; top: 5vh; left: 40vw;"">
            <div style=""margin:0 auto; width: 20vw; top: 8vh; font-size: 2vw""> 
            <font color=""green""> Bonus : $10 </font>
            </div>
        </div>
    
            <div> Please press any key to continue to the next image.</div>
        "," ","ITI","","","","","","",""
"","","","","","html-keyboard-response","82","126940","0.0-7.5-1.5","5f09014a50389c18e30f42b3","655cb802637e0dbe2941dbc4","655cb8ce0e1466ed2da6121c","null","
        
        <div style=""text-align: center; position: fixed; top: 5vh; left: 40vw;"">
            <div style=""margin:0 auto; width: 20vw; top: 8vh; font-size: 2vw""> 
            <font color=""green""> Bonus : $10 </font>
            </div>
        </div>
    
        <img class=""stim"" src=./stimuli//pack_shapes_diff/cat_2/diff_2/ex_2_2_16.png></img>
    ","null","stimulus","","","","","","",""
"","","","","","html-keyboard-response","83","127950","0.0-7.5-2.5","5f09014a50389c18e30f42b3","655cb802637e0dbe2941dbc4","655cb8ce0e1466ed2da6121c","null","
        <div style=""text-align: center; position: fixed; top: 5vh; left: 40vw;"">
            <div style=""margin:0 auto; width: 20vw; top: 8vh; font-size: 2vw""> 
            <font color=""green""> Bonus : $10 </font>
            </div>
        </div>
    ","null","","","","","","","",""
"","","","","","html-keyboard-response","84","128186","0.0-7.5-3.5","5f09014a50389c18e30f42b3","655cb802637e0dbe2941dbc4","655cb8ce0e1466ed2da6121c","235","./stimuli//pack_shapes_diff/cat_2/diff_2/ex_2_2_16.png","arrowright","response","ArrowRight","16","2","2","test","true",""
"","","","","","html-keyboard-response","85","129689","0.0-7.5-4.5","5f09014a50389c18e30f42b3","655cb802637e0dbe2941dbc4","655cb8ce0e1466ed2da6121c","null","<p> <font color=""green"" size=""5vw""> Correct category! </font></p>","null","feedback","","","","","","","10"
"","","","","","html-keyboard-response","86","130419","0.0-7.6-0.6","5f09014a50389c18e30f42b3","655cb802637e0dbe2941dbc4","655cb8ce0e1466ed2da6121c","730","
            
        <div style=""text-align: center; position: fixed; top: 5vh; left: 40vw;"">
            <div style=""margin:0 auto; width: 20vw; top: 8vh; font-size: 2vw""> 
            <font color=""green""> Bonus : $10 </font>
            </div>
        </div>
    
            <div> Please press any key to continue to the next image.</div>
        "," ","ITI","","","","","","",""
"","","","","","html-keyboard-response","87","131030","0.0-7.6-1.6","5f09014a50389c18e30f42b3","655cb802637e0dbe2941dbc4","655cb8ce0e1466ed2da6121c","null","
        
        <div style=""text-align: center; position: fixed; top: 5vh; left: 40vw;"">
            <div style=""margin:0 auto; width: 20vw; top: 8vh; font-size: 2vw""> 
            <font color=""green""> Bonus : $10 </font>
            </div>
        </div>
    
        <img class=""stim"" src=./stimuli//pack_shapes_diff/cat_1/diff_2/ex_1_2_15.png></img>
    ","null","stimulus","","","","","","",""
"","","","","","html-keyboard-response","88","132037","0.0-7.6-2.6","5f09014a50389c18e30f42b3","655cb802637e0dbe2941dbc4","655cb8ce0e1466ed2da6121c","null","
        <div style=""text-align: center; position: fixed; top: 5vh; left: 40vw;"">
            <div style=""margin:0 auto; width: 20vw; top: 8vh; font-size: 2vw""> 
            <font color=""green""> Bonus : $10 </font>
            </div>
        </div>
    ","null","","","","","","","",""
"","","","","","html-keyboard-response","89","132398","0.0-7.6-3.6","5f09014a50389c18e30f42b3","655cb802637e0dbe2941dbc4","655cb8ce0e1466ed2da6121c","360","./stimuli//pack_shapes_diff/cat_1/diff_2/ex_1_2_15.png","arrowleft","response","ArrowLeft","15","1","2","test","true",""
"","","","","","html-keyboard-response","90","133910","0.0-7.6-4.6","5f09014a50389c18e30f42b3","655cb802637e0dbe2941dbc4","655cb8ce0e1466ed2da6121c","null","<p> <font color=""green"" size=""5vw""> Correct category! </font></p>","null","feedback","","","","","","","10"
"","","","","","html-keyboard-response","91","134802","0.0-7.7-0.7","5f09014a50389c18e30f42b3","655cb802637e0dbe2941dbc4","655cb8ce0e1466ed2da6121c","891","
            
        <div style=""text-align: center; position: fixed; top: 5vh; left: 40vw;"">
            <div style=""margin:0 auto; width: 20vw; top: 8vh; font-size: 2vw""> 
            <font color=""green""> Bonus : $10 </font>
            </div>
        </div>
    
            <div> Please press any key to continue to the next image.</div>
        "," ","ITI","","","","","","",""
"","","","","","html-keyboard-response","92","135413","0.0-7.7-1.7","5f09014a50389c18e30f42b3","655cb802637e0dbe2941dbc4","655cb8ce0e1466ed2da6121c","null","
        
        <div style=""text-align: center; position: fixed; top: 5vh; left: 40vw;"">
            <div style=""margin:0 auto; width: 20vw; top: 8vh; font-size: 2vw""> 
            <font color=""green""> Bonus : $10 </font>
            </div>
        </div>
    
        <img class=""stim"" src=./stimuli//pack_shapes_diff/cat_1/diff_2/ex_1_2_12.png></img>
    ","null","stimulus","","","","","","",""
"","","","","","html-keyboard-response","93","136422","0.0-7.7-2.7","5f09014a50389c18e30f42b3","655cb802637e0dbe2941dbc4","655cb8ce0e1466ed2da6121c","null","
        <div style=""text-align: center; position: fixed; top: 5vh; left: 40vw;"">
            <div style=""margin:0 auto; width: 20vw; top: 8vh; font-size: 2vw""> 
            <font color=""green""> Bonus : $10 </font>
            </div>
        </div>
    ","null","","","","","","","",""
"","","","","","html-keyboard-response","94","136695","0.0-7.7-3.7","5f09014a50389c18e30f42b3","655cb802637e0dbe2941dbc4","655cb8ce0e1466ed2da6121c","272","./stimuli//pack_shapes_diff/cat_1/diff_2/ex_1_2_12.png","arrowleft","response","ArrowLeft","12","1","2","test","true",""
"","","","","","html-keyboard-response","95","138202","0.0-7.7-4.7","5f09014a50389c18e30f42b3","655cb802637e0dbe2941dbc4","655cb8ce0e1466ed2da6121c","null","<p> <font color=""green"" size=""5vw""> Correct category! </font></p>","null","feedback","","","","","","","10"
"","","","","","html-keyboard-response","96","138714","0.0-7.8-0.8","5f09014a50389c18e30f42b3","655cb802637e0dbe2941dbc4","655cb8ce0e1466ed2da6121c","511","
            
        <div style=""text-align: center; position: fixed; top: 5vh; left: 40vw;"">
            <div style=""margin:0 auto; width: 20vw; top: 8vh; font-size: 2vw""> 
            <font color=""green""> Bonus : $10 </font>
            </div>
        </div>
    
            <div> Please press any key to continue to the next image.</div>
        "," ","ITI","","","","","","",""
"","","","","","html-keyboard-response","97","139331","0.0-7.8-1.8","5f09014a50389c18e30f42b3","655cb802637e0dbe2941dbc4","655cb8ce0e1466ed2da6121c","null","
        
        <div style=""text-align: center; position: fixed; top: 5vh; left: 40vw;"">
            <div style=""margin:0 auto; width: 20vw; top: 8vh; font-size: 2vw""> 
            <font color=""green""> Bonus : $10 </font>
            </div>
        </div>
    
        <img class=""stim"" src=./stimuli//pack_shapes_diff/cat_1/diff_2/ex_1_2_11.png></img>
    ","null","stimulus","","","","","","",""
"","","","","","html-keyboard-response","98","140344","0.0-7.8-2.8","5f09014a50389c18e30f42b3","655cb802637e0dbe2941dbc4","655cb8ce0e1466ed2da6121c","null","
        <div style=""text-align: center; position: fixed; top: 5vh; left: 40vw;"">
            <div style=""margin:0 auto; width: 20vw; top: 8vh; font-size: 2vw""> 
            <font color=""green""> Bonus : $10 </font>
            </div>
        </div>
    ","null","","","","","","","",""
"","","","","","html-keyboard-response","99","140628","0.0-7.8-3.8","5f09014a50389c18e30f42b3","655cb802637e0dbe2941dbc4","655cb8ce0e1466ed2da6121c","283","./stimuli//pack_shapes_diff/cat_1/diff_2/ex_1_2_11.png","arrowleft","response","ArrowLeft","11","1","2","test","true",""
"","","","","","html-keyboard-response","100","142137","0.0-7.8-4.8","5f09014a50389c18e30f42b3","655cb802637e0dbe2941dbc4","655cb8ce0e1466ed2da6121c","null","<p> <font color=""green"" size=""5vw""> Correct category! </font></p>","null","feedback","","","","","","","10"
"","","","","","html-keyboard-response","101","143076","0.0-7.9-0.9","5f09014a50389c18e30f42b3","655cb802637e0dbe2941dbc4","655cb8ce0e1466ed2da6121c","938","
            
        <div style=""text-align: center; position: fixed; top: 5vh; left: 40vw;"">
            <div style=""margin:0 auto; width: 20vw; top: 8vh; font-size: 2vw""> 
            <font color=""green""> Bonus : $10 </font>
            </div>
        </div>
    
            <div> Please press any key to continue to the next image.</div>
        "," ","ITI","","","","","","",""
"","","","","","html-keyboard-response","102","143681","0.0-7.9-1.9","5f09014a50389c18e30f42b3","655cb802637e0dbe2941dbc4","655cb8ce0e1466ed2da6121c","null","
        
        <div style=""text-align: center; position: fixed; top: 5vh; left: 40vw;"">
            <div style=""margin:0 auto; width: 20vw; top: 8vh; font-size: 2vw""> 
            <font color=""green""> Bonus : $10 </font>
            </div>
        </div>
    
        <img class=""stim"" src=./stimuli//pack_shapes_diff/cat_2/diff_2/ex_2_2_8.png></img>
    ","null","stimulus","","","","","","",""
"","","","","","html-keyboard-response","103","144686","0.0-7.9-2.9","5f09014a50389c18e30f42b3","655cb802637e0dbe2941dbc4","655cb8ce0e1466ed2da6121c","null","
        <div style=""text-align: center; position: fixed; top: 5vh; left: 40vw;"">
            <div style=""margin:0 auto; width: 20vw; top: 8vh; font-size: 2vw""> 
            <font color=""green""> Bonus : $10 </font>
            </div>
        </div>
    ","null","","","","","","","",""
"","","","","","html-keyboard-response","104","144990","0.0-7.9-3.9","5f09014a50389c18e30f42b3","655cb802637e0dbe2941dbc4","655cb8ce0e1466ed2da6121c","303","./stimuli//pack_shapes_diff/cat_2/diff_2/ex_2_2_8.png","arrowright","response","ArrowRight","8","2","2","test","true",""
"","","","","","html-keyboard-response","105","146496","0.0-7.9-4.9","5f09014a50389c18e30f42b3","655cb802637e0dbe2941dbc4","655cb8ce0e1466ed2da6121c","null","<p> <font color=""green"" size=""5vw""> Correct category! </font></p>","null","feedback","","","","","","","10"
"","","","","","html-keyboard-response","106","147188","0.0-7.10-0.10","5f09014a50389c18e30f42b3","655cb802637e0dbe2941dbc4","655cb8ce0e1466ed2da6121c","691","
            
        <div style=""text-align: center; position: fixed; top: 5vh; left: 40vw;"">
            <div style=""margin:0 auto; width: 20vw; top: 8vh; font-size: 2vw""> 
            <font color=""green""> Bonus : $10 </font>
            </div>
        </div>
    
            <div> Please press any key to continue to the next image.</div>
        ","arrowleft","ITI","","","","","","",""
"","","","","","html-keyboard-response","107","147805","0.0-7.10-1.10","5f09014a50389c18e30f42b3","655cb802637e0dbe2941dbc4","655cb8ce0e1466ed2da6121c","null","
        
        <div style=""text-align: center; position: fixed; top: 5vh; left: 40vw;"">
            <div style=""margin:0 auto; width: 20vw; top: 8vh; font-size: 2vw""> 
            <font color=""green""> Bonus : $10 </font>
            </div>
        </div>
    
        <img class=""stim"" src=./stimuli//pack_shapes_diff/cat_1/diff_3/ex_1_3_17.png></img>
    ","null","stimulus","","","","","","",""
"","","","","","html-keyboard-response","108","148813","0.0-7.10-2.10","5f09014a50389c18e30f42b3","655cb802637e0dbe2941dbc4","655cb8ce0e1466ed2da6121c","null","
        <div style=""text-align: center; position: fixed; top: 5vh; left: 40vw;"">
            <div style=""margin:0 auto; width: 20vw; top: 8vh; font-size: 2vw""> 
            <font color=""green""> Bonus : $10 </font>
            </div>
        </div>
    ","null","","","","","","","",""
"","","","","","html-keyboard-response","109","149141","0.0-7.10-3.10","5f09014a50389c18e30f42b3","655cb802637e0dbe2941dbc4","655cb8ce0e1466ed2da6121c","328","./stimuli//pack_shapes_diff/cat_1/diff_3/ex_1_3_17.png","arrowleft","response","ArrowLeft","17","1","3","test","true",""
"","","","","","html-keyboard-response","110","150650","0.0-7.10-4.10","5f09014a50389c18e30f42b3","655cb802637e0dbe2941dbc4","655cb8ce0e1466ed2da6121c","null","<p> <font color=""green"" size=""5vw""> Correct category! </font></p>","null","feedback","","","","","","","10"
"","","","","","html-keyboard-response","111","151470","0.0-7.11-0.11","5f09014a50389c18e30f42b3","655cb802637e0dbe2941dbc4","655cb8ce0e1466ed2da6121c","819","
            
        <div style=""text-align: center; position: fixed; top: 5vh; left: 40vw;"">
            <div style=""margin:0 auto; width: 20vw; top: 8vh; font-size: 2vw""> 
            <font color=""green""> Bonus : $10 </font>
            </div>
        </div>
    
            <div> Please press any key to continue to the next image.</div>
        ","arrowleft","ITI","","","","","","",""
"","","","","","html-keyboard-response","112","152084","0.0-7.11-1.11","5f09014a50389c18e30f42b3","655cb802637e0dbe2941dbc4","655cb8ce0e1466ed2da6121c","null","
        
        <div style=""text-align: center; position: fixed; top: 5vh; left: 40vw;"">
            <div style=""margin:0 auto; width: 20vw; top: 8vh; font-size: 2vw""> 
            <font color=""green""> Bonus : $10 </font>
            </div>
        </div>
    
        <img class=""stim"" src=./stimuli//pack_shapes_diff/cat_2/diff_3/ex_2_3_6.png></img>
    ","null","stimulus","","","","","","",""
"","","","","","html-keyboard-response","113","153096","0.0-7.11-2.11","5f09014a50389c18e30f42b3","655cb802637e0dbe2941dbc4","655cb8ce0e1466ed2da6121c","null","
        <div style=""text-align: center; position: fixed; top: 5vh; left: 40vw;"">
            <div style=""margin:0 auto; width: 20vw; top: 8vh; font-size: 2vw""> 
            <font color=""green""> Bonus : $10 </font>
            </div>
        </div>
    ","null","","","","","","","",""
"","","","","","html-keyboard-response","114","153374","0.0-7.11-3.11","5f09014a50389c18e30f42b3","655cb802637e0dbe2941dbc4","655cb8ce0e1466ed2da6121c","277","./stimuli//pack_shapes_diff/cat_2/diff_3/ex_2_3_6.png","arrowright","response","ArrowRight","6","2","3","test","true",""
"","","","","","html-keyboard-response","115","154878","0.0-7.11-4.11","5f09014a50389c18e30f42b3","655cb802637e0dbe2941dbc4","655cb8ce0e1466ed2da6121c","null","<p> <font color=""green"" size=""5vw""> Correct category! </font></p>","null","feedback","","","","","","","10"
"","","","","","html-keyboard-response","116","157102","0.0-7.12-0.12","5f09014a50389c18e30f42b3","655cb802637e0dbe2941dbc4","655cb8ce0e1466ed2da6121c","2223","
            
        <div style=""text-align: center; position: fixed; top: 5vh; left: 40vw;"">
            <div style=""margin:0 auto; width: 20vw; top: 8vh; font-size: 2vw""> 
            <font color=""green""> Bonus : $10 </font>
            </div>
        </div>
    
            <div> Please press any key to continue to the next image.</div>
        "," ","ITI","","","","","","",""
"","","","","","html-keyboard-response","117","157714","0.0-7.12-1.12","5f09014a50389c18e30f42b3","655cb802637e0dbe2941dbc4","655cb8ce0e1466ed2da6121c","null","
        
        <div style=""text-align: center; position: fixed; top: 5vh; left: 40vw;"">
            <div style=""margin:0 auto; width: 20vw; top: 8vh; font-size: 2vw""> 
            <font color=""green""> Bonus : $10 </font>
            </div>
        </div>
    
        <img class=""stim"" src=./stimuli//pack_shapes_diff/cat_2/diff_3/ex_2_3_9.png></img>
    ","null","stimulus","","","","","","",""
"","","","","","html-keyboard-response","118","158731","0.0-7.12-2.12","5f09014a50389c18e30f42b3","655cb802637e0dbe2941dbc4","655cb8ce0e1466ed2da6121c","null","
        <div style=""text-align: center; position: fixed; top: 5vh; left: 40vw;"">
            <div style=""margin:0 auto; width: 20vw; top: 8vh; font-size: 2vw""> 
            <font color=""green""> Bonus : $10 </font>
            </div>
        </div>
    ","null","","","","","","","",""
"","","","","","html-keyboard-response","119","159076","0.0-7.12-3.12","5f09014a50389c18e30f42b3","655cb802637e0dbe2941dbc4","655cb8ce0e1466ed2da6121c","345","./stimuli//pack_shapes_diff/cat_2/diff_3/ex_2_3_9.png","arrowright","response","ArrowRight","9","2","3","test","true",""
"","","","","","html-keyboard-response","120","160588","0.0-7.12-4.12","5f09014a50389c18e30f42b3","655cb802637e0dbe2941dbc4","655cb8ce0e1466ed2da6121c","null","<p> <font color=""green"" size=""5vw""> Correct category! </font></p>","null","feedback","","","","","","","10"
"","","","","","html-keyboard-response","121","161544","0.0-7.13-0.13","5f09014a50389c18e30f42b3","655cb802637e0dbe2941dbc4","655cb8ce0e1466ed2da6121c","955","
            
        <div style=""text-align: center; position: fixed; top: 5vh; left: 40vw;"">
            <div style=""margin:0 auto; width: 20vw; top: 8vh; font-size: 2vw""> 
            <font color=""green""> Bonus : $10 </font>
            </div>
        </div>
    
            <div> Please press any key to continue to the next image.</div>
        "," ","ITI","","","","","","",""
"","","","","","html-keyboard-response","122","162149","0.0-7.13-1.13","5f09014a50389c18e30f42b3","655cb802637e0dbe2941dbc4","655cb8ce0e1466ed2da6121c","null","
        
        <div style=""text-align: center; position: fixed; top: 5vh; left: 40vw;"">
            <div style=""margin:0 auto; width: 20vw; top: 8vh; font-size: 2vw""> 
            <font color=""green""> Bonus : $10 </font>
            </div>
        </div>
    
        <img class=""stim"" src=./stimuli//pack_shapes_diff/cat_2/diff_3/ex_2_3_9.png></img>
    ","null","stimulus","","","","","","",""
"","","","","","html-keyboard-response","123","163160","0.0-7.13-2.13","5f09014a50389c18e30f42b3","655cb802637e0dbe2941dbc4","655cb8ce0e1466ed2da6121c","null","
        <div style=""text-align: center; position: fixed; top: 5vh; left: 40vw;"">
            <div style=""margin:0 auto; width: 20vw; top: 8vh; font-size: 2vw""> 
            <font color=""green""> Bonus : $10 </font>
            </div>
        </div>
    ","null","","","","","","","",""
"","","","","","html-keyboard-response","124","163498","0.0-7.13-3.13","5f09014a50389c18e30f42b3","655cb802637e0dbe2941dbc4","655cb8ce0e1466ed2da6121c","337","./stimuli//pack_shapes_diff/cat_2/diff_3/ex_2_3_9.png","arrowright","response","ArrowRight","9","2","3","test","true",""
"","","","","","html-keyboard-response","125","165010","0.0-7.13-4.13","5f09014a50389c18e30f42b3","655cb802637e0dbe2941dbc4","655cb8ce0e1466ed2da6121c","null","<p> <font color=""green"" size=""5vw""> Correct category! </font></p>","null","feedback","","","","","","","10"
"","","","","","html-keyboard-response","126","165332","0.0-7.14-0.14","5f09014a50389c18e30f42b3","655cb802637e0dbe2941dbc4","655cb8ce0e1466ed2da6121c","321","
            
        <div style=""text-align: center; position: fixed; top: 5vh; left: 40vw;"">
            <div style=""margin:0 auto; width: 20vw; top: 8vh; font-size: 2vw""> 
            <font color=""green""> Bonus : $10 </font>
            </div>
        </div>
    
            <div> Please press any key to continue to the next image.</div>
        "," ","ITI","","","","","","",""
"","","","","","html-keyboard-response","127","165945","0.0-7.14-1.14","5f09014a50389c18e30f42b3","655cb802637e0dbe2941dbc4","655cb8ce0e1466ed2da6121c","null","
        
        <div style=""text-align: center; position: fixed; top: 5vh; left: 40vw;"">
            <div style=""margin:0 auto; width: 20vw; top: 8vh; font-size: 2vw""> 
            <font color=""green""> Bonus : $10 </font>
            </div>
        </div>
    
        <img class=""stim"" src=./stimuli//pack_shapes_diff/cat_1/diff_3/ex_1_3_16.png></img>
    ","null","stimulus","","","","","","",""
"","","","","","html-keyboard-response","128","166954","0.0-7.14-2.14","5f09014a50389c18e30f42b3","655cb802637e0dbe2941dbc4","655cb8ce0e1466ed2da6121c","null","
        <div style=""text-align: center; position: fixed; top: 5vh; left: 40vw;"">
            <div style=""margin:0 auto; width: 20vw; top: 8vh; font-size: 2vw""> 
            <font color=""green""> Bonus : $10 </font>
            </div>
        </div>
    ","null","","","","","","","",""
"","","","","","html-keyboard-response","129","167276","0.0-7.14-3.14","5f09014a50389c18e30f42b3","655cb802637e0dbe2941dbc4","655cb8ce0e1466ed2da6121c","321","./stimuli//pack_shapes_diff/cat_1/diff_3/ex_1_3_16.png","arrowleft","response","ArrowLeft","16","1","3","test","true",""
"","","","","","html-keyboard-response","130","168787","0.0-7.14-4.14","5f09014a50389c18e30f42b3","655cb802637e0dbe2941dbc4","655cb8ce0e1466ed2da6121c","null","<p> <font color=""green"" size=""5vw""> Correct category! </font></p>","null","feedback","","","","","","","10"
"","","","","","html-keyboard-response","131","169310","0.0-7.15-0.15","5f09014a50389c18e30f42b3","655cb802637e0dbe2941dbc4","655cb8ce0e1466ed2da6121c","522","
            
        <div style=""text-align: center; position: fixed; top: 5vh; left: 40vw;"">
            <div style=""margin:0 auto; width: 20vw; top: 8vh; font-size: 2vw""> 
            <font color=""green""> Bonus : $10 </font>
            </div>
        </div>
    
            <div> Please press any key to continue to the next image.</div>
        "," ","ITI","","","","","","",""
"","","","","","html-keyboard-response","132","169923","0.0-7.15-1.15","5f09014a50389c18e30f42b3","655cb802637e0dbe2941dbc4","655cb8ce0e1466ed2da6121c","null","
        
        <div style=""text-align: center; position: fixed; top: 5vh; left: 40vw;"">
            <div style=""margin:0 auto; width: 20vw; top: 8vh; font-size: 2vw""> 
            <font color=""green""> Bonus : $10 </font>
            </div>
        </div>
    
        <img class=""stim"" src=./stimuli//pack_shapes_diff/cat_1/diff_4/ex_1_4_12.png></img>
    ","null","stimulus","","","","","","",""
"","","","","","html-keyboard-response","133","170929","0.0-7.15-2.15","5f09014a50389c18e30f42b3","655cb802637e0dbe2941dbc4","655cb8ce0e1466ed2da6121c","null","
        <div style=""text-align: center; position: fixed; top: 5vh; left: 40vw;"">
            <div style=""margin:0 auto; width: 20vw; top: 8vh; font-size: 2vw""> 
            <font color=""green""> Bonus : $10 </font>
            </div>
        </div>
    ","null","","","","","","","",""
"","","","","","html-keyboard-response","134","171225","0.0-7.15-3.15","5f09014a50389c18e30f42b3","655cb802637e0dbe2941dbc4","655cb8ce0e1466ed2da6121c","296","./stimuli//pack_shapes_diff/cat_1/diff_4/ex_1_4_12.png","arrowleft","response","ArrowLeft","12","1","4","test","true",""
"","","","","","html-keyboard-response","135","172736","0.0-7.15-4.15","5f09014a50389c18e30f42b3","655cb802637e0dbe2941dbc4","655cb8ce0e1466ed2da6121c","null","<p> <font color=""green"" size=""5vw""> Correct category! </font></p>","null","feedback","","","","","","","10"
"","","","","","html-keyboard-response","136","173263","0.0-7.16-0.16","5f09014a50389c18e30f42b3","655cb802637e0dbe2941dbc4","655cb8ce0e1466ed2da6121c","526","
            
        <div style=""text-align: center; position: fixed; top: 5vh; left: 40vw;"">
            <div style=""margin:0 auto; width: 20vw; top: 8vh; font-size: 2vw""> 
            <font color=""green""> Bonus : $10 </font>
            </div>
        </div>
    
            <div> Please press any key to continue to the next image.</div>
        "," ","ITI","","","","","","",""
"","","","","","html-keyboard-response","137","173870","0.0-7.16-1.16","5f09014a50389c18e30f42b3","655cb802637e0dbe2941dbc4","655cb8ce0e1466ed2da6121c","null","
        
        <div style=""text-align: center; position: fixed; top: 5vh; left: 40vw;"">
            <div style=""margin:0 auto; width: 20vw; top: 8vh; font-size: 2vw""> 
            <font color=""green""> Bonus : $10 </font>
            </div>
        </div>
    
        <img class=""stim"" src=./stimuli//pack_shapes_diff/cat_2/diff_4/ex_2_4_16.png></img>
    ","null","stimulus","","","","","","",""
"","","","","","html-keyboard-response","138","174876","0.0-7.16-2.16","5f09014a50389c18e30f42b3","655cb802637e0dbe2941dbc4","655cb8ce0e1466ed2da6121c","null","
        <div style=""text-align: center; position: fixed; top: 5vh; left: 40vw;"">
            <div style=""margin:0 auto; width: 20vw; top: 8vh; font-size: 2vw""> 
            <font color=""green""> Bonus : $10 </font>
            </div>
        </div>
    ","null","","","","","","","",""
"","","","","","html-keyboard-response","139","175127","0.0-7.16-3.16","5f09014a50389c18e30f42b3","655cb802637e0dbe2941dbc4","655cb8ce0e1466ed2da6121c","251","./stimuli//pack_shapes_diff/cat_2/diff_4/ex_2_4_16.png","arrowright","response","ArrowRight","16","2","4","test","true",""
"","","","","","html-keyboard-response","140","176630","0.0-7.16-4.16","5f09014a50389c18e30f42b3","655cb802637e0dbe2941dbc4","655cb8ce0e1466ed2da6121c","null","<p> <font color=""green"" size=""5vw""> Correct category! </font></p>","null","feedback","","","","","","","10"
"","","","","","html-keyboard-response","141","177096","0.0-7.17-0.17","5f09014a50389c18e30f42b3","655cb802637e0dbe2941dbc4","655cb8ce0e1466ed2da6121c","465","
            
        <div style=""text-align: center; position: fixed; top: 5vh; left: 40vw;"">
            <div style=""margin:0 auto; width: 20vw; top: 8vh; font-size: 2vw""> 
            <font color=""green""> Bonus : $10 </font>
            </div>
        </div>
    
            <div> Please press any key to continue to the next image.</div>
        "," ","ITI","","","","","","",""
"","","","","","html-keyboard-response","142","177709","0.0-7.17-1.17","5f09014a50389c18e30f42b3","655cb802637e0dbe2941dbc4","655cb8ce0e1466ed2da6121c","null","
        
        <div style=""text-align: center; position: fixed; top: 5vh; left: 40vw;"">
            <div style=""margin:0 auto; width: 20vw; top: 8vh; font-size: 2vw""> 
            <font color=""green""> Bonus : $10 </font>
            </div>
        </div>
    
        <img class=""stim"" src=./stimuli//pack_shapes_diff/cat_1/diff_4/ex_1_4_1.png></img>
    ","null","stimulus","","","","","","",""
"","","","","","html-keyboard-response","143","178724","0.0-7.17-2.17","5f09014a50389c18e30f42b3","655cb802637e0dbe2941dbc4","655cb8ce0e1466ed2da6121c","null","
        <div style=""text-align: center; position: fixed; top: 5vh; left: 40vw;"">
            <div style=""margin:0 auto; width: 20vw; top: 8vh; font-size: 2vw""> 
            <font color=""green""> Bonus : $10 </font>
            </div>
        </div>
    ","null","","","","","","","",""
"","","","","","html-keyboard-response","144","179119","0.0-7.17-3.17","5f09014a50389c18e30f42b3","655cb802637e0dbe2941dbc4","655cb8ce0e1466ed2da6121c","395","./stimuli//pack_shapes_diff/cat_1/diff_4/ex_1_4_1.png","arrowleft","response","ArrowLeft","1","1","4","test","true",""
"","","","","","html-keyboard-response","145","180629","0.0-7.17-4.17","5f09014a50389c18e30f42b3","655cb802637e0dbe2941dbc4","655cb8ce0e1466ed2da6121c","null","<p> <font color=""green"" size=""5vw""> Correct category! </font></p>","null","feedback","","","","","","","10"
"","","","","","html-keyboard-response","146","181045","0.0-7.18-0.18","5f09014a50389c18e30f42b3","655cb802637e0dbe2941dbc4","655cb8ce0e1466ed2da6121c","415","
            
        <div style=""text-align: center; position: fixed; top: 5vh; left: 40vw;"">
            <div style=""margin:0 auto; width: 20vw; top: 8vh; font-size: 2vw""> 
            <font color=""green""> Bonus : $10 </font>
            </div>
        </div>
    
            <div> Please press any key to continue to the next image.</div>
        "," ","ITI","","","","","","",""
"","","","","","html-keyboard-response","147","181655","0.0-7.18-1.18","5f09014a50389c18e30f42b3","655cb802637e0dbe2941dbc4","655cb8ce0e1466ed2da6121c","null","
        
        <div style=""text-align: center; position: fixed; top: 5vh; left: 40vw;"">
            <div style=""margin:0 auto; width: 20vw; top: 8vh; font-size: 2vw""> 
            <font color=""green""> Bonus : $10 </font>
            </div>
        </div>
    
        <img class=""stim"" src=./stimuli//pack_shapes_diff/cat_1/diff_4/ex_1_4_1.png></img>
    ","null","stimulus","","","","","","",""
"","","","","","html-keyboard-response","148","182662","0.0-7.18-2.18","5f09014a50389c18e30f42b3","655cb802637e0dbe2941dbc4","655cb8ce0e1466ed2da6121c","null","
        <div style=""text-align: center; position: fixed; top: 5vh; left: 40vw;"">
            <div style=""margin:0 auto; width: 20vw; top: 8vh; font-size: 2vw""> 
            <font color=""green""> Bonus : $10 </font>
            </div>
        </div>
    ","null","","","","","","","",""
"","","","","","html-keyboard-response","149","183003","0.0-7.18-3.18","5f09014a50389c18e30f42b3","655cb802637e0dbe2941dbc4","655cb8ce0e1466ed2da6121c","340","./stimuli//pack_shapes_diff/cat_1/diff_4/ex_1_4_1.png","arrowleft","response","ArrowLeft","1","1","4","test","true",""
"","","","","","html-keyboard-response","150","184514","0.0-7.18-4.18","5f09014a50389c18e30f42b3","655cb802637e0dbe2941dbc4","655cb8ce0e1466ed2da6121c","null","<p> <font color=""green"" size=""5vw""> Correct category! </font></p>","null","feedback","","","","","","","10"
"","","","","","html-keyboard-response","151","184892","0.0-7.19-0.19","5f09014a50389c18e30f42b3","655cb802637e0dbe2941dbc4","655cb8ce0e1466ed2da6121c","377","
            
        <div style=""text-align: center; position: fixed; top: 5vh; left: 40vw;"">
            <div style=""margin:0 auto; width: 20vw; top: 8vh; font-size: 2vw""> 
            <font color=""green""> Bonus : $10 </font>
            </div>
        </div>
    
            <div> Please press any key to continue to the next image.</div>
        "," ","ITI","","","","","","",""
"","","","","","html-keyboard-response","152","185507","0.0-7.19-1.19","5f09014a50389c18e30f42b3","655cb802637e0dbe2941dbc4","655cb8ce0e1466ed2da6121c","null","
        
        <div style=""text-align: center; position: fixed; top: 5vh; left: 40vw;"">
            <div style=""margin:0 auto; width: 20vw; top: 8vh; font-size: 2vw""> 
            <font color=""green""> Bonus : $10 </font>
            </div>
        </div>
    
        <img class=""stim"" src=./stimuli//pack_shapes_diff/cat_1/diff_4/ex_1_4_9.png></img>
    ","null","stimulus","","","","","","",""
"","","","","","html-keyboard-response","153","186518","0.0-7.19-2.19","5f09014a50389c18e30f42b3","655cb802637e0dbe2941dbc4","655cb8ce0e1466ed2da6121c","null","
        <div style=""text-align: center; position: fixed; top: 5vh; left: 40vw;"">
            <div style=""margin:0 auto; width: 20vw; top: 8vh; font-size: 2vw""> 
            <font color=""green""> Bonus : $10 </font>
            </div>
        </div>
    ","null","","","","","","","",""
"","","","","","html-keyboard-response","154","186851","0.0-7.19-3.19","5f09014a50389c18e30f42b3","655cb802637e0dbe2941dbc4","655cb8ce0e1466ed2da6121c","333","./stimuli//pack_shapes_diff/cat_1/diff_4/ex_1_4_9.png","arrowleft","response","ArrowLeft","9","1","4","test","true",""
"","","","","","html-keyboard-response","155","188358","0.0-7.19-4.19","5f09014a50389c18e30f42b3","655cb802637e0dbe2941dbc4","655cb8ce0e1466ed2da6121c","null","<p> <font color=""green"" size=""5vw""> Correct category! </font></p>","null","feedback","","","","","","","10"
"","","","","","html-keyboard-response","156","188656","0.0-7.20-0.20","5f09014a50389c18e30f42b3","655cb802637e0dbe2941dbc4","655cb8ce0e1466ed2da6121c","297","
            
        <div style=""text-align: center; position: fixed; top: 5vh; left: 40vw;"">
            <div style=""margin:0 auto; width: 20vw; top: 8vh; font-size: 2vw""> 
            <font color=""green""> Bonus : $10 </font>
            </div>
        </div>
    
            <div> Please press any key to continue to the next image.</div>
        "," ","ITI","","","","","","",""
"","","","","","html-keyboard-response","157","189271","0.0-7.20-1.20","5f09014a50389c18e30f42b3","655cb802637e0dbe2941dbc4","655cb8ce0e1466ed2da6121c","null","
        
        <div style=""text-align: center; position: fixed; top: 5vh; left: 40vw;"">
            <div style=""margin:0 auto; width: 20vw; top: 8vh; font-size: 2vw""> 
            <font color=""green""> Bonus : $10 </font>
            </div>
        </div>
    
        <img class=""stim"" src=./stimuli//pack_shapes_diff/cat_2/diff_5/ex_2_5_8.png></img>
    ","null","stimulus","","","","","","",""
"","","","","","html-keyboard-response","158","190282","0.0-7.20-2.20","5f09014a50389c18e30f42b3","655cb802637e0dbe2941dbc4","655cb8ce0e1466ed2da6121c","null","
        <div style=""text-align: center; position: fixed; top: 5vh; left: 40vw;"">
            <div style=""margin:0 auto; width: 20vw; top: 8vh; font-size: 2vw""> 
            <font color=""green""> Bonus : $10 </font>
            </div>
        </div>
    ","null","","","","","","","",""
"","","","","","html-keyboard-response","159","190559","0.0-7.20-3.20","5f09014a50389c18e30f42b3","655cb802637e0dbe2941dbc4","655cb8ce0e1466ed2da6121c","277","./stimuli//pack_shapes_diff/cat_2/diff_5/ex_2_5_8.png","arrowright","response","ArrowRight","8","2","5","test","true",""
"","","","","","html-keyboard-response","160","192073","0.0-7.20-4.20","5f09014a50389c18e30f42b3","655cb802637e0dbe2941dbc4","655cb8ce0e1466ed2da6121c","null","<p> <font color=""green"" size=""5vw""> Correct category! </font></p>","null","feedback","","","","","","","10"
"","","","","","html-keyboard-response","161","192075","0.0-7.21-0.21","5f09014a50389c18e30f42b3","655cb802637e0dbe2941dbc4","655cb8ce0e1466ed2da6121c","1","
            
        <div style=""text-align: center; position: fixed; top: 5vh; left: 40vw;"">
            <div style=""margin:0 auto; width: 20vw; top: 8vh; font-size: 2vw""> 
            <font color=""green""> Bonus : $10 </font>
            </div>
        </div>
    
            <div> Please press any key to continue to the next image.</div>
        "," ","ITI","","","","","","",""
"","","","","","html-keyboard-response","162","192681","0.0-7.21-1.21","5f09014a50389c18e30f42b3","655cb802637e0dbe2941dbc4","655cb8ce0e1466ed2da6121c","null","
        
        <div style=""text-align: center; position: fixed; top: 5vh; left: 40vw;"">
            <div style=""margin:0 auto; width: 20vw; top: 8vh; font-size: 2vw""> 
            <font color=""green""> Bonus : $10 </font>
            </div>
        </div>
    
        <img class=""stim"" src=./stimuli//pack_shapes_diff/cat_2/diff_5/ex_2_5_16.png></img>
    ","null","stimulus","","","","","","",""
"","","","","","html-keyboard-response","163","193693","0.0-7.21-2.21","5f09014a50389c18e30f42b3","655cb802637e0dbe2941dbc4","655cb8ce0e1466ed2da6121c","null","
        <div style=""text-align: center; position: fixed; top: 5vh; left: 40vw;"">
            <div style=""margin:0 auto; width: 20vw; top: 8vh; font-size: 2vw""> 
            <font color=""green""> Bonus : $10 </font>
            </div>
        </div>
    ","null","","","","","","","",""
"","","","","","html-keyboard-response","164","194198","0.0-7.21-3.21","5f09014a50389c18e30f42b3","655cb802637e0dbe2941dbc4","655cb8ce0e1466ed2da6121c","504","./stimuli//pack_shapes_diff/cat_2/diff_5/ex_2_5_16.png","arrowleft","response","ArrowRight","16","2","5","test","false",""
"","","","","","html-keyboard-response","165","195701","0.0-7.21-4.21","5f09014a50389c18e30f42b3","655cb802637e0dbe2941dbc4","655cb8ce0e1466ed2da6121c","null","<p> <font size=""4vw""> Wrong category! </font> <br> <br> <font color=""red"" size=""7vw""> - $0.05 points </font> </p>","null","feedback","","","","","","","9.95"
"","","","","","html-keyboard-response","166","197224","0.0-7.22-0.22","5f09014a50389c18e30f42b3","655cb802637e0dbe2941dbc4","655cb8ce0e1466ed2da6121c","1522","
            
        <div style=""text-align: center; position: fixed; top: 5vh; left: 40vw;"">
            <div style=""margin:0 auto; width: 20vw; top: 8vh; font-size: 2vw""> 
            <font color=""green""> Bonus : $9.95 </font>
            </div>
        </div>
    
            <div> Please press any key to continue to the next image.</div>
        "," ","ITI","","","","","","",""
"","","","","","html-keyboard-response","167","197838","0.0-7.22-1.22","5f09014a50389c18e30f42b3","655cb802637e0dbe2941dbc4","655cb8ce0e1466ed2da6121c","null","
        
        <div style=""text-align: center; position: fixed; top: 5vh; left: 40vw;"">
            <div style=""margin:0 auto; width: 20vw; top: 8vh; font-size: 2vw""> 
            <font color=""green""> Bonus : $9.95 </font>
            </div>
        </div>
    
        <img class=""stim"" src=./stimuli//pack_shapes_diff/cat_2/diff_5/ex_2_5_16.png></img>
    ","null","stimulus","","","","","","",""
"","","","","","html-keyboard-response","168","198851","0.0-7.22-2.22","5f09014a50389c18e30f42b3","655cb802637e0dbe2941dbc4","655cb8ce0e1466ed2da6121c","null","
        <div style=""text-align: center; position: fixed; top: 5vh; left: 40vw;"">
            <div style=""margin:0 auto; width: 20vw; top: 8vh; font-size: 2vw""> 
            <font color=""green""> Bonus : $9.95 </font>
            </div>
        </div>
    ","null","","","","","","","",""
"","","","","","html-keyboard-response","169","199098","0.0-7.22-3.22","5f09014a50389c18e30f42b3","655cb802637e0dbe2941dbc4","655cb8ce0e1466ed2da6121c","246","./stimuli//pack_shapes_diff/cat_2/diff_5/ex_2_5_16.png","arrowright","response","ArrowRight","16","2","5","test","true",""
"","","","","","html-keyboard-response","170","200599","0.0-7.22-4.22","5f09014a50389c18e30f42b3","655cb802637e0dbe2941dbc4","655cb8ce0e1466ed2da6121c","null","<p> <font color=""green"" size=""5vw""> Correct category! </font></p>","null","feedback","","","","","","","9.95"
"","","","","","html-keyboard-response","171","201491","0.0-7.23-0.23","5f09014a50389c18e30f42b3","655cb802637e0dbe2941dbc4","655cb8ce0e1466ed2da6121c","891","
            
        <div style=""text-align: center; position: fixed; top: 5vh; left: 40vw;"">
            <div style=""margin:0 auto; width: 20vw; top: 8vh; font-size: 2vw""> 
            <font color=""green""> Bonus : $9.95 </font>
            </div>
        </div>
    
            <div> Please press any key to continue to the next image.</div>
        "," ","ITI","","","","","","",""
"","","","","","html-keyboard-response","172","202095","0.0-7.23-1.23","5f09014a50389c18e30f42b3","655cb802637e0dbe2941dbc4","655cb8ce0e1466ed2da6121c","null","
        
        <div style=""text-align: center; position: fixed; top: 5vh; left: 40vw;"">
            <div style=""margin:0 auto; width: 20vw; top: 8vh; font-size: 2vw""> 
            <font color=""green""> Bonus : $9.95 </font>
            </div>
        </div>
    
        <img class=""stim"" src=./stimuli//pack_shapes_diff/cat_2/diff_5/ex_2_5_16.png></img>
    ","null","stimulus","","","","","","",""
"","","","","","html-keyboard-response","173","203109","0.0-7.23-2.23","5f09014a50389c18e30f42b3","655cb802637e0dbe2941dbc4","655cb8ce0e1466ed2da6121c","null","
        <div style=""text-align: center; position: fixed; top: 5vh; left: 40vw;"">
            <div style=""margin:0 auto; width: 20vw; top: 8vh; font-size: 2vw""> 
            <font color=""green""> Bonus : $9.95 </font>
            </div>
        </div>
    ","null","","","","","","","",""
"","","","","","html-keyboard-response","174","203440","0.0-7.23-3.23","5f09014a50389c18e30f42b3","655cb802637e0dbe2941dbc4","655cb8ce0e1466ed2da6121c","330","./stimuli//pack_shapes_diff/cat_2/diff_5/ex_2_5_16.png","arrowright","response","ArrowRight","16","2","5","test","true",""
"","","","","","html-keyboard-response","175","204943","0.0-7.23-4.23","5f09014a50389c18e30f42b3","655cb802637e0dbe2941dbc4","655cb8ce0e1466ed2da6121c","null","<p> <font color=""green"" size=""5vw""> Correct category! </font></p>","null","feedback","","","","","","","9.95"
"","","","","","html-keyboard-response","176","205514","0.0-7.24-0.24","5f09014a50389c18e30f42b3","655cb802637e0dbe2941dbc4","655cb8ce0e1466ed2da6121c","570","
            
        <div style=""text-align: center; position: fixed; top: 5vh; left: 40vw;"">
            <div style=""margin:0 auto; width: 20vw; top: 8vh; font-size: 2vw""> 
            <font color=""green""> Bonus : $9.95 </font>
            </div>
        </div>
    
            <div> Please press any key to continue to the next image.</div>
        "," ","ITI","","","","","","",""
"","","","","","html-keyboard-response","177","206124","0.0-7.24-1.24","5f09014a50389c18e30f42b3","655cb802637e0dbe2941dbc4","655cb8ce0e1466ed2da6121c","null","
        
        <div style=""text-align: center; position: fixed; top: 5vh; left: 40vw;"">
            <div style=""margin:0 auto; width: 20vw; top: 8vh; font-size: 2vw""> 
            <font color=""green""> Bonus : $9.95 </font>
            </div>
        </div>
    
        <img class=""stim"" src=./stimuli//pack_shapes_diff/cat_1/diff_5/ex_1_5_8.png></img>
    ","null","stimulus","","","","","","",""
"","","","","","html-keyboard-response","178","207136","0.0-7.24-2.24","5f09014a50389c18e30f42b3","655cb802637e0dbe2941dbc4","655cb8ce0e1466ed2da6121c","null","
        <div style=""text-align: center; position: fixed; top: 5vh; left: 40vw;"">
            <div style=""margin:0 auto; width: 20vw; top: 8vh; font-size: 2vw""> 
            <font color=""green""> Bonus : $9.95 </font>
            </div>
        </div>
    ","null","","","","","","","",""
"","","","","","html-keyboard-response","179","207377","0.0-7.24-3.24","5f09014a50389c18e30f42b3","655cb802637e0dbe2941dbc4","655cb8ce0e1466ed2da6121c","241","./stimuli//pack_shapes_diff/cat_1/diff_5/ex_1_5_8.png","arrowright","response","ArrowLeft","8","1","5","test","false",""
"","","","","","html-keyboard-response","180","208890","0.0-7.24-4.24","5f09014a50389c18e30f42b3","655cb802637e0dbe2941dbc4","655cb8ce0e1466ed2da6121c","null","<p> <font size=""4vw""> Wrong category! </font> <br> <br> <font color=""red"" size=""7vw""> - $0.05 points </font> </p>","null","feedback","","","","","","","9.9"
"","","","","","html-keyboard-response","181","208953","0.0-7.25-0.25","5f09014a50389c18e30f42b3","655cb802637e0dbe2941dbc4","655cb8ce0e1466ed2da6121c","63","
            
        <div style=""text-align: center; position: fixed; top: 5vh; left: 40vw;"">
            <div style=""margin:0 auto; width: 20vw; top: 8vh; font-size: 2vw""> 
            <font color=""green""> Bonus : $9.9 </font>
            </div>
        </div>
    
            <div> Please press any key to continue to the next image.</div>
        "," ","ITI","","","","","","",""
"","","","","","html-keyboard-response","182","209569","0.0-7.25-1.25","5f09014a50389c18e30f42b3","655cb802637e0dbe2941dbc4","655cb8ce0e1466ed2da6121c","null","
        
        <div style=""text-align: center; position: fixed; top: 5vh; left: 40vw;"">
            <div style=""margin:0 auto; width: 20vw; top: 8vh; font-size: 2vw""> 
            <font color=""green""> Bonus : $9.9 </font>
            </div>
        </div>
    
        <img class=""stim"" src=./stimuli//pack_shapes_diff/cat_2/diff_4/ex_2_4_3.png></img>
    ","null","stimulus","","","","","","",""
"","","","","","html-keyboard-response","183","210582","0.0-7.25-2.25","5f09014a50389c18e30f42b3","655cb802637e0dbe2941dbc4","655cb8ce0e1466ed2da6121c","null","
        <div style=""text-align: center; position: fixed; top: 5vh; left: 40vw;"">
            <div style=""margin:0 auto; width: 20vw; top: 8vh; font-size: 2vw""> 
            <font color=""green""> Bonus : $9.9 </font>
            </div>
        </div>
    ","null","","","","","","","",""
"","","","","","html-keyboard-response","184","211251","0.0-7.25-3.25","5f09014a50389c18e30f42b3","655cb802637e0dbe2941dbc4","655cb8ce0e1466ed2da6121c","668","./stimuli//pack_shapes_diff/cat_2/diff_4/ex_2_4_3.png","arrowright","response","ArrowRight","3","2","4","test","true",""
"","","","","","html-keyboard-response","185","212760","0.0-7.25-4.25","5f09014a50389c18e30f42b3","655cb802637e0dbe2941dbc4","655cb8ce0e1466ed2da6121c","null","<p> <font color=""green"" size=""5vw""> Correct category! </font></p>","null","feedback","","","","","","","9.9"
"","","","","","html-keyboard-response","186","213449","0.0-7.26-0.26","5f09014a50389c18e30f42b3","655cb802637e0dbe2941dbc4","655cb8ce0e1466ed2da6121c","689","
            
        <div style=""text-align: center; position: fixed; top: 5vh; left: 40vw;"">
            <div style=""margin:0 auto; width: 20vw; top: 8vh; font-size: 2vw""> 
            <font color=""green""> Bonus : $9.9 </font>
            </div>
        </div>
    
            <div> Please press any key to continue to the next image.</div>
        "," ","ITI","","","","","","",""
"","","","","","html-keyboard-response","187","214055","0.0-7.26-1.26","5f09014a50389c18e30f42b3","655cb802637e0dbe2941dbc4","655cb8ce0e1466ed2da6121c","null","
        
        <div style=""text-align: center; position: fixed; top: 5vh; left: 40vw;"">
            <div style=""margin:0 auto; width: 20vw; top: 8vh; font-size: 2vw""> 
            <font color=""green""> Bonus : $9.9 </font>
            </div>
        </div>
    
        <img class=""stim"" src=./stimuli//pack_shapes_diff/cat_2/diff_4/ex_2_4_14.png></img>
    ","null","stimulus","","","","","","",""
"","","","","","html-keyboard-response","188","215060","0.0-7.26-2.26","5f09014a50389c18e30f42b3","655cb802637e0dbe2941dbc4","655cb8ce0e1466ed2da6121c","null","
        <div style=""text-align: center; position: fixed; top: 5vh; left: 40vw;"">
            <div style=""margin:0 auto; width: 20vw; top: 8vh; font-size: 2vw""> 
            <font color=""green""> Bonus : $9.9 </font>
            </div>
        </div>
    ","null","","","","","","","",""
"","","","","","html-keyboard-response","189","215319","0.0-7.26-3.26","5f09014a50389c18e30f42b3","655cb802637e0dbe2941dbc4","655cb8ce0e1466ed2da6121c","258","./stimuli//pack_shapes_diff/cat_2/diff_4/ex_2_4_14.png","arrowright","response","ArrowRight","14","2","4","test","true",""
"","","","","","html-keyboard-response","190","216823","0.0-7.26-4.26","5f09014a50389c18e30f42b3","655cb802637e0dbe2941dbc4","655cb8ce0e1466ed2da6121c","null","<p> <font color=""green"" size=""5vw""> Correct category! </font></p>","null","feedback","","","","","","","9.9"
"","","","","","html-keyboard-response","191","217243","0.0-7.27-0.27","5f09014a50389c18e30f42b3","655cb802637e0dbe2941dbc4","655cb8ce0e1466ed2da6121c","419","
            
        <div style=""text-align: center; position: fixed; top: 5vh; left: 40vw;"">
            <div style=""margin:0 auto; width: 20vw; top: 8vh; font-size: 2vw""> 
            <font color=""green""> Bonus : $9.9 </font>
            </div>
        </div>
    
            <div> Please press any key to continue to the next image.</div>
        "," ","ITI","","","","","","",""
"","","","","","html-keyboard-response","192","217858","0.0-7.27-1.27","5f09014a50389c18e30f42b3","655cb802637e0dbe2941dbc4","655cb8ce0e1466ed2da6121c","null","
        
        <div style=""text-align: center; position: fixed; top: 5vh; left: 40vw;"">
            <div style=""margin:0 auto; width: 20vw; top: 8vh; font-size: 2vw""> 
            <font color=""green""> Bonus : $9.9 </font>
            </div>
        </div>
    
        <img class=""stim"" src=./stimuli//pack_shapes_diff/cat_2/diff_4/ex_2_4_9.png></img>
    ","null","stimulus","","","","","","",""
"","","","","","html-keyboard-response","193","218868","0.0-7.27-2.27","5f09014a50389c18e30f42b3","655cb802637e0dbe2941dbc4","655cb8ce0e1466ed2da6121c","null","
        <div style=""text-align: center; position: fixed; top: 5vh; left: 40vw;"">
            <div style=""margin:0 auto; width: 20vw; top: 8vh; font-size: 2vw""> 
            <font color=""green""> Bonus : $9.9 </font>
            </div>
        </div>
    ","null","","","","","","","",""
"","","","","","html-keyboard-response","194","219137","0.0-7.27-3.27","5f09014a50389c18e30f42b3","655cb802637e0dbe2941dbc4","655cb8ce0e1466ed2da6121c","268","./stimuli//pack_shapes_diff/cat_2/diff_4/ex_2_4_9.png","arrowright","response","ArrowRight","9","2","4","test","true",""
"","","","","","html-keyboard-response","195","220648","0.0-7.27-4.27","5f09014a50389c18e30f42b3","655cb802637e0dbe2941dbc4","655cb8ce0e1466ed2da6121c","null","<p> <font color=""green"" size=""5vw""> Correct category! </font></p>","null","feedback","","","","","","","9.9"
"","","","","","html-keyboard-response","196","221196","0.0-7.28-0.28","5f09014a50389c18e30f42b3","655cb802637e0dbe2941dbc4","655cb8ce0e1466ed2da6121c","547","
            
        <div style=""text-align: center; position: fixed; top: 5vh; left: 40vw;"">
            <div style=""margin:0 auto; width: 20vw; top: 8vh; font-size: 2vw""> 
            <font color=""green""> Bonus : $9.9 </font>
            </div>
        </div>
    
            <div> Please press any key to continue to the next image.</div>
        "," ","ITI","","","","","","",""
"","","","","","html-keyboard-response","197","221806","0.0-7.28-1.28","5f09014a50389c18e30f42b3","655cb802637e0dbe2941dbc4","655cb8ce0e1466ed2da6121c","null","
        
        <div style=""text-align: center; position: fixed; top: 5vh; left: 40vw;"">
            <div style=""margin:0 auto; width: 20vw; top: 8vh; font-size: 2vw""> 
            <font color=""green""> Bonus : $9.9 </font>
            </div>
        </div>
    
        <img class=""stim"" src=./stimuli//pack_shapes_diff/cat_1/diff_4/ex_1_4_16.png></img>
    ","null","stimulus","","","","","","",""
"","","","","","html-keyboard-response","198","222817","0.0-7.28-2.28","5f09014a50389c18e30f42b3","655cb802637e0dbe2941dbc4","655cb8ce0e1466ed2da6121c","null","
        <div style=""text-align: center; position: fixed; top: 5vh; left: 40vw;"">
            <div style=""margin:0 auto; width: 20vw; top: 8vh; font-size: 2vw""> 
            <font color=""green""> Bonus : $9.9 </font>
            </div>
        </div>
    ","null","","","","","","","",""
"","","","","","html-keyboard-response","199","223075","0.0-7.28-3.28","5f09014a50389c18e30f42b3","655cb802637e0dbe2941dbc4","655cb8ce0e1466ed2da6121c","257","./stimuli//pack_shapes_diff/cat_1/diff_4/ex_1_4_16.png","arrowleft","response","ArrowLeft","16","1","4","test","true",""
"","","","","","html-keyboard-response","200","224579","0.0-7.28-4.28","5f09014a50389c18e30f42b3","655cb802637e0dbe2941dbc4","655cb8ce0e1466ed2da6121c","null","<p> <font color=""green"" size=""5vw""> Correct category! </font></p>","null","feedback","","","","","","","9.9"
"","","","","","html-keyboard-response","201","225523","0.0-7.29-0.29","5f09014a50389c18e30f42b3","655cb802637e0dbe2941dbc4","655cb8ce0e1466ed2da6121c","943","
            
        <div style=""text-align: center; position: fixed; top: 5vh; left: 40vw;"">
            <div style=""margin:0 auto; width: 20vw; top: 8vh; font-size: 2vw""> 
            <font color=""green""> Bonus : $9.9 </font>
            </div>
        </div>
    
            <div> Please press any key to continue to the next image.</div>
        "," ","ITI","","","","","","",""
"","","","","","html-keyboard-response","202","226127","0.0-7.29-1.29","5f09014a50389c18e30f42b3","655cb802637e0dbe2941dbc4","655cb8ce0e1466ed2da6121c","null","
        
        <div style=""text-align: center; position: fixed; top: 5vh; left: 40vw;"">
            <div style=""margin:0 auto; width: 20vw; top: 8vh; font-size: 2vw""> 
            <font color=""green""> Bonus : $9.9 </font>
            </div>
        </div>
    
        <img class=""stim"" src=./stimuli//pack_shapes_diff/cat_2/diff_4/ex_2_4_3.png></img>
    ","null","stimulus","","","","","","",""
"","","","","","html-keyboard-response","203","227134","0.0-7.29-2.29","5f09014a50389c18e30f42b3","655cb802637e0dbe2941dbc4","655cb8ce0e1466ed2da6121c","null","
        <div style=""text-align: center; position: fixed; top: 5vh; left: 40vw;"">
            <div style=""margin:0 auto; width: 20vw; top: 8vh; font-size: 2vw""> 
            <font color=""green""> Bonus : $9.9 </font>
            </div>
        </div>
    ","null","","","","","","","",""
"","","","","","html-keyboard-response","204","227377","0.0-7.29-3.29","5f09014a50389c18e30f42b3","655cb802637e0dbe2941dbc4","655cb8ce0e1466ed2da6121c","242","./stimuli//pack_shapes_diff/cat_2/diff_4/ex_2_4_3.png","arrowright","response","ArrowRight","3","2","4","test","true",""
"","","","","","html-keyboard-response","205","228889","0.0-7.29-4.29","5f09014a50389c18e30f42b3","655cb802637e0dbe2941dbc4","655cb8ce0e1466ed2da6121c","null","<p> <font color=""green"" size=""5vw""> Correct category! </font></p>","null","feedback","","","","","","","9.9"
"","","","","","html-keyboard-response","206","229301","0.0-7.30-0.30","5f09014a50389c18e30f42b3","655cb802637e0dbe2941dbc4","655cb8ce0e1466ed2da6121c","411","
            
        <div style=""text-align: center; position: fixed; top: 5vh; left: 40vw;"">
            <div style=""margin:0 auto; width: 20vw; top: 8vh; font-size: 2vw""> 
            <font color=""green""> Bonus : $9.9 </font>
            </div>
        </div>
    
            <div> Please press any key to continue to the next image.</div>
        "," ","ITI","","","","","","",""
"","","","","","html-keyboard-response","207","229909","0.0-7.30-1.30","5f09014a50389c18e30f42b3","655cb802637e0dbe2941dbc4","655cb8ce0e1466ed2da6121c","null","
        
        <div style=""text-align: center; position: fixed; top: 5vh; left: 40vw;"">
            <div style=""margin:0 auto; width: 20vw; top: 8vh; font-size: 2vw""> 
            <font color=""green""> Bonus : $9.9 </font>
            </div>
        </div>
    
        <img class=""stim"" src=./stimuli//pack_shapes_diff/cat_2/diff_5/ex_2_5_12.png></img>
    ","null","stimulus","","","","","","",""
"","","","","","html-keyboard-response","208","230920","0.0-7.30-2.30","5f09014a50389c18e30f42b3","655cb802637e0dbe2941dbc4","655cb8ce0e1466ed2da6121c","null","
        <div style=""text-align: center; position: fixed; top: 5vh; left: 40vw;"">
            <div style=""margin:0 auto; width: 20vw; top: 8vh; font-size: 2vw""> 
            <font color=""green""> Bonus : $9.9 </font>
            </div>
        </div>
    ","null","","","","","","","",""
"","","","","","html-keyboard-response","209","231145","0.0-7.30-3.30","5f09014a50389c18e30f42b3","655cb802637e0dbe2941dbc4","655cb8ce0e1466ed2da6121c","224","./stimuli//pack_shapes_diff/cat_2/diff_5/ex_2_5_12.png","arrowright","response","ArrowRight","12","2","5","test","true",""
"","","","","","html-keyboard-response","210","232650","0.0-7.30-4.30","5f09014a50389c18e30f42b3","655cb802637e0dbe2941dbc4","655cb8ce0e1466ed2da6121c","null","<p> <font color=""green"" size=""5vw""> Correct category! </font></p>","null","feedback","","","","","","","9.9"
"","","","","","html-keyboard-response","211","233327","0.0-7.31-0.31","5f09014a50389c18e30f42b3","655cb802637e0dbe2941dbc4","655cb8ce0e1466ed2da6121c","677","
            
        <div style=""text-align: center; position: fixed; top: 5vh; left: 40vw;"">
            <div style=""margin:0 auto; width: 20vw; top: 8vh; font-size: 2vw""> 
            <font color=""green""> Bonus : $9.9 </font>
            </div>
        </div>
    
            <div> Please press any key to continue to the next image.</div>
        "," ","ITI","","","","","","",""
"","","","","","html-keyboard-response","212","233934","0.0-7.31-1.31","5f09014a50389c18e30f42b3","655cb802637e0dbe2941dbc4","655cb8ce0e1466ed2da6121c","null","
        
        <div style=""text-align: center; position: fixed; top: 5vh; left: 40vw;"">
            <div style=""margin:0 auto; width: 20vw; top: 8vh; font-size: 2vw""> 
            <font color=""green""> Bonus : $9.9 </font>
            </div>
        </div>
    
        <img class=""stim"" src=./stimuli//pack_shapes_diff/cat_1/diff_5/ex_1_5_10.png></img>
    ","null","stimulus","","","","","","",""
"","","","","","html-keyboard-response","213","234941","0.0-7.31-2.31","5f09014a50389c18e30f42b3","655cb802637e0dbe2941dbc4","655cb8ce0e1466ed2da6121c","null","
        <div style=""text-align: center; position: fixed; top: 5vh; left: 40vw;"">
            <div style=""margin:0 auto; width: 20vw; top: 8vh; font-size: 2vw""> 
            <font color=""green""> Bonus : $9.9 </font>
            </div>
        </div>
    ","null","","","","","","","",""
"","","","","","html-keyboard-response","214","235226","0.0-7.31-3.31","5f09014a50389c18e30f42b3","655cb802637e0dbe2941dbc4","655cb8ce0e1466ed2da6121c","284","./stimuli//pack_shapes_diff/cat_1/diff_5/ex_1_5_10.png","arrowleft","response","ArrowLeft","10","1","5","test","true",""
"","","","","","html-keyboard-response","215","236730","0.0-7.31-4.31","5f09014a50389c18e30f42b3","655cb802637e0dbe2941dbc4","655cb8ce0e1466ed2da6121c","null","<p> <font color=""green"" size=""5vw""> Correct category! </font></p>","null","feedback","","","","","","","9.9"
"","","","","","html-keyboard-response","216","237031","0.0-7.32-0.32","5f09014a50389c18e30f42b3","655cb802637e0dbe2941dbc4","655cb8ce0e1466ed2da6121c","300","
            
        <div style=""text-align: center; position: fixed; top: 5vh; left: 40vw;"">
            <div style=""margin:0 auto; width: 20vw; top: 8vh; font-size: 2vw""> 
            <font color=""green""> Bonus : $9.9 </font>
            </div>
        </div>
    
            <div> Please press any key to continue to the next image.</div>
        "," ","ITI","","","","","","",""
"","","","","","html-keyboard-response","217","237633","0.0-7.32-1.32","5f09014a50389c18e30f42b3","655cb802637e0dbe2941dbc4","655cb8ce0e1466ed2da6121c","null","
        
        <div style=""text-align: center; position: fixed; top: 5vh; left: 40vw;"">
            <div style=""margin:0 auto; width: 20vw; top: 8vh; font-size: 2vw""> 
            <font color=""green""> Bonus : $9.9 </font>
            </div>
        </div>
    
        <img class=""stim"" src=./stimuli//pack_shapes_diff/cat_1/diff_5/ex_1_5_17.png></img>
    ","null","stimulus","","","","","","",""
"","","","","","html-keyboard-response","218","238638","0.0-7.32-2.32","5f09014a50389c18e30f42b3","655cb802637e0dbe2941dbc4","655cb8ce0e1466ed2da6121c","null","
        <div style=""text-align: center; position: fixed; top: 5vh; left: 40vw;"">
            <div style=""margin:0 auto; width: 20vw; top: 8vh; font-size: 2vw""> 
            <font color=""green""> Bonus : $9.9 </font>
            </div>
        </div>
    ","null","","","","","","","",""
"","","","","","html-keyboard-response","219","238860","0.0-7.32-3.32","5f09014a50389c18e30f42b3","655cb802637e0dbe2941dbc4","655cb8ce0e1466ed2da6121c","221","./stimuli//pack_shapes_diff/cat_1/diff_5/ex_1_5_17.png","arrowright","response","ArrowLeft","17","1","5","test","false",""
"","","","","","html-keyboard-response","220","240372","0.0-7.32-4.32","5f09014a50389c18e30f42b3","655cb802637e0dbe2941dbc4","655cb8ce0e1466ed2da6121c","null","<p> <font size=""4vw""> Wrong category! </font> <br> <br> <font color=""red"" size=""7vw""> - $0.05 points </font> </p>","null","feedback","","","","","","","9.85"
"","","","","","html-keyboard-response","221","242010","0.0-7.33-0.33","5f09014a50389c18e30f42b3","655cb802637e0dbe2941dbc4","655cb8ce0e1466ed2da6121c","1638","
            
        <div style=""text-align: center; position: fixed; top: 5vh; left: 40vw;"">
            <div style=""margin:0 auto; width: 20vw; top: 8vh; font-size: 2vw""> 
            <font color=""green""> Bonus : $9.85 </font>
            </div>
        </div>
    
            <div> Please press any key to continue to the next image.</div>
        "," ","ITI","","","","","","",""
"","","","","","html-keyboard-response","222","242616","0.0-7.33-1.33","5f09014a50389c18e30f42b3","655cb802637e0dbe2941dbc4","655cb8ce0e1466ed2da6121c","null","
        
        <div style=""text-align: center; position: fixed; top: 5vh; left: 40vw;"">
            <div style=""margin:0 auto; width: 20vw; top: 8vh; font-size: 2vw""> 
            <font color=""green""> Bonus : $9.85 </font>
            </div>
        </div>
    
        <img class=""stim"" src=./stimuli//pack_shapes_diff/cat_1/diff_5/ex_1_5_12.png></img>
    ","null","stimulus","","","","","","",""
"","","","","","html-keyboard-response","223","243626","0.0-7.33-2.33","5f09014a50389c18e30f42b3","655cb802637e0dbe2941dbc4","655cb8ce0e1466ed2da6121c","null","
        <div style=""text-align: center; position: fixed; top: 5vh; left: 40vw;"">
            <div style=""margin:0 auto; width: 20vw; top: 8vh; font-size: 2vw""> 
            <font color=""green""> Bonus : $9.85 </font>
            </div>
        </div>
    ","null","","","","","","","",""
"","","","","","html-keyboard-response","224","243830","0.0-7.33-3.33","5f09014a50389c18e30f42b3","655cb802637e0dbe2941dbc4","655cb8ce0e1466ed2da6121c","203","./stimuli//pack_shapes_diff/cat_1/diff_5/ex_1_5_12.png","arrowleft","response","ArrowLeft","12","1","5","test","true",""
"","","","","","html-keyboard-response","225","245341","0.0-7.33-4.33","5f09014a50389c18e30f42b3","655cb802637e0dbe2941dbc4","655cb8ce0e1466ed2da6121c","null","<p> <font color=""green"" size=""5vw""> Correct category! </font></p>","null","feedback","","","","","","","9.85"
"","","","","","html-keyboard-response","226","245719","0.0-7.34-0.34","5f09014a50389c18e30f42b3","655cb802637e0dbe2941dbc4","655cb8ce0e1466ed2da6121c","377","
            
        <div style=""text-align: center; position: fixed; top: 5vh; left: 40vw;"">
            <div style=""margin:0 auto; width: 20vw; top: 8vh; font-size: 2vw""> 
            <font color=""green""> Bonus : $9.85 </font>
            </div>
        </div>
    
            <div> Please press any key to continue to the next image.</div>
        "," ","ITI","","","","","","",""
"","","","","","html-keyboard-response","227","246335","0.0-7.34-1.34","5f09014a50389c18e30f42b3","655cb802637e0dbe2941dbc4","655cb8ce0e1466ed2da6121c","null","
        
        <div style=""text-align: center; position: fixed; top: 5vh; left: 40vw;"">
            <div style=""margin:0 auto; width: 20vw; top: 8vh; font-size: 2vw""> 
            <font color=""green""> Bonus : $9.85 </font>
            </div>
        </div>
    
        <img class=""stim"" src=./stimuli//pack_shapes_diff/cat_2/diff_5/ex_2_5_7.png></img>
    ","null","stimulus","","","","","","",""
"","","","","","html-keyboard-response","228","247354","0.0-7.34-2.34","5f09014a50389c18e30f42b3","655cb802637e0dbe2941dbc4","655cb8ce0e1466ed2da6121c","null","
        <div style=""text-align: center; position: fixed; top: 5vh; left: 40vw;"">
            <div style=""margin:0 auto; width: 20vw; top: 8vh; font-size: 2vw""> 
            <font color=""green""> Bonus : $9.85 </font>
            </div>
        </div>
    ","null","","","","","","","",""
"","","","","","html-keyboard-response","229","247584","0.0-7.34-3.34","5f09014a50389c18e30f42b3","655cb802637e0dbe2941dbc4","655cb8ce0e1466ed2da6121c","229","./stimuli//pack_shapes_diff/cat_2/diff_5/ex_2_5_7.png","arrowleft","response","ArrowRight","7","2","5","test","false",""
"","","","","","html-keyboard-response","230","249090","0.0-7.34-4.34","5f09014a50389c18e30f42b3","655cb802637e0dbe2941dbc4","655cb8ce0e1466ed2da6121c","null","<p> <font size=""4vw""> Wrong category! </font> <br> <br> <font color=""red"" size=""7vw""> - $0.05 points </font> </p>","null","feedback","","","","","","","9.8"
"","","","","","html-keyboard-response","231","249537","0.0-7.35-0.35","5f09014a50389c18e30f42b3","655cb802637e0dbe2941dbc4","655cb8ce0e1466ed2da6121c","446","
            
        <div style=""text-align: center; position: fixed; top: 5vh; left: 40vw;"">
            <div style=""margin:0 auto; width: 20vw; top: 8vh; font-size: 2vw""> 
            <font color=""green""> Bonus : $9.8 </font>
            </div>
        </div>
    
            <div> Please press any key to continue to the next image.</div>
        "," ","ITI","","","","","","",""
"","","","","","html-keyboard-response","232","250146","0.0-7.35-1.35","5f09014a50389c18e30f42b3","655cb802637e0dbe2941dbc4","655cb8ce0e1466ed2da6121c","null","
        
        <div style=""text-align: center; position: fixed; top: 5vh; left: 40vw;"">
            <div style=""margin:0 auto; width: 20vw; top: 8vh; font-size: 2vw""> 
            <font color=""green""> Bonus : $9.8 </font>
            </div>
        </div>
    
        <img class=""stim"" src=./stimuli//pack_shapes_diff/cat_1/diff_4/ex_1_4_12.png></img>
    ","null","stimulus","","","","","","",""
"","","","","","html-keyboard-response","233","251159","0.0-7.35-2.35","5f09014a50389c18e30f42b3","655cb802637e0dbe2941dbc4","655cb8ce0e1466ed2da6121c","null","
