"success","timeout","failed_images","failed_audio","failed_video","trial_type","trial_index","time_elapsed","internal_node_id","subject_id","study_id","session_id","rt","stimulus","response","task","correct_response","exemplar_ID","category","difficulty","phase","correct","bonus"
"true","false","[]","[]","[]","preload","0","1","0.0-0.0","612f59e336076f7678b3b3b6","655cb802637e0dbe2941dbc4","655cb8cb52dd77dce7dcd680","","","","","","","","","","",""
"","","","","","html-keyboard-response","1","4890","0.0-1.0","612f59e336076f7678b3b3b6","655cb802637e0dbe2941dbc4","655cb8cb52dd77dce7dcd680","4888","Welcome to the Category Learning experiment! Press any key to continue."," ","welcome","","","","","","",""
"","","","","","html-keyboard-response","2","8138","0.0-2.0","612f59e336076f7678b3b3b6","655cb802637e0dbe2941dbc4","655cb8cb52dd77dce7dcd680","3247","
            <p>You will be shown images of black shapes. Some are category A, some are category B.
            <br>You will not know in advance which category a specific shape belongs to.</p>
            <p>After you see an image, you will be asked to guess its category <b>(left arrow for category A, right arrow for category B)</b></p>
            <p>After you choose, the screen will show you whether you were correct or not.</p>
            <p>Please try to respond as quickly and accurately as possible every time.</p>
            <p>Press any key to continue.</p>
            "," ","introduction_1","","","","","","",""
"","","","","","html-keyboard-response","3","26394","0.0-3.0","612f59e336076f7678b3b3b6","655cb802637e0dbe2941dbc4","655cb8cb52dd77dce7dcd680","18256","
              <p><b>You will receive a bonus payment depending on your performance!</b></p>
              <p><b>You start with a $10 bonus and each time you guess a shape's category incorrectly $0.05 will be subtracted from the bonus. <br> After the end of the experiment you will receive the remaining bonus as payment.</b></p>
              <p>Press any key to continue.</p>
              "," ","introduction_1","","","","","","",""
"","","","","","html-keyboard-response","4","51554","0.0-4.0","612f59e336076f7678b3b3b6","655cb802637e0dbe2941dbc4","655cb8cb52dd77dce7dcd680","25160","
            <p> <b>The first 10 trials are a practice round that will not count towards your bonus payment.</b></p>
            <p> You will be notified when practice finishes and the test begins. </p>
            <p> Press any key to begin the practice round.</p>
            "," ","introduction_2","","","","","","",""
"","","","","","html-keyboard-response","5","54210","0.0-5.0-0.0","612f59e336076f7678b3b3b6","655cb802637e0dbe2941dbc4","655cb8cb52dd77dce7dcd680","2656","
            
        <div style=""text-align: center; position: fixed; top: 5vh; left: 40vw;"">
            <div style=""margin:0 auto; width: 20vw; top: 8vh; font-size: 2vw""> 
            <font color=""green""> Bonus : $10 </font>
            </div>
        </div>
    
            <div> Please press any key to continue to the next image.</div>
        "," ","ITI","","","","","","",""
"","","","","","html-keyboard-response","6","54812","0.0-5.0-1.0","612f59e336076f7678b3b3b6","655cb802637e0dbe2941dbc4","655cb8cb52dd77dce7dcd680","null","
        
        <div style=""text-align: center; position: fixed; top: 5vh; left: 40vw;"">
            <div style=""margin:0 auto; width: 20vw; top: 8vh; font-size: 2vw""> 
            <font color=""green""> Bonus : $10 </font>
            </div>
        </div>
    
        <img class=""stim"" src=./stimuli//pack_shapes_diff/cat_2/diff_2/ex_2_2_16.png></img>
    ","null","stimulus","","","","","","",""
"","","","","","html-keyboard-response","7","55812","0.0-5.0-2.0","612f59e336076f7678b3b3b6","655cb802637e0dbe2941dbc4","655cb8cb52dd77dce7dcd680","null","
        <div style=""text-align: center; position: fixed; top: 5vh; left: 40vw;"">
            <div style=""margin:0 auto; width: 20vw; top: 8vh; font-size: 2vw""> 
            <font color=""green""> Bonus : $10 </font>
            </div>
        </div>
    ","null","","","","","","","",""
"","","","","","html-keyboard-response","8","59813","0.0-5.0-3.0","612f59e336076f7678b3b3b6","655cb802637e0dbe2941dbc4","655cb8cb52dd77dce7dcd680","null","./stimuli//pack_shapes_diff/cat_2/diff_2/ex_2_2_16.png","null","response","ArrowRight","16","2","2","train","false",""
"","","","","","html-keyboard-response","9","61319","0.0-5.0-4.0","612f59e336076f7678b3b3b6","655cb802637e0dbe2941dbc4","655cb8cb52dd77dce7dcd680","null","<p> <font color=""red"" size=""5vw""> Time out! </font> <br> Please try to respond as quickly as possible. </p>","null","feedback","","","","","","","10"
"","","","","","html-keyboard-response","10","66334","0.0-5.0-0.1","612f59e336076f7678b3b3b6","655cb802637e0dbe2941dbc4","655cb8cb52dd77dce7dcd680","null","
            
        <div style=""text-align: center; position: fixed; top: 5vh; left: 40vw;"">
            <div style=""margin:0 auto; width: 20vw; top: 8vh; font-size: 2vw""> 
            <font color=""green""> Bonus : $10 </font>
            </div>
        </div>
    
            <div> Please press any key to continue to the next image.</div>
        ","null","ITI","","","","","","",""
"","","","","","html-keyboard-response","11","66935","0.0-5.0-1.1","612f59e336076f7678b3b3b6","655cb802637e0dbe2941dbc4","655cb8cb52dd77dce7dcd680","null","
        
        <div style=""text-align: center; position: fixed; top: 5vh; left: 40vw;"">
            <div style=""margin:0 auto; width: 20vw; top: 8vh; font-size: 2vw""> 
            <font color=""green""> Bonus : $10 </font>
            </div>
        </div>
    
        <img class=""stim"" src=./stimuli//pack_shapes_diff/cat_2/diff_1/ex_2_1_14.png></img>
    ","null","stimulus","","","","","","",""
"","","","","","html-keyboard-response","12","67939","0.0-5.0-2.1","612f59e336076f7678b3b3b6","655cb802637e0dbe2941dbc4","655cb8cb52dd77dce7dcd680","null","
        <div style=""text-align: center; position: fixed; top: 5vh; left: 40vw;"">
            <div style=""margin:0 auto; width: 20vw; top: 8vh; font-size: 2vw""> 
            <font color=""green""> Bonus : $10 </font>
            </div>
        </div>
    ","null","","","","","","","",""
"","","","","","html-keyboard-response","13","71941","0.0-5.0-3.1","612f59e336076f7678b3b3b6","655cb802637e0dbe2941dbc4","655cb8cb52dd77dce7dcd680","null","./stimuli//pack_shapes_diff/cat_2/diff_1/ex_2_1_14.png","null","response","ArrowRight","14","2","1","train","false",""
"","","","","","html-keyboard-response","14","73442","0.0-5.0-4.1","612f59e336076f7678b3b3b6","655cb802637e0dbe2941dbc4","655cb8cb52dd77dce7dcd680","null","<p> <font color=""red"" size=""5vw""> Time out! </font> <br> Please try to respond as quickly as possible. </p>","null","feedback","","","","","","","10"
"","","","","","html-keyboard-response","15","73554","0.0-5.0-0.2","612f59e336076f7678b3b3b6","655cb802637e0dbe2941dbc4","655cb8cb52dd77dce7dcd680","112","
            
        <div style=""text-align: center; position: fixed; top: 5vh; left: 40vw;"">
            <div style=""margin:0 auto; width: 20vw; top: 8vh; font-size: 2vw""> 
            <font color=""green""> Bonus : $10 </font>
            </div>
        </div>
    
            <div> Please press any key to continue to the next image.</div>
        "," ","ITI","","","","","","",""
"","","","","","html-keyboard-response","16","74159","0.0-5.0-1.2","612f59e336076f7678b3b3b6","655cb802637e0dbe2941dbc4","655cb8cb52dd77dce7dcd680","null","
        
        <div style=""text-align: center; position: fixed; top: 5vh; left: 40vw;"">
            <div style=""margin:0 auto; width: 20vw; top: 8vh; font-size: 2vw""> 
            <font color=""green""> Bonus : $10 </font>
            </div>
        </div>
    
        <img class=""stim"" src=./stimuli//pack_shapes_diff/cat_2/diff_1/ex_2_1_8.png></img>
    ","null","stimulus","","","","","","",""
"","","","","","html-keyboard-response","17","75161","0.0-5.0-2.2","612f59e336076f7678b3b3b6","655cb802637e0dbe2941dbc4","655cb8cb52dd77dce7dcd680","null","
        <div style=""text-align: center; position: fixed; top: 5vh; left: 40vw;"">
            <div style=""margin:0 auto; width: 20vw; top: 8vh; font-size: 2vw""> 
            <font color=""green""> Bonus : $10 </font>
            </div>
        </div>
    ","null","","","","","","","",""
"","","","","","html-keyboard-response","18","79175","0.0-5.0-3.2","612f59e336076f7678b3b3b6","655cb802637e0dbe2941dbc4","655cb8cb52dd77dce7dcd680","null","./stimuli//pack_shapes_diff/cat_2/diff_1/ex_2_1_8.png","null","response","ArrowRight","8","2","1","train","false",""
"","","","","","html-keyboard-response","19","80676","0.0-5.0-4.2","612f59e336076f7678b3b3b6","655cb802637e0dbe2941dbc4","655cb8cb52dd77dce7dcd680","null","<p> <font color=""red"" size=""5vw""> Time out! </font> <br> Please try to respond as quickly as possible. </p>","null","feedback","","","","","","","10"
"","","","","","html-keyboard-response","20","85458","0.0-5.0-0.3","612f59e336076f7678b3b3b6","655cb802637e0dbe2941dbc4","655cb8cb52dd77dce7dcd680","4781","
            
        <div style=""text-align: center; position: fixed; top: 5vh; left: 40vw;"">
            <div style=""margin:0 auto; width: 20vw; top: 8vh; font-size: 2vw""> 
            <font color=""green""> Bonus : $10 </font>
            </div>
        </div>
    
            <div> Please press any key to continue to the next image.</div>
        "," ","ITI","","","","","","",""
"","","","","","html-keyboard-response","21","86062","0.0-5.0-1.3","612f59e336076f7678b3b3b6","655cb802637e0dbe2941dbc4","655cb8cb52dd77dce7dcd680","null","
        
        <div style=""text-align: center; position: fixed; top: 5vh; left: 40vw;"">
            <div style=""margin:0 auto; width: 20vw; top: 8vh; font-size: 2vw""> 
            <font color=""green""> Bonus : $10 </font>
            </div>
        </div>
    
        <img class=""stim"" src=./stimuli//pack_shapes_diff/cat_1/diff_2/ex_1_2_11.png></img>
    ","null","stimulus","","","","","","",""
"","","","","","html-keyboard-response","22","87072","0.0-5.0-2.3","612f59e336076f7678b3b3b6","655cb802637e0dbe2941dbc4","655cb8cb52dd77dce7dcd680","null","
        <div style=""text-align: center; position: fixed; top: 5vh; left: 40vw;"">
            <div style=""margin:0 auto; width: 20vw; top: 8vh; font-size: 2vw""> 
            <font color=""green""> Bonus : $10 </font>
            </div>
        </div>
    ","null","","","","","","","",""
"","","","","","html-keyboard-response","23","91085","0.0-5.0-3.3","612f59e336076f7678b3b3b6","655cb802637e0dbe2941dbc4","655cb8cb52dd77dce7dcd680","null","./stimuli//pack_shapes_diff/cat_1/diff_2/ex_1_2_11.png","null","response","ArrowLeft","11","1","2","train","false",""
"","","","","","html-keyboard-response","24","91290","0.0-5.0-4.3","612f59e336076f7678b3b3b6","655cb802637e0dbe2941dbc4","655cb8cb52dd77dce7dcd680","205","<p> <font color=""red"" size=""5vw""> Time out! </font> <br> Please try to respond as quickly as possible. </p>","b","feedback","","","","","","","10"
"","","","","","html-keyboard-response","25","92666","0.0-5.0-0.4","612f59e336076f7678b3b3b6","655cb802637e0dbe2941dbc4","655cb8cb52dd77dce7dcd680","1376","
            
        <div style=""text-align: center; position: fixed; top: 5vh; left: 40vw;"">
            <div style=""margin:0 auto; width: 20vw; top: 8vh; font-size: 2vw""> 
            <font color=""green""> Bonus : $10 </font>
            </div>
        </div>
    
            <div> Please press any key to continue to the next image.</div>
        "," ","ITI","","","","","","",""
"","","","","","html-keyboard-response","26","93273","0.0-5.0-1.4","612f59e336076f7678b3b3b6","655cb802637e0dbe2941dbc4","655cb8cb52dd77dce7dcd680","null","
        
        <div style=""text-align: center; position: fixed; top: 5vh; left: 40vw;"">
            <div style=""margin:0 auto; width: 20vw; top: 8vh; font-size: 2vw""> 
            <font color=""green""> Bonus : $10 </font>
            </div>
        </div>
    
        <img class=""stim"" src=./stimuli//pack_shapes_diff/cat_2/diff_2/ex_2_2_8.png></img>
    ","null","stimulus","","","","","","",""
"","","","","","html-keyboard-response","27","94282","0.0-5.0-2.4","612f59e336076f7678b3b3b6","655cb802637e0dbe2941dbc4","655cb8cb52dd77dce7dcd680","null","
        <div style=""text-align: center; position: fixed; top: 5vh; left: 40vw;"">
            <div style=""margin:0 auto; width: 20vw; top: 8vh; font-size: 2vw""> 
            <font color=""green""> Bonus : $10 </font>
            </div>
        </div>
    ","null","","","","","","","",""
"","","","","","html-keyboard-response","28","98283","0.0-5.0-3.4","612f59e336076f7678b3b3b6","655cb802637e0dbe2941dbc4","655cb8cb52dd77dce7dcd680","null","./stimuli//pack_shapes_diff/cat_2/diff_2/ex_2_2_8.png","null","response","ArrowRight","8","2","2","train","false",""
"","","","","","html-keyboard-response","29","99738","0.0-5.0-4.4","612f59e336076f7678b3b3b6","655cb802637e0dbe2941dbc4","655cb8cb52dd77dce7dcd680","1454","<p> <font color=""red"" size=""5vw""> Time out! </font> <br> Please try to respond as quickly as possible. </p>"," ","feedback","","","","","","","10"
"","","","","","html-keyboard-response","30","100066","0.0-5.0-0.5","612f59e336076f7678b3b3b6","655cb802637e0dbe2941dbc4","655cb8cb52dd77dce7dcd680","328","
            
        <div style=""text-align: center; position: fixed; top: 5vh; left: 40vw;"">
            <div style=""margin:0 auto; width: 20vw; top: 8vh; font-size: 2vw""> 
            <font color=""green""> Bonus : $10 </font>
            </div>
        </div>
    
            <div> Please press any key to continue to the next image.</div>
        "," ","ITI","","","","","","",""
"","","","","","html-keyboard-response","31","100674","0.0-5.0-1.5","612f59e336076f7678b3b3b6","655cb802637e0dbe2941dbc4","655cb8cb52dd77dce7dcd680","null","
        
        <div style=""text-align: center; position: fixed; top: 5vh; left: 40vw;"">
            <div style=""margin:0 auto; width: 20vw; top: 8vh; font-size: 2vw""> 
            <font color=""green""> Bonus : $10 </font>
            </div>
        </div>
    
        <img class=""stim"" src=./stimuli//pack_shapes_diff/cat_1/diff_1/ex_1_1_1.png></img>
    ","null","stimulus","","","","","","",""
"","","","","","html-keyboard-response","32","101674","0.0-5.0-2.5","612f59e336076f7678b3b3b6","655cb802637e0dbe2941dbc4","655cb8cb52dd77dce7dcd680","null","
        <div style=""text-align: center; position: fixed; top: 5vh; left: 40vw;"">
            <div style=""margin:0 auto; width: 20vw; top: 8vh; font-size: 2vw""> 
            <font color=""green""> Bonus : $10 </font>
            </div>
        </div>
    ","null","","","","","","","",""
"","","","","","html-keyboard-response","33","104754","0.0-5.0-3.5","612f59e336076f7678b3b3b6","655cb802637e0dbe2941dbc4","655cb8cb52dd77dce7dcd680","3079","./stimuli//pack_shapes_diff/cat_1/diff_1/ex_1_1_1.png","arrowright","response","ArrowLeft","1","1","1","train","false",""
"","","","","","html-keyboard-response","34","106178","0.0-5.0-4.5","612f59e336076f7678b3b3b6","655cb802637e0dbe2941dbc4","655cb8cb52dd77dce7dcd680","1424","<p> <font color=""red"" size=""5vw""> Wrong category! </font> </p>"," ","feedback","","","","","","","10"
"","","","","","html-keyboard-response","35","106834","0.0-5.0-0.6","612f59e336076f7678b3b3b6","655cb802637e0dbe2941dbc4","655cb8cb52dd77dce7dcd680","655","
            
        <div style=""text-align: center; position: fixed; top: 5vh; left: 40vw;"">
            <div style=""margin:0 auto; width: 20vw; top: 8vh; font-size: 2vw""> 
            <font color=""green""> Bonus : $10 </font>
            </div>
        </div>
    
            <div> Please press any key to continue to the next image.</div>
        "," ","ITI","","","","","","",""
"","","","","","html-keyboard-response","36","107441","0.0-5.0-1.6","612f59e336076f7678b3b3b6","655cb802637e0dbe2941dbc4","655cb8cb52dd77dce7dcd680","null","
        
        <div style=""text-align: center; position: fixed; top: 5vh; left: 40vw;"">
            <div style=""margin:0 auto; width: 20vw; top: 8vh; font-size: 2vw""> 
            <font color=""green""> Bonus : $10 </font>
            </div>
        </div>
    
        <img class=""stim"" src=./stimuli//pack_shapes_diff/cat_1/diff_1/ex_1_1_13.png></img>
    ","null","stimulus","","","","","","",""
"","","","","","html-keyboard-response","37","108449","0.0-5.0-2.6","612f59e336076f7678b3b3b6","655cb802637e0dbe2941dbc4","655cb8cb52dd77dce7dcd680","null","
        <div style=""text-align: center; position: fixed; top: 5vh; left: 40vw;"">
            <div style=""margin:0 auto; width: 20vw; top: 8vh; font-size: 2vw""> 
            <font color=""green""> Bonus : $10 </font>
            </div>
        </div>
    ","null","","","","","","","",""
"","","","","","html-keyboard-response","38","108706","0.0-5.0-3.6","612f59e336076f7678b3b3b6","655cb802637e0dbe2941dbc4","655cb8cb52dd77dce7dcd680","257","./stimuli//pack_shapes_diff/cat_1/diff_1/ex_1_1_13.png","arrowleft","response","ArrowLeft","13","1","1","train","true",""
"","","","","","html-keyboard-response","39","110218","0.0-5.0-4.6","612f59e336076f7678b3b3b6","655cb802637e0dbe2941dbc4","655cb8cb52dd77dce7dcd680","null","<p> <font color=""green"" size=""5vw""> Correct category! </font> </p>","null","feedback","","","","","","","10"
"","","","","","html-keyboard-response","40","111794","0.0-5.0-0.7","612f59e336076f7678b3b3b6","655cb802637e0dbe2941dbc4","655cb8cb52dd77dce7dcd680","1575","
            
        <div style=""text-align: center; position: fixed; top: 5vh; left: 40vw;"">
            <div style=""margin:0 auto; width: 20vw; top: 8vh; font-size: 2vw""> 
            <font color=""green""> Bonus : $10 </font>
            </div>
        </div>
    
            <div> Please press any key to continue to the next image.</div>
        "," ","ITI","","","","","","",""
"","","","","","html-keyboard-response","41","112403","0.0-5.0-1.7","612f59e336076f7678b3b3b6","655cb802637e0dbe2941dbc4","655cb8cb52dd77dce7dcd680","null","
        
        <div style=""text-align: center; position: fixed; top: 5vh; left: 40vw;"">
            <div style=""margin:0 auto; width: 20vw; top: 8vh; font-size: 2vw""> 
            <font color=""green""> Bonus : $10 </font>
            </div>
        </div>
    
        <img class=""stim"" src=./stimuli//pack_shapes_diff/cat_1/diff_1/ex_1_1_11.png></img>
    ","null","stimulus","","","","","","",""
"","","","","","html-keyboard-response","42","113417","0.0-5.0-2.7","612f59e336076f7678b3b3b6","655cb802637e0dbe2941dbc4","655cb8cb52dd77dce7dcd680","null","
        <div style=""text-align: center; position: fixed; top: 5vh; left: 40vw;"">
            <div style=""margin:0 auto; width: 20vw; top: 8vh; font-size: 2vw""> 
            <font color=""green""> Bonus : $10 </font>
            </div>
        </div>
    ","null","","","","","","","",""
"","","","","","html-keyboard-response","43","113682","0.0-5.0-3.7","612f59e336076f7678b3b3b6","655cb802637e0dbe2941dbc4","655cb8cb52dd77dce7dcd680","265","./stimuli//pack_shapes_diff/cat_1/diff_1/ex_1_1_11.png","arrowright","response","ArrowLeft","11","1","1","train","false",""
"","","","","","html-keyboard-response","44","115192","0.0-5.0-4.7","612f59e336076f7678b3b3b6","655cb802637e0dbe2941dbc4","655cb8cb52dd77dce7dcd680","null","<p> <font color=""red"" size=""5vw""> Wrong category! </font> </p>","null","feedback","","","","","","","10"
"","","","","","html-keyboard-response","45","117194","0.0-5.0-0.8","612f59e336076f7678b3b3b6","655cb802637e0dbe2941dbc4","655cb8cb52dd77dce7dcd680","2001","
            
        <div style=""text-align: center; position: fixed; top: 5vh; left: 40vw;"">
            <div style=""margin:0 auto; width: 20vw; top: 8vh; font-size: 2vw""> 
            <font color=""green""> Bonus : $10 </font>
            </div>
        </div>
    
            <div> Please press any key to continue to the next image.</div>
        "," ","ITI","","","","","","",""
"","","","","","html-keyboard-response","46","117800","0.0-5.0-1.8","612f59e336076f7678b3b3b6","655cb802637e0dbe2941dbc4","655cb8cb52dd77dce7dcd680","null","
        
        <div style=""text-align: center; position: fixed; top: 5vh; left: 40vw;"">
            <div style=""margin:0 auto; width: 20vw; top: 8vh; font-size: 2vw""> 
            <font color=""green""> Bonus : $10 </font>
            </div>
        </div>
    
        <img class=""stim"" src=./stimuli//pack_shapes_diff/cat_1/diff_2/ex_1_2_8.png></img>
    ","null","stimulus","","","","","","",""
"","","","","","html-keyboard-response","47","118807","0.0-5.0-2.8","612f59e336076f7678b3b3b6","655cb802637e0dbe2941dbc4","655cb8cb52dd77dce7dcd680","null","
        <div style=""text-align: center; position: fixed; top: 5vh; left: 40vw;"">
            <div style=""margin:0 auto; width: 20vw; top: 8vh; font-size: 2vw""> 
            <font color=""green""> Bonus : $10 </font>
            </div>
        </div>
    ","null","","","","","","","",""
"","","","","","html-keyboard-response","48","119034","0.0-5.0-3.8","612f59e336076f7678b3b3b6","655cb802637e0dbe2941dbc4","655cb8cb52dd77dce7dcd680","227","./stimuli//pack_shapes_diff/cat_1/diff_2/ex_1_2_8.png","arrowleft","response","ArrowLeft","8","1","2","train","true",""
"","","","","","html-keyboard-response","49","120544","0.0-5.0-4.8","612f59e336076f7678b3b3b6","655cb802637e0dbe2941dbc4","655cb8cb52dd77dce7dcd680","null","<p> <font color=""green"" size=""5vw""> Correct category! </font> </p>","null","feedback","","","","","","","10"
"","","","","","html-keyboard-response","50","121738","0.0-5.0-0.9","612f59e336076f7678b3b3b6","655cb802637e0dbe2941dbc4","655cb8cb52dd77dce7dcd680","1194","
            
        <div style=""text-align: center; position: fixed; top: 5vh; left: 40vw;"">
            <div style=""margin:0 auto; width: 20vw; top: 8vh; font-size: 2vw""> 
            <font color=""green""> Bonus : $10 </font>
            </div>
        </div>
    
            <div> Please press any key to continue to the next image.</div>
        "," ","ITI","","","","","","",""
"","","","","","html-keyboard-response","51","122343","0.0-5.0-1.9","612f59e336076f7678b3b3b6","655cb802637e0dbe2941dbc4","655cb8cb52dd77dce7dcd680","null","
        
        <div style=""text-align: center; position: fixed; top: 5vh; left: 40vw;"">
            <div style=""margin:0 auto; width: 20vw; top: 8vh; font-size: 2vw""> 
            <font color=""green""> Bonus : $10 </font>
            </div>
        </div>
    
        <img class=""stim"" src=./stimuli//pack_shapes_diff/cat_2/diff_1/ex_2_1_16.png></img>
    ","null","stimulus","","","","","","",""
"","","","","","html-keyboard-response","52","123352","0.0-5.0-2.9","612f59e336076f7678b3b3b6","655cb802637e0dbe2941dbc4","655cb8cb52dd77dce7dcd680","null","
        <div style=""text-align: center; position: fixed; top: 5vh; left: 40vw;"">
            <div style=""margin:0 auto; width: 20vw; top: 8vh; font-size: 2vw""> 
            <font color=""green""> Bonus : $10 </font>
            </div>
        </div>
    ","null","","","","","","","",""
"","","","","","html-keyboard-response","53","123634","0.0-5.0-3.9","612f59e336076f7678b3b3b6","655cb802637e0dbe2941dbc4","655cb8cb52dd77dce7dcd680","282","./stimuli//pack_shapes_diff/cat_2/diff_1/ex_2_1_16.png","arrowleft","response","ArrowRight","16","2","1","train","false",""
"","","","","","html-keyboard-response","54","124410","0.0-5.0-4.9","612f59e336076f7678b3b3b6","655cb802637e0dbe2941dbc4","655cb8cb52dd77dce7dcd680","776","<p> <font color=""red"" size=""5vw""> Wrong category! </font> </p>"," ","feedback","","","","","","","10"
"","","","","","html-keyboard-response","55","124970","0.0-6.0","612f59e336076f7678b3b3b6","655cb802637e0dbe2941dbc4","655cb8cb52dd77dce7dcd680","559","
            <b> <p> The practice round has finished.</p>
            <b> For the rest of the experiment if you guess incorrectly $0.05 will be subtracted from your bonus!</b>
            <p> Press any key to begin the test. </p>
            "," ","intermission","","","","","","",""
"","","","","","html-keyboard-response","56","126322","0.0-7.0-0.0","612f59e336076f7678b3b3b6","655cb802637e0dbe2941dbc4","655cb8cb52dd77dce7dcd680","1352","
            
        <div style=""text-align: center; position: fixed; top: 5vh; left: 40vw;"">
            <div style=""margin:0 auto; width: 20vw; top: 8vh; font-size: 2vw""> 
            <font color=""green""> Bonus : $10 </font>
            </div>
        </div>
    
            <div> Please press any key to continue to the next image.</div>
        "," ","ITI","","","","","","",""
"","","","","","html-keyboard-response","57","126929","0.0-7.0-1.0","612f59e336076f7678b3b3b6","655cb802637e0dbe2941dbc4","655cb8cb52dd77dce7dcd680","null","
        
        <div style=""text-align: center; position: fixed; top: 5vh; left: 40vw;"">
            <div style=""margin:0 auto; width: 20vw; top: 8vh; font-size: 2vw""> 
            <font color=""green""> Bonus : $10 </font>
            </div>
        </div>
    
        <img class=""stim"" src=./stimuli//pack_shapes_diff/cat_2/diff_1/ex_2_1_15.png></img>
    ","null","stimulus","","","","","","",""
"","","","","","html-keyboard-response","58","127940","0.0-7.0-2.0","612f59e336076f7678b3b3b6","655cb802637e0dbe2941dbc4","655cb8cb52dd77dce7dcd680","null","
        <div style=""text-align: center; position: fixed; top: 5vh; left: 40vw;"">
            <div style=""margin:0 auto; width: 20vw; top: 8vh; font-size: 2vw""> 
            <font color=""green""> Bonus : $10 </font>
            </div>
        </div>
    ","null","","","","","","","",""
"","","","","","html-keyboard-response","59","128162","0.0-7.0-3.0","612f59e336076f7678b3b3b6","655cb802637e0dbe2941dbc4","655cb8cb52dd77dce7dcd680","222","./stimuli//pack_shapes_diff/cat_2/diff_1/ex_2_1_15.png","arrowright","response","ArrowRight","15","2","1","test","true",""
"","","","","","html-keyboard-response","60","129665","0.0-7.0-4.0","612f59e336076f7678b3b3b6","655cb802637e0dbe2941dbc4","655cb8cb52dd77dce7dcd680","null","<p> <font color=""green"" size=""5vw""> Correct category! </font></p>","null","feedback","","","","","","","10"
"","","","","","html-keyboard-response","61","130242","0.0-7.1-0.1","612f59e336076f7678b3b3b6","655cb802637e0dbe2941dbc4","655cb8cb52dd77dce7dcd680","576","
            
        <div style=""text-align: center; position: fixed; top: 5vh; left: 40vw;"">
            <div style=""margin:0 auto; width: 20vw; top: 8vh; font-size: 2vw""> 
            <font color=""green""> Bonus : $10 </font>
            </div>
        </div>
    
            <div> Please press any key to continue to the next image.</div>
        ","arrowleft","ITI","","","","","","",""
"","","","","","html-keyboard-response","62","130846","0.0-7.1-1.1","612f59e336076f7678b3b3b6","655cb802637e0dbe2941dbc4","655cb8cb52dd77dce7dcd680","null","
        
        <div style=""text-align: center; position: fixed; top: 5vh; left: 40vw;"">
            <div style=""margin:0 auto; width: 20vw; top: 8vh; font-size: 2vw""> 
            <font color=""green""> Bonus : $10 </font>
            </div>
        </div>
    
        <img class=""stim"" src=./stimuli//pack_shapes_diff/cat_1/diff_1/ex_1_1_15.png></img>
    ","null","stimulus","","","","","","",""
"","","","","","html-keyboard-response","63","131853","0.0-7.1-2.1","612f59e336076f7678b3b3b6","655cb802637e0dbe2941dbc4","655cb8cb52dd77dce7dcd680","null","
        <div style=""text-align: center; position: fixed; top: 5vh; left: 40vw;"">
            <div style=""margin:0 auto; width: 20vw; top: 8vh; font-size: 2vw""> 
            <font color=""green""> Bonus : $10 </font>
            </div>
        </div>
    ","null","","","","","","","",""
"","","","","","html-keyboard-response","64","132130","0.0-7.1-3.1","612f59e336076f7678b3b3b6","655cb802637e0dbe2941dbc4","655cb8cb52dd77dce7dcd680","276","./stimuli//pack_shapes_diff/cat_1/diff_1/ex_1_1_15.png","arrowleft","response","ArrowLeft","15","1","1","test","true",""
"","","","","","html-keyboard-response","65","133638","0.0-7.1-4.1","612f59e336076f7678b3b3b6","655cb802637e0dbe2941dbc4","655cb8cb52dd77dce7dcd680","null","<p> <font color=""green"" size=""5vw""> Correct category! </font></p>","null","feedback","","","","","","","10"
"","","","","","html-keyboard-response","66","134306","0.0-7.2-0.2","612f59e336076f7678b3b3b6","655cb802637e0dbe2941dbc4","655cb8cb52dd77dce7dcd680","667","
            
        <div style=""text-align: center; position: fixed; top: 5vh; left: 40vw;"">
            <div style=""margin:0 auto; width: 20vw; top: 8vh; font-size: 2vw""> 
            <font color=""green""> Bonus : $10 </font>
            </div>
        </div>
    
            <div> Please press any key to continue to the next image.</div>
        "," ","ITI","","","","","","",""
"","","","","","html-keyboard-response","67","134914","0.0-7.2-1.2","612f59e336076f7678b3b3b6","655cb802637e0dbe2941dbc4","655cb8cb52dd77dce7dcd680","null","
        
        <div style=""text-align: center; position: fixed; top: 5vh; left: 40vw;"">
            <div style=""margin:0 auto; width: 20vw; top: 8vh; font-size: 2vw""> 
            <font color=""green""> Bonus : $10 </font>
            </div>
        </div>
    
        <img class=""stim"" src=./stimuli//pack_shapes_diff/cat_2/diff_1/ex_2_1_10.png></img>
    ","null","stimulus","","","","","","",""
"","","","","","html-keyboard-response","68","135923","0.0-7.2-2.2","612f59e336076f7678b3b3b6","655cb802637e0dbe2941dbc4","655cb8cb52dd77dce7dcd680","null","
        <div style=""text-align: center; position: fixed; top: 5vh; left: 40vw;"">
            <div style=""margin:0 auto; width: 20vw; top: 8vh; font-size: 2vw""> 
            <font color=""green""> Bonus : $10 </font>
            </div>
        </div>
    ","null","","","","","","","",""
"","","","","","html-keyboard-response","69","136234","0.0-7.2-3.2","612f59e336076f7678b3b3b6","655cb802637e0dbe2941dbc4","655cb8cb52dd77dce7dcd680","310","./stimuli//pack_shapes_diff/cat_2/diff_1/ex_2_1_10.png","arrowright","response","ArrowRight","10","2","1","test","true",""
"","","","","","html-keyboard-response","70","137746","0.0-7.2-4.2","612f59e336076f7678b3b3b6","655cb802637e0dbe2941dbc4","655cb8cb52dd77dce7dcd680","null","<p> <font color=""green"" size=""5vw""> Correct category! </font></p>","null","feedback","","","","","","","10"
"","","","","","html-keyboard-response","71","138706","0.0-7.3-0.3","612f59e336076f7678b3b3b6","655cb802637e0dbe2941dbc4","655cb8cb52dd77dce7dcd680","959","
            
        <div style=""text-align: center; position: fixed; top: 5vh; left: 40vw;"">
            <div style=""margin:0 auto; width: 20vw; top: 8vh; font-size: 2vw""> 
            <font color=""green""> Bonus : $10 </font>
            </div>
        </div>
    
            <div> Please press any key to continue to the next image.</div>
        "," ","ITI","","","","","","",""
"","","","","","html-keyboard-response","72","139314","0.0-7.3-1.3","612f59e336076f7678b3b3b6","655cb802637e0dbe2941dbc4","655cb8cb52dd77dce7dcd680","null","
        
        <div style=""text-align: center; position: fixed; top: 5vh; left: 40vw;"">
            <div style=""margin:0 auto; width: 20vw; top: 8vh; font-size: 2vw""> 
            <font color=""green""> Bonus : $10 </font>
            </div>
        </div>
    
        <img class=""stim"" src=./stimuli//pack_shapes_diff/cat_2/diff_1/ex_2_1_9.png></img>
    ","null","stimulus","","","","","","",""
"","","","","","html-keyboard-response","73","140325","0.0-7.3-2.3","612f59e336076f7678b3b3b6","655cb802637e0dbe2941dbc4","655cb8cb52dd77dce7dcd680","null","
        <div style=""text-align: center; position: fixed; top: 5vh; left: 40vw;"">
            <div style=""margin:0 auto; width: 20vw; top: 8vh; font-size: 2vw""> 
            <font color=""green""> Bonus : $10 </font>
            </div>
        </div>
    ","null","","","","","","","",""
"","","","","","html-keyboard-response","74","140482","0.0-7.3-3.3","612f59e336076f7678b3b3b6","655cb802637e0dbe2941dbc4","655cb8cb52dd77dce7dcd680","157","./stimuli//pack_shapes_diff/cat_2/diff_1/ex_2_1_9.png","arrowright","response","ArrowRight","9","2","1","test","true",""
"","","","","","html-keyboard-response","75","141989","0.0-7.3-4.3","612f59e336076f7678b3b3b6","655cb802637e0dbe2941dbc4","655cb8cb52dd77dce7dcd680","null","<p> <font color=""green"" size=""5vw""> Correct category! </font></p>","null","feedback","","","","","","","10"
"","","","","","html-keyboard-response","76","142610","0.0-7.4-0.4","612f59e336076f7678b3b3b6","655cb802637e0dbe2941dbc4","655cb8cb52dd77dce7dcd680","620","
            
        <div style=""text-align: center; position: fixed; top: 5vh; left: 40vw;"">
            <div style=""margin:0 auto; width: 20vw; top: 8vh; font-size: 2vw""> 
            <font color=""green""> Bonus : $10 </font>
            </div>
        </div>
    
            <div> Please press any key to continue to the next image.</div>
        "," ","ITI","","","","","","",""
"","","","","","html-keyboard-response","77","143215","0.0-7.4-1.4","612f59e336076f7678b3b3b6","655cb802637e0dbe2941dbc4","655cb8cb52dd77dce7dcd680","null","
        
        <div style=""text-align: center; position: fixed; top: 5vh; left: 40vw;"">
            <div style=""margin:0 auto; width: 20vw; top: 8vh; font-size: 2vw""> 
            <font color=""green""> Bonus : $10 </font>
            </div>
        </div>
    
        <img class=""stim"" src=./stimuli//pack_shapes_diff/cat_1/diff_1/ex_1_1_6.png></img>
    ","null","stimulus","","","","","","",""
"","","","","","html-keyboard-response","78","144227","0.0-7.4-2.4","612f59e336076f7678b3b3b6","655cb802637e0dbe2941dbc4","655cb8cb52dd77dce7dcd680","null","
        <div style=""text-align: center; position: fixed; top: 5vh; left: 40vw;"">
            <div style=""margin:0 auto; width: 20vw; top: 8vh; font-size: 2vw""> 
            <font color=""green""> Bonus : $10 </font>
            </div>
        </div>
    ","null","","","","","","","",""
"","","","","","html-keyboard-response","79","144442","0.0-7.4-3.4","612f59e336076f7678b3b3b6","655cb802637e0dbe2941dbc4","655cb8cb52dd77dce7dcd680","215","./stimuli//pack_shapes_diff/cat_1/diff_1/ex_1_1_6.png","arrowleft","response","ArrowLeft","6","1","1","test","true",""
"","","","","","html-keyboard-response","80","145950","0.0-7.4-4.4","612f59e336076f7678b3b3b6","655cb802637e0dbe2941dbc4","655cb8cb52dd77dce7dcd680","null","<p> <font color=""green"" size=""5vw""> Correct category! </font></p>","null","feedback","","","","","","","10"
"","","","","","html-keyboard-response","81","148002","0.0-7.5-0.5","612f59e336076f7678b3b3b6","655cb802637e0dbe2941dbc4","655cb8cb52dd77dce7dcd680","2051","
            
        <div style=""text-align: center; position: fixed; top: 5vh; left: 40vw;"">
            <div style=""margin:0 auto; width: 20vw; top: 8vh; font-size: 2vw""> 
            <font color=""green""> Bonus : $10 </font>
            </div>
        </div>
    
            <div> Please press any key to continue to the next image.</div>
        "," ","ITI","","","","","","",""
"","","","","","html-keyboard-response","82","148611","0.0-7.5-1.5","612f59e336076f7678b3b3b6","655cb802637e0dbe2941dbc4","655cb8cb52dd77dce7dcd680","null","
        
        <div style=""text-align: center; position: fixed; top: 5vh; left: 40vw;"">
            <div style=""margin:0 auto; width: 20vw; top: 8vh; font-size: 2vw""> 
            <font color=""green""> Bonus : $10 </font>
            </div>
        </div>
    
        <img class=""stim"" src=./stimuli//pack_shapes_diff/cat_2/diff_2/ex_2_2_17.png></img>
    ","null","stimulus","","","","","","",""
"","","","","","html-keyboard-response","83","149621","0.0-7.5-2.5","612f59e336076f7678b3b3b6","655cb802637e0dbe2941dbc4","655cb8cb52dd77dce7dcd680","null","
        <div style=""text-align: center; position: fixed; top: 5vh; left: 40vw;"">
            <div style=""margin:0 auto; width: 20vw; top: 8vh; font-size: 2vw""> 
            <font color=""green""> Bonus : $10 </font>
            </div>
        </div>
    ","null","","","","","","","",""
"","","","","","html-keyboard-response","84","149906","0.0-7.5-3.5","612f59e336076f7678b3b3b6","655cb802637e0dbe2941dbc4","655cb8cb52dd77dce7dcd680","285","./stimuli//pack_shapes_diff/cat_2/diff_2/ex_2_2_17.png","arrowright","response","ArrowRight","17","2","2","test","true",""
"","","","","","html-keyboard-response","85","151409","0.0-7.5-4.5","612f59e336076f7678b3b3b6","655cb802637e0dbe2941dbc4","655cb8cb52dd77dce7dcd680","null","<p> <font color=""green"" size=""5vw""> Correct category! </font></p>","null","feedback","","","","","","","10"
"","","","","","html-keyboard-response","86","151978","0.0-7.6-0.6","612f59e336076f7678b3b3b6","655cb802637e0dbe2941dbc4","655cb8cb52dd77dce7dcd680","569","
            
        <div style=""text-align: center; position: fixed; top: 5vh; left: 40vw;"">
            <div style=""margin:0 auto; width: 20vw; top: 8vh; font-size: 2vw""> 
            <font color=""green""> Bonus : $10 </font>
            </div>
        </div>
    
            <div> Please press any key to continue to the next image.</div>
        "," ","ITI","","","","","","",""
"","","","","","html-keyboard-response","87","152588","0.0-7.6-1.6","612f59e336076f7678b3b3b6","655cb802637e0dbe2941dbc4","655cb8cb52dd77dce7dcd680","null","
        
        <div style=""text-align: center; position: fixed; top: 5vh; left: 40vw;"">
            <div style=""margin:0 auto; width: 20vw; top: 8vh; font-size: 2vw""> 
            <font color=""green""> Bonus : $10 </font>
            </div>
        </div>
    
        <img class=""stim"" src=./stimuli//pack_shapes_diff/cat_1/diff_2/ex_1_2_10.png></img>
    ","null","stimulus","","","","","","",""
"","","","","","html-keyboard-response","88","153597","0.0-7.6-2.6","612f59e336076f7678b3b3b6","655cb802637e0dbe2941dbc4","655cb8cb52dd77dce7dcd680","null","
        <div style=""text-align: center; position: fixed; top: 5vh; left: 40vw;"">
            <div style=""margin:0 auto; width: 20vw; top: 8vh; font-size: 2vw""> 
            <font color=""green""> Bonus : $10 </font>
            </div>
        </div>
    ","null","","","","","","","",""
"","","","","","html-keyboard-response","89","153826","0.0-7.6-3.6","612f59e336076f7678b3b3b6","655cb802637e0dbe2941dbc4","655cb8cb52dd77dce7dcd680","228","./stimuli//pack_shapes_diff/cat_1/diff_2/ex_1_2_10.png","arrowleft","response","ArrowLeft","10","1","2","test","true",""
"","","","","","html-keyboard-response","90","155334","0.0-7.6-4.6","612f59e336076f7678b3b3b6","655cb802637e0dbe2941dbc4","655cb8cb52dd77dce7dcd680","null","<p> <font color=""green"" size=""5vw""> Correct category! </font></p>","null","feedback","","","","","","","10"
"","","","","","html-keyboard-response","91","156450","0.0-7.7-0.7","612f59e336076f7678b3b3b6","655cb802637e0dbe2941dbc4","655cb8cb52dd77dce7dcd680","1116","
            
        <div style=""text-align: center; position: fixed; top: 5vh; left: 40vw;"">
            <div style=""margin:0 auto; width: 20vw; top: 8vh; font-size: 2vw""> 
            <font color=""green""> Bonus : $10 </font>
            </div>
        </div>
    
            <div> Please press any key to continue to the next image.</div>
        "," ","ITI","","","","","","",""
"","","","","","html-keyboard-response","92","157054","0.0-7.7-1.7","612f59e336076f7678b3b3b6","655cb802637e0dbe2941dbc4","655cb8cb52dd77dce7dcd680","null","
        
        <div style=""text-align: center; position: fixed; top: 5vh; left: 40vw;"">
            <div style=""margin:0 auto; width: 20vw; top: 8vh; font-size: 2vw""> 
            <font color=""green""> Bonus : $10 </font>
            </div>
        </div>
    
        <img class=""stim"" src=./stimuli//pack_shapes_diff/cat_2/diff_2/ex_2_2_12.png></img>
    ","null","stimulus","","","","","","",""
"","","","","","html-keyboard-response","93","158063","0.0-7.7-2.7","612f59e336076f7678b3b3b6","655cb802637e0dbe2941dbc4","655cb8cb52dd77dce7dcd680","null","
        <div style=""text-align: center; position: fixed; top: 5vh; left: 40vw;"">
            <div style=""margin:0 auto; width: 20vw; top: 8vh; font-size: 2vw""> 
            <font color=""green""> Bonus : $10 </font>
            </div>
        </div>
    ","null","","","","","","","",""
"","","","","","html-keyboard-response","94","158362","0.0-7.7-3.7","612f59e336076f7678b3b3b6","655cb802637e0dbe2941dbc4","655cb8cb52dd77dce7dcd680","299","./stimuli//pack_shapes_diff/cat_2/diff_2/ex_2_2_12.png","arrowright","response","ArrowRight","12","2","2","test","true",""
"","","","","","html-keyboard-response","95","159874","0.0-7.7-4.7","612f59e336076f7678b3b3b6","655cb802637e0dbe2941dbc4","655cb8cb52dd77dce7dcd680","null","<p> <font color=""green"" size=""5vw""> Correct category! </font></p>","null","feedback","","","","","","","10"
"","","","","","html-keyboard-response","96","160282","0.0-7.8-0.8","612f59e336076f7678b3b3b6","655cb802637e0dbe2941dbc4","655cb8cb52dd77dce7dcd680","407","
            
        <div style=""text-align: center; position: fixed; top: 5vh; left: 40vw;"">
            <div style=""margin:0 auto; width: 20vw; top: 8vh; font-size: 2vw""> 
            <font color=""green""> Bonus : $10 </font>
            </div>
        </div>
    
            <div> Please press any key to continue to the next image.</div>
        "," ","ITI","","","","","","",""
"","","","","","html-keyboard-response","97","160883","0.0-7.8-1.8","612f59e336076f7678b3b3b6","655cb802637e0dbe2941dbc4","655cb8cb52dd77dce7dcd680","null","
        
        <div style=""text-align: center; position: fixed; top: 5vh; left: 40vw;"">
            <div style=""margin:0 auto; width: 20vw; top: 8vh; font-size: 2vw""> 
            <font color=""green""> Bonus : $10 </font>
            </div>
        </div>
    
        <img class=""stim"" src=./stimuli//pack_shapes_diff/cat_2/diff_2/ex_2_2_17.png></img>
    ","null","stimulus","","","","","","",""
"","","","","","html-keyboard-response","98","161894","0.0-7.8-2.8","612f59e336076f7678b3b3b6","655cb802637e0dbe2941dbc4","655cb8cb52dd77dce7dcd680","null","
        <div style=""text-align: center; position: fixed; top: 5vh; left: 40vw;"">
            <div style=""margin:0 auto; width: 20vw; top: 8vh; font-size: 2vw""> 
            <font color=""green""> Bonus : $10 </font>
            </div>
        </div>
    ","null","","","","","","","",""
"","","","","","html-keyboard-response","99","161962","0.0-7.8-3.8","612f59e336076f7678b3b3b6","655cb802637e0dbe2941dbc4","655cb8cb52dd77dce7dcd680","68","./stimuli//pack_shapes_diff/cat_2/diff_2/ex_2_2_17.png","arrowright","response","ArrowRight","17","2","2","test","true",""
"","","","","","html-keyboard-response","100","163475","0.0-7.8-4.8","612f59e336076f7678b3b3b6","655cb802637e0dbe2941dbc4","655cb8cb52dd77dce7dcd680","null","<p> <font color=""green"" size=""5vw""> Correct category! </font></p>","null","feedback","","","","","","","10"
"","","","","","html-keyboard-response","101","163890","0.0-7.9-0.9","612f59e336076f7678b3b3b6","655cb802637e0dbe2941dbc4","655cb8cb52dd77dce7dcd680","414","
            
        <div style=""text-align: center; position: fixed; top: 5vh; left: 40vw;"">
            <div style=""margin:0 auto; width: 20vw; top: 8vh; font-size: 2vw""> 
            <font color=""green""> Bonus : $10 </font>
            </div>
        </div>
    
            <div> Please press any key to continue to the next image.</div>
        "," ","ITI","","","","","","",""
"","","","","","html-keyboard-response","102","164501","0.0-7.9-1.9","612f59e336076f7678b3b3b6","655cb802637e0dbe2941dbc4","655cb8cb52dd77dce7dcd680","null","
        
        <div style=""text-align: center; position: fixed; top: 5vh; left: 40vw;"">
            <div style=""margin:0 auto; width: 20vw; top: 8vh; font-size: 2vw""> 
            <font color=""green""> Bonus : $10 </font>
            </div>
        </div>
    
        <img class=""stim"" src=./stimuli//pack_shapes_diff/cat_1/diff_2/ex_1_2_9.png></img>
    ","null","stimulus","","","","","","",""
"","","","","","html-keyboard-response","103","165510","0.0-7.9-2.9","612f59e336076f7678b3b3b6","655cb802637e0dbe2941dbc4","655cb8cb52dd77dce7dcd680","null","
        <div style=""text-align: center; position: fixed; top: 5vh; left: 40vw;"">
            <div style=""margin:0 auto; width: 20vw; top: 8vh; font-size: 2vw""> 
            <font color=""green""> Bonus : $10 </font>
            </div>
        </div>
    ","null","","","","","","","",""
"","","","","","html-keyboard-response","104","165722","0.0-7.9-3.9","612f59e336076f7678b3b3b6","655cb802637e0dbe2941dbc4","655cb8cb52dd77dce7dcd680","211","./stimuli//pack_shapes_diff/cat_1/diff_2/ex_1_2_9.png","arrowleft","response","ArrowLeft","9","1","2","test","true",""
"","","","","","html-keyboard-response","105","167236","0.0-7.9-4.9","612f59e336076f7678b3b3b6","655cb802637e0dbe2941dbc4","655cb8cb52dd77dce7dcd680","null","<p> <font color=""green"" size=""5vw""> Correct category! </font></p>","null","feedback","","","","","","","10"
"","","","","","html-keyboard-response","106","168018","0.0-7.10-0.10","612f59e336076f7678b3b3b6","655cb802637e0dbe2941dbc4","655cb8cb52dd77dce7dcd680","782","
            
        <div style=""text-align: center; position: fixed; top: 5vh; left: 40vw;"">
            <div style=""margin:0 auto; width: 20vw; top: 8vh; font-size: 2vw""> 
            <font color=""green""> Bonus : $10 </font>
            </div>
        </div>
    
            <div> Please press any key to continue to the next image.</div>
        "," ","ITI","","","","","","",""
"","","","","","html-keyboard-response","107","168619","0.0-7.10-1.10","612f59e336076f7678b3b3b6","655cb802637e0dbe2941dbc4","655cb8cb52dd77dce7dcd680","null","
        
        <div style=""text-align: center; position: fixed; top: 5vh; left: 40vw;"">
            <div style=""margin:0 auto; width: 20vw; top: 8vh; font-size: 2vw""> 
            <font color=""green""> Bonus : $10 </font>
            </div>
        </div>
    
        <img class=""stim"" src=./stimuli//pack_shapes_diff/cat_2/diff_3/ex_2_3_14.png></img>
    ","null","stimulus","","","","","","",""
"","","","","","html-keyboard-response","108","169631","0.0-7.10-2.10","612f59e336076f7678b3b3b6","655cb802637e0dbe2941dbc4","655cb8cb52dd77dce7dcd680","null","
        <div style=""text-align: center; position: fixed; top: 5vh; left: 40vw;"">
            <div style=""margin:0 auto; width: 20vw; top: 8vh; font-size: 2vw""> 
            <font color=""green""> Bonus : $10 </font>
            </div>
        </div>
    ","null","","","","","","","",""
"","","","","","html-keyboard-response","109","169634","0.0-7.10-3.10","612f59e336076f7678b3b3b6","655cb802637e0dbe2941dbc4","655cb8cb52dd77dce7dcd680","3","./stimuli//pack_shapes_diff/cat_2/diff_3/ex_2_3_14.png","arrowright","response","ArrowRight","14","2","3","test","true",""
"","","","","","html-keyboard-response","110","171137","0.0-7.10-4.10","612f59e336076f7678b3b3b6","655cb802637e0dbe2941dbc4","655cb8cb52dd77dce7dcd680","null","<p> <font color=""green"" size=""5vw""> Correct category! </font></p>","null","feedback","","","","","","","10"
"","","","","","html-keyboard-response","111","171666","0.0-7.11-0.11","612f59e336076f7678b3b3b6","655cb802637e0dbe2941dbc4","655cb8cb52dd77dce7dcd680","528","
            
        <div style=""text-align: center; position: fixed; top: 5vh; left: 40vw;"">
            <div style=""margin:0 auto; width: 20vw; top: 8vh; font-size: 2vw""> 
            <font color=""green""> Bonus : $10 </font>
            </div>
        </div>
    
            <div> Please press any key to continue to the next image.</div>
        "," ","ITI","","","","","","",""
"","","","","","html-keyboard-response","112","172269","0.0-7.11-1.11","612f59e336076f7678b3b3b6","655cb802637e0dbe2941dbc4","655cb8cb52dd77dce7dcd680","null","
        
        <div style=""text-align: center; position: fixed; top: 5vh; left: 40vw;"">
            <div style=""margin:0 auto; width: 20vw; top: 8vh; font-size: 2vw""> 
            <font color=""green""> Bonus : $10 </font>
            </div>
        </div>
    
        <img class=""stim"" src=./stimuli//pack_shapes_diff/cat_1/diff_3/ex_1_3_7.png></img>
    ","null","stimulus","","","","","","",""
"","","","","","html-keyboard-response","113","173275","0.0-7.11-2.11","612f59e336076f7678b3b3b6","655cb802637e0dbe2941dbc4","655cb8cb52dd77dce7dcd680","null","
        <div style=""text-align: center; position: fixed; top: 5vh; left: 40vw;"">
            <div style=""margin:0 auto; width: 20vw; top: 8vh; font-size: 2vw""> 
            <font color=""green""> Bonus : $10 </font>
            </div>
        </div>
    ","null","","","","","","","",""
"","","","","","html-keyboard-response","114","173506","0.0-7.11-3.11","612f59e336076f7678b3b3b6","655cb802637e0dbe2941dbc4","655cb8cb52dd77dce7dcd680","230","./stimuli//pack_shapes_diff/cat_1/diff_3/ex_1_3_7.png","arrowleft","response","ArrowLeft","7","1","3","test","true",""
"","","","","","html-keyboard-response","115","175018","0.0-7.11-4.11","612f59e336076f7678b3b3b6","655cb802637e0dbe2941dbc4","655cb8cb52dd77dce7dcd680","null","<p> <font color=""green"" size=""5vw""> Correct category! </font></p>","null","feedback","","","","","","","10"
"","","","","","html-keyboard-response","116","175570","0.0-7.12-0.12","612f59e336076f7678b3b3b6","655cb802637e0dbe2941dbc4","655cb8cb52dd77dce7dcd680","551","
            
        <div style=""text-align: center; position: fixed; top: 5vh; left: 40vw;"">
            <div style=""margin:0 auto; width: 20vw; top: 8vh; font-size: 2vw""> 
            <font color=""green""> Bonus : $10 </font>
            </div>
        </div>
    
            <div> Please press any key to continue to the next image.</div>
        "," ","ITI","","","","","","",""
"","","","","","html-keyboard-response","117","176182","0.0-7.12-1.12","612f59e336076f7678b3b3b6","655cb802637e0dbe2941dbc4","655cb8cb52dd77dce7dcd680","null","
        
        <div style=""text-align: center; position: fixed; top: 5vh; left: 40vw;"">
            <div style=""margin:0 auto; width: 20vw; top: 8vh; font-size: 2vw""> 
            <font color=""green""> Bonus : $10 </font>
            </div>
        </div>
    
        <img class=""stim"" src=./stimuli//pack_shapes_diff/cat_1/diff_3/ex_1_3_6.png></img>
    ","null","stimulus","","","","","","",""
"","","","","","html-keyboard-response","118","177188","0.0-7.12-2.12","612f59e336076f7678b3b3b6","655cb802637e0dbe2941dbc4","655cb8cb52dd77dce7dcd680","null","
        <div style=""text-align: center; position: fixed; top: 5vh; left: 40vw;"">
            <div style=""margin:0 auto; width: 20vw; top: 8vh; font-size: 2vw""> 
            <font color=""green""> Bonus : $10 </font>
            </div>
        </div>
    ","null","","","","","","","",""
"","","","","","html-keyboard-response","119","177418","0.0-7.12-3.12","612f59e336076f7678b3b3b6","655cb802637e0dbe2941dbc4","655cb8cb52dd77dce7dcd680","229","./stimuli//pack_shapes_diff/cat_1/diff_3/ex_1_3_6.png","arrowleft","response","ArrowLeft","6","1","3","test","true",""
"","","","","","html-keyboard-response","120","178921","0.0-7.12-4.12","612f59e336076f7678b3b3b6","655cb802637e0dbe2941dbc4","655cb8cb52dd77dce7dcd680","null","<p> <font color=""green"" size=""5vw""> Correct category! </font></p>","null","feedback","","","","","","","10"
"","","","","","html-keyboard-response","121","179402","0.0-7.13-0.13","612f59e336076f7678b3b3b6","655cb802637e0dbe2941dbc4","655cb8cb52dd77dce7dcd680","481","
            
        <div style=""text-align: center; position: fixed; top: 5vh; left: 40vw;"">
            <div style=""margin:0 auto; width: 20vw; top: 8vh; font-size: 2vw""> 
            <font color=""green""> Bonus : $10 </font>
            </div>
        </div>
    
            <div> Please press any key to continue to the next image.</div>
        "," ","ITI","","","","","","",""
"","","","","","html-keyboard-response","122","180009","0.0-7.13-1.13","612f59e336076f7678b3b3b6","655cb802637e0dbe2941dbc4","655cb8cb52dd77dce7dcd680","null","
        
        <div style=""text-align: center; position: fixed; top: 5vh; left: 40vw;"">
            <div style=""margin:0 auto; width: 20vw; top: 8vh; font-size: 2vw""> 
            <font color=""green""> Bonus : $10 </font>
            </div>
        </div>
    
        <img class=""stim"" src=./stimuli//pack_shapes_diff/cat_1/diff_3/ex_1_3_7.png></img>
    ","null","stimulus","","","","","","",""
"","","","","","html-keyboard-response","123","181025","0.0-7.13-2.13","612f59e336076f7678b3b3b6","655cb802637e0dbe2941dbc4","655cb8cb52dd77dce7dcd680","null","
        <div style=""text-align: center; position: fixed; top: 5vh; left: 40vw;"">
            <div style=""margin:0 auto; width: 20vw; top: 8vh; font-size: 2vw""> 
            <font color=""green""> Bonus : $10 </font>
            </div>
        </div>
    ","null","","","","","","","",""
"","","","","","html-keyboard-response","124","181666","0.0-7.13-3.13","612f59e336076f7678b3b3b6","655cb802637e0dbe2941dbc4","655cb8cb52dd77dce7dcd680","641","./stimuli//pack_shapes_diff/cat_1/diff_3/ex_1_3_7.png","arrowleft","response","ArrowLeft","7","1","3","test","true",""
"","","","","","html-keyboard-response","125","183169","0.0-7.13-4.13","612f59e336076f7678b3b3b6","655cb802637e0dbe2941dbc4","655cb8cb52dd77dce7dcd680","null","<p> <font color=""green"" size=""5vw""> Correct category! </font></p>","null","feedback","","","","","","","10"
"","","","","","html-keyboard-response","126","186090","0.0-7.14-0.14","612f59e336076f7678b3b3b6","655cb802637e0dbe2941dbc4","655cb8cb52dd77dce7dcd680","2921","
            
        <div style=""text-align: center; position: fixed; top: 5vh; left: 40vw;"">
            <div style=""margin:0 auto; width: 20vw; top: 8vh; font-size: 2vw""> 
            <font color=""green""> Bonus : $10 </font>
            </div>
        </div>
    
            <div> Please press any key to continue to the next image.</div>
        "," ","ITI","","","","","","",""
"","","","","","html-keyboard-response","127","186693","0.0-7.14-1.14","612f59e336076f7678b3b3b6","655cb802637e0dbe2941dbc4","655cb8cb52dd77dce7dcd680","null","
        
        <div style=""text-align: center; position: fixed; top: 5vh; left: 40vw;"">
            <div style=""margin:0 auto; width: 20vw; top: 8vh; font-size: 2vw""> 
            <font color=""green""> Bonus : $10 </font>
            </div>
        </div>
    
        <img class=""stim"" src=./stimuli//pack_shapes_diff/cat_2/diff_3/ex_2_3_12.png></img>
    ","null","stimulus","","","","","","",""
"","","","","","html-keyboard-response","128","187700","0.0-7.14-2.14","612f59e336076f7678b3b3b6","655cb802637e0dbe2941dbc4","655cb8cb52dd77dce7dcd680","null","
        <div style=""text-align: center; position: fixed; top: 5vh; left: 40vw;"">
            <div style=""margin:0 auto; width: 20vw; top: 8vh; font-size: 2vw""> 
            <font color=""green""> Bonus : $10 </font>
            </div>
        </div>
    ","null","","","","","","","",""
"","","","","","html-keyboard-response","129","187890","0.0-7.14-3.14","612f59e336076f7678b3b3b6","655cb802637e0dbe2941dbc4","655cb8cb52dd77dce7dcd680","190","./stimuli//pack_shapes_diff/cat_2/diff_3/ex_2_3_12.png","arrowright","response","ArrowRight","12","2","3","test","true",""
"","","","","","html-keyboard-response","130","189406","0.0-7.14-4.14","612f59e336076f7678b3b3b6","655cb802637e0dbe2941dbc4","655cb8cb52dd77dce7dcd680","null","<p> <font color=""green"" size=""5vw""> Correct category! </font></p>","null","feedback","","","","","","","10"
"","","","","","html-keyboard-response","131","189810","0.0-7.15-0.15","612f59e336076f7678b3b3b6","655cb802637e0dbe2941dbc4","655cb8cb52dd77dce7dcd680","404","
            
        <div style=""text-align: center; position: fixed; top: 5vh; left: 40vw;"">
            <div style=""margin:0 auto; width: 20vw; top: 8vh; font-size: 2vw""> 
            <font color=""green""> Bonus : $10 </font>
            </div>
        </div>
    
            <div> Please press any key to continue to the next image.</div>
        "," ","ITI","","","","","","",""
"","","","","","html-keyboard-response","132","190413","0.0-7.15-1.15","612f59e336076f7678b3b3b6","655cb802637e0dbe2941dbc4","655cb8cb52dd77dce7dcd680","null","
        
        <div style=""text-align: center; position: fixed; top: 5vh; left: 40vw;"">
            <div style=""margin:0 auto; width: 20vw; top: 8vh; font-size: 2vw""> 
            <font color=""green""> Bonus : $10 </font>
            </div>
        </div>
    
        <img class=""stim"" src=./stimuli//pack_shapes_diff/cat_1/diff_4/ex_1_4_6.png></img>
    ","null","stimulus","","","","","","",""
"","","","","","html-keyboard-response","133","191420","0.0-7.15-2.15","612f59e336076f7678b3b3b6","655cb802637e0dbe2941dbc4","655cb8cb52dd77dce7dcd680","null","
        <div style=""text-align: center; position: fixed; top: 5vh; left: 40vw;"">
            <div style=""margin:0 auto; width: 20vw; top: 8vh; font-size: 2vw""> 
            <font color=""green""> Bonus : $10 </font>
            </div>
        </div>
    ","null","","","","","","","",""
"","","","","","html-keyboard-response","134","192826","0.0-7.15-3.15","612f59e336076f7678b3b3b6","655cb802637e0dbe2941dbc4","655cb8cb52dd77dce7dcd680","1405","./stimuli//pack_shapes_diff/cat_1/diff_4/ex_1_4_6.png","arrowright","response","ArrowLeft","6","1","4","test","false",""
"","","","","","html-keyboard-response","135","194329","0.0-7.15-4.15","612f59e336076f7678b3b3b6","655cb802637e0dbe2941dbc4","655cb8cb52dd77dce7dcd680","null","<p> <font size=""4vw""> Wrong category! </font> <br> <br> <font color=""red"" size=""7vw""> - $0.05 points </font> </p>","null","feedback","","","","","","","9.95"
"","","","","","html-keyboard-response","136","195762","0.0-7.16-0.16","612f59e336076f7678b3b3b6","655cb802637e0dbe2941dbc4","655cb8cb52dd77dce7dcd680","1432","
            
        <div style=""text-align: center; position: fixed; top: 5vh; left: 40vw;"">
            <div style=""margin:0 auto; width: 20vw; top: 8vh; font-size: 2vw""> 
            <font color=""green""> Bonus : $9.95 </font>
            </div>
        </div>
    
            <div> Please press any key to continue to the next image.</div>
        "," ","ITI","","","","","","",""
"","","","","","html-keyboard-response","137","196369","0.0-7.16-1.16","612f59e336076f7678b3b3b6","655cb802637e0dbe2941dbc4","655cb8cb52dd77dce7dcd680","null","
        
        <div style=""text-align: center; position: fixed; top: 5vh; left: 40vw;"">
            <div style=""margin:0 auto; width: 20vw; top: 8vh; font-size: 2vw""> 
            <font color=""green""> Bonus : $9.95 </font>
            </div>
        </div>
    
        <img class=""stim"" src=./stimuli//pack_shapes_diff/cat_1/diff_4/ex_1_4_5.png></img>
    ","null","stimulus","","","","","","",""
"","","","","","html-keyboard-response","138","197380","0.0-7.16-2.16","612f59e336076f7678b3b3b6","655cb802637e0dbe2941dbc4","655cb8cb52dd77dce7dcd680","null","
        <div style=""text-align: center; position: fixed; top: 5vh; left: 40vw;"">
            <div style=""margin:0 auto; width: 20vw; top: 8vh; font-size: 2vw""> 
            <font color=""green""> Bonus : $9.95 </font>
            </div>
        </div>
    ","null","","","","","","","",""
"","","","","","html-keyboard-response","139","197818","0.0-7.16-3.16","612f59e336076f7678b3b3b6","655cb802637e0dbe2941dbc4","655cb8cb52dd77dce7dcd680","437","./stimuli//pack_shapes_diff/cat_1/diff_4/ex_1_4_5.png","arrowleft","response","ArrowLeft","5","1","4","test","true",""
"","","","","","html-keyboard-response","140","199323","0.0-7.16-4.16","612f59e336076f7678b3b3b6","655cb802637e0dbe2941dbc4","655cb8cb52dd77dce7dcd680","null","<p> <font color=""green"" size=""5vw""> Correct category! </font></p>","null","feedback","","","","","","","9.95"
"","","","","","html-keyboard-response","141","199930","0.0-7.17-0.17","612f59e336076f7678b3b3b6","655cb802637e0dbe2941dbc4","655cb8cb52dd77dce7dcd680","607","
            
        <div style=""text-align: center; position: fixed; top: 5vh; left: 40vw;"">
            <div style=""margin:0 auto; width: 20vw; top: 8vh; font-size: 2vw""> 
            <font color=""green""> Bonus : $9.95 </font>
            </div>
        </div>
    
            <div> Please press any key to continue to the next image.</div>
        "," ","ITI","","","","","","",""
"","","","","","html-keyboard-response","142","200532","0.0-7.17-1.17","612f59e336076f7678b3b3b6","655cb802637e0dbe2941dbc4","655cb8cb52dd77dce7dcd680","null","
        
        <div style=""text-align: center; position: fixed; top: 5vh; left: 40vw;"">
            <div style=""margin:0 auto; width: 20vw; top: 8vh; font-size: 2vw""> 
            <font color=""green""> Bonus : $9.95 </font>
            </div>
        </div>
    
        <img class=""stim"" src=./stimuli//pack_shapes_diff/cat_1/diff_4/ex_1_4_8.png></img>
    ","null","stimulus","","","","","","",""
"","","","","","html-keyboard-response","143","201541","0.0-7.17-2.17","612f59e336076f7678b3b3b6","655cb802637e0dbe2941dbc4","655cb8cb52dd77dce7dcd680","null","
        <div style=""text-align: center; position: fixed; top: 5vh; left: 40vw;"">
            <div style=""margin:0 auto; width: 20vw; top: 8vh; font-size: 2vw""> 
            <font color=""green""> Bonus : $9.95 </font>
            </div>
        </div>
    ","null","","","","","","","",""
"","","","","","html-keyboard-response","144","201778","0.0-7.17-3.17","612f59e336076f7678b3b3b6","655cb802637e0dbe2941dbc4","655cb8cb52dd77dce7dcd680","237","./stimuli//pack_shapes_diff/cat_1/diff_4/ex_1_4_8.png","arrowleft","response","ArrowLeft","8","1","4","test","true",""
"","","","","","html-keyboard-response","145","203289","0.0-7.17-4.17","612f59e336076f7678b3b3b6","655cb802637e0dbe2941dbc4","655cb8cb52dd77dce7dcd680","null","<p> <font color=""green"" size=""5vw""> Correct category! </font></p>","null","feedback","","","","","","","9.95"
"","","","","","html-keyboard-response","146","203746","0.0-7.18-0.18","612f59e336076f7678b3b3b6","655cb802637e0dbe2941dbc4","655cb8cb52dd77dce7dcd680","457","
            
        <div style=""text-align: center; position: fixed; top: 5vh; left: 40vw;"">
            <div style=""margin:0 auto; width: 20vw; top: 8vh; font-size: 2vw""> 
            <font color=""green""> Bonus : $9.95 </font>
            </div>
        </div>
    
            <div> Please press any key to continue to the next image.</div>
        "," ","ITI","","","","","","",""
"","","","","","html-keyboard-response","147","204347","0.0-7.18-1.18","612f59e336076f7678b3b3b6","655cb802637e0dbe2941dbc4","655cb8cb52dd77dce7dcd680","null","
        
        <div style=""text-align: center; position: fixed; top: 5vh; left: 40vw;"">
            <div style=""margin:0 auto; width: 20vw; top: 8vh; font-size: 2vw""> 
            <font color=""green""> Bonus : $9.95 </font>
            </div>
        </div>
    
        <img class=""stim"" src=./stimuli//pack_shapes_diff/cat_1/diff_4/ex_1_4_11.png></img>
    ","null","stimulus","","","","","","",""
"","","","","","html-keyboard-response","148","205360","0.0-7.18-2.18","612f59e336076f7678b3b3b6","655cb802637e0dbe2941dbc4","655cb8cb52dd77dce7dcd680","null","
        <div style=""text-align: center; position: fixed; top: 5vh; left: 40vw;"">
            <div style=""margin:0 auto; width: 20vw; top: 8vh; font-size: 2vw""> 
            <font color=""green""> Bonus : $9.95 </font>
            </div>
        </div>
    ","null","","","","","","","",""
"","","","","","html-keyboard-response","149","205666","0.0-7.18-3.18","612f59e336076f7678b3b3b6","655cb802637e0dbe2941dbc4","655cb8cb52dd77dce7dcd680","306","./stimuli//pack_shapes_diff/cat_1/diff_4/ex_1_4_11.png","arrowleft","response","ArrowLeft","11","1","4","test","true",""
"","","","","","html-keyboard-response","150","207177","0.0-7.18-4.18","612f59e336076f7678b3b3b6","655cb802637e0dbe2941dbc4","655cb8cb52dd77dce7dcd680","null","<p> <font color=""green"" size=""5vw""> Correct category! </font></p>","null","feedback","","","","","","","9.95"
"","","","","","html-keyboard-response","151","208306","0.0-7.19-0.19","612f59e336076f7678b3b3b6","655cb802637e0dbe2941dbc4","655cb8cb52dd77dce7dcd680","1128","
            
        <div style=""text-align: center; position: fixed; top: 5vh; left: 40vw;"">
            <div style=""margin:0 auto; width: 20vw; top: 8vh; font-size: 2vw""> 
            <font color=""green""> Bonus : $9.95 </font>
            </div>
        </div>
    
            <div> Please press any key to continue to the next image.</div>
        "," ","ITI","","","","","","",""
"","","","","","html-keyboard-response","152","208918","0.0-7.19-1.19","612f59e336076f7678b3b3b6","655cb802637e0dbe2941dbc4","655cb8cb52dd77dce7dcd680","null","
        
        <div style=""text-align: center; position: fixed; top: 5vh; left: 40vw;"">
            <div style=""margin:0 auto; width: 20vw; top: 8vh; font-size: 2vw""> 
            <font color=""green""> Bonus : $9.95 </font>
            </div>
        </div>
    
        <img class=""stim"" src=./stimuli//pack_shapes_diff/cat_2/diff_4/ex_2_4_7.png></img>
    ","null","stimulus","","","","","","",""
"","","","","","html-keyboard-response","153","209929","0.0-7.19-2.19","612f59e336076f7678b3b3b6","655cb802637e0dbe2941dbc4","655cb8cb52dd77dce7dcd680","null","
        <div style=""text-align: center; position: fixed; top: 5vh; left: 40vw;"">
            <div style=""margin:0 auto; width: 20vw; top: 8vh; font-size: 2vw""> 
            <font color=""green""> Bonus : $9.95 </font>
            </div>
        </div>
    ","null","","","","","","","",""
"","","","","","html-keyboard-response","154","210178","0.0-7.19-3.19","612f59e336076f7678b3b3b6","655cb802637e0dbe2941dbc4","655cb8cb52dd77dce7dcd680","248","./stimuli//pack_shapes_diff/cat_2/diff_4/ex_2_4_7.png","arrowright","response","ArrowRight","7","2","4","test","true",""
"","","","","","html-keyboard-response","155","211683","0.0-7.19-4.19","612f59e336076f7678b3b3b6","655cb802637e0dbe2941dbc4","655cb8cb52dd77dce7dcd680","null","<p> <font color=""green"" size=""5vw""> Correct category! </font></p>","null","feedback","","","","","","","9.95"
"","","","","","html-keyboard-response","156","213858","0.0-7.20-0.20","612f59e336076f7678b3b3b6","655cb802637e0dbe2941dbc4","655cb8cb52dd77dce7dcd680","2174","
            
        <div style=""text-align: center; position: fixed; top: 5vh; left: 40vw;"">
            <div style=""margin:0 auto; width: 20vw; top: 8vh; font-size: 2vw""> 
            <font color=""green""> Bonus : $9.95 </font>
            </div>
        </div>
    
            <div> Please press any key to continue to the next image.</div>
        "," ","ITI","","","","","","",""
"","","","","","html-keyboard-response","157","214464","0.0-7.20-1.20","612f59e336076f7678b3b3b6","655cb802637e0dbe2941dbc4","655cb8cb52dd77dce7dcd680","null","
        
        <div style=""text-align: center; position: fixed; top: 5vh; left: 40vw;"">
            <div style=""margin:0 auto; width: 20vw; top: 8vh; font-size: 2vw""> 
            <font color=""green""> Bonus : $9.95 </font>
            </div>
        </div>
    
        <img class=""stim"" src=./stimuli//pack_shapes_diff/cat_1/diff_5/ex_1_5_10.png></img>
    ","null","stimulus","","","","","","",""
"","","","","","html-keyboard-response","158","215477","0.0-7.20-2.20","612f59e336076f7678b3b3b6","655cb802637e0dbe2941dbc4","655cb8cb52dd77dce7dcd680","null","
        <div style=""text-align: center; position: fixed; top: 5vh; left: 40vw;"">
            <div style=""margin:0 auto; width: 20vw; top: 8vh; font-size: 2vw""> 
            <font color=""green""> Bonus : $9.95 </font>
            </div>
        </div>
    ","null","","","","","","","",""
"","","","","","html-keyboard-response","159","215642","0.0-7.20-3.20","612f59e336076f7678b3b3b6","655cb802637e0dbe2941dbc4","655cb8cb52dd77dce7dcd680","164","./stimuli//pack_shapes_diff/cat_1/diff_5/ex_1_5_10.png","arrowleft","response","ArrowLeft","10","1","5","test","true",""
"","","","","","html-keyboard-response","160","217153","0.0-7.20-4.20","612f59e336076f7678b3b3b6","655cb802637e0dbe2941dbc4","655cb8cb52dd77dce7dcd680","null","<p> <font color=""green"" size=""5vw""> Correct category! </font></p>","null","feedback","","","","","","","9.95"
"","","","","","html-keyboard-response","161","221322","0.0-7.21-0.21","612f59e336076f7678b3b3b6","655cb802637e0dbe2941dbc4","655cb8cb52dd77dce7dcd680","4169","
            
        <div style=""text-align: center; position: fixed; top: 5vh; left: 40vw;"">
            <div style=""margin:0 auto; width: 20vw; top: 8vh; font-size: 2vw""> 
            <font color=""green""> Bonus : $9.95 </font>
            </div>
        </div>
    
            <div> Please press any key to continue to the next image.</div>
        "," ","ITI","","","","","","",""
"","","","","","html-keyboard-response","162","221930","0.0-7.21-1.21","612f59e336076f7678b3b3b6","655cb802637e0dbe2941dbc4","655cb8cb52dd77dce7dcd680","null","
        
        <div style=""text-align: center; position: fixed; top: 5vh; left: 40vw;"">
            <div style=""margin:0 auto; width: 20vw; top: 8vh; font-size: 2vw""> 
            <font color=""green""> Bonus : $9.95 </font>
            </div>
        </div>
    
        <img class=""stim"" src=./stimuli//pack_shapes_diff/cat_2/diff_5/ex_2_5_17.png></img>
    ","null","stimulus","","","","","","",""
"","","","","","html-keyboard-response","163","222938","0.0-7.21-2.21","612f59e336076f7678b3b3b6","655cb802637e0dbe2941dbc4","655cb8cb52dd77dce7dcd680","null","
        <div style=""text-align: center; position: fixed; top: 5vh; left: 40vw;"">
            <div style=""margin:0 auto; width: 20vw; top: 8vh; font-size: 2vw""> 
            <font color=""green""> Bonus : $9.95 </font>
            </div>
        </div>
    ","null","","","","","","","",""
"","","","","","html-keyboard-response","164","223162","0.0-7.21-3.21","612f59e336076f7678b3b3b6","655cb802637e0dbe2941dbc4","655cb8cb52dd77dce7dcd680","223","./stimuli//pack_shapes_diff/cat_2/diff_5/ex_2_5_17.png","arrowright","response","ArrowRight","17","2","5","test","true",""
"","","","","","html-keyboard-response","165","224642","0.0-7.21-4.21","612f59e336076f7678b3b3b6","655cb802637e0dbe2941dbc4","655cb8cb52dd77dce7dcd680","1480","<p> <font color=""green"" size=""5vw""> Correct category! </font></p>"," ","feedback","","","","","","","9.95"
"","","","","","html-keyboard-response","166","225122","0.0-7.22-0.22","612f59e336076f7678b3b3b6","655cb802637e0dbe2941dbc4","655cb8cb52dd77dce7dcd680","479","
            
        <div style=""text-align: center; position: fixed; top: 5vh; left: 40vw;"">
            <div style=""margin:0 auto; width: 20vw; top: 8vh; font-size: 2vw""> 
            <font color=""green""> Bonus : $9.95 </font>
            </div>
        </div>
    
            <div> Please press any key to continue to the next image.</div>
        "," ","ITI","","","","","","",""
"","","","","","html-keyboard-response","167","225733","0.0-7.22-1.22","612f59e336076f7678b3b3b6","655cb802637e0dbe2941dbc4","655cb8cb52dd77dce7dcd680","null","
        
        <div style=""text-align: center; position: fixed; top: 5vh; left: 40vw;"">
            <div style=""margin:0 auto; width: 20vw; top: 8vh; font-size: 2vw""> 
            <font color=""green""> Bonus : $9.95 </font>
            </div>
        </div>
    
        <img class=""stim"" src=./stimuli//pack_shapes_diff/cat_2/diff_5/ex_2_5_8.png></img>
    ","null","stimulus","","","","","","",""
"","","","","","html-keyboard-response","168","226739","0.0-7.22-2.22","612f59e336076f7678b3b3b6","655cb802637e0dbe2941dbc4","655cb8cb52dd77dce7dcd680","null","
        <div style=""text-align: center; position: fixed; top: 5vh; left: 40vw;"">
            <div style=""margin:0 auto; width: 20vw; top: 8vh; font-size: 2vw""> 
            <font color=""green""> Bonus : $9.95 </font>
            </div>
        </div>
    ","null","","","","","","","",""
"","","","","","html-keyboard-response","169","226930","0.0-7.22-3.22","612f59e336076f7678b3b3b6","655cb802637e0dbe2941dbc4","655cb8cb52dd77dce7dcd680","190","./stimuli//pack_shapes_diff/cat_2/diff_5/ex_2_5_8.png","arrowright","response","ArrowRight","8","2","5","test","true",""
"","","","","","html-keyboard-response","170","228432","0.0-7.22-4.22","612f59e336076f7678b3b3b6","655cb802637e0dbe2941dbc4","655cb8cb52dd77dce7dcd680","null","<p> <font color=""green"" size=""5vw""> Correct category! </font></p>","null","feedback","","","","","","","9.95"
"","","","","","html-keyboard-response","171","230050","0.0-7.23-0.23","612f59e336076f7678b3b3b6","655cb802637e0dbe2941dbc4","655cb8cb52dd77dce7dcd680","1617","
            
        <div style=""text-align: center; position: fixed; top: 5vh; left: 40vw;"">
            <div style=""margin:0 auto; width: 20vw; top: 8vh; font-size: 2vw""> 
            <font color=""green""> Bonus : $9.95 </font>
            </div>
        </div>
    
            <div> Please press any key to continue to the next image.</div>
        "," ","ITI","","","","","","",""
"","","","","","html-keyboard-response","172","230653","0.0-7.23-1.23","612f59e336076f7678b3b3b6","655cb802637e0dbe2941dbc4","655cb8cb52dd77dce7dcd680","null","
        
        <div style=""text-align: center; position: fixed; top: 5vh; left: 40vw;"">
            <div style=""margin:0 auto; width: 20vw; top: 8vh; font-size: 2vw""> 
            <font color=""green""> Bonus : $9.95 </font>
            </div>
        </div>
    
        <img class=""stim"" src=./stimuli//pack_shapes_diff/cat_2/diff_5/ex_2_5_16.png></img>
    ","null","stimulus","","","","","","",""
"","","","","","html-keyboard-response","173","231662","0.0-7.23-2.23","612f59e336076f7678b3b3b6","655cb802637e0dbe2941dbc4","655cb8cb52dd77dce7dcd680","null","
        <div style=""text-align: center; position: fixed; top: 5vh; left: 40vw;"">
            <div style=""margin:0 auto; width: 20vw; top: 8vh; font-size: 2vw""> 
            <font color=""green""> Bonus : $9.95 </font>
            </div>
        </div>
    ","null","","","","","","","",""
"","","","","","html-keyboard-response","174","232858","0.0-7.23-3.23","612f59e336076f7678b3b3b6","655cb802637e0dbe2941dbc4","655cb8cb52dd77dce7dcd680","1196","./stimuli//pack_shapes_diff/cat_2/diff_5/ex_2_5_16.png","arrowright","response","ArrowRight","16","2","5","test","true",""
"","","","","","html-keyboard-response","175","234365","0.0-7.23-4.23","612f59e336076f7678b3b3b6","655cb802637e0dbe2941dbc4","655cb8cb52dd77dce7dcd680","null","<p> <font color=""green"" size=""5vw""> Correct category! </font></p>","null","feedback","","","","","","","9.95"
"","","","","","html-keyboard-response","176","235266","0.0-7.24-0.24","612f59e336076f7678b3b3b6","655cb802637e0dbe2941dbc4","655cb8cb52dd77dce7dcd680","900","
            
        <div style=""text-align: center; position: fixed; top: 5vh; left: 40vw;"">
            <div style=""margin:0 auto; width: 20vw; top: 8vh; font-size: 2vw""> 
            <font color=""green""> Bonus : $9.95 </font>
            </div>
        </div>
    
            <div> Please press any key to continue to the next image.</div>
        "," ","ITI","","","","","","",""
"","","","","","html-keyboard-response","177","235875","0.0-7.24-1.24","612f59e336076f7678b3b3b6","655cb802637e0dbe2941dbc4","655cb8cb52dd77dce7dcd680","null","
        
        <div style=""text-align: center; position: fixed; top: 5vh; left: 40vw;"">
            <div style=""margin:0 auto; width: 20vw; top: 8vh; font-size: 2vw""> 
            <font color=""green""> Bonus : $9.95 </font>
            </div>
        </div>
    
        <img class=""stim"" src=./stimuli//pack_shapes_diff/cat_1/diff_5/ex_1_5_6.png></img>
    ","null","stimulus","","","","","","",""
"","","","","","html-keyboard-response","178","236884","0.0-7.24-2.24","612f59e336076f7678b3b3b6","655cb802637e0dbe2941dbc4","655cb8cb52dd77dce7dcd680","null","
        <div style=""text-align: center; position: fixed; top: 5vh; left: 40vw;"">
            <div style=""margin:0 auto; width: 20vw; top: 8vh; font-size: 2vw""> 
            <font color=""green""> Bonus : $9.95 </font>
            </div>
        </div>
    ","null","","","","","","","",""
"","","","","","html-keyboard-response","179","237090","0.0-7.24-3.24","612f59e336076f7678b3b3b6","655cb802637e0dbe2941dbc4","655cb8cb52dd77dce7dcd680","206","./stimuli//pack_shapes_diff/cat_1/diff_5/ex_1_5_6.png","arrowright","response","ArrowLeft","6","1","5","test","false",""
"","","","","","html-keyboard-response","180","238593","0.0-7.24-4.24","612f59e336076f7678b3b3b6","655cb802637e0dbe2941dbc4","655cb8cb52dd77dce7dcd680","null","<p> <font size=""4vw""> Wrong category! </font> <br> <br> <font color=""red"" size=""7vw""> - $0.05 points </font> </p>","null","feedback","","","","","","","9.9"
"","","","","","html-keyboard-response","181","239298","0.0-7.25-0.25","612f59e336076f7678b3b3b6","655cb802637e0dbe2941dbc4","655cb8cb52dd77dce7dcd680","705","
            
        <div style=""text-align: center; position: fixed; top: 5vh; left: 40vw;"">
            <div style=""margin:0 auto; width: 20vw; top: 8vh; font-size: 2vw""> 
            <font color=""green""> Bonus : $9.9 </font>
            </div>
        </div>
    
            <div> Please press any key to continue to the next image.</div>
        "," ","ITI","","","","","","",""
"","","","","","html-keyboard-response","182","239912","0.0-7.25-1.25","612f59e336076f7678b3b3b6","655cb802637e0dbe2941dbc4","655cb8cb52dd77dce7dcd680","null","
        
        <div style=""text-align: center; position: fixed; top: 5vh; left: 40vw;"">
            <div style=""margin:0 auto; width: 20vw; top: 8vh; font-size: 2vw""> 
            <font color=""green""> Bonus : $9.9 </font>
            </div>
        </div>
    
        <img class=""stim"" src=./stimuli//pack_shapes_diff/cat_2/diff_5/ex_2_5_7.png></img>
    ","null","stimulus","","","","","","",""
"","","","","","html-keyboard-response","183","240917","0.0-7.25-2.25","612f59e336076f7678b3b3b6","655cb802637e0dbe2941dbc4","655cb8cb52dd77dce7dcd680","null","
        <div style=""text-align: center; position: fixed; top: 5vh; left: 40vw;"">
            <div style=""margin:0 auto; width: 20vw; top: 8vh; font-size: 2vw""> 
            <font color=""green""> Bonus : $9.9 </font>
            </div>
        </div>
    ","null","","","","","","","",""
"","","","","","html-keyboard-response","184","241914","0.0-7.25-3.25","612f59e336076f7678b3b3b6","655cb802637e0dbe2941dbc4","655cb8cb52dd77dce7dcd680","997","./stimuli//pack_shapes_diff/cat_2/diff_5/ex_2_5_7.png","arrowright","response","ArrowRight","7","2","5","test","true",""
"","","","","","html-keyboard-response","185","243429","0.0-7.25-4.25","612f59e336076f7678b3b3b6","655cb802637e0dbe2941dbc4","655cb8cb52dd77dce7dcd680","null","<p> <font color=""green"" size=""5vw""> Correct category! </font></p>","null","feedback","","","","","","","9.9"
"","","","","","html-keyboard-response","186","244386","0.0-7.26-0.26","612f59e336076f7678b3b3b6","655cb802637e0dbe2941dbc4","655cb8cb52dd77dce7dcd680","957","
            
        <div style=""text-align: center; position: fixed; top: 5vh; left: 40vw;"">
            <div style=""margin:0 auto; width: 20vw; top: 8vh; font-size: 2vw""> 
            <font color=""green""> Bonus : $9.9 </font>
            </div>
        </div>
    
            <div> Please press any key to continue to the next image.</div>
        "," ","ITI","","","","","","",""
"","","","","","html-keyboard-response","187","244998","0.0-7.26-1.26","612f59e336076f7678b3b3b6","655cb802637e0dbe2941dbc4","655cb8cb52dd77dce7dcd680","null","
        
        <div style=""text-align: center; position: fixed; top: 5vh; left: 40vw;"">
            <div style=""margin:0 auto; width: 20vw; top: 8vh; font-size: 2vw""> 
            <font color=""green""> Bonus : $9.9 </font>
            </div>
        </div>
    
        <img class=""stim"" src=./stimuli//pack_shapes_diff/cat_2/diff_5/ex_2_5_2.png></img>
    ","null","stimulus","","","","","","",""
"","","","","","html-keyboard-response","188","246009","0.0-7.26-2.26","612f59e336076f7678b3b3b6","655cb802637e0dbe2941dbc4","655cb8cb52dd77dce7dcd680","null","
        <div style=""text-align: center; position: fixed; top: 5vh; left: 40vw;"">
            <div style=""margin:0 auto; width: 20vw; top: 8vh; font-size: 2vw""> 
            <font color=""green""> Bonus : $9.9 </font>
            </div>
        </div>
    ","null","","","","","","","",""
"","","","","","html-keyboard-response","189","246154","0.0-7.26-3.26","612f59e336076f7678b3b3b6","655cb802637e0dbe2941dbc4","655cb8cb52dd77dce7dcd680","145","./stimuli//pack_shapes_diff/cat_2/diff_5/ex_2_5_2.png","arrowright","response","ArrowRight","2","2","5","test","true",""
"","","","","","html-keyboard-response","190","247662","0.0-7.26-4.26","612f59e336076f7678b3b3b6","655cb802637e0dbe2941dbc4","655cb8cb52dd77dce7dcd680","null","<p> <font color=""green"" size=""5vw""> Correct category! </font></p>","null","feedback","","","","","","","9.9"
"","","","","","html-keyboard-response","191","248538","0.0-7.27-0.27","612f59e336076f7678b3b3b6","655cb802637e0dbe2941dbc4","655cb8cb52dd77dce7dcd680","876","
            
        <div style=""text-align: center; position: fixed; top: 5vh; left: 40vw;"">
            <div style=""margin:0 auto; width: 20vw; top: 8vh; font-size: 2vw""> 
            <font color=""green""> Bonus : $9.9 </font>
            </div>
        </div>
    
            <div> Please press any key to continue to the next image.</div>
        "," ","ITI","","","","","","",""
"","","","","","html-keyboard-response","192","249141","0.0-7.27-1.27","612f59e336076f7678b3b3b6","655cb802637e0dbe2941dbc4","655cb8cb52dd77dce7dcd680","null","
        
        <div style=""text-align: center; position: fixed; top: 5vh; left: 40vw;"">
            <div style=""margin:0 auto; width: 20vw; top: 8vh; font-size: 2vw""> 
            <font color=""green""> Bonus : $9.9 </font>
            </div>
        </div>
    
        <img class=""stim"" src=./stimuli//pack_shapes_diff/cat_2/diff_5/ex_2_5_4.png></img>
    ","null","stimulus","","","","","","",""
"","","","","","html-keyboard-response","193","250149","0.0-7.27-2.27","612f59e336076f7678b3b3b6","655cb802637e0dbe2941dbc4","655cb8cb52dd77dce7dcd680","null","
        <div style=""text-align: center; position: fixed; top: 5vh; left: 40vw;"">
            <div style=""margin:0 auto; width: 20vw; top: 8vh; font-size: 2vw""> 
            <font color=""green""> Bonus : $9.9 </font>
            </div>
        </div>
    ","null","","","","","","","",""
"","","","","","html-keyboard-response","194","250450","0.0-7.27-3.27","612f59e336076f7678b3b3b6","655cb802637e0dbe2941dbc4","655cb8cb52dd77dce7dcd680","301","./stimuli//pack_shapes_diff/cat_2/diff_5/ex_2_5_4.png","arrowright","response","ArrowRight","4","2","5","test","true",""
"","","","","","html-keyboard-response","195","251965","0.0-7.27-4.27","612f59e336076f7678b3b3b6","655cb802637e0dbe2941dbc4","655cb8cb52dd77dce7dcd680","null","<p> <font color=""green"" size=""5vw""> Correct category! </font></p>","null","feedback","","","","","","","9.9"
"","","","","","html-keyboard-response","196","252658","0.0-7.28-0.28","612f59e336076f7678b3b3b6","655cb802637e0dbe2941dbc4","655cb8cb52dd77dce7dcd680","693","
            
        <div style=""text-align: center; position: fixed; top: 5vh; left: 40vw;"">
            <div style=""margin:0 auto; width: 20vw; top: 8vh; font-size: 2vw""> 
            <font color=""green""> Bonus : $9.9 </font>
            </div>
        </div>
    
            <div> Please press any key to continue to the next image.</div>
        "," ","ITI","","","","","","",""
"","","","","","html-keyboard-response","197","253268","0.0-7.28-1.28","612f59e336076f7678b3b3b6","655cb802637e0dbe2941dbc4","655cb8cb52dd77dce7dcd680","null","
        
        <div style=""text-align: center; position: fixed; top: 5vh; left: 40vw;"">
            <div style=""margin:0 auto; width: 20vw; top: 8vh; font-size: 2vw""> 
            <font color=""green""> Bonus : $9.9 </font>
            </div>
        </div>
    
        <img class=""stim"" src=./stimuli//pack_shapes_diff/cat_2/diff_5/ex_2_5_7.png></img>
    ","null","stimulus","","","","","","",""
"","","","","","html-keyboard-response","198","254280","0.0-7.28-2.28","612f59e336076f7678b3b3b6","655cb802637e0dbe2941dbc4","655cb8cb52dd77dce7dcd680","null","
        <div style=""text-align: center; position: fixed; top: 5vh; left: 40vw;"">
            <div style=""margin:0 auto; width: 20vw; top: 8vh; font-size: 2vw""> 
            <font color=""green""> Bonus : $9.9 </font>
            </div>
        </div>
    ","null","","","","","","","",""
"","","","","","html-keyboard-response","199","254482","0.0-7.28-3.28","612f59e336076f7678b3b3b6","655cb802637e0dbe2941dbc4","655cb8cb52dd77dce7dcd680","202","./stimuli//pack_shapes_diff/cat_2/diff_5/ex_2_5_7.png","arrowright","response","ArrowRight","7","2","5","test","true",""
"","","","","","html-keyboard-response","200","255988","0.0-7.28-4.28","612f59e336076f7678b3b3b6","655cb802637e0dbe2941dbc4","655cb8cb52dd77dce7dcd680","null","<p> <font color=""green"" size=""5vw""> Correct category! </font></p>","null","feedback","","","","","","","9.9"
"","","","","","html-keyboard-response","201","256570","0.0-7.29-0.29","612f59e336076f7678b3b3b6","655cb802637e0dbe2941dbc4","655cb8cb52dd77dce7dcd680","582","
            
        <div style=""text-align: center; position: fixed; top: 5vh; left: 40vw;"">
            <div style=""margin:0 auto; width: 20vw; top: 8vh; font-size: 2vw""> 
            <font color=""green""> Bonus : $9.9 </font>
            </div>
        </div>
    
            <div> Please press any key to continue to the next image.</div>
        "," ","ITI","","","","","","",""
"","","","","","html-keyboard-response","202","257185","0.0-7.29-1.29","612f59e336076f7678b3b3b6","655cb802637e0dbe2941dbc4","655cb8cb52dd77dce7dcd680","null","
        
        <div style=""text-align: center; position: fixed; top: 5vh; left: 40vw;"">
            <div style=""margin:0 auto; width: 20vw; top: 8vh; font-size: 2vw""> 
            <font color=""green""> Bonus : $9.9 </font>
            </div>
        </div>
    
        <img class=""stim"" src=./stimuli//pack_shapes_diff/cat_1/diff_5/ex_1_5_13.png></img>
    ","null","stimulus","","","","","","",""
"","","","","","html-keyboard-response","203","258194","0.0-7.29-2.29","612f59e336076f7678b3b3b6","655cb802637e0dbe2941dbc4","655cb8cb52dd77dce7dcd680","null","
        <div style=""text-align: center; position: fixed; top: 5vh; left: 40vw;"">
            <div style=""margin:0 auto; width: 20vw; top: 8vh; font-size: 2vw""> 
            <font color=""green""> Bonus : $9.9 </font>
            </div>
        </div>
    ","null","","","","","","","",""
"","","","","","html-keyboard-response","204","258354","0.0-7.29-3.29","612f59e336076f7678b3b3b6","655cb802637e0dbe2941dbc4","655cb8cb52dd77dce7dcd680","159","./stimuli//pack_shapes_diff/cat_1/diff_5/ex_1_5_13.png","arrowright","response","ArrowLeft","13","1","5","test","false",""
"","","","","","html-keyboard-response","205","259855","0.0-7.29-4.29","612f59e336076f7678b3b3b6","655cb802637e0dbe2941dbc4","655cb8cb52dd77dce7dcd680","null","<p> <font size=""4vw""> Wrong category! </font> <br> <br> <font color=""red"" size=""7vw""> - $0.05 points </font> </p>","null","feedback","","","","","","","9.85"
"","","","","","html-keyboard-response","206","262354","0.0-7.30-0.30","612f59e336076f7678b3b3b6","655cb802637e0dbe2941dbc4","655cb8cb52dd77dce7dcd680","2498","
            
        <div style=""text-align: center; position: fixed; top: 5vh; left: 40vw;"">
            <div style=""margin:0 auto; width: 20vw; top: 8vh; font-size: 2vw""> 
            <font color=""green""> Bonus : $9.85 </font>
            </div>
        </div>
    
            <div> Please press any key to continue to the next image.</div>
        "," ","ITI","","","","","","",""
"","","","","","html-keyboard-response","207","262966","0.0-7.30-1.30","612f59e336076f7678b3b3b6","655cb802637e0dbe2941dbc4","655cb8cb52dd77dce7dcd680","null","
        
        <div style=""text-align: center; position: fixed; top: 5vh; left: 40vw;"">
            <div style=""margin:0 auto; width: 20vw; top: 8vh; font-size: 2vw""> 
            <font color=""green""> Bonus : $9.85 </font>
            </div>
        </div>
    
        <img class=""stim"" src=./stimuli//pack_shapes_diff/cat_2/diff_5/ex_2_5_7.png></img>
    ","null","stimulus","","","","","","",""
"","","","","","html-keyboard-response","208","263976","0.0-7.30-2.30","612f59e336076f7678b3b3b6","655cb802637e0dbe2941dbc4","655cb8cb52dd77dce7dcd680","null","
        <div style=""text-align: center; position: fixed; top: 5vh; left: 40vw;"">
            <div style=""margin:0 auto; width: 20vw; top: 8vh; font-size: 2vw""> 
            <font color=""green""> Bonus : $9.85 </font>
            </div>
        </div>
    ","null","","","","","","","",""
"","","","","","html-keyboard-response","209","265354","0.0-7.30-3.30","612f59e336076f7678b3b3b6","655cb802637e0dbe2941dbc4","655cb8cb52dd77dce7dcd680","1378","./stimuli//pack_shapes_diff/cat_2/diff_5/ex_2_5_7.png","arrowright","response","ArrowRight","7","2","5","test","true",""
"","","","","","html-keyboard-response","210","266865","0.0-7.30-4.30","612f59e336076f7678b3b3b6","655cb802637e0dbe2941dbc4","655cb8cb52dd77dce7dcd680","null","<p> <font color=""green"" size=""5vw""> Correct category! </font></p>","null","feedback","","","","","","","9.85"
"","","","","","html-keyboard-response","211","268666","0.0-7.31-0.31","612f59e336076f7678b3b3b6","655cb802637e0dbe2941dbc4","655cb8cb52dd77dce7dcd680","1800","
            
        <div style=""text-align: center; position: fixed; top: 5vh; left: 40vw;"">
            <div style=""margin:0 auto; width: 20vw; top: 8vh; font-size: 2vw""> 
            <font color=""green""> Bonus : $9.85 </font>
            </div>
        </div>
    
            <div> Please press any key to continue to the next image.</div>
        "," ","ITI","","","","","","",""
"","","","","","html-keyboard-response","212","269282","0.0-7.31-1.31","612f59e336076f7678b3b3b6","655cb802637e0dbe2941dbc4","655cb8cb52dd77dce7dcd680","null","
        
        <div style=""text-align: center; position: fixed; top: 5vh; left: 40vw;"">
            <div style=""margin:0 auto; width: 20vw; top: 8vh; font-size: 2vw""> 
            <font color=""green""> Bonus : $9.85 </font>
            </div>
        </div>
    
        <img class=""stim"" src=./stimuli//pack_shapes_diff/cat_2/diff_5/ex_2_5_12.png></img>
    ","null","stimulus","","","","","","",""
"","","","","","html-keyboard-response","213","270292","0.0-7.31-2.31","612f59e336076f7678b3b3b6","655cb802637e0dbe2941dbc4","655cb8cb52dd77dce7dcd680","null","
        <div style=""text-align: center; position: fixed; top: 5vh; left: 40vw;"">
            <div style=""margin:0 auto; width: 20vw; top: 8vh; font-size: 2vw""> 
            <font color=""green""> Bonus : $9.85 </font>
            </div>
        </div>
    ","null","","","","","","","",""
"","","","","","html-keyboard-response","214","270530","0.0-7.31-3.31","612f59e336076f7678b3b3b6","655cb802637e0dbe2941dbc4","655cb8cb52dd77dce7dcd680","238","./stimuli//pack_shapes_diff/cat_2/diff_5/ex_2_5_12.png","arrowright","response","ArrowRight","12","2","5","test","true",""
"","","","","","html-keyboard-response","215","272045","0.0-7.31-4.31","612f59e336076f7678b3b3b6","655cb802637e0dbe2941dbc4","655cb8cb52dd77dce7dcd680","null","<p> <font color=""green"" size=""5vw""> Correct category! </font></p>","null","feedback","","","","","","","9.85"
"","","","","","html-keyboard-response","216","272922","0.0-7.32-0.32","612f59e336076f7678b3b3b6","655cb802637e0dbe2941dbc4","655cb8cb52dd77dce7dcd680","876","
            
        <div style=""text-align: center; position: fixed; top: 5vh; left: 40vw;"">
            <div style=""margin:0 auto; width: 20vw; top: 8vh; font-size: 2vw""> 
            <font color=""green""> Bonus : $9.85 </font>
            </div>
        </div>
    
            <div> Please press any key to continue to the next image.</div>
        "," ","ITI","","","","","","",""
"","","","","","html-keyboard-response","217","273536","0.0-7.32-1.32","612f59e336076f7678b3b3b6","655cb802637e0dbe2941dbc4","655cb8cb52dd77dce7dcd680","null","
        
        <div style=""text-align: center; position: fixed; top: 5vh; left: 40vw;"">
            <div style=""margin:0 auto; width: 20vw; top: 8vh; font-size: 2vw""> 
            <font color=""green""> Bonus : $9.85 </font>
            </div>
        </div>
    
        <img class=""stim"" src=./stimuli//pack_shapes_diff/cat_2/diff_5/ex_2_5_17.png></img>
    ","null","stimulus","","","","","","",""
"","","","","","html-keyboard-response","218","274545","0.0-7.32-2.32","612f59e336076f7678b3b3b6","655cb802637e0dbe2941dbc4","655cb8cb52dd77dce7dcd680","null","
        <div style=""text-align: center; position: fixed; top: 5vh; left: 40vw;"">
            <div style=""margin:0 auto; width: 20vw; top: 8vh; font-size: 2vw""> 
            <font color=""green""> Bonus : $9.85 </font>
            </div>
        </div>
    ","null","","","","","","","",""
"","","","","","html-keyboard-response","219","274626","0.0-7.32-3.32","612f59e336076f7678b3b3b6","655cb802637e0dbe2941dbc4","655cb8cb52dd77dce7dcd680","81","./stimuli//pack_shapes_diff/cat_2/diff_5/ex_2_5_17.png","arrowright","response","ArrowRight","17","2","5","test","true",""
"","","","","","html-keyboard-response","220","276133","0.0-7.32-4.32","612f59e336076f7678b3b3b6","655cb802637e0dbe2941dbc4","655cb8cb52dd77dce7dcd680","null","<p> <font color=""green"" size=""5vw""> Correct category! </font></p>","null","feedback","","","","","","","9.85"
"","","","","","html-keyboard-response","221","276626","0.0-7.33-0.33","612f59e336076f7678b3b3b6","655cb802637e0dbe2941dbc4","655cb8cb52dd77dce7dcd680","493","
            
        <div style=""text-align: center; position: fixed; top: 5vh; left: 40vw;"">
            <div style=""margin:0 auto; width: 20vw; top: 8vh; font-size: 2vw""> 
            <font color=""green""> Bonus : $9.85 </font>
            </div>
        </div>
    
            <div> Please press any key to continue to the next image.</div>
        "," ","ITI","","","","","","",""
"","","","","","html-keyboard-response","222","277234","0.0-7.33-1.33","612f59e336076f7678b3b3b6","655cb802637e0dbe2941dbc4","655cb8cb52dd77dce7dcd680","null","
        
        <div style=""text-align: center; position: fixed; top: 5vh; left: 40vw;"">
            <div style=""margin:0 auto; width: 20vw; top: 8vh; font-size: 2vw""> 
            <font color=""green""> Bonus : $9.85 </font>
            </div>
        </div>
    
        <img class=""stim"" src=./stimuli//pack_shapes_diff/cat_1/diff_5/ex_1_5_12.png></img>
    ","null","stimulus","","","","","","",""
"","","","","","html-keyboard-response","223","278244","0.0-7.33-2.33","612f59e336076f7678b3b3b6","655cb802637e0dbe2941dbc4","655cb8cb52dd77dce7dcd680","null","
        <div style=""text-align: center; position: fixed; top: 5vh; left: 40vw;"">
            <div style=""margin:0 auto; width: 20vw; top: 8vh; font-size: 2vw""> 
            <font color=""green""> Bonus : $9.85 </font>
            </div>
        </div>
    ","null","","","","","","","",""
"","","","","","html-keyboard-response","224","278370","0.0-7.33-3.33","612f59e336076f7678b3b3b6","655cb802637e0dbe2941dbc4","655cb8cb52dd77dce7dcd680","126","./stimuli//pack_shapes_diff/cat_1/diff_5/ex_1_5_12.png","arrowleft","response","ArrowLeft","12","1","5","test","true",""
"","","","","","html-keyboard-response","225","279871","0.0-7.33-4.33","612f59e336076f7678b3b3b6","655cb802637e0dbe2941dbc4","655cb8cb52dd77dce7dcd680","null","<p> <font color=""green"" size=""5vw""> Correct category! </font></p>","null","feedback","","","","","","","9.85"
"","","","","","html-keyboard-response","226","280682","0.0-7.34-0.34","612f59e336076f7678b3b3b6","655cb802637e0dbe2941dbc4","655cb8cb52dd77dce7dcd680","811","
            
        <div style=""text-align: center; position: fixed; top: 5vh; left: 40vw;"">
            <div style=""margin:0 auto; width: 20vw; top: 8vh; font-size: 2vw""> 
            <font color=""green""> Bonus : $9.85 </font>
            </div>
        </div>
    
            <div> Please press any key to continue to the next image.</div>
        "," ","ITI","","","","","","",""
"","","","","","html-keyboard-response","227","281284","0.0-7.34-1.34","612f59e336076f7678b3b3b6","655cb802637e0dbe2941dbc4","655cb8cb52dd77dce7dcd680","null","
        
        <div style=""text-align: center; position: fixed; top: 5vh; left: 40vw;"">
            <div style=""margin:0 auto; width: 20vw; top: 8vh; font-size: 2vw""> 
            <font color=""green""> Bonus : $9.85 </font>
            </div>
        </div>
    
        <img class=""stim"" src=./stimuli//pack_shapes_diff/cat_2/diff_5/ex_2_5_12.png></img>
    ","null","stimulus","","","","","","",""
"","","","","","html-keyboard-response","228","282294","0.0-7.34-2.34","612f59e336076f7678b3b3b6","655cb802637e0dbe2941dbc4","655cb8cb52dd77dce7dcd680","null","
        <div style=""text-align: center; position: fixed; top: 5vh; left: 40vw;"">
            <div style=""margin:0 auto; width: 20vw; top: 8vh; font-size: 2vw""> 
            <font color=""green""> Bonus : $9.85 </font>
            </div>
        </div>
    ","null","","","","","","","",""
"","","","","","html-keyboard-response","229","282482","0.0-7.34-3.34","612f59e336076f7678b3b3b6","655cb802637e0dbe2941dbc4","655cb8cb52dd77dce7dcd680","188","./stimuli//pack_shapes_diff/cat_2/diff_5/ex_2_5_12.png","arrowright","response","ArrowRight","12","2","5","test","true",""
"","","","","","html-keyboard-response","230","283985","0.0-7.34-4.34","612f59e336076f7678b3b3b6","655cb802637e0dbe2941dbc4","655cb8cb52dd77dce7dcd680","null","<p> <font color=""green"" size=""5vw""> Correct category! </font></p>","null","feedback","","","","","","","9.85"
"","","","","","html-keyboard-response","231","284450","0.0-7.35-0.35","612f59e336076f7678b3b3b6","655cb802637e0dbe2941dbc4","655cb8cb52dd77dce7dcd680","464","
            
        <div style=""text-align: center; position: fixed; top: 5vh; left: 40vw;"">
            <div style=""margin:0 auto; width: 20vw; top: 8vh; font-size: 2vw""> 
            <font color=""green""> Bonus : $9.85 </font>
            </div>
        </div>
    
            <div> Please press any key to continue to the next image.</div>
        "," ","ITI","","","","","","",""
"","","","","","html-keyboard-response","232","285056","0.0-7.35-1.35","612f59e336076f7678b3b3b6","655cb802637e0dbe2941dbc4","655cb8cb52dd77dce7dcd680","null","
        
        <div style=""text-align: center; position: fixed; top: 5vh; left: 40vw;"">
            <div style=""margin:0 auto; width: 20vw; top: 8vh; font-size: 2vw""> 
            <font color=""green""> Bonus : $9.85 </font>
            </div>
        </div>
    
        <img class=""stim"" src=./stimuli//pack_shapes_diff/cat_1/diff_5/ex_1_5_15.png></img>
    ","null","stimulus","","","","","","",""
"","","","","","html-keyboard-response","233","286068","0.0-7.35-2.35","612f59e336076f7678b3b3b6","655cb802637e0dbe2941dbc4","655cb8cb52dd77dce7dcd680","null","
        <div style=""text-align: center; position: fixed; top: 5vh; left: 40vw;"">
