"success","timeout","failed_images","failed_audio","failed_video","trial_type","trial_index","time_elapsed","internal_node_id","subject_id","study_id","session_id","rt","stimulus","response","task","correct_response","exemplar_ID","category","difficulty","phase","correct","bonus"
"true","false","[]","[]","[]","preload","0","3","0.0-0.0","601a76dd9b6a55296ac06a4f","655cb802637e0dbe2941dbc4","655cb8c91b22e5364c22d660","","","","","","","","","","",""
"","","","","","html-keyboard-response","1","3070","0.0-1.0","601a76dd9b6a55296ac06a4f","655cb802637e0dbe2941dbc4","655cb8c91b22e5364c22d660","3066","Welcome to the Category Learning experiment! Press any key to continue."," ","welcome","","","","","","",""
"","","","","","html-keyboard-response","2","20070","0.0-2.0","601a76dd9b6a55296ac06a4f","655cb802637e0dbe2941dbc4","655cb8c91b22e5364c22d660","17000","
            <p>You will be shown images of black shapes. Some are category A, some are category B.
            <br>You will not know in advance which category a specific shape belongs to.</p>
            <p>After you see an image, you will be asked to guess its category <b>(left arrow for category A, right arrow for category B)</b></p>
            <p>After you choose, the screen will show you whether you were correct or not.</p>
            <p>Please try to respond as quickly and accurately as possible every time.</p>
            <p>Press any key to continue.</p>
            "," ","introduction_1","","","","","","",""
"","","","","","html-keyboard-response","3","27957","0.0-3.0","601a76dd9b6a55296ac06a4f","655cb802637e0dbe2941dbc4","655cb8c91b22e5364c22d660","7885","
              <p><b>You will receive a bonus payment depending on your performance!</b></p>
              <p><b>You start with a $10 bonus and each time you guess a shape's category incorrectly $0.05 will be subtracted from the bonus. <br> After the end of the experiment you will receive the remaining bonus as payment.</b></p>
              <p>Press any key to continue.</p>
              "," ","introduction_1","","","","","","",""
"","","","","","html-keyboard-response","4","31955","0.0-4.0","601a76dd9b6a55296ac06a4f","655cb802637e0dbe2941dbc4","655cb8c91b22e5364c22d660","3997","
            <p> <b>The first 10 trials are a practice round that will not count towards your bonus payment.</b></p>
            <p> You will be notified when practice finishes and the test begins. </p>
            <p> Press any key to begin the practice round.</p>
            "," ","introduction_2","","","","","","",""
"","","","","","html-keyboard-response","5","36968","0.0-5.0-0.0","601a76dd9b6a55296ac06a4f","655cb802637e0dbe2941dbc4","655cb8c91b22e5364c22d660","null","
            
        <div style=""text-align: center; position: fixed; top: 5vh; left: 40vw;"">
            <div style=""margin:0 auto; width: 20vw; top: 8vh; font-size: 2vw""> 
            <font color=""green""> Bonus : $10 </font>
            </div>
        </div>
    
            <div> Please press any key to continue to the next image.</div>
        ","null","ITI","","","","","","",""
"","","","","","html-keyboard-response","6","37573","0.0-5.0-1.0","601a76dd9b6a55296ac06a4f","655cb802637e0dbe2941dbc4","655cb8c91b22e5364c22d660","null","
        
        <div style=""text-align: center; position: fixed; top: 5vh; left: 40vw;"">
            <div style=""margin:0 auto; width: 20vw; top: 8vh; font-size: 2vw""> 
            <font color=""green""> Bonus : $10 </font>
            </div>
        </div>
    
        <img class=""stim"" src=./stimuli//pack_shapes_diff/cat_1/diff_1/ex_1_1_12.png></img>
    ","null","stimulus","","","","","","",""
"","","","","","html-keyboard-response","7","38580","0.0-5.0-2.0","601a76dd9b6a55296ac06a4f","655cb802637e0dbe2941dbc4","655cb8c91b22e5364c22d660","null","
        <div style=""text-align: center; position: fixed; top: 5vh; left: 40vw;"">
            <div style=""margin:0 auto; width: 20vw; top: 8vh; font-size: 2vw""> 
            <font color=""green""> Bonus : $10 </font>
            </div>
        </div>
    ","null","","","","","","","",""
"","","","","","html-keyboard-response","8","41282","0.0-5.0-3.0","601a76dd9b6a55296ac06a4f","655cb802637e0dbe2941dbc4","655cb8c91b22e5364c22d660","2700","./stimuli//pack_shapes_diff/cat_1/diff_1/ex_1_1_12.png","arrowleft","response","ArrowLeft","12","1","1","train","true",""
"","","","","","html-keyboard-response","9","42786","0.0-5.0-4.0","601a76dd9b6a55296ac06a4f","655cb802637e0dbe2941dbc4","655cb8c91b22e5364c22d660","null","<p> <font color=""green"" size=""5vw""> Correct category! </font> </p>","null","feedback","","","","","","","10"
"","","","","","html-keyboard-response","10","47791","0.0-5.0-0.1","601a76dd9b6a55296ac06a4f","655cb802637e0dbe2941dbc4","655cb8c91b22e5364c22d660","null","
            
        <div style=""text-align: center; position: fixed; top: 5vh; left: 40vw;"">
            <div style=""margin:0 auto; width: 20vw; top: 8vh; font-size: 2vw""> 
            <font color=""green""> Bonus : $10 </font>
            </div>
        </div>
    
            <div> Please press any key to continue to the next image.</div>
        ","null","ITI","","","","","","",""
"","","","","","html-keyboard-response","11","48405","0.0-5.0-1.1","601a76dd9b6a55296ac06a4f","655cb802637e0dbe2941dbc4","655cb8c91b22e5364c22d660","null","
        
        <div style=""text-align: center; position: fixed; top: 5vh; left: 40vw;"">
            <div style=""margin:0 auto; width: 20vw; top: 8vh; font-size: 2vw""> 
            <font color=""green""> Bonus : $10 </font>
            </div>
        </div>
    
        <img class=""stim"" src=./stimuli//pack_shapes_diff/cat_2/diff_2/ex_2_2_7.png></img>
    ","null","stimulus","","","","","","",""
"","","","","","html-keyboard-response","12","49407","0.0-5.0-2.1","601a76dd9b6a55296ac06a4f","655cb802637e0dbe2941dbc4","655cb8c91b22e5364c22d660","null","
        <div style=""text-align: center; position: fixed; top: 5vh; left: 40vw;"">
            <div style=""margin:0 auto; width: 20vw; top: 8vh; font-size: 2vw""> 
            <font color=""green""> Bonus : $10 </font>
            </div>
        </div>
    ","null","","","","","","","",""
"","","","","","html-keyboard-response","13","53380","0.0-5.0-3.1","601a76dd9b6a55296ac06a4f","655cb802637e0dbe2941dbc4","655cb8c91b22e5364c22d660","3972","./stimuli//pack_shapes_diff/cat_2/diff_2/ex_2_2_7.png","arrowright","response","ArrowRight","7","2","2","train","true",""
"","","","","","html-keyboard-response","14","54882","0.0-5.0-4.1","601a76dd9b6a55296ac06a4f","655cb802637e0dbe2941dbc4","655cb8c91b22e5364c22d660","null","<p> <font color=""green"" size=""5vw""> Correct category! </font> </p>","null","feedback","","","","","","","10"
"","","","","","html-keyboard-response","15","56643","0.0-5.0-0.2","601a76dd9b6a55296ac06a4f","655cb802637e0dbe2941dbc4","655cb8c91b22e5364c22d660","1760","
            
        <div style=""text-align: center; position: fixed; top: 5vh; left: 40vw;"">
            <div style=""margin:0 auto; width: 20vw; top: 8vh; font-size: 2vw""> 
            <font color=""green""> Bonus : $10 </font>
            </div>
        </div>
    
            <div> Please press any key to continue to the next image.</div>
        "," ","ITI","","","","","","",""
"","","","","","html-keyboard-response","16","57252","0.0-5.0-1.2","601a76dd9b6a55296ac06a4f","655cb802637e0dbe2941dbc4","655cb8c91b22e5364c22d660","null","
        
        <div style=""text-align: center; position: fixed; top: 5vh; left: 40vw;"">
            <div style=""margin:0 auto; width: 20vw; top: 8vh; font-size: 2vw""> 
            <font color=""green""> Bonus : $10 </font>
            </div>
        </div>
    
        <img class=""stim"" src=./stimuli//pack_shapes_diff/cat_2/diff_1/ex_2_1_17.png></img>
    ","null","stimulus","","","","","","",""
"","","","","","html-keyboard-response","17","58269","0.0-5.0-2.2","601a76dd9b6a55296ac06a4f","655cb802637e0dbe2941dbc4","655cb8c91b22e5364c22d660","null","
        <div style=""text-align: center; position: fixed; top: 5vh; left: 40vw;"">
            <div style=""margin:0 auto; width: 20vw; top: 8vh; font-size: 2vw""> 
            <font color=""green""> Bonus : $10 </font>
            </div>
        </div>
    ","null","","","","","","","",""
"","","","","","html-keyboard-response","18","59817","0.0-5.0-3.2","601a76dd9b6a55296ac06a4f","655cb802637e0dbe2941dbc4","655cb8c91b22e5364c22d660","1547","./stimuli//pack_shapes_diff/cat_2/diff_1/ex_2_1_17.png","arrowright","response","ArrowRight","17","2","1","train","true",""
"","","","","","html-keyboard-response","19","61325","0.0-5.0-4.2","601a76dd9b6a55296ac06a4f","655cb802637e0dbe2941dbc4","655cb8c91b22e5364c22d660","null","<p> <font color=""green"" size=""5vw""> Correct category! </font> </p>","null","feedback","","","","","","","10"
"","","","","","html-keyboard-response","20","62860","0.0-5.0-0.3","601a76dd9b6a55296ac06a4f","655cb802637e0dbe2941dbc4","655cb8c91b22e5364c22d660","1533","
            
        <div style=""text-align: center; position: fixed; top: 5vh; left: 40vw;"">
            <div style=""margin:0 auto; width: 20vw; top: 8vh; font-size: 2vw""> 
            <font color=""green""> Bonus : $10 </font>
            </div>
        </div>
    
            <div> Please press any key to continue to the next image.</div>
        "," ","ITI","","","","","","",""
"","","","","","html-keyboard-response","21","63461","0.0-5.0-1.3","601a76dd9b6a55296ac06a4f","655cb802637e0dbe2941dbc4","655cb8c91b22e5364c22d660","null","
        
        <div style=""text-align: center; position: fixed; top: 5vh; left: 40vw;"">
            <div style=""margin:0 auto; width: 20vw; top: 8vh; font-size: 2vw""> 
            <font color=""green""> Bonus : $10 </font>
            </div>
        </div>
    
        <img class=""stim"" src=./stimuli//pack_shapes_diff/cat_2/diff_1/ex_2_1_7.png></img>
    ","null","stimulus","","","","","","",""
"","","","","","html-keyboard-response","22","64464","0.0-5.0-2.3","601a76dd9b6a55296ac06a4f","655cb802637e0dbe2941dbc4","655cb8c91b22e5364c22d660","null","
        <div style=""text-align: center; position: fixed; top: 5vh; left: 40vw;"">
            <div style=""margin:0 auto; width: 20vw; top: 8vh; font-size: 2vw""> 
            <font color=""green""> Bonus : $10 </font>
            </div>
        </div>
    ","null","","","","","","","",""
"","","","","","html-keyboard-response","23","64981","0.0-5.0-3.3","601a76dd9b6a55296ac06a4f","655cb802637e0dbe2941dbc4","655cb8c91b22e5364c22d660","516","./stimuli//pack_shapes_diff/cat_2/diff_1/ex_2_1_7.png","arrowright","response","ArrowRight","7","2","1","train","true",""
"","","","","","html-keyboard-response","24","66487","0.0-5.0-4.3","601a76dd9b6a55296ac06a4f","655cb802637e0dbe2941dbc4","655cb8c91b22e5364c22d660","null","<p> <font color=""green"" size=""5vw""> Correct category! </font> </p>","null","feedback","","","","","","","10"
"","","","","","html-keyboard-response","25","67315","0.0-5.0-0.4","601a76dd9b6a55296ac06a4f","655cb802637e0dbe2941dbc4","655cb8c91b22e5364c22d660","827","
            
        <div style=""text-align: center; position: fixed; top: 5vh; left: 40vw;"">
            <div style=""margin:0 auto; width: 20vw; top: 8vh; font-size: 2vw""> 
            <font color=""green""> Bonus : $10 </font>
            </div>
        </div>
    
            <div> Please press any key to continue to the next image.</div>
        "," ","ITI","","","","","","",""
"","","","","","html-keyboard-response","26","67932","0.0-5.0-1.4","601a76dd9b6a55296ac06a4f","655cb802637e0dbe2941dbc4","655cb8c91b22e5364c22d660","null","
        
        <div style=""text-align: center; position: fixed; top: 5vh; left: 40vw;"">
            <div style=""margin:0 auto; width: 20vw; top: 8vh; font-size: 2vw""> 
            <font color=""green""> Bonus : $10 </font>
            </div>
        </div>
    
        <img class=""stim"" src=./stimuli//pack_shapes_diff/cat_2/diff_1/ex_2_1_8.png></img>
    ","null","stimulus","","","","","","",""
"","","","","","html-keyboard-response","27","68948","0.0-5.0-2.4","601a76dd9b6a55296ac06a4f","655cb802637e0dbe2941dbc4","655cb8c91b22e5364c22d660","null","
        <div style=""text-align: center; position: fixed; top: 5vh; left: 40vw;"">
            <div style=""margin:0 auto; width: 20vw; top: 8vh; font-size: 2vw""> 
            <font color=""green""> Bonus : $10 </font>
            </div>
        </div>
    ","null","","","","","","","",""
"","","","","","html-keyboard-response","28","69907","0.0-5.0-3.4","601a76dd9b6a55296ac06a4f","655cb802637e0dbe2941dbc4","655cb8c91b22e5364c22d660","958","./stimuli//pack_shapes_diff/cat_2/diff_1/ex_2_1_8.png","arrowleft","response","ArrowRight","8","2","1","train","false",""
"","","","","","html-keyboard-response","29","71409","0.0-5.0-4.4","601a76dd9b6a55296ac06a4f","655cb802637e0dbe2941dbc4","655cb8c91b22e5364c22d660","null","<p> <font color=""red"" size=""5vw""> Wrong category! </font> </p>","null","feedback","","","","","","","10"
"","","","","","html-keyboard-response","30","72590","0.0-5.0-0.5","601a76dd9b6a55296ac06a4f","655cb802637e0dbe2941dbc4","655cb8c91b22e5364c22d660","1180","
            
        <div style=""text-align: center; position: fixed; top: 5vh; left: 40vw;"">
            <div style=""margin:0 auto; width: 20vw; top: 8vh; font-size: 2vw""> 
            <font color=""green""> Bonus : $10 </font>
            </div>
        </div>
    
            <div> Please press any key to continue to the next image.</div>
        "," ","ITI","","","","","","",""
"","","","","","html-keyboard-response","31","73204","0.0-5.0-1.5","601a76dd9b6a55296ac06a4f","655cb802637e0dbe2941dbc4","655cb8c91b22e5364c22d660","null","
        
        <div style=""text-align: center; position: fixed; top: 5vh; left: 40vw;"">
            <div style=""margin:0 auto; width: 20vw; top: 8vh; font-size: 2vw""> 
            <font color=""green""> Bonus : $10 </font>
            </div>
        </div>
    
        <img class=""stim"" src=./stimuli//pack_shapes_diff/cat_2/diff_2/ex_2_2_15.png></img>
    ","null","stimulus","","","","","","",""
"","","","","","html-keyboard-response","32","74208","0.0-5.0-2.5","601a76dd9b6a55296ac06a4f","655cb802637e0dbe2941dbc4","655cb8c91b22e5364c22d660","null","
        <div style=""text-align: center; position: fixed; top: 5vh; left: 40vw;"">
            <div style=""margin:0 auto; width: 20vw; top: 8vh; font-size: 2vw""> 
            <font color=""green""> Bonus : $10 </font>
            </div>
        </div>
    ","null","","","","","","","",""
"","","","","","html-keyboard-response","33","74544","0.0-5.0-3.5","601a76dd9b6a55296ac06a4f","655cb802637e0dbe2941dbc4","655cb8c91b22e5364c22d660","335","./stimuli//pack_shapes_diff/cat_2/diff_2/ex_2_2_15.png","arrowright","response","ArrowRight","15","2","2","train","true",""
"","","","","","html-keyboard-response","34","76053","0.0-5.0-4.5","601a76dd9b6a55296ac06a4f","655cb802637e0dbe2941dbc4","655cb8c91b22e5364c22d660","null","<p> <font color=""green"" size=""5vw""> Correct category! </font> </p>","null","feedback","","","","","","","10"
"","","","","","html-keyboard-response","35","76937","0.0-5.0-0.6","601a76dd9b6a55296ac06a4f","655cb802637e0dbe2941dbc4","655cb8c91b22e5364c22d660","883","
            
        <div style=""text-align: center; position: fixed; top: 5vh; left: 40vw;"">
            <div style=""margin:0 auto; width: 20vw; top: 8vh; font-size: 2vw""> 
            <font color=""green""> Bonus : $10 </font>
            </div>
        </div>
    
            <div> Please press any key to continue to the next image.</div>
        "," ","ITI","","","","","","",""
"","","","","","html-keyboard-response","36","77547","0.0-5.0-1.6","601a76dd9b6a55296ac06a4f","655cb802637e0dbe2941dbc4","655cb8c91b22e5364c22d660","null","
        
        <div style=""text-align: center; position: fixed; top: 5vh; left: 40vw;"">
            <div style=""margin:0 auto; width: 20vw; top: 8vh; font-size: 2vw""> 
            <font color=""green""> Bonus : $10 </font>
            </div>
        </div>
    
        <img class=""stim"" src=./stimuli//pack_shapes_diff/cat_1/diff_2/ex_1_2_1.png></img>
    ","null","stimulus","","","","","","",""
"","","","","","html-keyboard-response","37","78549","0.0-5.0-2.6","601a76dd9b6a55296ac06a4f","655cb802637e0dbe2941dbc4","655cb8c91b22e5364c22d660","null","
        <div style=""text-align: center; position: fixed; top: 5vh; left: 40vw;"">
            <div style=""margin:0 auto; width: 20vw; top: 8vh; font-size: 2vw""> 
            <font color=""green""> Bonus : $10 </font>
            </div>
        </div>
    ","null","","","","","","","",""
"","","","","","html-keyboard-response","38","80827","0.0-5.0-3.6","601a76dd9b6a55296ac06a4f","655cb802637e0dbe2941dbc4","655cb8c91b22e5364c22d660","2277","./stimuli//pack_shapes_diff/cat_1/diff_2/ex_1_2_1.png","arrowleft","response","ArrowLeft","1","1","2","train","true",""
"","","","","","html-keyboard-response","39","82332","0.0-5.0-4.6","601a76dd9b6a55296ac06a4f","655cb802637e0dbe2941dbc4","655cb8c91b22e5364c22d660","null","<p> <font color=""green"" size=""5vw""> Correct category! </font> </p>","null","feedback","","","","","","","10"
"","","","","","html-keyboard-response","40","83785","0.0-5.0-0.7","601a76dd9b6a55296ac06a4f","655cb802637e0dbe2941dbc4","655cb8c91b22e5364c22d660","1452","
            
        <div style=""text-align: center; position: fixed; top: 5vh; left: 40vw;"">
            <div style=""margin:0 auto; width: 20vw; top: 8vh; font-size: 2vw""> 
            <font color=""green""> Bonus : $10 </font>
            </div>
        </div>
    
            <div> Please press any key to continue to the next image.</div>
        "," ","ITI","","","","","","",""
"","","","","","html-keyboard-response","41","84397","0.0-5.0-1.7","601a76dd9b6a55296ac06a4f","655cb802637e0dbe2941dbc4","655cb8c91b22e5364c22d660","null","
        
        <div style=""text-align: center; position: fixed; top: 5vh; left: 40vw;"">
            <div style=""margin:0 auto; width: 20vw; top: 8vh; font-size: 2vw""> 
            <font color=""green""> Bonus : $10 </font>
            </div>
        </div>
    
        <img class=""stim"" src=./stimuli//pack_shapes_diff/cat_1/diff_1/ex_1_1_2.png></img>
    ","null","stimulus","","","","","","",""
"","","","","","html-keyboard-response","42","85408","0.0-5.0-2.7","601a76dd9b6a55296ac06a4f","655cb802637e0dbe2941dbc4","655cb8c91b22e5364c22d660","null","
        <div style=""text-align: center; position: fixed; top: 5vh; left: 40vw;"">
            <div style=""margin:0 auto; width: 20vw; top: 8vh; font-size: 2vw""> 
            <font color=""green""> Bonus : $10 </font>
            </div>
        </div>
    ","null","","","","","","","",""
"","","","","","html-keyboard-response","43","86072","0.0-5.0-3.7","601a76dd9b6a55296ac06a4f","655cb802637e0dbe2941dbc4","655cb8c91b22e5364c22d660","662","./stimuli//pack_shapes_diff/cat_1/diff_1/ex_1_1_2.png","arrowright","response","ArrowLeft","2","1","1","train","false",""
"","","","","","html-keyboard-response","44","87575","0.0-5.0-4.7","601a76dd9b6a55296ac06a4f","655cb802637e0dbe2941dbc4","655cb8c91b22e5364c22d660","null","<p> <font color=""red"" size=""5vw""> Wrong category! </font> </p>","null","feedback","","","","","","","10"
"","","","","","html-keyboard-response","45","88585","0.0-5.0-0.8","601a76dd9b6a55296ac06a4f","655cb802637e0dbe2941dbc4","655cb8c91b22e5364c22d660","1009","
            
        <div style=""text-align: center; position: fixed; top: 5vh; left: 40vw;"">
            <div style=""margin:0 auto; width: 20vw; top: 8vh; font-size: 2vw""> 
            <font color=""green""> Bonus : $10 </font>
            </div>
        </div>
    
            <div> Please press any key to continue to the next image.</div>
        ","arrowleft","ITI","","","","","","",""
"","","","","","html-keyboard-response","46","89195","0.0-5.0-1.8","601a76dd9b6a55296ac06a4f","655cb802637e0dbe2941dbc4","655cb8c91b22e5364c22d660","null","
        
        <div style=""text-align: center; position: fixed; top: 5vh; left: 40vw;"">
            <div style=""margin:0 auto; width: 20vw; top: 8vh; font-size: 2vw""> 
            <font color=""green""> Bonus : $10 </font>
            </div>
        </div>
    
        <img class=""stim"" src=./stimuli//pack_shapes_diff/cat_1/diff_2/ex_1_2_3.png></img>
    ","null","stimulus","","","","","","",""
"","","","","","html-keyboard-response","47","90196","0.0-5.0-2.8","601a76dd9b6a55296ac06a4f","655cb802637e0dbe2941dbc4","655cb8c91b22e5364c22d660","null","
        <div style=""text-align: center; position: fixed; top: 5vh; left: 40vw;"">
            <div style=""margin:0 auto; width: 20vw; top: 8vh; font-size: 2vw""> 
            <font color=""green""> Bonus : $10 </font>
            </div>
        </div>
    ","null","","","","","","","",""
"","","","","","html-keyboard-response","48","90965","0.0-5.0-3.8","601a76dd9b6a55296ac06a4f","655cb802637e0dbe2941dbc4","655cb8c91b22e5364c22d660","768","./stimuli//pack_shapes_diff/cat_1/diff_2/ex_1_2_3.png","arrowleft","response","ArrowLeft","3","1","2","train","true",""
"","","","","","html-keyboard-response","49","92472","0.0-5.0-4.8","601a76dd9b6a55296ac06a4f","655cb802637e0dbe2941dbc4","655cb8c91b22e5364c22d660","null","<p> <font color=""green"" size=""5vw""> Correct category! </font> </p>","null","feedback","","","","","","","10"
"","","","","","html-keyboard-response","50","93605","0.0-5.0-0.9","601a76dd9b6a55296ac06a4f","655cb802637e0dbe2941dbc4","655cb8c91b22e5364c22d660","1131","
            
        <div style=""text-align: center; position: fixed; top: 5vh; left: 40vw;"">
            <div style=""margin:0 auto; width: 20vw; top: 8vh; font-size: 2vw""> 
            <font color=""green""> Bonus : $10 </font>
            </div>
        </div>
    
            <div> Please press any key to continue to the next image.</div>
        ","arrowright","ITI","","","","","","",""
"","","","","","html-keyboard-response","51","94209","0.0-5.0-1.9","601a76dd9b6a55296ac06a4f","655cb802637e0dbe2941dbc4","655cb8c91b22e5364c22d660","null","
        
        <div style=""text-align: center; position: fixed; top: 5vh; left: 40vw;"">
            <div style=""margin:0 auto; width: 20vw; top: 8vh; font-size: 2vw""> 
            <font color=""green""> Bonus : $10 </font>
            </div>
        </div>
    
        <img class=""stim"" src=./stimuli//pack_shapes_diff/cat_1/diff_1/ex_1_1_16.png></img>
    ","null","stimulus","","","","","","",""
"","","","","","html-keyboard-response","52","95223","0.0-5.0-2.9","601a76dd9b6a55296ac06a4f","655cb802637e0dbe2941dbc4","655cb8c91b22e5364c22d660","null","
        <div style=""text-align: center; position: fixed; top: 5vh; left: 40vw;"">
            <div style=""margin:0 auto; width: 20vw; top: 8vh; font-size: 2vw""> 
            <font color=""green""> Bonus : $10 </font>
            </div>
        </div>
    ","null","","","","","","","",""
"","","","","","html-keyboard-response","53","96001","0.0-5.0-3.9","601a76dd9b6a55296ac06a4f","655cb802637e0dbe2941dbc4","655cb8c91b22e5364c22d660","777","./stimuli//pack_shapes_diff/cat_1/diff_1/ex_1_1_16.png","arrowleft","response","ArrowLeft","16","1","1","train","true",""
"","","","","","html-keyboard-response","54","97507","0.0-5.0-4.9","601a76dd9b6a55296ac06a4f","655cb802637e0dbe2941dbc4","655cb8c91b22e5364c22d660","null","<p> <font color=""green"" size=""5vw""> Correct category! </font> </p>","null","feedback","","","","","","","10"
"","","","","","html-keyboard-response","55","100275","0.0-6.0","601a76dd9b6a55296ac06a4f","655cb802637e0dbe2941dbc4","655cb8c91b22e5364c22d660","2768","
            <b> <p> The practice round has finished.</p>
            <b> For the rest of the experiment if you guess incorrectly $0.05 will be subtracted from your bonus!</b>
            <p> Press any key to begin the test. </p>
            "," ","intermission","","","","","","",""
"","","","","","html-keyboard-response","56","102310","0.0-7.0-0.0","601a76dd9b6a55296ac06a4f","655cb802637e0dbe2941dbc4","655cb8c91b22e5364c22d660","2034","
            
        <div style=""text-align: center; position: fixed; top: 5vh; left: 40vw;"">
            <div style=""margin:0 auto; width: 20vw; top: 8vh; font-size: 2vw""> 
            <font color=""green""> Bonus : $10 </font>
            </div>
        </div>
    
            <div> Please press any key to continue to the next image.</div>
        "," ","ITI","","","","","","",""
"","","","","","html-keyboard-response","57","102924","0.0-7.0-1.0","601a76dd9b6a55296ac06a4f","655cb802637e0dbe2941dbc4","655cb8c91b22e5364c22d660","null","
        
        <div style=""text-align: center; position: fixed; top: 5vh; left: 40vw;"">
            <div style=""margin:0 auto; width: 20vw; top: 8vh; font-size: 2vw""> 
            <font color=""green""> Bonus : $10 </font>
            </div>
        </div>
    
        <img class=""stim"" src=./stimuli//pack_shapes_diff/cat_2/diff_1/ex_2_1_14.png></img>
    ","null","stimulus","","","","","","",""
"","","","","","html-keyboard-response","58","103940","0.0-7.0-2.0","601a76dd9b6a55296ac06a4f","655cb802637e0dbe2941dbc4","655cb8c91b22e5364c22d660","null","
        <div style=""text-align: center; position: fixed; top: 5vh; left: 40vw;"">
            <div style=""margin:0 auto; width: 20vw; top: 8vh; font-size: 2vw""> 
            <font color=""green""> Bonus : $10 </font>
            </div>
        </div>
    ","null","","","","","","","",""
"","","","","","html-keyboard-response","59","105483","0.0-7.0-3.0","601a76dd9b6a55296ac06a4f","655cb802637e0dbe2941dbc4","655cb8c91b22e5364c22d660","1541","./stimuli//pack_shapes_diff/cat_2/diff_1/ex_2_1_14.png","arrowleft","response","ArrowRight","14","2","1","test","false",""
"","","","","","html-keyboard-response","60","107000","0.0-7.0-4.0","601a76dd9b6a55296ac06a4f","655cb802637e0dbe2941dbc4","655cb8c91b22e5364c22d660","null","<p> <font size=""4vw""> Wrong category! </font> <br> <br> <font color=""red"" size=""7vw""> - $0.05 points </font> </p>","null","feedback","","","","","","","9.95"
"","","","","","html-keyboard-response","61","109339","0.0-7.1-0.1","601a76dd9b6a55296ac06a4f","655cb802637e0dbe2941dbc4","655cb8c91b22e5364c22d660","2347","
            
        <div style=""text-align: center; position: fixed; top: 5vh; left: 40vw;"">
            <div style=""margin:0 auto; width: 20vw; top: 8vh; font-size: 2vw""> 
            <font color=""green""> Bonus : $9.95 </font>
            </div>
        </div>
    
            <div> Please press any key to continue to the next image.</div>
        "," ","ITI","","","","","","",""
"","","","","","html-keyboard-response","62","109943","0.0-7.1-1.1","601a76dd9b6a55296ac06a4f","655cb802637e0dbe2941dbc4","655cb8c91b22e5364c22d660","null","
        
        <div style=""text-align: center; position: fixed; top: 5vh; left: 40vw;"">
            <div style=""margin:0 auto; width: 20vw; top: 8vh; font-size: 2vw""> 
            <font color=""green""> Bonus : $9.95 </font>
            </div>
        </div>
    
        <img class=""stim"" src=./stimuli//pack_shapes_diff/cat_1/diff_1/ex_1_1_10.png></img>
    ","null","stimulus","","","","","","",""
"","","","","","html-keyboard-response","63","110948","0.0-7.1-2.1","601a76dd9b6a55296ac06a4f","655cb802637e0dbe2941dbc4","655cb8c91b22e5364c22d660","null","
        <div style=""text-align: center; position: fixed; top: 5vh; left: 40vw;"">
            <div style=""margin:0 auto; width: 20vw; top: 8vh; font-size: 2vw""> 
            <font color=""green""> Bonus : $9.95 </font>
            </div>
        </div>
    ","null","","","","","","","",""
"","","","","","html-keyboard-response","64","113721","0.0-7.1-3.1","601a76dd9b6a55296ac06a4f","655cb802637e0dbe2941dbc4","655cb8c91b22e5364c22d660","2771","./stimuli//pack_shapes_diff/cat_1/diff_1/ex_1_1_10.png","arrowright","response","ArrowLeft","10","1","1","test","false",""
"","","","","","html-keyboard-response","65","115236","0.0-7.1-4.1","601a76dd9b6a55296ac06a4f","655cb802637e0dbe2941dbc4","655cb8c91b22e5364c22d660","null","<p> <font size=""4vw""> Wrong category! </font> <br> <br> <font color=""red"" size=""7vw""> - $0.05 points </font> </p>","null","feedback","","","","","","","9.9"
"","","","","","html-keyboard-response","66","116191","0.0-7.2-0.2","601a76dd9b6a55296ac06a4f","655cb802637e0dbe2941dbc4","655cb8c91b22e5364c22d660","953","
            
        <div style=""text-align: center; position: fixed; top: 5vh; left: 40vw;"">
            <div style=""margin:0 auto; width: 20vw; top: 8vh; font-size: 2vw""> 
            <font color=""green""> Bonus : $9.9 </font>
            </div>
        </div>
    
            <div> Please press any key to continue to the next image.</div>
        "," ","ITI","","","","","","",""
"","","","","","html-keyboard-response","67","116799","0.0-7.2-1.2","601a76dd9b6a55296ac06a4f","655cb802637e0dbe2941dbc4","655cb8c91b22e5364c22d660","null","
        
        <div style=""text-align: center; position: fixed; top: 5vh; left: 40vw;"">
            <div style=""margin:0 auto; width: 20vw; top: 8vh; font-size: 2vw""> 
            <font color=""green""> Bonus : $9.9 </font>
            </div>
        </div>
    
        <img class=""stim"" src=./stimuli//pack_shapes_diff/cat_2/diff_1/ex_2_1_10.png></img>
    ","null","stimulus","","","","","","",""
"","","","","","html-keyboard-response","68","117807","0.0-7.2-2.2","601a76dd9b6a55296ac06a4f","655cb802637e0dbe2941dbc4","655cb8c91b22e5364c22d660","null","
        <div style=""text-align: center; position: fixed; top: 5vh; left: 40vw;"">
            <div style=""margin:0 auto; width: 20vw; top: 8vh; font-size: 2vw""> 
            <font color=""green""> Bonus : $9.9 </font>
            </div>
        </div>
    ","null","","","","","","","",""
"","","","","","html-keyboard-response","69","118354","0.0-7.2-3.2","601a76dd9b6a55296ac06a4f","655cb802637e0dbe2941dbc4","655cb8c91b22e5364c22d660","545","./stimuli//pack_shapes_diff/cat_2/diff_1/ex_2_1_10.png","arrowright","response","ArrowRight","10","2","1","test","true",""
"","","","","","html-keyboard-response","70","119860","0.0-7.2-4.2","601a76dd9b6a55296ac06a4f","655cb802637e0dbe2941dbc4","655cb8c91b22e5364c22d660","null","<p> <font color=""green"" size=""5vw""> Correct category! </font></p>","null","feedback","","","","","","","9.9"
"","","","","","html-keyboard-response","71","120491","0.0-7.3-0.3","601a76dd9b6a55296ac06a4f","655cb802637e0dbe2941dbc4","655cb8c91b22e5364c22d660","629","
            
        <div style=""text-align: center; position: fixed; top: 5vh; left: 40vw;"">
            <div style=""margin:0 auto; width: 20vw; top: 8vh; font-size: 2vw""> 
            <font color=""green""> Bonus : $9.9 </font>
            </div>
        </div>
    
            <div> Please press any key to continue to the next image.</div>
        "," ","ITI","","","","","","",""
"","","","","","html-keyboard-response","72","121100","0.0-7.3-1.3","601a76dd9b6a55296ac06a4f","655cb802637e0dbe2941dbc4","655cb8c91b22e5364c22d660","null","
        
        <div style=""text-align: center; position: fixed; top: 5vh; left: 40vw;"">
            <div style=""margin:0 auto; width: 20vw; top: 8vh; font-size: 2vw""> 
            <font color=""green""> Bonus : $9.9 </font>
            </div>
        </div>
    
        <img class=""stim"" src=./stimuli//pack_shapes_diff/cat_2/diff_1/ex_2_1_1.png></img>
    ","null","stimulus","","","","","","",""
"","","","","","html-keyboard-response","73","122101","0.0-7.3-2.3","601a76dd9b6a55296ac06a4f","655cb802637e0dbe2941dbc4","655cb8c91b22e5364c22d660","null","
        <div style=""text-align: center; position: fixed; top: 5vh; left: 40vw;"">
            <div style=""margin:0 auto; width: 20vw; top: 8vh; font-size: 2vw""> 
            <font color=""green""> Bonus : $9.9 </font>
            </div>
        </div>
    ","null","","","","","","","",""
"","","","","","html-keyboard-response","74","122681","0.0-7.3-3.3","601a76dd9b6a55296ac06a4f","655cb802637e0dbe2941dbc4","655cb8c91b22e5364c22d660","578","./stimuli//pack_shapes_diff/cat_2/diff_1/ex_2_1_1.png","arrowright","response","ArrowRight","1","2","1","test","true",""
"","","","","","html-keyboard-response","75","124188","0.0-7.3-4.3","601a76dd9b6a55296ac06a4f","655cb802637e0dbe2941dbc4","655cb8c91b22e5364c22d660","null","<p> <font color=""green"" size=""5vw""> Correct category! </font></p>","null","feedback","","","","","","","9.9"
"","","","","","html-keyboard-response","76","124785","0.0-7.4-0.4","601a76dd9b6a55296ac06a4f","655cb802637e0dbe2941dbc4","655cb8c91b22e5364c22d660","595","
            
        <div style=""text-align: center; position: fixed; top: 5vh; left: 40vw;"">
            <div style=""margin:0 auto; width: 20vw; top: 8vh; font-size: 2vw""> 
            <font color=""green""> Bonus : $9.9 </font>
            </div>
        </div>
    
            <div> Please press any key to continue to the next image.</div>
        "," ","ITI","","","","","","",""
"","","","","","html-keyboard-response","77","125398","0.0-7.4-1.4","601a76dd9b6a55296ac06a4f","655cb802637e0dbe2941dbc4","655cb8c91b22e5364c22d660","null","
        
        <div style=""text-align: center; position: fixed; top: 5vh; left: 40vw;"">
            <div style=""margin:0 auto; width: 20vw; top: 8vh; font-size: 2vw""> 
            <font color=""green""> Bonus : $9.9 </font>
            </div>
        </div>
    
        <img class=""stim"" src=./stimuli//pack_shapes_diff/cat_1/diff_1/ex_1_1_14.png></img>
    ","null","stimulus","","","","","","",""
"","","","","","html-keyboard-response","78","126400","0.0-7.4-2.4","601a76dd9b6a55296ac06a4f","655cb802637e0dbe2941dbc4","655cb8c91b22e5364c22d660","null","
        <div style=""text-align: center; position: fixed; top: 5vh; left: 40vw;"">
            <div style=""margin:0 auto; width: 20vw; top: 8vh; font-size: 2vw""> 
            <font color=""green""> Bonus : $9.9 </font>
            </div>
        </div>
    ","null","","","","","","","",""
"","","","","","html-keyboard-response","79","126920","0.0-7.4-3.4","601a76dd9b6a55296ac06a4f","655cb802637e0dbe2941dbc4","655cb8c91b22e5364c22d660","519","./stimuli//pack_shapes_diff/cat_1/diff_1/ex_1_1_14.png","arrowleft","response","ArrowLeft","14","1","1","test","true",""
"","","","","","html-keyboard-response","80","128425","0.0-7.4-4.4","601a76dd9b6a55296ac06a4f","655cb802637e0dbe2941dbc4","655cb8c91b22e5364c22d660","null","<p> <font color=""green"" size=""5vw""> Correct category! </font></p>","null","feedback","","","","","","","9.9"
"","","","","","html-keyboard-response","81","128855","0.0-7.5-0.5","601a76dd9b6a55296ac06a4f","655cb802637e0dbe2941dbc4","655cb8c91b22e5364c22d660","428","
            
        <div style=""text-align: center; position: fixed; top: 5vh; left: 40vw;"">
            <div style=""margin:0 auto; width: 20vw; top: 8vh; font-size: 2vw""> 
            <font color=""green""> Bonus : $9.9 </font>
            </div>
        </div>
    
            <div> Please press any key to continue to the next image.</div>
        "," ","ITI","","","","","","",""
"","","","","","html-keyboard-response","82","129459","0.0-7.5-1.5","601a76dd9b6a55296ac06a4f","655cb802637e0dbe2941dbc4","655cb8c91b22e5364c22d660","null","
        
        <div style=""text-align: center; position: fixed; top: 5vh; left: 40vw;"">
            <div style=""margin:0 auto; width: 20vw; top: 8vh; font-size: 2vw""> 
            <font color=""green""> Bonus : $9.9 </font>
            </div>
        </div>
    
        <img class=""stim"" src=./stimuli//pack_shapes_diff/cat_2/diff_1/ex_2_1_15.png></img>
    ","null","stimulus","","","","","","",""
"","","","","","html-keyboard-response","83","130472","0.0-7.5-2.5","601a76dd9b6a55296ac06a4f","655cb802637e0dbe2941dbc4","655cb8c91b22e5364c22d660","null","
        <div style=""text-align: center; position: fixed; top: 5vh; left: 40vw;"">
            <div style=""margin:0 auto; width: 20vw; top: 8vh; font-size: 2vw""> 
            <font color=""green""> Bonus : $9.9 </font>
            </div>
        </div>
    ","null","","","","","","","",""
"","","","","","html-keyboard-response","84","131192","0.0-7.5-3.5","601a76dd9b6a55296ac06a4f","655cb802637e0dbe2941dbc4","655cb8c91b22e5364c22d660","718","./stimuli//pack_shapes_diff/cat_2/diff_1/ex_2_1_15.png","arrowleft","response","ArrowRight","15","2","1","test","false",""
"","","","","","html-keyboard-response","85","132693","0.0-7.5-4.5","601a76dd9b6a55296ac06a4f","655cb802637e0dbe2941dbc4","655cb8c91b22e5364c22d660","null","<p> <font size=""4vw""> Wrong category! </font> <br> <br> <font color=""red"" size=""7vw""> - $0.05 points </font> </p>","null","feedback","","","","","","","9.85"
"","","","","","html-keyboard-response","86","133268","0.0-7.6-0.6","601a76dd9b6a55296ac06a4f","655cb802637e0dbe2941dbc4","655cb8c91b22e5364c22d660","573","
            
        <div style=""text-align: center; position: fixed; top: 5vh; left: 40vw;"">
            <div style=""margin:0 auto; width: 20vw; top: 8vh; font-size: 2vw""> 
            <font color=""green""> Bonus : $9.85 </font>
            </div>
        </div>
    
            <div> Please press any key to continue to the next image.</div>
        "," ","ITI","","","","","","",""
"","","","","","html-keyboard-response","87","133881","0.0-7.6-1.6","601a76dd9b6a55296ac06a4f","655cb802637e0dbe2941dbc4","655cb8c91b22e5364c22d660","null","
        
        <div style=""text-align: center; position: fixed; top: 5vh; left: 40vw;"">
            <div style=""margin:0 auto; width: 20vw; top: 8vh; font-size: 2vw""> 
            <font color=""green""> Bonus : $9.85 </font>
            </div>
        </div>
    
        <img class=""stim"" src=./stimuli//pack_shapes_diff/cat_2/diff_1/ex_2_1_3.png></img>
    ","null","stimulus","","","","","","",""
"","","","","","html-keyboard-response","88","134896","0.0-7.6-2.6","601a76dd9b6a55296ac06a4f","655cb802637e0dbe2941dbc4","655cb8c91b22e5364c22d660","null","
        <div style=""text-align: center; position: fixed; top: 5vh; left: 40vw;"">
            <div style=""margin:0 auto; width: 20vw; top: 8vh; font-size: 2vw""> 
            <font color=""green""> Bonus : $9.85 </font>
            </div>
        </div>
    ","null","","","","","","","",""
"","","","","","html-keyboard-response","89","135075","0.0-7.6-3.6","601a76dd9b6a55296ac06a4f","655cb802637e0dbe2941dbc4","655cb8c91b22e5364c22d660","178","./stimuli//pack_shapes_diff/cat_2/diff_1/ex_2_1_3.png","arrowright","response","ArrowRight","3","2","1","test","true",""
"","","","","","html-keyboard-response","90","136587","0.0-7.6-4.6","601a76dd9b6a55296ac06a4f","655cb802637e0dbe2941dbc4","655cb8c91b22e5364c22d660","null","<p> <font color=""green"" size=""5vw""> Correct category! </font></p>","null","feedback","","","","","","","9.85"
"","","","","","html-keyboard-response","91","137121","0.0-7.7-0.7","601a76dd9b6a55296ac06a4f","655cb802637e0dbe2941dbc4","655cb8c91b22e5364c22d660","533","
            
        <div style=""text-align: center; position: fixed; top: 5vh; left: 40vw;"">
            <div style=""margin:0 auto; width: 20vw; top: 8vh; font-size: 2vw""> 
            <font color=""green""> Bonus : $9.85 </font>
            </div>
        </div>
    
            <div> Please press any key to continue to the next image.</div>
        "," ","ITI","","","","","","",""
"","","","","","html-keyboard-response","92","137730","0.0-7.7-1.7","601a76dd9b6a55296ac06a4f","655cb802637e0dbe2941dbc4","655cb8c91b22e5364c22d660","null","
        
        <div style=""text-align: center; position: fixed; top: 5vh; left: 40vw;"">
            <div style=""margin:0 auto; width: 20vw; top: 8vh; font-size: 2vw""> 
            <font color=""green""> Bonus : $9.85 </font>
            </div>
        </div>
    
        <img class=""stim"" src=./stimuli//pack_shapes_diff/cat_1/diff_2/ex_1_2_15.png></img>
    ","null","stimulus","","","","","","",""
"","","","","","html-keyboard-response","93","138738","0.0-7.7-2.7","601a76dd9b6a55296ac06a4f","655cb802637e0dbe2941dbc4","655cb8c91b22e5364c22d660","null","
        <div style=""text-align: center; position: fixed; top: 5vh; left: 40vw;"">
            <div style=""margin:0 auto; width: 20vw; top: 8vh; font-size: 2vw""> 
            <font color=""green""> Bonus : $9.85 </font>
            </div>
        </div>
    ","null","","","","","","","",""
"","","","","","html-keyboard-response","94","140148","0.0-7.7-3.7","601a76dd9b6a55296ac06a4f","655cb802637e0dbe2941dbc4","655cb8c91b22e5364c22d660","1409","./stimuli//pack_shapes_diff/cat_1/diff_2/ex_1_2_15.png","arrowright","response","ArrowLeft","15","1","2","test","false",""
"","","","","","html-keyboard-response","95","141651","0.0-7.7-4.7","601a76dd9b6a55296ac06a4f","655cb802637e0dbe2941dbc4","655cb8c91b22e5364c22d660","null","<p> <font size=""4vw""> Wrong category! </font> <br> <br> <font color=""red"" size=""7vw""> - $0.05 points </font> </p>","null","feedback","","","","","","","9.8"
"","","","","","html-keyboard-response","96","142608","0.0-7.8-0.8","601a76dd9b6a55296ac06a4f","655cb802637e0dbe2941dbc4","655cb8c91b22e5364c22d660","955","
            
        <div style=""text-align: center; position: fixed; top: 5vh; left: 40vw;"">
            <div style=""margin:0 auto; width: 20vw; top: 8vh; font-size: 2vw""> 
            <font color=""green""> Bonus : $9.8 </font>
            </div>
        </div>
    
            <div> Please press any key to continue to the next image.</div>
        "," ","ITI","","","","","","",""
"","","","","","html-keyboard-response","97","143220","0.0-7.8-1.8","601a76dd9b6a55296ac06a4f","655cb802637e0dbe2941dbc4","655cb8c91b22e5364c22d660","null","
        
        <div style=""text-align: center; position: fixed; top: 5vh; left: 40vw;"">
            <div style=""margin:0 auto; width: 20vw; top: 8vh; font-size: 2vw""> 
            <font color=""green""> Bonus : $9.8 </font>
            </div>
        </div>
    
        <img class=""stim"" src=./stimuli//pack_shapes_diff/cat_1/diff_2/ex_1_2_2.png></img>
    ","null","stimulus","","","","","","",""
"","","","","","html-keyboard-response","98","144236","0.0-7.8-2.8","601a76dd9b6a55296ac06a4f","655cb802637e0dbe2941dbc4","655cb8c91b22e5364c22d660","null","
        <div style=""text-align: center; position: fixed; top: 5vh; left: 40vw;"">
            <div style=""margin:0 auto; width: 20vw; top: 8vh; font-size: 2vw""> 
            <font color=""green""> Bonus : $9.8 </font>
            </div>
        </div>
    ","null","","","","","","","",""
"","","","","","html-keyboard-response","99","144414","0.0-7.8-3.8","601a76dd9b6a55296ac06a4f","655cb802637e0dbe2941dbc4","655cb8c91b22e5364c22d660","177","./stimuli//pack_shapes_diff/cat_1/diff_2/ex_1_2_2.png","arrowright","response","ArrowLeft","2","1","2","test","false",""
"","","","","","html-keyboard-response","100","145921","0.0-7.8-4.8","601a76dd9b6a55296ac06a4f","655cb802637e0dbe2941dbc4","655cb8c91b22e5364c22d660","null","<p> <font size=""4vw""> Wrong category! </font> <br> <br> <font color=""red"" size=""7vw""> - $0.05 points </font> </p>","null","feedback","","","","","","","9.75"
"","","","","","html-keyboard-response","101","146673","0.0-7.9-0.9","601a76dd9b6a55296ac06a4f","655cb802637e0dbe2941dbc4","655cb8c91b22e5364c22d660","751","
            
        <div style=""text-align: center; position: fixed; top: 5vh; left: 40vw;"">
            <div style=""margin:0 auto; width: 20vw; top: 8vh; font-size: 2vw""> 
            <font color=""green""> Bonus : $9.75 </font>
            </div>
        </div>
    
            <div> Please press any key to continue to the next image.</div>
        "," ","ITI","","","","","","",""
"","","","","","html-keyboard-response","102","147277","0.0-7.9-1.9","601a76dd9b6a55296ac06a4f","655cb802637e0dbe2941dbc4","655cb8c91b22e5364c22d660","null","
        
        <div style=""text-align: center; position: fixed; top: 5vh; left: 40vw;"">
            <div style=""margin:0 auto; width: 20vw; top: 8vh; font-size: 2vw""> 
            <font color=""green""> Bonus : $9.75 </font>
            </div>
        </div>
    
        <img class=""stim"" src=./stimuli//pack_shapes_diff/cat_2/diff_2/ex_2_2_17.png></img>
    ","null","stimulus","","","","","","",""
"","","","","","html-keyboard-response","103","148289","0.0-7.9-2.9","601a76dd9b6a55296ac06a4f","655cb802637e0dbe2941dbc4","655cb8c91b22e5364c22d660","null","
        <div style=""text-align: center; position: fixed; top: 5vh; left: 40vw;"">
            <div style=""margin:0 auto; width: 20vw; top: 8vh; font-size: 2vw""> 
            <font color=""green""> Bonus : $9.75 </font>
            </div>
        </div>
    ","null","","","","","","","",""
"","","","","","html-keyboard-response","104","149027","0.0-7.9-3.9","601a76dd9b6a55296ac06a4f","655cb802637e0dbe2941dbc4","655cb8c91b22e5364c22d660","737","./stimuli//pack_shapes_diff/cat_2/diff_2/ex_2_2_17.png","arrowleft","response","ArrowRight","17","2","2","test","false",""
"","","","","","html-keyboard-response","105","150530","0.0-7.9-4.9","601a76dd9b6a55296ac06a4f","655cb802637e0dbe2941dbc4","655cb8c91b22e5364c22d660","null","<p> <font size=""4vw""> Wrong category! </font> <br> <br> <font color=""red"" size=""7vw""> - $0.05 points </font> </p>","null","feedback","","","","","","","9.7"
"","","","","","html-keyboard-response","106","151240","0.0-7.10-0.10","601a76dd9b6a55296ac06a4f","655cb802637e0dbe2941dbc4","655cb8c91b22e5364c22d660","708","
            
        <div style=""text-align: center; position: fixed; top: 5vh; left: 40vw;"">
            <div style=""margin:0 auto; width: 20vw; top: 8vh; font-size: 2vw""> 
            <font color=""green""> Bonus : $9.7 </font>
            </div>
        </div>
    
            <div> Please press any key to continue to the next image.</div>
        "," ","ITI","","","","","","",""
"","","","","","html-keyboard-response","107","151853","0.0-7.10-1.10","601a76dd9b6a55296ac06a4f","655cb802637e0dbe2941dbc4","655cb8c91b22e5364c22d660","null","
        
        <div style=""text-align: center; position: fixed; top: 5vh; left: 40vw;"">
            <div style=""margin:0 auto; width: 20vw; top: 8vh; font-size: 2vw""> 
            <font color=""green""> Bonus : $9.7 </font>
            </div>
        </div>
    
        <img class=""stim"" src=./stimuli//pack_shapes_diff/cat_2/diff_2/ex_2_2_11.png></img>
    ","null","stimulus","","","","","","",""
"","","","","","html-keyboard-response","108","152861","0.0-7.10-2.10","601a76dd9b6a55296ac06a4f","655cb802637e0dbe2941dbc4","655cb8c91b22e5364c22d660","null","
        <div style=""text-align: center; position: fixed; top: 5vh; left: 40vw;"">
            <div style=""margin:0 auto; width: 20vw; top: 8vh; font-size: 2vw""> 
            <font color=""green""> Bonus : $9.7 </font>
            </div>
        </div>
    ","null","","","","","","","",""
"","","","","","html-keyboard-response","109","153354","0.0-7.10-3.10","601a76dd9b6a55296ac06a4f","655cb802637e0dbe2941dbc4","655cb8c91b22e5364c22d660","491","./stimuli//pack_shapes_diff/cat_2/diff_2/ex_2_2_11.png","arrowright","response","ArrowRight","11","2","2","test","true",""
"","","","","","html-keyboard-response","110","154861","0.0-7.10-4.10","601a76dd9b6a55296ac06a4f","655cb802637e0dbe2941dbc4","655cb8c91b22e5364c22d660","null","<p> <font color=""green"" size=""5vw""> Correct category! </font></p>","null","feedback","","","","","","","9.7"
"","","","","","html-keyboard-response","111","155552","0.0-7.11-0.11","601a76dd9b6a55296ac06a4f","655cb802637e0dbe2941dbc4","655cb8c91b22e5364c22d660","690","
            
        <div style=""text-align: center; position: fixed; top: 5vh; left: 40vw;"">
            <div style=""margin:0 auto; width: 20vw; top: 8vh; font-size: 2vw""> 
            <font color=""green""> Bonus : $9.7 </font>
            </div>
        </div>
    
            <div> Please press any key to continue to the next image.</div>
        "," ","ITI","","","","","","",""
"","","","","","html-keyboard-response","112","156167","0.0-7.11-1.11","601a76dd9b6a55296ac06a4f","655cb802637e0dbe2941dbc4","655cb8c91b22e5364c22d660","null","
        
        <div style=""text-align: center; position: fixed; top: 5vh; left: 40vw;"">
            <div style=""margin:0 auto; width: 20vw; top: 8vh; font-size: 2vw""> 
            <font color=""green""> Bonus : $9.7 </font>
            </div>
        </div>
    
        <img class=""stim"" src=./stimuli//pack_shapes_diff/cat_2/diff_2/ex_2_2_10.png></img>
    ","null","stimulus","","","","","","",""
"","","","","","html-keyboard-response","113","157171","0.0-7.11-2.11","601a76dd9b6a55296ac06a4f","655cb802637e0dbe2941dbc4","655cb8c91b22e5364c22d660","null","
        <div style=""text-align: center; position: fixed; top: 5vh; left: 40vw;"">
            <div style=""margin:0 auto; width: 20vw; top: 8vh; font-size: 2vw""> 
            <font color=""green""> Bonus : $9.7 </font>
            </div>
        </div>
    ","null","","","","","","","",""
"","","","","","html-keyboard-response","114","157509","0.0-7.11-3.11","601a76dd9b6a55296ac06a4f","655cb802637e0dbe2941dbc4","655cb8c91b22e5364c22d660","337","./stimuli//pack_shapes_diff/cat_2/diff_2/ex_2_2_10.png","arrowright","response","ArrowRight","10","2","2","test","true",""
"","","","","","html-keyboard-response","115","159022","0.0-7.11-4.11","601a76dd9b6a55296ac06a4f","655cb802637e0dbe2941dbc4","655cb8c91b22e5364c22d660","null","<p> <font color=""green"" size=""5vw""> Correct category! </font></p>","null","feedback","","","","","","","9.7"
"","","","","","html-keyboard-response","116","159940","0.0-7.12-0.12","601a76dd9b6a55296ac06a4f","655cb802637e0dbe2941dbc4","655cb8c91b22e5364c22d660","917","
            
        <div style=""text-align: center; position: fixed; top: 5vh; left: 40vw;"">
            <div style=""margin:0 auto; width: 20vw; top: 8vh; font-size: 2vw""> 
            <font color=""green""> Bonus : $9.7 </font>
            </div>
        </div>
    
            <div> Please press any key to continue to the next image.</div>
        "," ","ITI","","","","","","",""
"","","","","","html-keyboard-response","117","160544","0.0-7.12-1.12","601a76dd9b6a55296ac06a4f","655cb802637e0dbe2941dbc4","655cb8c91b22e5364c22d660","null","
        
        <div style=""text-align: center; position: fixed; top: 5vh; left: 40vw;"">
            <div style=""margin:0 auto; width: 20vw; top: 8vh; font-size: 2vw""> 
            <font color=""green""> Bonus : $9.7 </font>
            </div>
        </div>
    
        <img class=""stim"" src=./stimuli//pack_shapes_diff/cat_1/diff_1/ex_1_1_7.png></img>
    ","null","stimulus","","","","","","",""
"","","","","","html-keyboard-response","118","161554","0.0-7.12-2.12","601a76dd9b6a55296ac06a4f","655cb802637e0dbe2941dbc4","655cb8c91b22e5364c22d660","null","
        <div style=""text-align: center; position: fixed; top: 5vh; left: 40vw;"">
            <div style=""margin:0 auto; width: 20vw; top: 8vh; font-size: 2vw""> 
            <font color=""green""> Bonus : $9.7 </font>
            </div>
        </div>
    ","null","","","","","","","",""
"","","","","","html-keyboard-response","119","162443","0.0-7.12-3.12","601a76dd9b6a55296ac06a4f","655cb802637e0dbe2941dbc4","655cb8c91b22e5364c22d660","888","./stimuli//pack_shapes_diff/cat_1/diff_1/ex_1_1_7.png","arrowright","response","ArrowLeft","7","1","1","test","false",""
"","","","","","html-keyboard-response","120","163952","0.0-7.12-4.12","601a76dd9b6a55296ac06a4f","655cb802637e0dbe2941dbc4","655cb8c91b22e5364c22d660","null","<p> <font size=""4vw""> Wrong category! </font> <br> <br> <font color=""red"" size=""7vw""> - $0.05 points </font> </p>","null","feedback","","","","","","","9.65"
"","","","","","html-keyboard-response","121","164825","0.0-7.13-0.13","601a76dd9b6a55296ac06a4f","655cb802637e0dbe2941dbc4","655cb8c91b22e5364c22d660","871","
            
        <div style=""text-align: center; position: fixed; top: 5vh; left: 40vw;"">
            <div style=""margin:0 auto; width: 20vw; top: 8vh; font-size: 2vw""> 
            <font color=""green""> Bonus : $9.65 </font>
            </div>
        </div>
    
            <div> Please press any key to continue to the next image.</div>
        "," ","ITI","","","","","","",""
"","","","","","html-keyboard-response","122","165435","0.0-7.13-1.13","601a76dd9b6a55296ac06a4f","655cb802637e0dbe2941dbc4","655cb8c91b22e5364c22d660","null","
        
        <div style=""text-align: center; position: fixed; top: 5vh; left: 40vw;"">
            <div style=""margin:0 auto; width: 20vw; top: 8vh; font-size: 2vw""> 
            <font color=""green""> Bonus : $9.65 </font>
            </div>
        </div>
    
        <img class=""stim"" src=./stimuli//pack_shapes_diff/cat_1/diff_1/ex_1_1_9.png></img>
    ","null","stimulus","","","","","","",""
"","","","","","html-keyboard-response","123","166451","0.0-7.13-2.13","601a76dd9b6a55296ac06a4f","655cb802637e0dbe2941dbc4","655cb8c91b22e5364c22d660","null","
        <div style=""text-align: center; position: fixed; top: 5vh; left: 40vw;"">
            <div style=""margin:0 auto; width: 20vw; top: 8vh; font-size: 2vw""> 
            <font color=""green""> Bonus : $9.65 </font>
            </div>
        </div>
    ","null","","","","","","","",""
"","","","","","html-keyboard-response","124","166898","0.0-7.13-3.13","601a76dd9b6a55296ac06a4f","655cb802637e0dbe2941dbc4","655cb8c91b22e5364c22d660","446","./stimuli//pack_shapes_diff/cat_1/diff_1/ex_1_1_9.png","arrowright","response","ArrowLeft","9","1","1","test","false",""
"","","","","","html-keyboard-response","125","168357","0.0-7.13-4.13","601a76dd9b6a55296ac06a4f","655cb802637e0dbe2941dbc4","655cb8c91b22e5364c22d660","1457","<p> <font size=""4vw""> Wrong category! </font> <br> <br> <font color=""red"" size=""7vw""> - $0.05 points </font> </p>"," ","feedback","","","","","","","9.6"
"","","","","","html-keyboard-response","126","169350","0.0-7.14-0.14","601a76dd9b6a55296ac06a4f","655cb802637e0dbe2941dbc4","655cb8c91b22e5364c22d660","982","
            
        <div style=""text-align: center; position: fixed; top: 5vh; left: 40vw;"">
            <div style=""margin:0 auto; width: 20vw; top: 8vh; font-size: 2vw""> 
            <font color=""green""> Bonus : $9.6 </font>
            </div>
        </div>
    
            <div> Please press any key to continue to the next image.</div>
        "," ","ITI","","","","","","",""
"","","","","","html-keyboard-response","127","169959","0.0-7.14-1.14","601a76dd9b6a55296ac06a4f","655cb802637e0dbe2941dbc4","655cb8c91b22e5364c22d660","null","
        
        <div style=""text-align: center; position: fixed; top: 5vh; left: 40vw;"">
            <div style=""margin:0 auto; width: 20vw; top: 8vh; font-size: 2vw""> 
            <font color=""green""> Bonus : $9.6 </font>
            </div>
        </div>
    
        <img class=""stim"" src=./stimuli//pack_shapes_diff/cat_1/diff_1/ex_1_1_10.png></img>
    ","null","stimulus","","","","","","",""
"","","","","","html-keyboard-response","128","170968","0.0-7.14-2.14","601a76dd9b6a55296ac06a4f","655cb802637e0dbe2941dbc4","655cb8c91b22e5364c22d660","null","
        <div style=""text-align: center; position: fixed; top: 5vh; left: 40vw;"">
            <div style=""margin:0 auto; width: 20vw; top: 8vh; font-size: 2vw""> 
            <font color=""green""> Bonus : $9.6 </font>
            </div>
        </div>
    ","null","","","","","","","",""
"","","","","","html-keyboard-response","129","171383","0.0-7.14-3.14","601a76dd9b6a55296ac06a4f","655cb802637e0dbe2941dbc4","655cb8c91b22e5364c22d660","414","./stimuli//pack_shapes_diff/cat_1/diff_1/ex_1_1_10.png","arrowleft","response","ArrowLeft","10","1","1","test","true",""
"","","","","","html-keyboard-response","130","172887","0.0-7.14-4.14","601a76dd9b6a55296ac06a4f","655cb802637e0dbe2941dbc4","655cb8c91b22e5364c22d660","null","<p> <font color=""green"" size=""5vw""> Correct category! </font></p>","null","feedback","","","","","","","9.6"
"","","","","","html-keyboard-response","131","173513","0.0-7.15-0.15","601a76dd9b6a55296ac06a4f","655cb802637e0dbe2941dbc4","655cb8c91b22e5364c22d660","625","
            
        <div style=""text-align: center; position: fixed; top: 5vh; left: 40vw;"">
            <div style=""margin:0 auto; width: 20vw; top: 8vh; font-size: 2vw""> 
            <font color=""green""> Bonus : $9.6 </font>
            </div>
        </div>
    
            <div> Please press any key to continue to the next image.</div>
        "," ","ITI","","","","","","",""
"","","","","","html-keyboard-response","132","174115","0.0-7.15-1.15","601a76dd9b6a55296ac06a4f","655cb802637e0dbe2941dbc4","655cb8c91b22e5364c22d660","null","
        
        <div style=""text-align: center; position: fixed; top: 5vh; left: 40vw;"">
            <div style=""margin:0 auto; width: 20vw; top: 8vh; font-size: 2vw""> 
            <font color=""green""> Bonus : $9.6 </font>
            </div>
        </div>
    
        <img class=""stim"" src=./stimuli//pack_shapes_diff/cat_2/diff_1/ex_2_1_6.png></img>
    ","null","stimulus","","","","","","",""
"","","","","","html-keyboard-response","133","175120","0.0-7.15-2.15","601a76dd9b6a55296ac06a4f","655cb802637e0dbe2941dbc4","655cb8c91b22e5364c22d660","null","
        <div style=""text-align: center; position: fixed; top: 5vh; left: 40vw;"">
            <div style=""margin:0 auto; width: 20vw; top: 8vh; font-size: 2vw""> 
            <font color=""green""> Bonus : $9.6 </font>
            </div>
        </div>
    ","null","","","","","","","",""
"","","","","","html-keyboard-response","134","175847","0.0-7.15-3.15","601a76dd9b6a55296ac06a4f","655cb802637e0dbe2941dbc4","655cb8c91b22e5364c22d660","725","./stimuli//pack_shapes_diff/cat_2/diff_1/ex_2_1_6.png","arrowleft","response","ArrowRight","6","2","1","test","false",""
"","","","","","html-keyboard-response","135","177358","0.0-7.15-4.15","601a76dd9b6a55296ac06a4f","655cb802637e0dbe2941dbc4","655cb8c91b22e5364c22d660","null","<p> <font size=""4vw""> Wrong category! </font> <br> <br> <font color=""red"" size=""7vw""> - $0.05 points </font> </p>","null","feedback","","","","","","","9.55"
"","","","","","html-keyboard-response","136","177774","0.0-7.16-0.16","601a76dd9b6a55296ac06a4f","655cb802637e0dbe2941dbc4","655cb8c91b22e5364c22d660","415","
            
        <div style=""text-align: center; position: fixed; top: 5vh; left: 40vw;"">
            <div style=""margin:0 auto; width: 20vw; top: 8vh; font-size: 2vw""> 
            <font color=""green""> Bonus : $9.55 </font>
            </div>
        </div>
    
            <div> Please press any key to continue to the next image.</div>
        "," ","ITI","","","","","","",""
"","","","","","html-keyboard-response","137","178380","0.0-7.16-1.16","601a76dd9b6a55296ac06a4f","655cb802637e0dbe2941dbc4","655cb8c91b22e5364c22d660","null","
        
        <div style=""text-align: center; position: fixed; top: 5vh; left: 40vw;"">
            <div style=""margin:0 auto; width: 20vw; top: 8vh; font-size: 2vw""> 
            <font color=""green""> Bonus : $9.55 </font>
            </div>
        </div>
    
        <img class=""stim"" src=./stimuli//pack_shapes_diff/cat_2/diff_1/ex_2_1_2.png></img>
    ","null","stimulus","","","","","","",""
"","","","","","html-keyboard-response","138","179389","0.0-7.16-2.16","601a76dd9b6a55296ac06a4f","655cb802637e0dbe2941dbc4","655cb8c91b22e5364c22d660","null","
        <div style=""text-align: center; position: fixed; top: 5vh; left: 40vw;"">
            <div style=""margin:0 auto; width: 20vw; top: 8vh; font-size: 2vw""> 
            <font color=""green""> Bonus : $9.55 </font>
            </div>
        </div>
    ","null","","","","","","","",""
"","","","","","html-keyboard-response","139","180049","0.0-7.16-3.16","601a76dd9b6a55296ac06a4f","655cb802637e0dbe2941dbc4","655cb8c91b22e5364c22d660","659","./stimuli//pack_shapes_diff/cat_2/diff_1/ex_2_1_2.png","arrowright","response","ArrowRight","2","2","1","test","true",""
"","","","","","html-keyboard-response","140","181563","0.0-7.16-4.16","601a76dd9b6a55296ac06a4f","655cb802637e0dbe2941dbc4","655cb8c91b22e5364c22d660","null","<p> <font color=""green"" size=""5vw""> Correct category! </font></p>","null","feedback","","","","","","","9.55"
"","","","","","html-keyboard-response","141","181956","0.0-7.17-0.17","601a76dd9b6a55296ac06a4f","655cb802637e0dbe2941dbc4","655cb8c91b22e5364c22d660","392","
            
        <div style=""text-align: center; position: fixed; top: 5vh; left: 40vw;"">
            <div style=""margin:0 auto; width: 20vw; top: 8vh; font-size: 2vw""> 
            <font color=""green""> Bonus : $9.55 </font>
            </div>
        </div>
    
            <div> Please press any key to continue to the next image.</div>
        "," ","ITI","","","","","","",""
"","","","","","html-keyboard-response","142","182564","0.0-7.17-1.17","601a76dd9b6a55296ac06a4f","655cb802637e0dbe2941dbc4","655cb8c91b22e5364c22d660","null","
        
        <div style=""text-align: center; position: fixed; top: 5vh; left: 40vw;"">
            <div style=""margin:0 auto; width: 20vw; top: 8vh; font-size: 2vw""> 
            <font color=""green""> Bonus : $9.55 </font>
            </div>
        </div>
    
        <img class=""stim"" src=./stimuli//pack_shapes_diff/cat_2/diff_1/ex_2_1_5.png></img>
    ","null","stimulus","","","","","","",""
"","","","","","html-keyboard-response","143","183576","0.0-7.17-2.17","601a76dd9b6a55296ac06a4f","655cb802637e0dbe2941dbc4","655cb8c91b22e5364c22d660","null","
        <div style=""text-align: center; position: fixed; top: 5vh; left: 40vw;"">
            <div style=""margin:0 auto; width: 20vw; top: 8vh; font-size: 2vw""> 
            <font color=""green""> Bonus : $9.55 </font>
            </div>
        </div>
    ","null","","","","","","","",""
"","","","","","html-keyboard-response","144","183997","0.0-7.17-3.17","601a76dd9b6a55296ac06a4f","655cb802637e0dbe2941dbc4","655cb8c91b22e5364c22d660","420","./stimuli//pack_shapes_diff/cat_2/diff_1/ex_2_1_5.png","arrowright","response","ArrowRight","5","2","1","test","true",""
"","","","","","html-keyboard-response","145","185512","0.0-7.17-4.17","601a76dd9b6a55296ac06a4f","655cb802637e0dbe2941dbc4","655cb8c91b22e5364c22d660","null","<p> <font color=""green"" size=""5vw""> Correct category! </font></p>","null","feedback","","","","","","","9.55"
"","","","","","html-keyboard-response","146","186056","0.0-7.18-0.18","601a76dd9b6a55296ac06a4f","655cb802637e0dbe2941dbc4","655cb8c91b22e5364c22d660","543","
            
        <div style=""text-align: center; position: fixed; top: 5vh; left: 40vw;"">
            <div style=""margin:0 auto; width: 20vw; top: 8vh; font-size: 2vw""> 
            <font color=""green""> Bonus : $9.55 </font>
            </div>
        </div>
    
            <div> Please press any key to continue to the next image.</div>
        "," ","ITI","","","","","","",""
"","","","","","html-keyboard-response","147","186664","0.0-7.18-1.18","601a76dd9b6a55296ac06a4f","655cb802637e0dbe2941dbc4","655cb8c91b22e5364c22d660","null","
        
        <div style=""text-align: center; position: fixed; top: 5vh; left: 40vw;"">
            <div style=""margin:0 auto; width: 20vw; top: 8vh; font-size: 2vw""> 
            <font color=""green""> Bonus : $9.55 </font>
            </div>
        </div>
    
        <img class=""stim"" src=./stimuli//pack_shapes_diff/cat_1/diff_1/ex_1_1_13.png></img>
    ","null","stimulus","","","","","","",""
"","","","","","html-keyboard-response","148","187666","0.0-7.18-2.18","601a76dd9b6a55296ac06a4f","655cb802637e0dbe2941dbc4","655cb8c91b22e5364c22d660","null","
        <div style=""text-align: center; position: fixed; top: 5vh; left: 40vw;"">
            <div style=""margin:0 auto; width: 20vw; top: 8vh; font-size: 2vw""> 
            <font color=""green""> Bonus : $9.55 </font>
            </div>
        </div>
    ","null","","","","","","","",""
"","","","","","html-keyboard-response","149","188039","0.0-7.18-3.18","601a76dd9b6a55296ac06a4f","655cb802637e0dbe2941dbc4","655cb8c91b22e5364c22d660","372","./stimuli//pack_shapes_diff/cat_1/diff_1/ex_1_1_13.png","arrowleft","response","ArrowLeft","13","1","1","test","true",""
"","","","","","html-keyboard-response","150","189548","0.0-7.18-4.18","601a76dd9b6a55296ac06a4f","655cb802637e0dbe2941dbc4","655cb8c91b22e5364c22d660","null","<p> <font color=""green"" size=""5vw""> Correct category! </font></p>","null","feedback","","","","","","","9.55"
"","","","","","html-keyboard-response","151","190039","0.0-7.19-0.19","601a76dd9b6a55296ac06a4f","655cb802637e0dbe2941dbc4","655cb8c91b22e5364c22d660","490","
            
        <div style=""text-align: center; position: fixed; top: 5vh; left: 40vw;"">
            <div style=""margin:0 auto; width: 20vw; top: 8vh; font-size: 2vw""> 
            <font color=""green""> Bonus : $9.55 </font>
            </div>
        </div>
    
            <div> Please press any key to continue to the next image.</div>
        "," ","ITI","","","","","","",""
"","","","","","html-keyboard-response","152","190654","0.0-7.19-1.19","601a76dd9b6a55296ac06a4f","655cb802637e0dbe2941dbc4","655cb8c91b22e5364c22d660","null","
        
        <div style=""text-align: center; position: fixed; top: 5vh; left: 40vw;"">
            <div style=""margin:0 auto; width: 20vw; top: 8vh; font-size: 2vw""> 
            <font color=""green""> Bonus : $9.55 </font>
            </div>
        </div>
    
        <img class=""stim"" src=./stimuli//pack_shapes_diff/cat_1/diff_2/ex_1_2_9.png></img>
    ","null","stimulus","","","","","","",""
"","","","","","html-keyboard-response","153","191659","0.0-7.19-2.19","601a76dd9b6a55296ac06a4f","655cb802637e0dbe2941dbc4","655cb8c91b22e5364c22d660","null","
        <div style=""text-align: center; position: fixed; top: 5vh; left: 40vw;"">
            <div style=""margin:0 auto; width: 20vw; top: 8vh; font-size: 2vw""> 
            <font color=""green""> Bonus : $9.55 </font>
            </div>
        </div>
    ","null","","","","","","","",""
"","","","","","html-keyboard-response","154","193566","0.0-7.19-3.19","601a76dd9b6a55296ac06a4f","655cb802637e0dbe2941dbc4","655cb8c91b22e5364c22d660","1906","./stimuli//pack_shapes_diff/cat_1/diff_2/ex_1_2_9.png","arrowright","response","ArrowLeft","9","1","2","test","false",""
"","","","","","html-keyboard-response","155","195068","0.0-7.19-4.19","601a76dd9b6a55296ac06a4f","655cb802637e0dbe2941dbc4","655cb8c91b22e5364c22d660","null","<p> <font size=""4vw""> Wrong category! </font> <br> <br> <font color=""red"" size=""7vw""> - $0.05 points </font> </p>","null","feedback","","","","","","","9.5"
"","","","","","html-keyboard-response","156","195596","0.0-7.20-0.20","601a76dd9b6a55296ac06a4f","655cb802637e0dbe2941dbc4","655cb8c91b22e5364c22d660","526","
            
        <div style=""text-align: center; position: fixed; top: 5vh; left: 40vw;"">
            <div style=""margin:0 auto; width: 20vw; top: 8vh; font-size: 2vw""> 
            <font color=""green""> Bonus : $9.5 </font>
            </div>
        </div>
    
            <div> Please press any key to continue to the next image.</div>
        "," ","ITI","","","","","","",""
"","","","","","html-keyboard-response","157","196200","0.0-7.20-1.20","601a76dd9b6a55296ac06a4f","655cb802637e0dbe2941dbc4","655cb8c91b22e5364c22d660","null","
        
        <div style=""text-align: center; position: fixed; top: 5vh; left: 40vw;"">
            <div style=""margin:0 auto; width: 20vw; top: 8vh; font-size: 2vw""> 
            <font color=""green""> Bonus : $9.5 </font>
            </div>
        </div>
    
        <img class=""stim"" src=./stimuli//pack_shapes_diff/cat_1/diff_2/ex_1_2_7.png></img>
    ","null","stimulus","","","","","","",""
"","","","","","html-keyboard-response","158","197217","0.0-7.20-2.20","601a76dd9b6a55296ac06a4f","655cb802637e0dbe2941dbc4","655cb8c91b22e5364c22d660","null","
        <div style=""text-align: center; position: fixed; top: 5vh; left: 40vw;"">
            <div style=""margin:0 auto; width: 20vw; top: 8vh; font-size: 2vw""> 
            <font color=""green""> Bonus : $9.5 </font>
            </div>
        </div>
    ","null","","","","","","","",""
"","","","","","html-keyboard-response","159","197898","0.0-7.20-3.20","601a76dd9b6a55296ac06a4f","655cb802637e0dbe2941dbc4","655cb8c91b22e5364c22d660","680","./stimuli//pack_shapes_diff/cat_1/diff_2/ex_1_2_7.png","arrowleft","response","ArrowLeft","7","1","2","test","true",""
"","","","","","html-keyboard-response","160","199404","0.0-7.20-4.20","601a76dd9b6a55296ac06a4f","655cb802637e0dbe2941dbc4","655cb8c91b22e5364c22d660","null","<p> <font color=""green"" size=""5vw""> Correct category! </font></p>","null","feedback","","","","","","","9.5"
"","","","","","html-keyboard-response","161","200447","0.0-7.21-0.21","601a76dd9b6a55296ac06a4f","655cb802637e0dbe2941dbc4","655cb8c91b22e5364c22d660","1042","
            
        <div style=""text-align: center; position: fixed; top: 5vh; left: 40vw;"">
            <div style=""margin:0 auto; width: 20vw; top: 8vh; font-size: 2vw""> 
            <font color=""green""> Bonus : $9.5 </font>
            </div>
        </div>
    
            <div> Please press any key to continue to the next image.</div>
        "," ","ITI","","","","","","",""
"","","","","","html-keyboard-response","162","201050","0.0-7.21-1.21","601a76dd9b6a55296ac06a4f","655cb802637e0dbe2941dbc4","655cb8c91b22e5364c22d660","null","
        
        <div style=""text-align: center; position: fixed; top: 5vh; left: 40vw;"">
            <div style=""margin:0 auto; width: 20vw; top: 8vh; font-size: 2vw""> 
            <font color=""green""> Bonus : $9.5 </font>
            </div>
        </div>
    
        <img class=""stim"" src=./stimuli//pack_shapes_diff/cat_2/diff_2/ex_2_2_3.png></img>
    ","null","stimulus","","","","","","",""
"","","","","","html-keyboard-response","163","202067","0.0-7.21-2.21","601a76dd9b6a55296ac06a4f","655cb802637e0dbe2941dbc4","655cb8c91b22e5364c22d660","null","
        <div style=""text-align: center; position: fixed; top: 5vh; left: 40vw;"">
            <div style=""margin:0 auto; width: 20vw; top: 8vh; font-size: 2vw""> 
            <font color=""green""> Bonus : $9.5 </font>
            </div>
        </div>
    ","null","","","","","","","",""
"","","","","","html-keyboard-response","164","202480","0.0-7.21-3.21","601a76dd9b6a55296ac06a4f","655cb802637e0dbe2941dbc4","655cb8c91b22e5364c22d660","411","./stimuli//pack_shapes_diff/cat_2/diff_2/ex_2_2_3.png","arrowright","response","ArrowRight","3","2","2","test","true",""
"","","","","","html-keyboard-response","165","203986","0.0-7.21-4.21","601a76dd9b6a55296ac06a4f","655cb802637e0dbe2941dbc4","655cb8c91b22e5364c22d660","null","<p> <font color=""green"" size=""5vw""> Correct category! </font></p>","null","feedback","","","","","","","9.5"
"","","","","","html-keyboard-response","166","204547","0.0-7.22-0.22","601a76dd9b6a55296ac06a4f","655cb802637e0dbe2941dbc4","655cb8c91b22e5364c22d660","560","
            
        <div style=""text-align: center; position: fixed; top: 5vh; left: 40vw;"">
            <div style=""margin:0 auto; width: 20vw; top: 8vh; font-size: 2vw""> 
            <font color=""green""> Bonus : $9.5 </font>
            </div>
        </div>
    
            <div> Please press any key to continue to the next image.</div>
        "," ","ITI","","","","","","",""
"","","","","","html-keyboard-response","167","205153","0.0-7.22-1.22","601a76dd9b6a55296ac06a4f","655cb802637e0dbe2941dbc4","655cb8c91b22e5364c22d660","null","
        
        <div style=""text-align: center; position: fixed; top: 5vh; left: 40vw;"">
            <div style=""margin:0 auto; width: 20vw; top: 8vh; font-size: 2vw""> 
            <font color=""green""> Bonus : $9.5 </font>
            </div>
        </div>
    
        <img class=""stim"" src=./stimuli//pack_shapes_diff/cat_2/diff_2/ex_2_2_13.png></img>
    ","null","stimulus","","","","","","",""
"","","","","","html-keyboard-response","168","206162","0.0-7.22-2.22","601a76dd9b6a55296ac06a4f","655cb802637e0dbe2941dbc4","655cb8c91b22e5364c22d660","null","
        <div style=""text-align: center; position: fixed; top: 5vh; left: 40vw;"">
            <div style=""margin:0 auto; width: 20vw; top: 8vh; font-size: 2vw""> 
            <font color=""green""> Bonus : $9.5 </font>
            </div>
        </div>
    ","null","","","","","","","",""
"","","","","","html-keyboard-response","169","207784","0.0-7.22-3.22","601a76dd9b6a55296ac06a4f","655cb802637e0dbe2941dbc4","655cb8c91b22e5364c22d660","1621","./stimuli//pack_shapes_diff/cat_2/diff_2/ex_2_2_13.png","arrowright","response","ArrowRight","13","2","2","test","true",""
"","","","","","html-keyboard-response","170","209298","0.0-7.22-4.22","601a76dd9b6a55296ac06a4f","655cb802637e0dbe2941dbc4","655cb8c91b22e5364c22d660","null","<p> <font color=""green"" size=""5vw""> Correct category! </font></p>","null","feedback","","","","","","","9.5"
"","","","","","html-keyboard-response","171","210024","0.0-7.23-0.23","601a76dd9b6a55296ac06a4f","655cb802637e0dbe2941dbc4","655cb8c91b22e5364c22d660","724","
            
        <div style=""text-align: center; position: fixed; top: 5vh; left: 40vw;"">
            <div style=""margin:0 auto; width: 20vw; top: 8vh; font-size: 2vw""> 
            <font color=""green""> Bonus : $9.5 </font>
            </div>
        </div>
    
            <div> Please press any key to continue to the next image.</div>
        "," ","ITI","","","","","","",""
"","","","","","html-keyboard-response","172","210637","0.0-7.23-1.23","601a76dd9b6a55296ac06a4f","655cb802637e0dbe2941dbc4","655cb8c91b22e5364c22d660","null","
        
        <div style=""text-align: center; position: fixed; top: 5vh; left: 40vw;"">
            <div style=""margin:0 auto; width: 20vw; top: 8vh; font-size: 2vw""> 
            <font color=""green""> Bonus : $9.5 </font>
            </div>
        </div>
    
        <img class=""stim"" src=./stimuli//pack_shapes_diff/cat_2/diff_2/ex_2_2_8.png></img>
    ","null","stimulus","","","","","","",""
"","","","","","html-keyboard-response","173","211643","0.0-7.23-2.23","601a76dd9b6a55296ac06a4f","655cb802637e0dbe2941dbc4","655cb8c91b22e5364c22d660","null","
        <div style=""text-align: center; position: fixed; top: 5vh; left: 40vw;"">
            <div style=""margin:0 auto; width: 20vw; top: 8vh; font-size: 2vw""> 
            <font color=""green""> Bonus : $9.5 </font>
            </div>
        </div>
    ","null","","","","","","","",""
"","","","","","html-keyboard-response","174","212419","0.0-7.23-3.23","601a76dd9b6a55296ac06a4f","655cb802637e0dbe2941dbc4","655cb8c91b22e5364c22d660","774","./stimuli//pack_shapes_diff/cat_2/diff_2/ex_2_2_8.png","arrowleft","response","ArrowRight","8","2","2","test","false",""
"","","","","","html-keyboard-response","175","213921","0.0-7.23-4.23","601a76dd9b6a55296ac06a4f","655cb802637e0dbe2941dbc4","655cb8c91b22e5364c22d660","null","<p> <font size=""4vw""> Wrong category! </font> <br> <br> <font color=""red"" size=""7vw""> - $0.05 points </font> </p>","null","feedback","","","","","","","9.45"
"","","","","","html-keyboard-response","176","214639","0.0-7.24-0.24","601a76dd9b6a55296ac06a4f","655cb802637e0dbe2941dbc4","655cb8c91b22e5364c22d660","716","
            
        <div style=""text-align: center; position: fixed; top: 5vh; left: 40vw;"">
            <div style=""margin:0 auto; width: 20vw; top: 8vh; font-size: 2vw""> 
            <font color=""green""> Bonus : $9.45 </font>
            </div>
        </div>
    
            <div> Please press any key to continue to the next image.</div>
        "," ","ITI","","","","","","",""
"","","","","","html-keyboard-response","177","215256","0.0-7.24-1.24","601a76dd9b6a55296ac06a4f","655cb802637e0dbe2941dbc4","655cb8c91b22e5364c22d660","null","
        
        <div style=""text-align: center; position: fixed; top: 5vh; left: 40vw;"">
            <div style=""margin:0 auto; width: 20vw; top: 8vh; font-size: 2vw""> 
            <font color=""green""> Bonus : $9.45 </font>
            </div>
        </div>
    
        <img class=""stim"" src=./stimuli//pack_shapes_diff/cat_2/diff_1/ex_2_1_1.png></img>
    ","null","stimulus","","","","","","",""
"","","","","","html-keyboard-response","178","216269","0.0-7.24-2.24","601a76dd9b6a55296ac06a4f","655cb802637e0dbe2941dbc4","655cb8c91b22e5364c22d660","null","
        <div style=""text-align: center; position: fixed; top: 5vh; left: 40vw;"">
            <div style=""margin:0 auto; width: 20vw; top: 8vh; font-size: 2vw""> 
            <font color=""green""> Bonus : $9.45 </font>
            </div>
        </div>
    ","null","","","","","","","",""
"","","","","","html-keyboard-response","179","217073","0.0-7.24-3.24","601a76dd9b6a55296ac06a4f","655cb802637e0dbe2941dbc4","655cb8c91b22e5364c22d660","803","./stimuli//pack_shapes_diff/cat_2/diff_1/ex_2_1_1.png","arrowright","response","ArrowRight","1","2","1","test","true",""
"","","","","","html-keyboard-response","180","218580","0.0-7.24-4.24","601a76dd9b6a55296ac06a4f","655cb802637e0dbe2941dbc4","655cb8c91b22e5364c22d660","null","<p> <font color=""green"" size=""5vw""> Correct category! </font></p>","null","feedback","","","","","","","9.45"
"","","","","","html-keyboard-response","181","219104","0.0-7.25-0.25","601a76dd9b6a55296ac06a4f","655cb802637e0dbe2941dbc4","655cb8c91b22e5364c22d660","522","
            
        <div style=""text-align: center; position: fixed; top: 5vh; left: 40vw;"">
            <div style=""margin:0 auto; width: 20vw; top: 8vh; font-size: 2vw""> 
            <font color=""green""> Bonus : $9.45 </font>
            </div>
        </div>
    
            <div> Please press any key to continue to the next image.</div>
        "," ","ITI","","","","","","",""
"","","","","","html-keyboard-response","182","219717","0.0-7.25-1.25","601a76dd9b6a55296ac06a4f","655cb802637e0dbe2941dbc4","655cb8c91b22e5364c22d660","null","
        
        <div style=""text-align: center; position: fixed; top: 5vh; left: 40vw;"">
            <div style=""margin:0 auto; width: 20vw; top: 8vh; font-size: 2vw""> 
            <font color=""green""> Bonus : $9.45 </font>
            </div>
        </div>
    
        <img class=""stim"" src=./stimuli//pack_shapes_diff/cat_2/diff_1/ex_2_1_12.png></img>
    ","null","stimulus","","","","","","",""
"","","","","","html-keyboard-response","183","220727","0.0-7.25-2.25","601a76dd9b6a55296ac06a4f","655cb802637e0dbe2941dbc4","655cb8c91b22e5364c22d660","null","
        <div style=""text-align: center; position: fixed; top: 5vh; left: 40vw;"">
            <div style=""margin:0 auto; width: 20vw; top: 8vh; font-size: 2vw""> 
            <font color=""green""> Bonus : $9.45 </font>
            </div>
        </div>
    ","null","","","","","","","",""
"","","","","","html-keyboard-response","184","221632","0.0-7.25-3.25","601a76dd9b6a55296ac06a4f","655cb802637e0dbe2941dbc4","655cb8c91b22e5364c22d660","903","./stimuli//pack_shapes_diff/cat_2/diff_1/ex_2_1_12.png","arrowright","response","ArrowRight","12","2","1","test","true",""
"","","","","","html-keyboard-response","185","223142","0.0-7.25-4.25","601a76dd9b6a55296ac06a4f","655cb802637e0dbe2941dbc4","655cb8c91b22e5364c22d660","null","<p> <font color=""green"" size=""5vw""> Correct category! </font></p>","null","feedback","","","","","","","9.45"
"","","","","","html-keyboard-response","186","223807","0.0-7.26-0.26","601a76dd9b6a55296ac06a4f","655cb802637e0dbe2941dbc4","655cb8c91b22e5364c22d660","664","
            
        <div style=""text-align: center; position: fixed; top: 5vh; left: 40vw;"">
            <div style=""margin:0 auto; width: 20vw; top: 8vh; font-size: 2vw""> 
            <font color=""green""> Bonus : $9.45 </font>
            </div>
        </div>
    
            <div> Please press any key to continue to the next image.</div>
        "," ","ITI","","","","","","",""
"","","","","","html-keyboard-response","187","224413","0.0-7.26-1.26","601a76dd9b6a55296ac06a4f","655cb802637e0dbe2941dbc4","655cb8c91b22e5364c22d660","null","
        
        <div style=""text-align: center; position: fixed; top: 5vh; left: 40vw;"">
            <div style=""margin:0 auto; width: 20vw; top: 8vh; font-size: 2vw""> 
            <font color=""green""> Bonus : $9.45 </font>
            </div>
        </div>
    
        <img class=""stim"" src=./stimuli//pack_shapes_diff/cat_1/diff_1/ex_1_1_9.png></img>
    ","null","stimulus","","","","","","",""
"","","","","","html-keyboard-response","188","225427","0.0-7.26-2.26","601a76dd9b6a55296ac06a4f","655cb802637e0dbe2941dbc4","655cb8c91b22e5364c22d660","null","
        <div style=""text-align: center; position: fixed; top: 5vh; left: 40vw;"">
            <div style=""margin:0 auto; width: 20vw; top: 8vh; font-size: 2vw""> 
            <font color=""green""> Bonus : $9.45 </font>
            </div>
        </div>
    ","null","","","","","","","",""
"","","","","","html-keyboard-response","189","225804","0.0-7.26-3.26","601a76dd9b6a55296ac06a4f","655cb802637e0dbe2941dbc4","655cb8c91b22e5364c22d660","377","./stimuli//pack_shapes_diff/cat_1/diff_1/ex_1_1_9.png","arrowleft","response","ArrowLeft","9","1","1","test","true",""
"","","","","","html-keyboard-response","190","227316","0.0-7.26-4.26","601a76dd9b6a55296ac06a4f","655cb802637e0dbe2941dbc4","655cb8c91b22e5364c22d660","null","<p> <font color=""green"" size=""5vw""> Correct category! </font></p>","null","feedback","","","","","","","9.45"
"","","","","","html-keyboard-response","191","227702","0.0-7.27-0.27","601a76dd9b6a55296ac06a4f","655cb802637e0dbe2941dbc4","655cb8c91b22e5364c22d660","385","
            
        <div style=""text-align: center; position: fixed; top: 5vh; left: 40vw;"">
            <div style=""margin:0 auto; width: 20vw; top: 8vh; font-size: 2vw""> 
            <font color=""green""> Bonus : $9.45 </font>
            </div>
        </div>
    
            <div> Please press any key to continue to the next image.</div>
        "," ","ITI","","","","","","",""
"","","","","","html-keyboard-response","192","228315","0.0-7.27-1.27","601a76dd9b6a55296ac06a4f","655cb802637e0dbe2941dbc4","655cb8c91b22e5364c22d660","null","
        
        <div style=""text-align: center; position: fixed; top: 5vh; left: 40vw;"">
            <div style=""margin:0 auto; width: 20vw; top: 8vh; font-size: 2vw""> 
            <font color=""green""> Bonus : $9.45 </font>
            </div>
        </div>
    
        <img class=""stim"" src=./stimuli//pack_shapes_diff/cat_1/diff_1/ex_1_1_17.png></img>
    ","null","stimulus","","","","","","",""
"","","","","","html-keyboard-response","193","229328","0.0-7.27-2.27","601a76dd9b6a55296ac06a4f","655cb802637e0dbe2941dbc4","655cb8c91b22e5364c22d660","null","
        <div style=""text-align: center; position: fixed; top: 5vh; left: 40vw;"">
            <div style=""margin:0 auto; width: 20vw; top: 8vh; font-size: 2vw""> 
            <font color=""green""> Bonus : $9.45 </font>
            </div>
        </div>
    ","null","","","","","","","",""
"","","","","","html-keyboard-response","194","229880","0.0-7.27-3.27","601a76dd9b6a55296ac06a4f","655cb802637e0dbe2941dbc4","655cb8c91b22e5364c22d660","553","./stimuli//pack_shapes_diff/cat_1/diff_1/ex_1_1_17.png","arrowright","response","ArrowLeft","17","1","1","test","false",""
"","","","","","html-keyboard-response","195","231381","0.0-7.27-4.27","601a76dd9b6a55296ac06a4f","655cb802637e0dbe2941dbc4","655cb8c91b22e5364c22d660","null","<p> <font size=""4vw""> Wrong category! </font> <br> <br> <font color=""red"" size=""7vw""> - $0.05 points </font> </p>","null","feedback","","","","","","","9.4"
"","","","","","html-keyboard-response","196","231463","0.0-7.28-0.28","601a76dd9b6a55296ac06a4f","655cb802637e0dbe2941dbc4","655cb8c91b22e5364c22d660","80","
            
        <div style=""text-align: center; position: fixed; top: 5vh; left: 40vw;"">
            <div style=""margin:0 auto; width: 20vw; top: 8vh; font-size: 2vw""> 
            <font color=""green""> Bonus : $9.4 </font>
            </div>
        </div>
    
            <div> Please press any key to continue to the next image.</div>
        "," ","ITI","","","","","","",""
"","","","","","html-keyboard-response","197","232074","0.0-7.28-1.28","601a76dd9b6a55296ac06a4f","655cb802637e0dbe2941dbc4","655cb8c91b22e5364c22d660","null","
        
        <div style=""text-align: center; position: fixed; top: 5vh; left: 40vw;"">
            <div style=""margin:0 auto; width: 20vw; top: 8vh; font-size: 2vw""> 
            <font color=""green""> Bonus : $9.4 </font>
            </div>
        </div>
    
        <img class=""stim"" src=./stimuli//pack_shapes_diff/cat_1/diff_1/ex_1_1_1.png></img>
    ","null","stimulus","","","","","","",""
"","","","","","html-keyboard-response","198","233085","0.0-7.28-2.28","601a76dd9b6a55296ac06a4f","655cb802637e0dbe2941dbc4","655cb8c91b22e5364c22d660","null","
        <div style=""text-align: center; position: fixed; top: 5vh; left: 40vw;"">
            <div style=""margin:0 auto; width: 20vw; top: 8vh; font-size: 2vw""> 
            <font color=""green""> Bonus : $9.4 </font>
            </div>
        </div>
    ","null","","","","","","","",""
"","","","","","html-keyboard-response","199","234140","0.0-7.28-3.28","601a76dd9b6a55296ac06a4f","655cb802637e0dbe2941dbc4","655cb8c91b22e5364c22d660","1055","./stimuli//pack_shapes_diff/cat_1/diff_1/ex_1_1_1.png","arrowright","response","ArrowLeft","1","1","1","test","false",""
"","","","","","html-keyboard-response","200","235651","0.0-7.28-4.28","601a76dd9b6a55296ac06a4f","655cb802637e0dbe2941dbc4","655cb8c91b22e5364c22d660","null","<p> <font size=""4vw""> Wrong category! </font> <br> <br> <font color=""red"" size=""7vw""> - $0.05 points </font> </p>","null","feedback","","","","","","","9.35"
"","","","","","html-keyboard-response","201","236170","0.0-7.29-0.29","601a76dd9b6a55296ac06a4f","655cb802637e0dbe2941dbc4","655cb8c91b22e5364c22d660","519","
            
        <div style=""text-align: center; position: fixed; top: 5vh; left: 40vw;"">
            <div style=""margin:0 auto; width: 20vw; top: 8vh; font-size: 2vw""> 
            <font color=""green""> Bonus : $9.35 </font>
            </div>
        </div>
    
            <div> Please press any key to continue to the next image.</div>
        "," ","ITI","","","","","","",""
"","","","","","html-keyboard-response","202","236774","0.0-7.29-1.29","601a76dd9b6a55296ac06a4f","655cb802637e0dbe2941dbc4","655cb8c91b22e5364c22d660","null","
        
        <div style=""text-align: center; position: fixed; top: 5vh; left: 40vw;"">
            <div style=""margin:0 auto; width: 20vw; top: 8vh; font-size: 2vw""> 
            <font color=""green""> Bonus : $9.35 </font>
            </div>
        </div>
    
        <img class=""stim"" src=./stimuli//pack_shapes_diff/cat_2/diff_1/ex_2_1_9.png></img>
    ","null","stimulus","","","","","","",""
"","","","","","html-keyboard-response","203","237784","0.0-7.29-2.29","601a76dd9b6a55296ac06a4f","655cb802637e0dbe2941dbc4","655cb8c91b22e5364c22d660","null","
        <div style=""text-align: center; position: fixed; top: 5vh; left: 40vw;"">
            <div style=""margin:0 auto; width: 20vw; top: 8vh; font-size: 2vw""> 
            <font color=""green""> Bonus : $9.35 </font>
            </div>
        </div>
    ","null","","","","","","","",""
"","","","","","html-keyboard-response","204","238051","0.0-7.29-3.29","601a76dd9b6a55296ac06a4f","655cb802637e0dbe2941dbc4","655cb8c91b22e5364c22d660","266","./stimuli//pack_shapes_diff/cat_2/diff_1/ex_2_1_9.png","arrowright","response","ArrowRight","9","2","1","test","true",""
"","","","","","html-keyboard-response","205","239112","0.0-7.29-4.29","601a76dd9b6a55296ac06a4f","655cb802637e0dbe2941dbc4","655cb8c91b22e5364c22d660","1060","<p> <font color=""green"" size=""5vw""> Correct category! </font></p>"," ","feedback","","","","","","","9.35"
"","","","","","html-keyboard-response","206","240177","0.0-7.30-0.30","601a76dd9b6a55296ac06a4f","655cb802637e0dbe2941dbc4","655cb8c91b22e5364c22d660","1064","
            
        <div style=""text-align: center; position: fixed; top: 5vh; left: 40vw;"">
            <div style=""margin:0 auto; width: 20vw; top: 8vh; font-size: 2vw""> 
            <font color=""green""> Bonus : $9.35 </font>
            </div>
        </div>
    
            <div> Please press any key to continue to the next image.</div>
        "," ","ITI","","","","","","",""
"","","","","","html-keyboard-response","207","240792","0.0-7.30-1.30","601a76dd9b6a55296ac06a4f","655cb802637e0dbe2941dbc4","655cb8c91b22e5364c22d660","null","
        
        <div style=""text-align: center; position: fixed; top: 5vh; left: 40vw;"">
            <div style=""margin:0 auto; width: 20vw; top: 8vh; font-size: 2vw""> 
            <font color=""green""> Bonus : $9.35 </font>
            </div>
        </div>
    
        <img class=""stim"" src=./stimuli//pack_shapes_diff/cat_2/diff_1/ex_2_1_13.png></img>
    ","null","stimulus","","","","","","",""
"","","","","","html-keyboard-response","208","241804","0.0-7.30-2.30","601a76dd9b6a55296ac06a4f","655cb802637e0dbe2941dbc4","655cb8c91b22e5364c22d660","null","
        <div style=""text-align: center; position: fixed; top: 5vh; left: 40vw;"">
            <div style=""margin:0 auto; width: 20vw; top: 8vh; font-size: 2vw""> 
            <font color=""green""> Bonus : $9.35 </font>
            </div>
        </div>
    ","null","","","","","","","",""
"","","","","","html-keyboard-response","209","242203","0.0-7.30-3.30","601a76dd9b6a55296ac06a4f","655cb802637e0dbe2941dbc4","655cb8c91b22e5364c22d660","398","./stimuli//pack_shapes_diff/cat_2/diff_1/ex_2_1_13.png","arrowright","response","ArrowRight","13","2","1","test","true",""
"","","","","","html-keyboard-response","210","243713","0.0-7.30-4.30","601a76dd9b6a55296ac06a4f","655cb802637e0dbe2941dbc4","655cb8c91b22e5364c22d660","null","<p> <font color=""green"" size=""5vw""> Correct category! </font></p>","null","feedback","","","","","","","9.35"
"","","","","","html-keyboard-response","211","244410","0.0-7.31-0.31","601a76dd9b6a55296ac06a4f","655cb802637e0dbe2941dbc4","655cb8c91b22e5364c22d660","695","
            
        <div style=""text-align: center; position: fixed; top: 5vh; left: 40vw;"">
            <div style=""margin:0 auto; width: 20vw; top: 8vh; font-size: 2vw""> 
            <font color=""green""> Bonus : $9.35 </font>
            </div>
        </div>
    
            <div> Please press any key to continue to the next image.</div>
        "," ","ITI","","","","","","",""
"","","","","","html-keyboard-response","212","245025","0.0-7.31-1.31","601a76dd9b6a55296ac06a4f","655cb802637e0dbe2941dbc4","655cb8c91b22e5364c22d660","null","
        
        <div style=""text-align: center; position: fixed; top: 5vh; left: 40vw;"">
            <div style=""margin:0 auto; width: 20vw; top: 8vh; font-size: 2vw""> 
            <font color=""green""> Bonus : $9.35 </font>
            </div>
        </div>
    
        <img class=""stim"" src=./stimuli//pack_shapes_diff/cat_1/diff_1/ex_1_1_7.png></img>
    ","null","stimulus","","","","","","",""
"","","","","","html-keyboard-response","213","246033","0.0-7.31-2.31","601a76dd9b6a55296ac06a4f","655cb802637e0dbe2941dbc4","655cb8c91b22e5364c22d660","null","
        <div style=""text-align: center; position: fixed; top: 5vh; left: 40vw;"">
            <div style=""margin:0 auto; width: 20vw; top: 8vh; font-size: 2vw""> 
            <font color=""green""> Bonus : $9.35 </font>
            </div>
        </div>
    ","null","","","","","","","",""
"","","","","","html-keyboard-response","214","246476","0.0-7.31-3.31","601a76dd9b6a55296ac06a4f","655cb802637e0dbe2941dbc4","655cb8c91b22e5364c22d660","442","./stimuli//pack_shapes_diff/cat_1/diff_1/ex_1_1_7.png","arrowleft","response","ArrowLeft","7","1","1","test","true",""
"","","","","","html-keyboard-response","215","247986","0.0-7.31-4.31","601a76dd9b6a55296ac06a4f","655cb802637e0dbe2941dbc4","655cb8c91b22e5364c22d660","null","<p> <font color=""green"" size=""5vw""> Correct category! </font></p>","null","feedback","","","","","","","9.35"
"","","","","","html-keyboard-response","216","248713","0.0-7.32-0.32","601a76dd9b6a55296ac06a4f","655cb802637e0dbe2941dbc4","655cb8c91b22e5364c22d660","725","
            
        <div style=""text-align: center; position: fixed; top: 5vh; left: 40vw;"">
            <div style=""margin:0 auto; width: 20vw; top: 8vh; font-size: 2vw""> 
            <font color=""green""> Bonus : $9.35 </font>
            </div>
        </div>
    
            <div> Please press any key to continue to the next image.</div>
        "," ","ITI","","","","","","",""
"","","","","","html-keyboard-response","217","249322","0.0-7.32-1.32","601a76dd9b6a55296ac06a4f","655cb802637e0dbe2941dbc4","655cb8c91b22e5364c22d660","null","
        
        <div style=""text-align: center; position: fixed; top: 5vh; left: 40vw;"">
            <div style=""margin:0 auto; width: 20vw; top: 8vh; font-size: 2vw""> 
            <font color=""green""> Bonus : $9.35 </font>
            </div>
        </div>
    
        <img class=""stim"" src=./stimuli//pack_shapes_diff/cat_2/diff_1/ex_2_1_16.png></img>
    ","null","stimulus","","","","","","",""
"","","","","","html-keyboard-response","218","250333","0.0-7.32-2.32","601a76dd9b6a55296ac06a4f","655cb802637e0dbe2941dbc4","655cb8c91b22e5364c22d660","null","
        <div style=""text-align: center; position: fixed; top: 5vh; left: 40vw;"">
            <div style=""margin:0 auto; width: 20vw; top: 8vh; font-size: 2vw""> 
            <font color=""green""> Bonus : $9.35 </font>
            </div>
        </div>
    ","null","","","","","","","",""
"","","","","","html-keyboard-response","219","251030","0.0-7.32-3.32","601a76dd9b6a55296ac06a4f","655cb802637e0dbe2941dbc4","655cb8c91b22e5364c22d660","695","./stimuli//pack_shapes_diff/cat_2/diff_1/ex_2_1_16.png","arrowright","response","ArrowRight","16","2","1","test","true",""
"","","","","","html-keyboard-response","220","252542","0.0-7.32-4.32","601a76dd9b6a55296ac06a4f","655cb802637e0dbe2941dbc4","655cb8c91b22e5364c22d660","null","<p> <font color=""green"" size=""5vw""> Correct category! </font></p>","null","feedback","","","","","","","9.35"
"","","","","","html-keyboard-response","221","253626","0.0-7.33-0.33","601a76dd9b6a55296ac06a4f","655cb802637e0dbe2941dbc4","655cb8c91b22e5364c22d660","1082","
            
        <div style=""text-align: center; position: fixed; top: 5vh; left: 40vw;"">
            <div style=""margin:0 auto; width: 20vw; top: 8vh; font-size: 2vw""> 
            <font color=""green""> Bonus : $9.35 </font>
            </div>
        </div>
    
            <div> Please press any key to continue to the next image.</div>
        "," ","ITI","","","","","","",""
"","","","","","html-keyboard-response","222","254241","0.0-7.33-1.33","601a76dd9b6a55296ac06a4f","655cb802637e0dbe2941dbc4","655cb8c91b22e5364c22d660","null","
        
        <div style=""text-align: center; position: fixed; top: 5vh; left: 40vw;"">
            <div style=""margin:0 auto; width: 20vw; top: 8vh; font-size: 2vw""> 
            <font color=""green""> Bonus : $9.35 </font>
            </div>
        </div>
    
        <img class=""stim"" src=./stimuli//pack_shapes_diff/cat_2/diff_2/ex_2_2_12.png></img>
    ","null","stimulus","","","","","","",""
"","","","","","html-keyboard-response","223","255252","0.0-7.33-2.33","601a76dd9b6a55296ac06a4f","655cb802637e0dbe2941dbc4","655cb8c91b22e5364c22d660","null","
        <div style=""text-align: center; position: fixed; top: 5vh; left: 40vw;"">
            <div style=""margin:0 auto; width: 20vw; top: 8vh; font-size: 2vw""> 
            <font color=""green""> Bonus : $9.35 </font>
            </div>
        </div>
    ","null","","","","","","","",""
"","","","","","html-keyboard-response","224","255614","0.0-7.33-3.33","601a76dd9b6a55296ac06a4f","655cb802637e0dbe2941dbc4","655cb8c91b22e5364c22d660","361","./stimuli//pack_shapes_diff/cat_2/diff_2/ex_2_2_12.png","arrowright","response","ArrowRight","12","2","2","test","true",""
"","","","","","html-keyboard-response","225","257116","0.0-7.33-4.33","601a76dd9b6a55296ac06a4f","655cb802637e0dbe2941dbc4","655cb8c91b22e5364c22d660","null","<p> <font color=""green"" size=""5vw""> Correct category! </font></p>","null","feedback","","","","","","","9.35"
"","","","","","html-keyboard-response","226","257607","0.0-7.34-0.34","601a76dd9b6a55296ac06a4f","655cb802637e0dbe2941dbc4","655cb8c91b22e5364c22d660","490","
            
        <div style=""text-align: center; position: fixed; top: 5vh; left: 40vw;"">
            <div style=""margin:0 auto; width: 20vw; top: 8vh; font-size: 2vw""> 
            <font color=""green""> Bonus : $9.35 </font>
            </div>
        </div>
    
            <div> Please press any key to continue to the next image.</div>
        "," ","ITI","","","","","","",""
"","","","","","html-keyboard-response","227","258218","0.0-7.34-1.34","601a76dd9b6a55296ac06a4f","655cb802637e0dbe2941dbc4","655cb8c91b22e5364c22d660","null","
        
        <div style=""text-align: center; position: fixed; top: 5vh; left: 40vw;"">
            <div style=""margin:0 auto; width: 20vw; top: 8vh; font-size: 2vw""> 
            <font color=""green""> Bonus : $9.35 </font>
            </div>
        </div>
    
        <img class=""stim"" src=./stimuli//pack_shapes_diff/cat_1/diff_2/ex_1_2_4.png></img>
    ","null","stimulus","","","","","","",""
"","","","","","html-keyboard-response","228","259225","0.0-7.34-2.34","601a76dd9b6a55296ac06a4f","655cb802637e0dbe2941dbc4","655cb8c91b22e5364c22d660","null","
        <div style=""text-align: center; position: fixed; top: 5vh; left: 40vw;"">
            <div style=""margin:0 auto; width: 20vw; top: 8vh; font-size: 2vw""> 
            <font color=""green""> Bonus : $9.35 </font>
            </div>
        </div>
    ","null","","","","","","","",""
"","","","","","html-keyboard-response","229","259752","0.0-7.34-3.34","601a76dd9b6a55296ac06a4f","655cb802637e0dbe2941dbc4","655cb8c91b22e5364c22d660","526","./stimuli//pack_shapes_diff/cat_1/diff_2/ex_1_2_4.png","arrowleft","response","ArrowLeft","4","1","2","test","true",""
"","","","","","html-keyboard-response","230","261261","0.0-7.34-4.34","601a76dd9b6a55296ac06a4f","655cb802637e0dbe2941dbc4","655cb8c91b22e5364c22d660","null","<p> <font color=""green"" size=""5vw""> Correct category! </font></p>","null","feedback","","","","","","","9.35"
"","","","","","html-keyboard-response","231","262413","0.0-7.35-0.35","601a76dd9b6a55296ac06a4f","655cb802637e0dbe2941dbc4","655cb8c91b22e5364c22d660","1151","
            
        <div style=""text-align: center; position: fixed; top: 5vh; left: 40vw;"">
            <div style=""margin:0 auto; width: 20vw; top: 8vh; font-size: 2vw""> 
            <font color=""green""> Bonus : $9.35 </font>
            </div>
        </div>
    
            <div> Please press any key to continue to the next image.</div>
        "," ","ITI","","","","","","",""
"","","","","","html-keyboard-response","232","263017","0.0-7.35-1.35","601a76dd9b6a55296ac06a4f","655cb802637e0dbe2941dbc4","655cb8c91b22e5364c22d660","null","
        
        <div style=""text-align: center; position: fixed; top: 5vh; left: 40vw;"">
            <div style=""margin:0 auto; width: 20vw; top: 8vh; font-size: 2vw""> 
            <font color=""green""> Bonus : $9.35 </font>
            </div>
        </div>
    
