"success","timeout","failed_images","failed_audio","failed_video","trial_type","trial_index","time_elapsed","internal_node_id","subject_id","study_id","session_id","rt","stimulus","response","task","correct_response","exemplar_ID","category","difficulty","phase","correct","bonus"
"true","false","[]","[]","[]","preload","0","1","0.0-0.0","617139bdf6dbf9169a30ad3a","655cb802637e0dbe2941dbc4","655cb8b37f98be58bf2dff82","","","","","","","","","","",""
"","","","","","html-keyboard-response","1","3420","0.0-1.0","617139bdf6dbf9169a30ad3a","655cb802637e0dbe2941dbc4","655cb8b37f98be58bf2dff82","3418","Welcome to the Category Learning experiment! Press any key to continue."," ","welcome","","","","","","",""
"","","","","","html-keyboard-response","2","19755","0.0-2.0","617139bdf6dbf9169a30ad3a","655cb802637e0dbe2941dbc4","655cb8b37f98be58bf2dff82","16336","
            <p>You will be shown images of black shapes. Some are category A, some are category B.
            <br>You will not know in advance which category a specific shape belongs to.</p>
            <p>After you see an image, you will be asked to guess its category <b>(left arrow for category A, right arrow for category B)</b></p>
            <p>After you choose, the screen will show you whether you were correct or not.</p>
            <p>Please try to respond as quickly and accurately as possible every time.</p>
            <p>Press any key to continue.</p>
            "," ","introduction_1","","","","","","",""
"","","","","","html-keyboard-response","3","23019","0.0-3.0","617139bdf6dbf9169a30ad3a","655cb802637e0dbe2941dbc4","655cb8b37f98be58bf2dff82","3264","
              <p><b>You will receive a bonus payment depending on your performance!</b></p>
              <p><b>You start with a $10 bonus and each time you guess a shape's category incorrectly $0.05 will be subtracted from the bonus. <br> After the end of the experiment you will receive the remaining bonus as payment.</b></p>
              <p>Press any key to continue.</p>
              "," ","introduction_1","","","","","","",""
"","","","","","html-keyboard-response","4","26019","0.0-4.0","617139bdf6dbf9169a30ad3a","655cb802637e0dbe2941dbc4","655cb8b37f98be58bf2dff82","3000","
            <p> <b>The first 10 trials are a practice round that will not count towards your bonus payment.</b></p>
            <p> You will be notified when practice finishes and the test begins. </p>
            <p> Press any key to begin the practice round.</p>
            "," ","introduction_2","","","","","","",""
"","","","","","html-keyboard-response","5","29203","0.0-5.0-0.0","617139bdf6dbf9169a30ad3a","655cb802637e0dbe2941dbc4","655cb8b37f98be58bf2dff82","3184","
            
        <div style=""text-align: center; position: fixed; top: 5vh; left: 40vw;"">
            <div style=""margin:0 auto; width: 20vw; top: 8vh; font-size: 2vw""> 
            <font color=""green""> Bonus : $10 </font>
            </div>
        </div>
    
            <div> Please press any key to continue to the next image.</div>
        "," ","ITI","","","","","","",""
"","","","","","html-keyboard-response","6","29814","0.0-5.0-1.0","617139bdf6dbf9169a30ad3a","655cb802637e0dbe2941dbc4","655cb8b37f98be58bf2dff82","null","
        
        <div style=""text-align: center; position: fixed; top: 5vh; left: 40vw;"">
            <div style=""margin:0 auto; width: 20vw; top: 8vh; font-size: 2vw""> 
            <font color=""green""> Bonus : $10 </font>
            </div>
        </div>
    
        <img class=""stim"" src=./stimuli//pack_shapes_diff/cat_2/diff_1/ex_2_1_1.png></img>
    ","null","stimulus","","","","","","",""
"","","","","","html-keyboard-response","7","30827","0.0-5.0-2.0","617139bdf6dbf9169a30ad3a","655cb802637e0dbe2941dbc4","655cb8b37f98be58bf2dff82","null","
        <div style=""text-align: center; position: fixed; top: 5vh; left: 40vw;"">
            <div style=""margin:0 auto; width: 20vw; top: 8vh; font-size: 2vw""> 
            <font color=""green""> Bonus : $10 </font>
            </div>
        </div>
    ","null","","","","","","","",""
"","","","","","html-keyboard-response","8","31923","0.0-5.0-3.0","617139bdf6dbf9169a30ad3a","655cb802637e0dbe2941dbc4","655cb8b37f98be58bf2dff82","1097","./stimuli//pack_shapes_diff/cat_2/diff_1/ex_2_1_1.png","arrowleft","response","ArrowRight","1","2","1","train","false",""
"","","","","","html-keyboard-response","9","33428","0.0-5.0-4.0","617139bdf6dbf9169a30ad3a","655cb802637e0dbe2941dbc4","655cb8b37f98be58bf2dff82","null","<p> <font color=""red"" size=""5vw""> Wrong category! </font> </p>","null","feedback","","","","","","","10"
"","","","","","html-keyboard-response","10","38432","0.0-5.0-0.1","617139bdf6dbf9169a30ad3a","655cb802637e0dbe2941dbc4","655cb8b37f98be58bf2dff82","null","
            
        <div style=""text-align: center; position: fixed; top: 5vh; left: 40vw;"">
            <div style=""margin:0 auto; width: 20vw; top: 8vh; font-size: 2vw""> 
            <font color=""green""> Bonus : $10 </font>
            </div>
        </div>
    
            <div> Please press any key to continue to the next image.</div>
        ","null","ITI","","","","","","",""
"","","","","","html-keyboard-response","11","39044","0.0-5.0-1.1","617139bdf6dbf9169a30ad3a","655cb802637e0dbe2941dbc4","655cb8b37f98be58bf2dff82","null","
        
        <div style=""text-align: center; position: fixed; top: 5vh; left: 40vw;"">
            <div style=""margin:0 auto; width: 20vw; top: 8vh; font-size: 2vw""> 
            <font color=""green""> Bonus : $10 </font>
            </div>
        </div>
    
        <img class=""stim"" src=./stimuli//pack_shapes_diff/cat_1/diff_1/ex_1_1_2.png></img>
    ","null","stimulus","","","","","","",""
"","","","","","html-keyboard-response","12","40056","0.0-5.0-2.1","617139bdf6dbf9169a30ad3a","655cb802637e0dbe2941dbc4","655cb8b37f98be58bf2dff82","null","
        <div style=""text-align: center; position: fixed; top: 5vh; left: 40vw;"">
            <div style=""margin:0 auto; width: 20vw; top: 8vh; font-size: 2vw""> 
            <font color=""green""> Bonus : $10 </font>
            </div>
        </div>
    ","null","","","","","","","",""
"","","","","","html-keyboard-response","13","40203","0.0-5.0-3.1","617139bdf6dbf9169a30ad3a","655cb802637e0dbe2941dbc4","655cb8b37f98be58bf2dff82","147","./stimuli//pack_shapes_diff/cat_1/diff_1/ex_1_1_2.png","arrowleft","response","ArrowLeft","2","1","1","train","true",""
"","","","","","html-keyboard-response","14","41709","0.0-5.0-4.1","617139bdf6dbf9169a30ad3a","655cb802637e0dbe2941dbc4","655cb8b37f98be58bf2dff82","null","<p> <font color=""green"" size=""5vw""> Correct category! </font> </p>","null","feedback","","","","","","","10"
"","","","","","html-keyboard-response","15","46718","0.0-5.0-0.2","617139bdf6dbf9169a30ad3a","655cb802637e0dbe2941dbc4","655cb8b37f98be58bf2dff82","null","
            
        <div style=""text-align: center; position: fixed; top: 5vh; left: 40vw;"">
            <div style=""margin:0 auto; width: 20vw; top: 8vh; font-size: 2vw""> 
            <font color=""green""> Bonus : $10 </font>
            </div>
        </div>
    
            <div> Please press any key to continue to the next image.</div>
        ","null","ITI","","","","","","",""
"","","","","","html-keyboard-response","16","47326","0.0-5.0-1.2","617139bdf6dbf9169a30ad3a","655cb802637e0dbe2941dbc4","655cb8b37f98be58bf2dff82","null","
        
        <div style=""text-align: center; position: fixed; top: 5vh; left: 40vw;"">
            <div style=""margin:0 auto; width: 20vw; top: 8vh; font-size: 2vw""> 
            <font color=""green""> Bonus : $10 </font>
            </div>
        </div>
    
        <img class=""stim"" src=./stimuli//pack_shapes_diff/cat_2/diff_1/ex_2_1_8.png></img>
    ","null","stimulus","","","","","","",""
"","","","","","html-keyboard-response","17","48341","0.0-5.0-2.2","617139bdf6dbf9169a30ad3a","655cb802637e0dbe2941dbc4","655cb8b37f98be58bf2dff82","null","
        <div style=""text-align: center; position: fixed; top: 5vh; left: 40vw;"">
            <div style=""margin:0 auto; width: 20vw; top: 8vh; font-size: 2vw""> 
            <font color=""green""> Bonus : $10 </font>
            </div>
        </div>
    ","null","","","","","","","",""
"","","","","","html-keyboard-response","18","49228","0.0-5.0-3.2","617139bdf6dbf9169a30ad3a","655cb802637e0dbe2941dbc4","655cb8b37f98be58bf2dff82","887","./stimuli//pack_shapes_diff/cat_2/diff_1/ex_2_1_8.png","arrowleft","response","ArrowRight","8","2","1","train","false",""
"","","","","","html-keyboard-response","19","50736","0.0-5.0-4.2","617139bdf6dbf9169a30ad3a","655cb802637e0dbe2941dbc4","655cb8b37f98be58bf2dff82","null","<p> <font color=""red"" size=""5vw""> Wrong category! </font> </p>","null","feedback","","","","","","","10"
"","","","","","html-keyboard-response","20","54540","0.0-5.0-0.3","617139bdf6dbf9169a30ad3a","655cb802637e0dbe2941dbc4","655cb8b37f98be58bf2dff82","3803","
            
        <div style=""text-align: center; position: fixed; top: 5vh; left: 40vw;"">
            <div style=""margin:0 auto; width: 20vw; top: 8vh; font-size: 2vw""> 
            <font color=""green""> Bonus : $10 </font>
            </div>
        </div>
    
            <div> Please press any key to continue to the next image.</div>
        "," ","ITI","","","","","","",""
"","","","","","html-keyboard-response","21","55150","0.0-5.0-1.3","617139bdf6dbf9169a30ad3a","655cb802637e0dbe2941dbc4","655cb8b37f98be58bf2dff82","null","
        
        <div style=""text-align: center; position: fixed; top: 5vh; left: 40vw;"">
            <div style=""margin:0 auto; width: 20vw; top: 8vh; font-size: 2vw""> 
            <font color=""green""> Bonus : $10 </font>
            </div>
        </div>
    
        <img class=""stim"" src=./stimuli//pack_shapes_diff/cat_1/diff_1/ex_1_1_16.png></img>
    ","null","stimulus","","","","","","",""
"","","","","","html-keyboard-response","22","56165","0.0-5.0-2.3","617139bdf6dbf9169a30ad3a","655cb802637e0dbe2941dbc4","655cb8b37f98be58bf2dff82","null","
        <div style=""text-align: center; position: fixed; top: 5vh; left: 40vw;"">
            <div style=""margin:0 auto; width: 20vw; top: 8vh; font-size: 2vw""> 
            <font color=""green""> Bonus : $10 </font>
            </div>
        </div>
    ","null","","","","","","","",""
"","","","","","html-keyboard-response","23","56556","0.0-5.0-3.3","617139bdf6dbf9169a30ad3a","655cb802637e0dbe2941dbc4","655cb8b37f98be58bf2dff82","391","./stimuli//pack_shapes_diff/cat_1/diff_1/ex_1_1_16.png","arrowright","response","ArrowLeft","16","1","1","train","false",""
"","","","","","html-keyboard-response","24","58059","0.0-5.0-4.3","617139bdf6dbf9169a30ad3a","655cb802637e0dbe2941dbc4","655cb8b37f98be58bf2dff82","null","<p> <font color=""red"" size=""5vw""> Wrong category! </font> </p>","null","feedback","","","","","","","10"
"","","","","","html-keyboard-response","25","59316","0.0-5.0-0.4","617139bdf6dbf9169a30ad3a","655cb802637e0dbe2941dbc4","655cb8b37f98be58bf2dff82","1257","
            
        <div style=""text-align: center; position: fixed; top: 5vh; left: 40vw;"">
            <div style=""margin:0 auto; width: 20vw; top: 8vh; font-size: 2vw""> 
            <font color=""green""> Bonus : $10 </font>
            </div>
        </div>
    
            <div> Please press any key to continue to the next image.</div>
        "," ","ITI","","","","","","",""
"","","","","","html-keyboard-response","26","59917","0.0-5.0-1.4","617139bdf6dbf9169a30ad3a","655cb802637e0dbe2941dbc4","655cb8b37f98be58bf2dff82","null","
        
        <div style=""text-align: center; position: fixed; top: 5vh; left: 40vw;"">
            <div style=""margin:0 auto; width: 20vw; top: 8vh; font-size: 2vw""> 
            <font color=""green""> Bonus : $10 </font>
            </div>
        </div>
    
        <img class=""stim"" src=./stimuli//pack_shapes_diff/cat_1/diff_1/ex_1_1_3.png></img>
    ","null","stimulus","","","","","","",""
"","","","","","html-keyboard-response","27","60933","0.0-5.0-2.4","617139bdf6dbf9169a30ad3a","655cb802637e0dbe2941dbc4","655cb8b37f98be58bf2dff82","null","
        <div style=""text-align: center; position: fixed; top: 5vh; left: 40vw;"">
            <div style=""margin:0 auto; width: 20vw; top: 8vh; font-size: 2vw""> 
            <font color=""green""> Bonus : $10 </font>
            </div>
        </div>
    ","null","","","","","","","",""
"","","","","","html-keyboard-response","28","61348","0.0-5.0-3.4","617139bdf6dbf9169a30ad3a","655cb802637e0dbe2941dbc4","655cb8b37f98be58bf2dff82","415","./stimuli//pack_shapes_diff/cat_1/diff_1/ex_1_1_3.png","arrowleft","response","ArrowLeft","3","1","1","train","true",""
"","","","","","html-keyboard-response","29","62853","0.0-5.0-4.4","617139bdf6dbf9169a30ad3a","655cb802637e0dbe2941dbc4","655cb8b37f98be58bf2dff82","null","<p> <font color=""green"" size=""5vw""> Correct category! </font> </p>","null","feedback","","","","","","","10"
"","","","","","html-keyboard-response","30","65276","0.0-5.0-0.5","617139bdf6dbf9169a30ad3a","655cb802637e0dbe2941dbc4","655cb8b37f98be58bf2dff82","2423","
            
        <div style=""text-align: center; position: fixed; top: 5vh; left: 40vw;"">
            <div style=""margin:0 auto; width: 20vw; top: 8vh; font-size: 2vw""> 
            <font color=""green""> Bonus : $10 </font>
            </div>
        </div>
    
            <div> Please press any key to continue to the next image.</div>
        "," ","ITI","","","","","","",""
"","","","","","html-keyboard-response","31","65885","0.0-5.0-1.5","617139bdf6dbf9169a30ad3a","655cb802637e0dbe2941dbc4","655cb8b37f98be58bf2dff82","null","
        
        <div style=""text-align: center; position: fixed; top: 5vh; left: 40vw;"">
            <div style=""margin:0 auto; width: 20vw; top: 8vh; font-size: 2vw""> 
            <font color=""green""> Bonus : $10 </font>
            </div>
        </div>
    
        <img class=""stim"" src=./stimuli//pack_shapes_diff/cat_1/diff_2/ex_1_2_17.png></img>
    ","null","stimulus","","","","","","",""
"","","","","","html-keyboard-response","32","66899","0.0-5.0-2.5","617139bdf6dbf9169a30ad3a","655cb802637e0dbe2941dbc4","655cb8b37f98be58bf2dff82","null","
        <div style=""text-align: center; position: fixed; top: 5vh; left: 40vw;"">
            <div style=""margin:0 auto; width: 20vw; top: 8vh; font-size: 2vw""> 
            <font color=""green""> Bonus : $10 </font>
            </div>
        </div>
    ","null","","","","","","","",""
"","","","","","html-keyboard-response","33","67396","0.0-5.0-3.5","617139bdf6dbf9169a30ad3a","655cb802637e0dbe2941dbc4","655cb8b37f98be58bf2dff82","496","./stimuli//pack_shapes_diff/cat_1/diff_2/ex_1_2_17.png","arrowright","response","ArrowLeft","17","1","2","train","false",""
"","","","","","html-keyboard-response","34","68907","0.0-5.0-4.5","617139bdf6dbf9169a30ad3a","655cb802637e0dbe2941dbc4","655cb8b37f98be58bf2dff82","null","<p> <font color=""red"" size=""5vw""> Wrong category! </font> </p>","null","feedback","","","","","","","10"
"","","","","","html-keyboard-response","35","70172","0.0-5.0-0.6","617139bdf6dbf9169a30ad3a","655cb802637e0dbe2941dbc4","655cb8b37f98be58bf2dff82","1265","
            
        <div style=""text-align: center; position: fixed; top: 5vh; left: 40vw;"">
            <div style=""margin:0 auto; width: 20vw; top: 8vh; font-size: 2vw""> 
            <font color=""green""> Bonus : $10 </font>
            </div>
        </div>
    
            <div> Please press any key to continue to the next image.</div>
        "," ","ITI","","","","","","",""
"","","","","","html-keyboard-response","36","70785","0.0-5.0-1.6","617139bdf6dbf9169a30ad3a","655cb802637e0dbe2941dbc4","655cb8b37f98be58bf2dff82","null","
        
        <div style=""text-align: center; position: fixed; top: 5vh; left: 40vw;"">
            <div style=""margin:0 auto; width: 20vw; top: 8vh; font-size: 2vw""> 
            <font color=""green""> Bonus : $10 </font>
            </div>
        </div>
    
        <img class=""stim"" src=./stimuli//pack_shapes_diff/cat_2/diff_2/ex_2_2_17.png></img>
    ","null","stimulus","","","","","","",""
"","","","","","html-keyboard-response","37","71798","0.0-5.0-2.6","617139bdf6dbf9169a30ad3a","655cb802637e0dbe2941dbc4","655cb8b37f98be58bf2dff82","null","
        <div style=""text-align: center; position: fixed; top: 5vh; left: 40vw;"">
            <div style=""margin:0 auto; width: 20vw; top: 8vh; font-size: 2vw""> 
            <font color=""green""> Bonus : $10 </font>
            </div>
        </div>
    ","null","","","","","","","",""
"","","","","","html-keyboard-response","38","72268","0.0-5.0-3.6","617139bdf6dbf9169a30ad3a","655cb802637e0dbe2941dbc4","655cb8b37f98be58bf2dff82","469","./stimuli//pack_shapes_diff/cat_2/diff_2/ex_2_2_17.png","arrowleft","response","ArrowRight","17","2","2","train","false",""
"","","","","","html-keyboard-response","39","73782","0.0-5.0-4.6","617139bdf6dbf9169a30ad3a","655cb802637e0dbe2941dbc4","655cb8b37f98be58bf2dff82","null","<p> <font color=""red"" size=""5vw""> Wrong category! </font> </p>","null","feedback","","","","","","","10"
"","","","","","html-keyboard-response","40","74708","0.0-5.0-0.7","617139bdf6dbf9169a30ad3a","655cb802637e0dbe2941dbc4","655cb8b37f98be58bf2dff82","926","
            
        <div style=""text-align: center; position: fixed; top: 5vh; left: 40vw;"">
            <div style=""margin:0 auto; width: 20vw; top: 8vh; font-size: 2vw""> 
            <font color=""green""> Bonus : $10 </font>
            </div>
        </div>
    
            <div> Please press any key to continue to the next image.</div>
        "," ","ITI","","","","","","",""
"","","","","","html-keyboard-response","41","75315","0.0-5.0-1.7","617139bdf6dbf9169a30ad3a","655cb802637e0dbe2941dbc4","655cb8b37f98be58bf2dff82","null","
        
        <div style=""text-align: center; position: fixed; top: 5vh; left: 40vw;"">
            <div style=""margin:0 auto; width: 20vw; top: 8vh; font-size: 2vw""> 
            <font color=""green""> Bonus : $10 </font>
            </div>
        </div>
    
        <img class=""stim"" src=./stimuli//pack_shapes_diff/cat_2/diff_2/ex_2_2_10.png></img>
    ","null","stimulus","","","","","","",""
"","","","","","html-keyboard-response","42","76330","0.0-5.0-2.7","617139bdf6dbf9169a30ad3a","655cb802637e0dbe2941dbc4","655cb8b37f98be58bf2dff82","null","
        <div style=""text-align: center; position: fixed; top: 5vh; left: 40vw;"">
            <div style=""margin:0 auto; width: 20vw; top: 8vh; font-size: 2vw""> 
            <font color=""green""> Bonus : $10 </font>
            </div>
        </div>
    ","null","","","","","","","",""
"","","","","","html-keyboard-response","43","76924","0.0-5.0-3.7","617139bdf6dbf9169a30ad3a","655cb802637e0dbe2941dbc4","655cb8b37f98be58bf2dff82","594","./stimuli//pack_shapes_diff/cat_2/diff_2/ex_2_2_10.png","arrowright","response","ArrowRight","10","2","2","train","true",""
"","","","","","html-keyboard-response","44","78435","0.0-5.0-4.7","617139bdf6dbf9169a30ad3a","655cb802637e0dbe2941dbc4","655cb8b37f98be58bf2dff82","null","<p> <font color=""green"" size=""5vw""> Correct category! </font> </p>","null","feedback","","","","","","","10"
"","","","","","html-keyboard-response","45","79340","0.0-5.0-0.8","617139bdf6dbf9169a30ad3a","655cb802637e0dbe2941dbc4","655cb8b37f98be58bf2dff82","905","
            
        <div style=""text-align: center; position: fixed; top: 5vh; left: 40vw;"">
            <div style=""margin:0 auto; width: 20vw; top: 8vh; font-size: 2vw""> 
            <font color=""green""> Bonus : $10 </font>
            </div>
        </div>
    
            <div> Please press any key to continue to the next image.</div>
        "," ","ITI","","","","","","",""
"","","","","","html-keyboard-response","46","79948","0.0-5.0-1.8","617139bdf6dbf9169a30ad3a","655cb802637e0dbe2941dbc4","655cb8b37f98be58bf2dff82","null","
        
        <div style=""text-align: center; position: fixed; top: 5vh; left: 40vw;"">
            <div style=""margin:0 auto; width: 20vw; top: 8vh; font-size: 2vw""> 
            <font color=""green""> Bonus : $10 </font>
            </div>
        </div>
    
        <img class=""stim"" src=./stimuli//pack_shapes_diff/cat_2/diff_1/ex_2_1_11.png></img>
    ","null","stimulus","","","","","","",""
"","","","","","html-keyboard-response","47","80950","0.0-5.0-2.8","617139bdf6dbf9169a30ad3a","655cb802637e0dbe2941dbc4","655cb8b37f98be58bf2dff82","null","
        <div style=""text-align: center; position: fixed; top: 5vh; left: 40vw;"">
            <div style=""margin:0 auto; width: 20vw; top: 8vh; font-size: 2vw""> 
            <font color=""green""> Bonus : $10 </font>
            </div>
        </div>
    ","null","","","","","","","",""
"","","","","","html-keyboard-response","48","81373","0.0-5.0-3.8","617139bdf6dbf9169a30ad3a","655cb802637e0dbe2941dbc4","655cb8b37f98be58bf2dff82","422","./stimuli//pack_shapes_diff/cat_2/diff_1/ex_2_1_11.png","arrowright","response","ArrowRight","11","2","1","train","true",""
"","","","","","html-keyboard-response","49","82887","0.0-5.0-4.8","617139bdf6dbf9169a30ad3a","655cb802637e0dbe2941dbc4","655cb8b37f98be58bf2dff82","null","<p> <font color=""green"" size=""5vw""> Correct category! </font> </p>","null","feedback","","","","","","","10"
"","","","","","html-keyboard-response","50","83892","0.0-5.0-0.9","617139bdf6dbf9169a30ad3a","655cb802637e0dbe2941dbc4","655cb8b37f98be58bf2dff82","1005","
            
        <div style=""text-align: center; position: fixed; top: 5vh; left: 40vw;"">
            <div style=""margin:0 auto; width: 20vw; top: 8vh; font-size: 2vw""> 
            <font color=""green""> Bonus : $10 </font>
            </div>
        </div>
    
            <div> Please press any key to continue to the next image.</div>
        "," ","ITI","","","","","","",""
"","","","","","html-keyboard-response","51","84496","0.0-5.0-1.9","617139bdf6dbf9169a30ad3a","655cb802637e0dbe2941dbc4","655cb8b37f98be58bf2dff82","null","
        
        <div style=""text-align: center; position: fixed; top: 5vh; left: 40vw;"">
            <div style=""margin:0 auto; width: 20vw; top: 8vh; font-size: 2vw""> 
            <font color=""green""> Bonus : $10 </font>
            </div>
        </div>
    
        <img class=""stim"" src=./stimuli//pack_shapes_diff/cat_1/diff_2/ex_1_2_14.png></img>
    ","null","stimulus","","","","","","",""
"","","","","","html-keyboard-response","52","85512","0.0-5.0-2.9","617139bdf6dbf9169a30ad3a","655cb802637e0dbe2941dbc4","655cb8b37f98be58bf2dff82","null","
        <div style=""text-align: center; position: fixed; top: 5vh; left: 40vw;"">
            <div style=""margin:0 auto; width: 20vw; top: 8vh; font-size: 2vw""> 
            <font color=""green""> Bonus : $10 </font>
            </div>
        </div>
    ","null","","","","","","","",""
"","","","","","html-keyboard-response","53","86108","0.0-5.0-3.9","617139bdf6dbf9169a30ad3a","655cb802637e0dbe2941dbc4","655cb8b37f98be58bf2dff82","595","./stimuli//pack_shapes_diff/cat_1/diff_2/ex_1_2_14.png","arrowleft","response","ArrowLeft","14","1","2","train","true",""
"","","","","","html-keyboard-response","54","87609","0.0-5.0-4.9","617139bdf6dbf9169a30ad3a","655cb802637e0dbe2941dbc4","655cb8b37f98be58bf2dff82","null","<p> <font color=""green"" size=""5vw""> Correct category! </font> </p>","null","feedback","","","","","","","10"
"","","","","","html-keyboard-response","55","97148","0.0-6.0","617139bdf6dbf9169a30ad3a","655cb802637e0dbe2941dbc4","655cb8b37f98be58bf2dff82","9539","
            <b> <p> The practice round has finished.</p>
            <b> For the rest of the experiment if you guess incorrectly $0.05 will be subtracted from your bonus!</b>
            <p> Press any key to begin the test. </p>
            "," ","intermission","","","","","","",""
"","","","","","html-keyboard-response","56","98172","0.0-7.0-0.0","617139bdf6dbf9169a30ad3a","655cb802637e0dbe2941dbc4","655cb8b37f98be58bf2dff82","1023","
            
        <div style=""text-align: center; position: fixed; top: 5vh; left: 40vw;"">
            <div style=""margin:0 auto; width: 20vw; top: 8vh; font-size: 2vw""> 
            <font color=""green""> Bonus : $10 </font>
            </div>
        </div>
    
            <div> Please press any key to continue to the next image.</div>
        "," ","ITI","","","","","","",""
"","","","","","html-keyboard-response","57","98775","0.0-7.0-1.0","617139bdf6dbf9169a30ad3a","655cb802637e0dbe2941dbc4","655cb8b37f98be58bf2dff82","null","
        
        <div style=""text-align: center; position: fixed; top: 5vh; left: 40vw;"">
            <div style=""margin:0 auto; width: 20vw; top: 8vh; font-size: 2vw""> 
            <font color=""green""> Bonus : $10 </font>
            </div>
        </div>
    
        <img class=""stim"" src=./stimuli//pack_shapes_diff/cat_1/diff_1/ex_1_1_5.png></img>
    ","null","stimulus","","","","","","",""
"","","","","","html-keyboard-response","58","99787","0.0-7.0-2.0","617139bdf6dbf9169a30ad3a","655cb802637e0dbe2941dbc4","655cb8b37f98be58bf2dff82","null","
        <div style=""text-align: center; position: fixed; top: 5vh; left: 40vw;"">
            <div style=""margin:0 auto; width: 20vw; top: 8vh; font-size: 2vw""> 
            <font color=""green""> Bonus : $10 </font>
            </div>
        </div>
    ","null","","","","","","","",""
"","","","","","html-keyboard-response","59","100612","0.0-7.0-3.0","617139bdf6dbf9169a30ad3a","655cb802637e0dbe2941dbc4","655cb8b37f98be58bf2dff82","824","./stimuli//pack_shapes_diff/cat_1/diff_1/ex_1_1_5.png","arrowleft","response","ArrowLeft","5","1","1","test","true",""
"","","","","","html-keyboard-response","60","102127","0.0-7.0-4.0","617139bdf6dbf9169a30ad3a","655cb802637e0dbe2941dbc4","655cb8b37f98be58bf2dff82","null","<p> <font color=""green"" size=""5vw""> Correct category! </font></p>","null","feedback","","","","","","","10"
"","","","","","html-keyboard-response","61","102988","0.0-7.1-0.1","617139bdf6dbf9169a30ad3a","655cb802637e0dbe2941dbc4","655cb8b37f98be58bf2dff82","861","
            
        <div style=""text-align: center; position: fixed; top: 5vh; left: 40vw;"">
            <div style=""margin:0 auto; width: 20vw; top: 8vh; font-size: 2vw""> 
            <font color=""green""> Bonus : $10 </font>
            </div>
        </div>
    
            <div> Please press any key to continue to the next image.</div>
        "," ","ITI","","","","","","",""
"","","","","","html-keyboard-response","62","103595","0.0-7.1-1.1","617139bdf6dbf9169a30ad3a","655cb802637e0dbe2941dbc4","655cb8b37f98be58bf2dff82","null","
        
        <div style=""text-align: center; position: fixed; top: 5vh; left: 40vw;"">
            <div style=""margin:0 auto; width: 20vw; top: 8vh; font-size: 2vw""> 
            <font color=""green""> Bonus : $10 </font>
            </div>
        </div>
    
        <img class=""stim"" src=./stimuli//pack_shapes_diff/cat_1/diff_1/ex_1_1_11.png></img>
    ","null","stimulus","","","","","","",""
"","","","","","html-keyboard-response","63","104597","0.0-7.1-2.1","617139bdf6dbf9169a30ad3a","655cb802637e0dbe2941dbc4","655cb8b37f98be58bf2dff82","null","
        <div style=""text-align: center; position: fixed; top: 5vh; left: 40vw;"">
            <div style=""margin:0 auto; width: 20vw; top: 8vh; font-size: 2vw""> 
            <font color=""green""> Bonus : $10 </font>
            </div>
        </div>
    ","null","","","","","","","",""
"","","","","","html-keyboard-response","64","105100","0.0-7.1-3.1","617139bdf6dbf9169a30ad3a","655cb802637e0dbe2941dbc4","655cb8b37f98be58bf2dff82","502","./stimuli//pack_shapes_diff/cat_1/diff_1/ex_1_1_11.png","arrowleft","response","ArrowLeft","11","1","1","test","true",""
"","","","","","html-keyboard-response","65","106609","0.0-7.1-4.1","617139bdf6dbf9169a30ad3a","655cb802637e0dbe2941dbc4","655cb8b37f98be58bf2dff82","null","<p> <font color=""green"" size=""5vw""> Correct category! </font></p>","null","feedback","","","","","","","10"
"","","","","","html-keyboard-response","66","108100","0.0-7.2-0.2","617139bdf6dbf9169a30ad3a","655cb802637e0dbe2941dbc4","655cb8b37f98be58bf2dff82","1491","
            
        <div style=""text-align: center; position: fixed; top: 5vh; left: 40vw;"">
            <div style=""margin:0 auto; width: 20vw; top: 8vh; font-size: 2vw""> 
            <font color=""green""> Bonus : $10 </font>
            </div>
        </div>
    
            <div> Please press any key to continue to the next image.</div>
        "," ","ITI","","","","","","",""
"","","","","","html-keyboard-response","67","108714","0.0-7.2-1.2","617139bdf6dbf9169a30ad3a","655cb802637e0dbe2941dbc4","655cb8b37f98be58bf2dff82","null","
        
        <div style=""text-align: center; position: fixed; top: 5vh; left: 40vw;"">
            <div style=""margin:0 auto; width: 20vw; top: 8vh; font-size: 2vw""> 
            <font color=""green""> Bonus : $10 </font>
            </div>
        </div>
    
        <img class=""stim"" src=./stimuli//pack_shapes_diff/cat_2/diff_1/ex_2_1_14.png></img>
    ","null","stimulus","","","","","","",""
"","","","","","html-keyboard-response","68","109729","0.0-7.2-2.2","617139bdf6dbf9169a30ad3a","655cb802637e0dbe2941dbc4","655cb8b37f98be58bf2dff82","null","
        <div style=""text-align: center; position: fixed; top: 5vh; left: 40vw;"">
            <div style=""margin:0 auto; width: 20vw; top: 8vh; font-size: 2vw""> 
            <font color=""green""> Bonus : $10 </font>
            </div>
        </div>
    ","null","","","","","","","",""
"","","","","","html-keyboard-response","69","110236","0.0-7.2-3.2","617139bdf6dbf9169a30ad3a","655cb802637e0dbe2941dbc4","655cb8b37f98be58bf2dff82","507","./stimuli//pack_shapes_diff/cat_2/diff_1/ex_2_1_14.png","arrowright","response","ArrowRight","14","2","1","test","true",""
"","","","","","html-keyboard-response","70","111744","0.0-7.2-4.2","617139bdf6dbf9169a30ad3a","655cb802637e0dbe2941dbc4","655cb8b37f98be58bf2dff82","null","<p> <font color=""green"" size=""5vw""> Correct category! </font></p>","null","feedback","","","","","","","10"
"","","","","","html-keyboard-response","71","112636","0.0-7.3-0.3","617139bdf6dbf9169a30ad3a","655cb802637e0dbe2941dbc4","655cb8b37f98be58bf2dff82","892","
            
        <div style=""text-align: center; position: fixed; top: 5vh; left: 40vw;"">
            <div style=""margin:0 auto; width: 20vw; top: 8vh; font-size: 2vw""> 
            <font color=""green""> Bonus : $10 </font>
            </div>
        </div>
    
            <div> Please press any key to continue to the next image.</div>
        "," ","ITI","","","","","","",""
"","","","","","html-keyboard-response","72","113241","0.0-7.3-1.3","617139bdf6dbf9169a30ad3a","655cb802637e0dbe2941dbc4","655cb8b37f98be58bf2dff82","null","
        
        <div style=""text-align: center; position: fixed; top: 5vh; left: 40vw;"">
            <div style=""margin:0 auto; width: 20vw; top: 8vh; font-size: 2vw""> 
            <font color=""green""> Bonus : $10 </font>
            </div>
        </div>
    
        <img class=""stim"" src=./stimuli//pack_shapes_diff/cat_1/diff_1/ex_1_1_1.png></img>
    ","null","stimulus","","","","","","",""
"","","","","","html-keyboard-response","73","114243","0.0-7.3-2.3","617139bdf6dbf9169a30ad3a","655cb802637e0dbe2941dbc4","655cb8b37f98be58bf2dff82","null","
        <div style=""text-align: center; position: fixed; top: 5vh; left: 40vw;"">
            <div style=""margin:0 auto; width: 20vw; top: 8vh; font-size: 2vw""> 
            <font color=""green""> Bonus : $10 </font>
            </div>
        </div>
    ","null","","","","","","","",""
"","","","","","html-keyboard-response","74","114708","0.0-7.3-3.3","617139bdf6dbf9169a30ad3a","655cb802637e0dbe2941dbc4","655cb8b37f98be58bf2dff82","465","./stimuli//pack_shapes_diff/cat_1/diff_1/ex_1_1_1.png","arrowleft","response","ArrowLeft","1","1","1","test","true",""
"","","","","","html-keyboard-response","75","116211","0.0-7.3-4.3","617139bdf6dbf9169a30ad3a","655cb802637e0dbe2941dbc4","655cb8b37f98be58bf2dff82","null","<p> <font color=""green"" size=""5vw""> Correct category! </font></p>","null","feedback","","","","","","","10"
"","","","","","html-keyboard-response","76","118212","0.0-7.4-0.4","617139bdf6dbf9169a30ad3a","655cb802637e0dbe2941dbc4","655cb8b37f98be58bf2dff82","2000","
            
        <div style=""text-align: center; position: fixed; top: 5vh; left: 40vw;"">
            <div style=""margin:0 auto; width: 20vw; top: 8vh; font-size: 2vw""> 
            <font color=""green""> Bonus : $10 </font>
            </div>
        </div>
    
            <div> Please press any key to continue to the next image.</div>
        "," ","ITI","","","","","","",""
"","","","","","html-keyboard-response","77","118813","0.0-7.4-1.4","617139bdf6dbf9169a30ad3a","655cb802637e0dbe2941dbc4","655cb8b37f98be58bf2dff82","null","
        
        <div style=""text-align: center; position: fixed; top: 5vh; left: 40vw;"">
            <div style=""margin:0 auto; width: 20vw; top: 8vh; font-size: 2vw""> 
            <font color=""green""> Bonus : $10 </font>
            </div>
        </div>
    
        <img class=""stim"" src=./stimuli//pack_shapes_diff/cat_2/diff_1/ex_2_1_15.png></img>
    ","null","stimulus","","","","","","",""
"","","","","","html-keyboard-response","78","119815","0.0-7.4-2.4","617139bdf6dbf9169a30ad3a","655cb802637e0dbe2941dbc4","655cb8b37f98be58bf2dff82","null","
        <div style=""text-align: center; position: fixed; top: 5vh; left: 40vw;"">
            <div style=""margin:0 auto; width: 20vw; top: 8vh; font-size: 2vw""> 
            <font color=""green""> Bonus : $10 </font>
            </div>
        </div>
    ","null","","","","","","","",""
"","","","","","html-keyboard-response","79","120268","0.0-7.4-3.4","617139bdf6dbf9169a30ad3a","655cb802637e0dbe2941dbc4","655cb8b37f98be58bf2dff82","453","./stimuli//pack_shapes_diff/cat_2/diff_1/ex_2_1_15.png","arrowright","response","ArrowRight","15","2","1","test","true",""
"","","","","","html-keyboard-response","80","121782","0.0-7.4-4.4","617139bdf6dbf9169a30ad3a","655cb802637e0dbe2941dbc4","655cb8b37f98be58bf2dff82","null","<p> <font color=""green"" size=""5vw""> Correct category! </font></p>","null","feedback","","","","","","","10"
"","","","","","html-keyboard-response","81","122724","0.0-7.5-0.5","617139bdf6dbf9169a30ad3a","655cb802637e0dbe2941dbc4","655cb8b37f98be58bf2dff82","942","
            
        <div style=""text-align: center; position: fixed; top: 5vh; left: 40vw;"">
            <div style=""margin:0 auto; width: 20vw; top: 8vh; font-size: 2vw""> 
            <font color=""green""> Bonus : $10 </font>
            </div>
        </div>
    
            <div> Please press any key to continue to the next image.</div>
        "," ","ITI","","","","","","",""
"","","","","","html-keyboard-response","82","123331","0.0-7.5-1.5","617139bdf6dbf9169a30ad3a","655cb802637e0dbe2941dbc4","655cb8b37f98be58bf2dff82","null","
        
        <div style=""text-align: center; position: fixed; top: 5vh; left: 40vw;"">
            <div style=""margin:0 auto; width: 20vw; top: 8vh; font-size: 2vw""> 
            <font color=""green""> Bonus : $10 </font>
            </div>
        </div>
    
        <img class=""stim"" src=./stimuli//pack_shapes_diff/cat_2/diff_2/ex_2_2_1.png></img>
    ","null","stimulus","","","","","","",""
"","","","","","html-keyboard-response","83","124342","0.0-7.5-2.5","617139bdf6dbf9169a30ad3a","655cb802637e0dbe2941dbc4","655cb8b37f98be58bf2dff82","null","
        <div style=""text-align: center; position: fixed; top: 5vh; left: 40vw;"">
            <div style=""margin:0 auto; width: 20vw; top: 8vh; font-size: 2vw""> 
            <font color=""green""> Bonus : $10 </font>
            </div>
        </div>
    ","null","","","","","","","",""
"","","","","","html-keyboard-response","84","124884","0.0-7.5-3.5","617139bdf6dbf9169a30ad3a","655cb802637e0dbe2941dbc4","655cb8b37f98be58bf2dff82","542","./stimuli//pack_shapes_diff/cat_2/diff_2/ex_2_2_1.png","arrowright","response","ArrowRight","1","2","2","test","true",""
"","","","","","html-keyboard-response","85","126390","0.0-7.5-4.5","617139bdf6dbf9169a30ad3a","655cb802637e0dbe2941dbc4","655cb8b37f98be58bf2dff82","null","<p> <font color=""green"" size=""5vw""> Correct category! </font></p>","null","feedback","","","","","","","10"
"","","","","","html-keyboard-response","86","128308","0.0-7.6-0.6","617139bdf6dbf9169a30ad3a","655cb802637e0dbe2941dbc4","655cb8b37f98be58bf2dff82","1918","
            
        <div style=""text-align: center; position: fixed; top: 5vh; left: 40vw;"">
            <div style=""margin:0 auto; width: 20vw; top: 8vh; font-size: 2vw""> 
            <font color=""green""> Bonus : $10 </font>
            </div>
        </div>
    
            <div> Please press any key to continue to the next image.</div>
        "," ","ITI","","","","","","",""
"","","","","","html-keyboard-response","87","128920","0.0-7.6-1.6","617139bdf6dbf9169a30ad3a","655cb802637e0dbe2941dbc4","655cb8b37f98be58bf2dff82","null","
        
        <div style=""text-align: center; position: fixed; top: 5vh; left: 40vw;"">
            <div style=""margin:0 auto; width: 20vw; top: 8vh; font-size: 2vw""> 
            <font color=""green""> Bonus : $10 </font>
            </div>
        </div>
    
        <img class=""stim"" src=./stimuli//pack_shapes_diff/cat_2/diff_2/ex_2_2_14.png></img>
    ","null","stimulus","","","","","","",""
"","","","","","html-keyboard-response","88","129922","0.0-7.6-2.6","617139bdf6dbf9169a30ad3a","655cb802637e0dbe2941dbc4","655cb8b37f98be58bf2dff82","null","
        <div style=""text-align: center; position: fixed; top: 5vh; left: 40vw;"">
            <div style=""margin:0 auto; width: 20vw; top: 8vh; font-size: 2vw""> 
            <font color=""green""> Bonus : $10 </font>
            </div>
        </div>
    ","null","","","","","","","",""
"","","","","","html-keyboard-response","89","130380","0.0-7.6-3.6","617139bdf6dbf9169a30ad3a","655cb802637e0dbe2941dbc4","655cb8b37f98be58bf2dff82","457","./stimuli//pack_shapes_diff/cat_2/diff_2/ex_2_2_14.png","arrowright","response","ArrowRight","14","2","2","test","true",""
"","","","","","html-keyboard-response","90","131885","0.0-7.6-4.6","617139bdf6dbf9169a30ad3a","655cb802637e0dbe2941dbc4","655cb8b37f98be58bf2dff82","null","<p> <font color=""green"" size=""5vw""> Correct category! </font></p>","null","feedback","","","","","","","10"
"","","","","","html-keyboard-response","91","133404","0.0-7.7-0.7","617139bdf6dbf9169a30ad3a","655cb802637e0dbe2941dbc4","655cb8b37f98be58bf2dff82","1518","
            
        <div style=""text-align: center; position: fixed; top: 5vh; left: 40vw;"">
            <div style=""margin:0 auto; width: 20vw; top: 8vh; font-size: 2vw""> 
            <font color=""green""> Bonus : $10 </font>
            </div>
        </div>
    
            <div> Please press any key to continue to the next image.</div>
        "," ","ITI","","","","","","",""
"","","","","","html-keyboard-response","92","134019","0.0-7.7-1.7","617139bdf6dbf9169a30ad3a","655cb802637e0dbe2941dbc4","655cb8b37f98be58bf2dff82","null","
        
        <div style=""text-align: center; position: fixed; top: 5vh; left: 40vw;"">
            <div style=""margin:0 auto; width: 20vw; top: 8vh; font-size: 2vw""> 
            <font color=""green""> Bonus : $10 </font>
            </div>
        </div>
    
        <img class=""stim"" src=./stimuli//pack_shapes_diff/cat_1/diff_2/ex_1_2_7.png></img>
    ","null","stimulus","","","","","","",""
"","","","","","html-keyboard-response","93","135034","0.0-7.7-2.7","617139bdf6dbf9169a30ad3a","655cb802637e0dbe2941dbc4","655cb8b37f98be58bf2dff82","null","
        <div style=""text-align: center; position: fixed; top: 5vh; left: 40vw;"">
            <div style=""margin:0 auto; width: 20vw; top: 8vh; font-size: 2vw""> 
            <font color=""green""> Bonus : $10 </font>
            </div>
        </div>
    ","null","","","","","","","",""
"","","","","","html-keyboard-response","94","135580","0.0-7.7-3.7","617139bdf6dbf9169a30ad3a","655cb802637e0dbe2941dbc4","655cb8b37f98be58bf2dff82","546","./stimuli//pack_shapes_diff/cat_1/diff_2/ex_1_2_7.png","arrowleft","response","ArrowLeft","7","1","2","test","true",""
"","","","","","html-keyboard-response","95","137081","0.0-7.7-4.7","617139bdf6dbf9169a30ad3a","655cb802637e0dbe2941dbc4","655cb8b37f98be58bf2dff82","null","<p> <font color=""green"" size=""5vw""> Correct category! </font></p>","null","feedback","","","","","","","10"
"","","","","","html-keyboard-response","96","139868","0.0-7.8-0.8","617139bdf6dbf9169a30ad3a","655cb802637e0dbe2941dbc4","655cb8b37f98be58bf2dff82","2787","
            
        <div style=""text-align: center; position: fixed; top: 5vh; left: 40vw;"">
            <div style=""margin:0 auto; width: 20vw; top: 8vh; font-size: 2vw""> 
            <font color=""green""> Bonus : $10 </font>
            </div>
        </div>
    
            <div> Please press any key to continue to the next image.</div>
        "," ","ITI","","","","","","",""
"","","","","","html-keyboard-response","97","140470","0.0-7.8-1.8","617139bdf6dbf9169a30ad3a","655cb802637e0dbe2941dbc4","655cb8b37f98be58bf2dff82","null","
        
        <div style=""text-align: center; position: fixed; top: 5vh; left: 40vw;"">
            <div style=""margin:0 auto; width: 20vw; top: 8vh; font-size: 2vw""> 
            <font color=""green""> Bonus : $10 </font>
            </div>
        </div>
    
        <img class=""stim"" src=./stimuli//pack_shapes_diff/cat_2/diff_2/ex_2_2_7.png></img>
    ","null","stimulus","","","","","","",""
"","","","","","html-keyboard-response","98","141485","0.0-7.8-2.8","617139bdf6dbf9169a30ad3a","655cb802637e0dbe2941dbc4","655cb8b37f98be58bf2dff82","null","
        <div style=""text-align: center; position: fixed; top: 5vh; left: 40vw;"">
            <div style=""margin:0 auto; width: 20vw; top: 8vh; font-size: 2vw""> 
            <font color=""green""> Bonus : $10 </font>
            </div>
        </div>
    ","null","","","","","","","",""
"","","","","","html-keyboard-response","99","141940","0.0-7.8-3.8","617139bdf6dbf9169a30ad3a","655cb802637e0dbe2941dbc4","655cb8b37f98be58bf2dff82","455","./stimuli//pack_shapes_diff/cat_2/diff_2/ex_2_2_7.png","arrowright","response","ArrowRight","7","2","2","test","true",""
"","","","","","html-keyboard-response","100","143453","0.0-7.8-4.8","617139bdf6dbf9169a30ad3a","655cb802637e0dbe2941dbc4","655cb8b37f98be58bf2dff82","null","<p> <font color=""green"" size=""5vw""> Correct category! </font></p>","null","feedback","","","","","","","10"
"","","","","","html-keyboard-response","101","146316","0.0-7.9-0.9","617139bdf6dbf9169a30ad3a","655cb802637e0dbe2941dbc4","655cb8b37f98be58bf2dff82","2862","
            
        <div style=""text-align: center; position: fixed; top: 5vh; left: 40vw;"">
            <div style=""margin:0 auto; width: 20vw; top: 8vh; font-size: 2vw""> 
            <font color=""green""> Bonus : $10 </font>
            </div>
        </div>
    
            <div> Please press any key to continue to the next image.</div>
        "," ","ITI","","","","","","",""
"","","","","","html-keyboard-response","102","146925","0.0-7.9-1.9","617139bdf6dbf9169a30ad3a","655cb802637e0dbe2941dbc4","655cb8b37f98be58bf2dff82","null","
        
        <div style=""text-align: center; position: fixed; top: 5vh; left: 40vw;"">
            <div style=""margin:0 auto; width: 20vw; top: 8vh; font-size: 2vw""> 
            <font color=""green""> Bonus : $10 </font>
            </div>
        </div>
    
        <img class=""stim"" src=./stimuli//pack_shapes_diff/cat_2/diff_2/ex_2_2_5.png></img>
    ","null","stimulus","","","","","","",""
"","","","","","html-keyboard-response","103","147938","0.0-7.9-2.9","617139bdf6dbf9169a30ad3a","655cb802637e0dbe2941dbc4","655cb8b37f98be58bf2dff82","null","
        <div style=""text-align: center; position: fixed; top: 5vh; left: 40vw;"">
            <div style=""margin:0 auto; width: 20vw; top: 8vh; font-size: 2vw""> 
            <font color=""green""> Bonus : $10 </font>
            </div>
        </div>
    ","null","","","","","","","",""
"","","","","","html-keyboard-response","104","148364","0.0-7.9-3.9","617139bdf6dbf9169a30ad3a","655cb802637e0dbe2941dbc4","655cb8b37f98be58bf2dff82","425","./stimuli//pack_shapes_diff/cat_2/diff_2/ex_2_2_5.png","arrowright","response","ArrowRight","5","2","2","test","true",""
"","","","","","html-keyboard-response","105","149873","0.0-7.9-4.9","617139bdf6dbf9169a30ad3a","655cb802637e0dbe2941dbc4","655cb8b37f98be58bf2dff82","null","<p> <font color=""green"" size=""5vw""> Correct category! </font></p>","null","feedback","","","","","","","10"
"","","","","","html-keyboard-response","106","151068","0.0-7.10-0.10","617139bdf6dbf9169a30ad3a","655cb802637e0dbe2941dbc4","655cb8b37f98be58bf2dff82","1195","
            
        <div style=""text-align: center; position: fixed; top: 5vh; left: 40vw;"">
            <div style=""margin:0 auto; width: 20vw; top: 8vh; font-size: 2vw""> 
            <font color=""green""> Bonus : $10 </font>
            </div>
        </div>
    
            <div> Please press any key to continue to the next image.</div>
        ","arrowright","ITI","","","","","","",""
"","","","","","html-keyboard-response","107","151683","0.0-7.10-1.10","617139bdf6dbf9169a30ad3a","655cb802637e0dbe2941dbc4","655cb8b37f98be58bf2dff82","null","
        
        <div style=""text-align: center; position: fixed; top: 5vh; left: 40vw;"">
            <div style=""margin:0 auto; width: 20vw; top: 8vh; font-size: 2vw""> 
            <font color=""green""> Bonus : $10 </font>
            </div>
        </div>
    
        <img class=""stim"" src=./stimuli//pack_shapes_diff/cat_2/diff_3/ex_2_3_14.png></img>
    ","null","stimulus","","","","","","",""
"","","","","","html-keyboard-response","108","152697","0.0-7.10-2.10","617139bdf6dbf9169a30ad3a","655cb802637e0dbe2941dbc4","655cb8b37f98be58bf2dff82","null","
        <div style=""text-align: center; position: fixed; top: 5vh; left: 40vw;"">
            <div style=""margin:0 auto; width: 20vw; top: 8vh; font-size: 2vw""> 
            <font color=""green""> Bonus : $10 </font>
            </div>
        </div>
    ","null","","","","","","","",""
"","","","","","html-keyboard-response","109","153164","0.0-7.10-3.10","617139bdf6dbf9169a30ad3a","655cb802637e0dbe2941dbc4","655cb8b37f98be58bf2dff82","466","./stimuli//pack_shapes_diff/cat_2/diff_3/ex_2_3_14.png","arrowright","response","ArrowRight","14","2","3","test","true",""
"","","","","","html-keyboard-response","110","154669","0.0-7.10-4.10","617139bdf6dbf9169a30ad3a","655cb802637e0dbe2941dbc4","655cb8b37f98be58bf2dff82","null","<p> <font color=""green"" size=""5vw""> Correct category! </font></p>","null","feedback","","","","","","","10"
"","","","","","html-keyboard-response","111","156060","0.0-7.11-0.11","617139bdf6dbf9169a30ad3a","655cb802637e0dbe2941dbc4","655cb8b37f98be58bf2dff82","1391","
            
        <div style=""text-align: center; position: fixed; top: 5vh; left: 40vw;"">
            <div style=""margin:0 auto; width: 20vw; top: 8vh; font-size: 2vw""> 
            <font color=""green""> Bonus : $10 </font>
            </div>
        </div>
    
            <div> Please press any key to continue to the next image.</div>
        ","arrowright","ITI","","","","","","",""
"","","","","","html-keyboard-response","112","156671","0.0-7.11-1.11","617139bdf6dbf9169a30ad3a","655cb802637e0dbe2941dbc4","655cb8b37f98be58bf2dff82","null","
        
        <div style=""text-align: center; position: fixed; top: 5vh; left: 40vw;"">
            <div style=""margin:0 auto; width: 20vw; top: 8vh; font-size: 2vw""> 
            <font color=""green""> Bonus : $10 </font>
            </div>
        </div>
    
        <img class=""stim"" src=./stimuli//pack_shapes_diff/cat_1/diff_3/ex_1_3_10.png></img>
    ","null","stimulus","","","","","","",""
"","","","","","html-keyboard-response","113","157673","0.0-7.11-2.11","617139bdf6dbf9169a30ad3a","655cb802637e0dbe2941dbc4","655cb8b37f98be58bf2dff82","null","
        <div style=""text-align: center; position: fixed; top: 5vh; left: 40vw;"">
            <div style=""margin:0 auto; width: 20vw; top: 8vh; font-size: 2vw""> 
            <font color=""green""> Bonus : $10 </font>
            </div>
        </div>
    ","null","","","","","","","",""
"","","","","","html-keyboard-response","114","158276","0.0-7.11-3.11","617139bdf6dbf9169a30ad3a","655cb802637e0dbe2941dbc4","655cb8b37f98be58bf2dff82","602","./stimuli//pack_shapes_diff/cat_1/diff_3/ex_1_3_10.png","arrowleft","response","ArrowLeft","10","1","3","test","true",""
"","","","","","html-keyboard-response","115","159783","0.0-7.11-4.11","617139bdf6dbf9169a30ad3a","655cb802637e0dbe2941dbc4","655cb8b37f98be58bf2dff82","null","<p> <font color=""green"" size=""5vw""> Correct category! </font></p>","null","feedback","","","","","","","10"
"","","","","","html-keyboard-response","116","161180","0.0-7.12-0.12","617139bdf6dbf9169a30ad3a","655cb802637e0dbe2941dbc4","655cb8b37f98be58bf2dff82","1396","
            
        <div style=""text-align: center; position: fixed; top: 5vh; left: 40vw;"">
            <div style=""margin:0 auto; width: 20vw; top: 8vh; font-size: 2vw""> 
            <font color=""green""> Bonus : $10 </font>
            </div>
        </div>
    
            <div> Please press any key to continue to the next image.</div>
        ","arrowleft","ITI","","","","","","",""
"","","","","","html-keyboard-response","117","161793","0.0-7.12-1.12","617139bdf6dbf9169a30ad3a","655cb802637e0dbe2941dbc4","655cb8b37f98be58bf2dff82","null","
        
        <div style=""text-align: center; position: fixed; top: 5vh; left: 40vw;"">
            <div style=""margin:0 auto; width: 20vw; top: 8vh; font-size: 2vw""> 
            <font color=""green""> Bonus : $10 </font>
            </div>
        </div>
    
        <img class=""stim"" src=./stimuli//pack_shapes_diff/cat_1/diff_3/ex_1_3_15.png></img>
    ","null","stimulus","","","","","","",""
"","","","","","html-keyboard-response","118","162806","0.0-7.12-2.12","617139bdf6dbf9169a30ad3a","655cb802637e0dbe2941dbc4","655cb8b37f98be58bf2dff82","null","
        <div style=""text-align: center; position: fixed; top: 5vh; left: 40vw;"">
            <div style=""margin:0 auto; width: 20vw; top: 8vh; font-size: 2vw""> 
            <font color=""green""> Bonus : $10 </font>
            </div>
        </div>
    ","null","","","","","","","",""
"","","","","","html-keyboard-response","119","163452","0.0-7.12-3.12","617139bdf6dbf9169a30ad3a","655cb802637e0dbe2941dbc4","655cb8b37f98be58bf2dff82","645","./stimuli//pack_shapes_diff/cat_1/diff_3/ex_1_3_15.png","arrowleft","response","ArrowLeft","15","1","3","test","true",""
"","","","","","html-keyboard-response","120","164956","0.0-7.12-4.12","617139bdf6dbf9169a30ad3a","655cb802637e0dbe2941dbc4","655cb8b37f98be58bf2dff82","null","<p> <font color=""green"" size=""5vw""> Correct category! </font></p>","null","feedback","","","","","","","10"
"","","","","","html-keyboard-response","121","166276","0.0-7.13-0.13","617139bdf6dbf9169a30ad3a","655cb802637e0dbe2941dbc4","655cb8b37f98be58bf2dff82","1320","
            
        <div style=""text-align: center; position: fixed; top: 5vh; left: 40vw;"">
            <div style=""margin:0 auto; width: 20vw; top: 8vh; font-size: 2vw""> 
            <font color=""green""> Bonus : $10 </font>
            </div>
        </div>
    
            <div> Please press any key to continue to the next image.</div>
        ","arrowleft","ITI","","","","","","",""
"","","","","","html-keyboard-response","122","166888","0.0-7.13-1.13","617139bdf6dbf9169a30ad3a","655cb802637e0dbe2941dbc4","655cb8b37f98be58bf2dff82","null","
        
        <div style=""text-align: center; position: fixed; top: 5vh; left: 40vw;"">
            <div style=""margin:0 auto; width: 20vw; top: 8vh; font-size: 2vw""> 
            <font color=""green""> Bonus : $10 </font>
            </div>
        </div>
    
        <img class=""stim"" src=./stimuli//pack_shapes_diff/cat_1/diff_3/ex_1_3_9.png></img>
    ","null","stimulus","","","","","","",""
"","","","","","html-keyboard-response","123","167898","0.0-7.13-2.13","617139bdf6dbf9169a30ad3a","655cb802637e0dbe2941dbc4","655cb8b37f98be58bf2dff82","null","
        <div style=""text-align: center; position: fixed; top: 5vh; left: 40vw;"">
            <div style=""margin:0 auto; width: 20vw; top: 8vh; font-size: 2vw""> 
            <font color=""green""> Bonus : $10 </font>
            </div>
        </div>
    ","null","","","","","","","",""
"","","","","","html-keyboard-response","124","168371","0.0-7.13-3.13","617139bdf6dbf9169a30ad3a","655cb802637e0dbe2941dbc4","655cb8b37f98be58bf2dff82","473","./stimuli//pack_shapes_diff/cat_1/diff_3/ex_1_3_9.png","arrowleft","response","ArrowLeft","9","1","3","test","true",""
"","","","","","html-keyboard-response","125","169879","0.0-7.13-4.13","617139bdf6dbf9169a30ad3a","655cb802637e0dbe2941dbc4","655cb8b37f98be58bf2dff82","null","<p> <font color=""green"" size=""5vw""> Correct category! </font></p>","null","feedback","","","","","","","10"
"","","","","","html-keyboard-response","126","171227","0.0-7.14-0.14","617139bdf6dbf9169a30ad3a","655cb802637e0dbe2941dbc4","655cb8b37f98be58bf2dff82","1348","
            
        <div style=""text-align: center; position: fixed; top: 5vh; left: 40vw;"">
            <div style=""margin:0 auto; width: 20vw; top: 8vh; font-size: 2vw""> 
            <font color=""green""> Bonus : $10 </font>
            </div>
        </div>
    
            <div> Please press any key to continue to the next image.</div>
        ","arrowleft","ITI","","","","","","",""
"","","","","","html-keyboard-response","127","171836","0.0-7.14-1.14","617139bdf6dbf9169a30ad3a","655cb802637e0dbe2941dbc4","655cb8b37f98be58bf2dff82","null","
        
        <div style=""text-align: center; position: fixed; top: 5vh; left: 40vw;"">
            <div style=""margin:0 auto; width: 20vw; top: 8vh; font-size: 2vw""> 
            <font color=""green""> Bonus : $10 </font>
            </div>
        </div>
    
        <img class=""stim"" src=./stimuli//pack_shapes_diff/cat_2/diff_3/ex_2_3_4.png></img>
    ","null","stimulus","","","","","","",""
"","","","","","html-keyboard-response","128","172849","0.0-7.14-2.14","617139bdf6dbf9169a30ad3a","655cb802637e0dbe2941dbc4","655cb8b37f98be58bf2dff82","null","
        <div style=""text-align: center; position: fixed; top: 5vh; left: 40vw;"">
            <div style=""margin:0 auto; width: 20vw; top: 8vh; font-size: 2vw""> 
            <font color=""green""> Bonus : $10 </font>
            </div>
        </div>
    ","null","","","","","","","",""
"","","","","","html-keyboard-response","129","173348","0.0-7.14-3.14","617139bdf6dbf9169a30ad3a","655cb802637e0dbe2941dbc4","655cb8b37f98be58bf2dff82","498","./stimuli//pack_shapes_diff/cat_2/diff_3/ex_2_3_4.png","arrowright","response","ArrowRight","4","2","3","test","true",""
"","","","","","html-keyboard-response","130","174862","0.0-7.14-4.14","617139bdf6dbf9169a30ad3a","655cb802637e0dbe2941dbc4","655cb8b37f98be58bf2dff82","null","<p> <font color=""green"" size=""5vw""> Correct category! </font></p>","null","feedback","","","","","","","10"
"","","","","","html-keyboard-response","131","177051","0.0-7.15-0.15","617139bdf6dbf9169a30ad3a","655cb802637e0dbe2941dbc4","655cb8b37f98be58bf2dff82","2189","
            
        <div style=""text-align: center; position: fixed; top: 5vh; left: 40vw;"">
            <div style=""margin:0 auto; width: 20vw; top: 8vh; font-size: 2vw""> 
            <font color=""green""> Bonus : $10 </font>
            </div>
        </div>
    
            <div> Please press any key to continue to the next image.</div>
        ","arrowleft","ITI","","","","","","",""
"","","","","","html-keyboard-response","132","177660","0.0-7.15-1.15","617139bdf6dbf9169a30ad3a","655cb802637e0dbe2941dbc4","655cb8b37f98be58bf2dff82","null","
        
        <div style=""text-align: center; position: fixed; top: 5vh; left: 40vw;"">
            <div style=""margin:0 auto; width: 20vw; top: 8vh; font-size: 2vw""> 
            <font color=""green""> Bonus : $10 </font>
            </div>
        </div>
    
        <img class=""stim"" src=./stimuli//pack_shapes_diff/cat_1/diff_4/ex_1_4_1.png></img>
    ","null","stimulus","","","","","","",""
"","","","","","html-keyboard-response","133","178661","0.0-7.15-2.15","617139bdf6dbf9169a30ad3a","655cb802637e0dbe2941dbc4","655cb8b37f98be58bf2dff82","null","
        <div style=""text-align: center; position: fixed; top: 5vh; left: 40vw;"">
            <div style=""margin:0 auto; width: 20vw; top: 8vh; font-size: 2vw""> 
            <font color=""green""> Bonus : $10 </font>
            </div>
        </div>
    ","null","","","","","","","",""
"","","","","","html-keyboard-response","134","179043","0.0-7.15-3.15","617139bdf6dbf9169a30ad3a","655cb802637e0dbe2941dbc4","655cb8b37f98be58bf2dff82","382","./stimuli//pack_shapes_diff/cat_1/diff_4/ex_1_4_1.png","arrowleft","response","ArrowLeft","1","1","4","test","true",""
"","","","","","html-keyboard-response","135","180549","0.0-7.15-4.15","617139bdf6dbf9169a30ad3a","655cb802637e0dbe2941dbc4","655cb8b37f98be58bf2dff82","null","<p> <font color=""green"" size=""5vw""> Correct category! </font></p>","null","feedback","","","","","","","10"
"","","","","","html-keyboard-response","136","181499","0.0-7.16-0.16","617139bdf6dbf9169a30ad3a","655cb802637e0dbe2941dbc4","655cb8b37f98be58bf2dff82","951","
            
        <div style=""text-align: center; position: fixed; top: 5vh; left: 40vw;"">
            <div style=""margin:0 auto; width: 20vw; top: 8vh; font-size: 2vw""> 
            <font color=""green""> Bonus : $10 </font>
            </div>
        </div>
    
            <div> Please press any key to continue to the next image.</div>
        ","arrowleft","ITI","","","","","","",""
"","","","","","html-keyboard-response","137","182111","0.0-7.16-1.16","617139bdf6dbf9169a30ad3a","655cb802637e0dbe2941dbc4","655cb8b37f98be58bf2dff82","null","
        
        <div style=""text-align: center; position: fixed; top: 5vh; left: 40vw;"">
            <div style=""margin:0 auto; width: 20vw; top: 8vh; font-size: 2vw""> 
            <font color=""green""> Bonus : $10 </font>
            </div>
        </div>
    
        <img class=""stim"" src=./stimuli//pack_shapes_diff/cat_1/diff_4/ex_1_4_14.png></img>
    ","null","stimulus","","","","","","",""
"","","","","","html-keyboard-response","138","183126","0.0-7.16-2.16","617139bdf6dbf9169a30ad3a","655cb802637e0dbe2941dbc4","655cb8b37f98be58bf2dff82","null","
        <div style=""text-align: center; position: fixed; top: 5vh; left: 40vw;"">
            <div style=""margin:0 auto; width: 20vw; top: 8vh; font-size: 2vw""> 
            <font color=""green""> Bonus : $10 </font>
            </div>
        </div>
    ","null","","","","","","","",""
"","","","","","html-keyboard-response","139","183635","0.0-7.16-3.16","617139bdf6dbf9169a30ad3a","655cb802637e0dbe2941dbc4","655cb8b37f98be58bf2dff82","509","./stimuli//pack_shapes_diff/cat_1/diff_4/ex_1_4_14.png","arrowleft","response","ArrowLeft","14","1","4","test","true",""
"","","","","","html-keyboard-response","140","185146","0.0-7.16-4.16","617139bdf6dbf9169a30ad3a","655cb802637e0dbe2941dbc4","655cb8b37f98be58bf2dff82","null","<p> <font color=""green"" size=""5vw""> Correct category! </font></p>","null","feedback","","","","","","","10"
"","","","","","html-keyboard-response","141","186051","0.0-7.17-0.17","617139bdf6dbf9169a30ad3a","655cb802637e0dbe2941dbc4","655cb8b37f98be58bf2dff82","905","
            
        <div style=""text-align: center; position: fixed; top: 5vh; left: 40vw;"">
            <div style=""margin:0 auto; width: 20vw; top: 8vh; font-size: 2vw""> 
            <font color=""green""> Bonus : $10 </font>
            </div>
        </div>
    
            <div> Please press any key to continue to the next image.</div>
        ","arrowleft","ITI","","","","","","",""
"","","","","","html-keyboard-response","142","186662","0.0-7.17-1.17","617139bdf6dbf9169a30ad3a","655cb802637e0dbe2941dbc4","655cb8b37f98be58bf2dff82","null","
        
        <div style=""text-align: center; position: fixed; top: 5vh; left: 40vw;"">
            <div style=""margin:0 auto; width: 20vw; top: 8vh; font-size: 2vw""> 
            <font color=""green""> Bonus : $10 </font>
            </div>
        </div>
    
        <img class=""stim"" src=./stimuli//pack_shapes_diff/cat_1/diff_4/ex_1_4_15.png></img>
    ","null","stimulus","","","","","","",""
"","","","","","html-keyboard-response","143","187677","0.0-7.17-2.17","617139bdf6dbf9169a30ad3a","655cb802637e0dbe2941dbc4","655cb8b37f98be58bf2dff82","null","
        <div style=""text-align: center; position: fixed; top: 5vh; left: 40vw;"">
            <div style=""margin:0 auto; width: 20vw; top: 8vh; font-size: 2vw""> 
            <font color=""green""> Bonus : $10 </font>
            </div>
        </div>
    ","null","","","","","","","",""
"","","","","","html-keyboard-response","144","188251","0.0-7.17-3.17","617139bdf6dbf9169a30ad3a","655cb802637e0dbe2941dbc4","655cb8b37f98be58bf2dff82","574","./stimuli//pack_shapes_diff/cat_1/diff_4/ex_1_4_15.png","arrowleft","response","ArrowLeft","15","1","4","test","true",""
"","","","","","html-keyboard-response","145","189767","0.0-7.17-4.17","617139bdf6dbf9169a30ad3a","655cb802637e0dbe2941dbc4","655cb8b37f98be58bf2dff82","null","<p> <font color=""green"" size=""5vw""> Correct category! </font></p>","null","feedback","","","","","","","10"
"","","","","","html-keyboard-response","146","190563","0.0-7.18-0.18","617139bdf6dbf9169a30ad3a","655cb802637e0dbe2941dbc4","655cb8b37f98be58bf2dff82","796","
            
        <div style=""text-align: center; position: fixed; top: 5vh; left: 40vw;"">
            <div style=""margin:0 auto; width: 20vw; top: 8vh; font-size: 2vw""> 
            <font color=""green""> Bonus : $10 </font>
            </div>
        </div>
    
            <div> Please press any key to continue to the next image.</div>
        ","arrowleft","ITI","","","","","","",""
"","","","","","html-keyboard-response","147","191167","0.0-7.18-1.18","617139bdf6dbf9169a30ad3a","655cb802637e0dbe2941dbc4","655cb8b37f98be58bf2dff82","null","
        
        <div style=""text-align: center; position: fixed; top: 5vh; left: 40vw;"">
            <div style=""margin:0 auto; width: 20vw; top: 8vh; font-size: 2vw""> 
            <font color=""green""> Bonus : $10 </font>
            </div>
        </div>
    
        <img class=""stim"" src=./stimuli//pack_shapes_diff/cat_1/diff_4/ex_1_4_8.png></img>
    ","null","stimulus","","","","","","",""
"","","","","","html-keyboard-response","148","192180","0.0-7.18-2.18","617139bdf6dbf9169a30ad3a","655cb802637e0dbe2941dbc4","655cb8b37f98be58bf2dff82","null","
        <div style=""text-align: center; position: fixed; top: 5vh; left: 40vw;"">
            <div style=""margin:0 auto; width: 20vw; top: 8vh; font-size: 2vw""> 
            <font color=""green""> Bonus : $10 </font>
            </div>
        </div>
    ","null","","","","","","","",""
"","","","","","html-keyboard-response","149","192763","0.0-7.18-3.18","617139bdf6dbf9169a30ad3a","655cb802637e0dbe2941dbc4","655cb8b37f98be58bf2dff82","583","./stimuli//pack_shapes_diff/cat_1/diff_4/ex_1_4_8.png","arrowleft","response","ArrowLeft","8","1","4","test","true",""
"","","","","","html-keyboard-response","150","194271","0.0-7.18-4.18","617139bdf6dbf9169a30ad3a","655cb802637e0dbe2941dbc4","655cb8b37f98be58bf2dff82","null","<p> <font color=""green"" size=""5vw""> Correct category! </font></p>","null","feedback","","","","","","","10"
"","","","","","html-keyboard-response","151","196747","0.0-7.19-0.19","617139bdf6dbf9169a30ad3a","655cb802637e0dbe2941dbc4","655cb8b37f98be58bf2dff82","2476","
            
        <div style=""text-align: center; position: fixed; top: 5vh; left: 40vw;"">
            <div style=""margin:0 auto; width: 20vw; top: 8vh; font-size: 2vw""> 
            <font color=""green""> Bonus : $10 </font>
            </div>
        </div>
    
            <div> Please press any key to continue to the next image.</div>
        ","arrowleft","ITI","","","","","","",""
"","","","","","html-keyboard-response","152","197363","0.0-7.19-1.19","617139bdf6dbf9169a30ad3a","655cb802637e0dbe2941dbc4","655cb8b37f98be58bf2dff82","null","
        
        <div style=""text-align: center; position: fixed; top: 5vh; left: 40vw;"">
            <div style=""margin:0 auto; width: 20vw; top: 8vh; font-size: 2vw""> 
            <font color=""green""> Bonus : $10 </font>
            </div>
        </div>
    
        <img class=""stim"" src=./stimuli//pack_shapes_diff/cat_2/diff_4/ex_2_4_12.png></img>
    ","null","stimulus","","","","","","",""
"","","","","","html-keyboard-response","153","198378","0.0-7.19-2.19","617139bdf6dbf9169a30ad3a","655cb802637e0dbe2941dbc4","655cb8b37f98be58bf2dff82","null","
        <div style=""text-align: center; position: fixed; top: 5vh; left: 40vw;"">
            <div style=""margin:0 auto; width: 20vw; top: 8vh; font-size: 2vw""> 
            <font color=""green""> Bonus : $10 </font>
            </div>
        </div>
    ","null","","","","","","","",""
"","","","","","html-keyboard-response","154","198843","0.0-7.19-3.19","617139bdf6dbf9169a30ad3a","655cb802637e0dbe2941dbc4","655cb8b37f98be58bf2dff82","465","./stimuli//pack_shapes_diff/cat_2/diff_4/ex_2_4_12.png","arrowright","response","ArrowRight","12","2","4","test","true",""
"","","","","","html-keyboard-response","155","200356","0.0-7.19-4.19","617139bdf6dbf9169a30ad3a","655cb802637e0dbe2941dbc4","655cb8b37f98be58bf2dff82","null","<p> <font color=""green"" size=""5vw""> Correct category! </font></p>","null","feedback","","","","","","","10"
"","","","","","html-keyboard-response","156","201259","0.0-7.20-0.20","617139bdf6dbf9169a30ad3a","655cb802637e0dbe2941dbc4","655cb8b37f98be58bf2dff82","903","
            
        <div style=""text-align: center; position: fixed; top: 5vh; left: 40vw;"">
            <div style=""margin:0 auto; width: 20vw; top: 8vh; font-size: 2vw""> 
            <font color=""green""> Bonus : $10 </font>
            </div>
        </div>
    
            <div> Please press any key to continue to the next image.</div>
        ","arrowleft","ITI","","","","","","",""
"","","","","","html-keyboard-response","157","201871","0.0-7.20-1.20","617139bdf6dbf9169a30ad3a","655cb802637e0dbe2941dbc4","655cb8b37f98be58bf2dff82","null","
        
        <div style=""text-align: center; position: fixed; top: 5vh; left: 40vw;"">
            <div style=""margin:0 auto; width: 20vw; top: 8vh; font-size: 2vw""> 
            <font color=""green""> Bonus : $10 </font>
            </div>
        </div>
    
        <img class=""stim"" src=./stimuli//pack_shapes_diff/cat_2/diff_5/ex_2_5_9.png></img>
    ","null","stimulus","","","","","","",""
"","","","","","html-keyboard-response","158","202885","0.0-7.20-2.20","617139bdf6dbf9169a30ad3a","655cb802637e0dbe2941dbc4","655cb8b37f98be58bf2dff82","null","
        <div style=""text-align: center; position: fixed; top: 5vh; left: 40vw;"">
            <div style=""margin:0 auto; width: 20vw; top: 8vh; font-size: 2vw""> 
            <font color=""green""> Bonus : $10 </font>
            </div>
        </div>
    ","null","","","","","","","",""
"","","","","","html-keyboard-response","159","203355","0.0-7.20-3.20","617139bdf6dbf9169a30ad3a","655cb802637e0dbe2941dbc4","655cb8b37f98be58bf2dff82","470","./stimuli//pack_shapes_diff/cat_2/diff_5/ex_2_5_9.png","arrowright","response","ArrowRight","9","2","5","test","true",""
"","","","","","html-keyboard-response","160","204867","0.0-7.20-4.20","617139bdf6dbf9169a30ad3a","655cb802637e0dbe2941dbc4","655cb8b37f98be58bf2dff82","null","<p> <font color=""green"" size=""5vw""> Correct category! </font></p>","null","feedback","","","","","","","10"
"","","","","","html-keyboard-response","161","205731","0.0-7.21-0.21","617139bdf6dbf9169a30ad3a","655cb802637e0dbe2941dbc4","655cb8b37f98be58bf2dff82","865","
            
        <div style=""text-align: center; position: fixed; top: 5vh; left: 40vw;"">
            <div style=""margin:0 auto; width: 20vw; top: 8vh; font-size: 2vw""> 
            <font color=""green""> Bonus : $10 </font>
            </div>
        </div>
    
            <div> Please press any key to continue to the next image.</div>
        ","arrowleft","ITI","","","","","","",""
"","","","","","html-keyboard-response","162","206332","0.0-7.21-1.21","617139bdf6dbf9169a30ad3a","655cb802637e0dbe2941dbc4","655cb8b37f98be58bf2dff82","null","
        
        <div style=""text-align: center; position: fixed; top: 5vh; left: 40vw;"">
            <div style=""margin:0 auto; width: 20vw; top: 8vh; font-size: 2vw""> 
            <font color=""green""> Bonus : $10 </font>
            </div>
        </div>
    
        <img class=""stim"" src=./stimuli//pack_shapes_diff/cat_2/diff_5/ex_2_5_2.png></img>
    ","null","stimulus","","","","","","",""
"","","","","","html-keyboard-response","163","207349","0.0-7.21-2.21","617139bdf6dbf9169a30ad3a","655cb802637e0dbe2941dbc4","655cb8b37f98be58bf2dff82","null","
        <div style=""text-align: center; position: fixed; top: 5vh; left: 40vw;"">
            <div style=""margin:0 auto; width: 20vw; top: 8vh; font-size: 2vw""> 
            <font color=""green""> Bonus : $10 </font>
            </div>
        </div>
    ","null","","","","","","","",""
"","","","","","html-keyboard-response","164","207867","0.0-7.21-3.21","617139bdf6dbf9169a30ad3a","655cb802637e0dbe2941dbc4","655cb8b37f98be58bf2dff82","518","./stimuli//pack_shapes_diff/cat_2/diff_5/ex_2_5_2.png","arrowright","response","ArrowRight","2","2","5","test","true",""
"","","","","","html-keyboard-response","165","209383","0.0-7.21-4.21","617139bdf6dbf9169a30ad3a","655cb802637e0dbe2941dbc4","655cb8b37f98be58bf2dff82","null","<p> <font color=""green"" size=""5vw""> Correct category! </font></p>","null","feedback","","","","","","","10"
"","","","","","html-keyboard-response","166","210267","0.0-7.22-0.22","617139bdf6dbf9169a30ad3a","655cb802637e0dbe2941dbc4","655cb8b37f98be58bf2dff82","884","
            
        <div style=""text-align: center; position: fixed; top: 5vh; left: 40vw;"">
            <div style=""margin:0 auto; width: 20vw; top: 8vh; font-size: 2vw""> 
            <font color=""green""> Bonus : $10 </font>
            </div>
        </div>
    
            <div> Please press any key to continue to the next image.</div>
        ","arrowleft","ITI","","","","","","",""
"","","","","","html-keyboard-response","167","210874","0.0-7.22-1.22","617139bdf6dbf9169a30ad3a","655cb802637e0dbe2941dbc4","655cb8b37f98be58bf2dff82","null","
        
        <div style=""text-align: center; position: fixed; top: 5vh; left: 40vw;"">
            <div style=""margin:0 auto; width: 20vw; top: 8vh; font-size: 2vw""> 
            <font color=""green""> Bonus : $10 </font>
            </div>
        </div>
    
        <img class=""stim"" src=./stimuli//pack_shapes_diff/cat_2/diff_5/ex_2_5_5.png></img>
    ","null","stimulus","","","","","","",""
"","","","","","html-keyboard-response","168","211888","0.0-7.22-2.22","617139bdf6dbf9169a30ad3a","655cb802637e0dbe2941dbc4","655cb8b37f98be58bf2dff82","null","
        <div style=""text-align: center; position: fixed; top: 5vh; left: 40vw;"">
            <div style=""margin:0 auto; width: 20vw; top: 8vh; font-size: 2vw""> 
            <font color=""green""> Bonus : $10 </font>
            </div>
        </div>
    ","null","","","","","","","",""
"","","","","","html-keyboard-response","169","212299","0.0-7.22-3.22","617139bdf6dbf9169a30ad3a","655cb802637e0dbe2941dbc4","655cb8b37f98be58bf2dff82","412","./stimuli//pack_shapes_diff/cat_2/diff_5/ex_2_5_5.png","arrowright","response","ArrowRight","5","2","5","test","true",""
"","","","","","html-keyboard-response","170","213804","0.0-7.22-4.22","617139bdf6dbf9169a30ad3a","655cb802637e0dbe2941dbc4","655cb8b37f98be58bf2dff82","null","<p> <font color=""green"" size=""5vw""> Correct category! </font></p>","null","feedback","","","","","","","10"
"","","","","","html-keyboard-response","171","214659","0.0-7.23-0.23","617139bdf6dbf9169a30ad3a","655cb802637e0dbe2941dbc4","655cb8b37f98be58bf2dff82","856","
            
        <div style=""text-align: center; position: fixed; top: 5vh; left: 40vw;"">
            <div style=""margin:0 auto; width: 20vw; top: 8vh; font-size: 2vw""> 
            <font color=""green""> Bonus : $10 </font>
            </div>
        </div>
    
            <div> Please press any key to continue to the next image.</div>
        ","arrowright","ITI","","","","","","",""
"","","","","","html-keyboard-response","172","215268","0.0-7.23-1.23","617139bdf6dbf9169a30ad3a","655cb802637e0dbe2941dbc4","655cb8b37f98be58bf2dff82","null","
        
        <div style=""text-align: center; position: fixed; top: 5vh; left: 40vw;"">
            <div style=""margin:0 auto; width: 20vw; top: 8vh; font-size: 2vw""> 
            <font color=""green""> Bonus : $10 </font>
            </div>
        </div>
    
        <img class=""stim"" src=./stimuli//pack_shapes_diff/cat_2/diff_5/ex_2_5_10.png></img>
    ","null","stimulus","","","","","","",""
"","","","","","html-keyboard-response","173","216281","0.0-7.23-2.23","617139bdf6dbf9169a30ad3a","655cb802637e0dbe2941dbc4","655cb8b37f98be58bf2dff82","null","
        <div style=""text-align: center; position: fixed; top: 5vh; left: 40vw;"">
            <div style=""margin:0 auto; width: 20vw; top: 8vh; font-size: 2vw""> 
            <font color=""green""> Bonus : $10 </font>
            </div>
        </div>
    ","null","","","","","","","",""
"","","","","","html-keyboard-response","174","216731","0.0-7.23-3.23","617139bdf6dbf9169a30ad3a","655cb802637e0dbe2941dbc4","655cb8b37f98be58bf2dff82","450","./stimuli//pack_shapes_diff/cat_2/diff_5/ex_2_5_10.png","arrowright","response","ArrowRight","10","2","5","test","true",""
"","","","","","html-keyboard-response","175","218235","0.0-7.23-4.23","617139bdf6dbf9169a30ad3a","655cb802637e0dbe2941dbc4","655cb8b37f98be58bf2dff82","null","<p> <font color=""green"" size=""5vw""> Correct category! </font></p>","null","feedback","","","","","","","10"
"","","","","","html-keyboard-response","176","218987","0.0-7.24-0.24","617139bdf6dbf9169a30ad3a","655cb802637e0dbe2941dbc4","655cb8b37f98be58bf2dff82","752","
            
        <div style=""text-align: center; position: fixed; top: 5vh; left: 40vw;"">
            <div style=""margin:0 auto; width: 20vw; top: 8vh; font-size: 2vw""> 
            <font color=""green""> Bonus : $10 </font>
            </div>
        </div>
    
            <div> Please press any key to continue to the next image.</div>
        ","arrowleft","ITI","","","","","","",""
"","","","","","html-keyboard-response","177","219589","0.0-7.24-1.24","617139bdf6dbf9169a30ad3a","655cb802637e0dbe2941dbc4","655cb8b37f98be58bf2dff82","null","
        
        <div style=""text-align: center; position: fixed; top: 5vh; left: 40vw;"">
            <div style=""margin:0 auto; width: 20vw; top: 8vh; font-size: 2vw""> 
            <font color=""green""> Bonus : $10 </font>
            </div>
        </div>
    
        <img class=""stim"" src=./stimuli//pack_shapes_diff/cat_1/diff_5/ex_1_5_1.png></img>
    ","null","stimulus","","","","","","",""
"","","","","","html-keyboard-response","178","220604","0.0-7.24-2.24","617139bdf6dbf9169a30ad3a","655cb802637e0dbe2941dbc4","655cb8b37f98be58bf2dff82","null","
        <div style=""text-align: center; position: fixed; top: 5vh; left: 40vw;"">
            <div style=""margin:0 auto; width: 20vw; top: 8vh; font-size: 2vw""> 
            <font color=""green""> Bonus : $10 </font>
            </div>
        </div>
    ","null","","","","","","","",""
"","","","","","html-keyboard-response","179","221099","0.0-7.24-3.24","617139bdf6dbf9169a30ad3a","655cb802637e0dbe2941dbc4","655cb8b37f98be58bf2dff82","495","./stimuli//pack_shapes_diff/cat_1/diff_5/ex_1_5_1.png","arrowleft","response","ArrowLeft","1","1","5","test","true",""
"","","","","","html-keyboard-response","180","222608","0.0-7.24-4.24","617139bdf6dbf9169a30ad3a","655cb802637e0dbe2941dbc4","655cb8b37f98be58bf2dff82","null","<p> <font color=""green"" size=""5vw""> Correct category! </font></p>","null","feedback","","","","","","","10"
"","","","","","html-keyboard-response","181","223419","0.0-7.25-0.25","617139bdf6dbf9169a30ad3a","655cb802637e0dbe2941dbc4","655cb8b37f98be58bf2dff82","810","
            
        <div style=""text-align: center; position: fixed; top: 5vh; left: 40vw;"">
            <div style=""margin:0 auto; width: 20vw; top: 8vh; font-size: 2vw""> 
            <font color=""green""> Bonus : $10 </font>
            </div>
        </div>
    
            <div> Please press any key to continue to the next image.</div>
        ","arrowleft","ITI","","","","","","",""
"","","","","","html-keyboard-response","182","224035","0.0-7.25-1.25","617139bdf6dbf9169a30ad3a","655cb802637e0dbe2941dbc4","655cb8b37f98be58bf2dff82","null","
        
        <div style=""text-align: center; position: fixed; top: 5vh; left: 40vw;"">
            <div style=""margin:0 auto; width: 20vw; top: 8vh; font-size: 2vw""> 
            <font color=""green""> Bonus : $10 </font>
            </div>
        </div>
    
        <img class=""stim"" src=./stimuli//pack_shapes_diff/cat_1/diff_5/ex_1_5_7.png></img>
    ","null","stimulus","","","","","","",""
"","","","","","html-keyboard-response","183","225048","0.0-7.25-2.25","617139bdf6dbf9169a30ad3a","655cb802637e0dbe2941dbc4","655cb8b37f98be58bf2dff82","null","
        <div style=""text-align: center; position: fixed; top: 5vh; left: 40vw;"">
            <div style=""margin:0 auto; width: 20vw; top: 8vh; font-size: 2vw""> 
            <font color=""green""> Bonus : $10 </font>
            </div>
        </div>
    ","null","","","","","","","",""
"","","","","","html-keyboard-response","184","225635","0.0-7.25-3.25","617139bdf6dbf9169a30ad3a","655cb802637e0dbe2941dbc4","655cb8b37f98be58bf2dff82","587","./stimuli//pack_shapes_diff/cat_1/diff_5/ex_1_5_7.png","arrowleft","response","ArrowLeft","7","1","5","test","true",""
"","","","","","html-keyboard-response","185","227141","0.0-7.25-4.25","617139bdf6dbf9169a30ad3a","655cb802637e0dbe2941dbc4","655cb8b37f98be58bf2dff82","null","<p> <font color=""green"" size=""5vw""> Correct category! </font></p>","null","feedback","","","","","","","10"
"","","","","","html-keyboard-response","186","227971","0.0-7.26-0.26","617139bdf6dbf9169a30ad3a","655cb802637e0dbe2941dbc4","655cb8b37f98be58bf2dff82","830","
            
        <div style=""text-align: center; position: fixed; top: 5vh; left: 40vw;"">
            <div style=""margin:0 auto; width: 20vw; top: 8vh; font-size: 2vw""> 
            <font color=""green""> Bonus : $10 </font>
            </div>
        </div>
    
            <div> Please press any key to continue to the next image.</div>
        ","arrowleft","ITI","","","","","","",""
"","","","","","html-keyboard-response","187","228577","0.0-7.26-1.26","617139bdf6dbf9169a30ad3a","655cb802637e0dbe2941dbc4","655cb8b37f98be58bf2dff82","null","
        
        <div style=""text-align: center; position: fixed; top: 5vh; left: 40vw;"">
            <div style=""margin:0 auto; width: 20vw; top: 8vh; font-size: 2vw""> 
            <font color=""green""> Bonus : $10 </font>
            </div>
        </div>
    
        <img class=""stim"" src=./stimuli//pack_shapes_diff/cat_2/diff_5/ex_2_5_2.png></img>
    ","null","stimulus","","","","","","",""
"","","","","","html-keyboard-response","188","229593","0.0-7.26-2.26","617139bdf6dbf9169a30ad3a","655cb802637e0dbe2941dbc4","655cb8b37f98be58bf2dff82","null","
        <div style=""text-align: center; position: fixed; top: 5vh; left: 40vw;"">
            <div style=""margin:0 auto; width: 20vw; top: 8vh; font-size: 2vw""> 
            <font color=""green""> Bonus : $10 </font>
            </div>
        </div>
    ","null","","","","","","","",""
"","","","","","html-keyboard-response","189","230068","0.0-7.26-3.26","617139bdf6dbf9169a30ad3a","655cb802637e0dbe2941dbc4","655cb8b37f98be58bf2dff82","475","./stimuli//pack_shapes_diff/cat_2/diff_5/ex_2_5_2.png","arrowright","response","ArrowRight","2","2","5","test","true",""
"","","","","","html-keyboard-response","190","231579","0.0-7.26-4.26","617139bdf6dbf9169a30ad3a","655cb802637e0dbe2941dbc4","655cb8b37f98be58bf2dff82","null","<p> <font color=""green"" size=""5vw""> Correct category! </font></p>","null","feedback","","","","","","","10"
"","","","","","html-keyboard-response","191","232604","0.0-7.27-0.27","617139bdf6dbf9169a30ad3a","655cb802637e0dbe2941dbc4","655cb8b37f98be58bf2dff82","1024","
            
        <div style=""text-align: center; position: fixed; top: 5vh; left: 40vw;"">
            <div style=""margin:0 auto; width: 20vw; top: 8vh; font-size: 2vw""> 
            <font color=""green""> Bonus : $10 </font>
            </div>
        </div>
    
            <div> Please press any key to continue to the next image.</div>
        ","arrowleft","ITI","","","","","","",""
"","","","","","html-keyboard-response","192","233218","0.0-7.27-1.27","617139bdf6dbf9169a30ad3a","655cb802637e0dbe2941dbc4","655cb8b37f98be58bf2dff82","null","
        
        <div style=""text-align: center; position: fixed; top: 5vh; left: 40vw;"">
            <div style=""margin:0 auto; width: 20vw; top: 8vh; font-size: 2vw""> 
            <font color=""green""> Bonus : $10 </font>
            </div>
        </div>
    
        <img class=""stim"" src=./stimuli//pack_shapes_diff/cat_1/diff_5/ex_1_5_12.png></img>
    ","null","stimulus","","","","","","",""
"","","","","","html-keyboard-response","193","234233","0.0-7.27-2.27","617139bdf6dbf9169a30ad3a","655cb802637e0dbe2941dbc4","655cb8b37f98be58bf2dff82","null","
        <div style=""text-align: center; position: fixed; top: 5vh; left: 40vw;"">
            <div style=""margin:0 auto; width: 20vw; top: 8vh; font-size: 2vw""> 
            <font color=""green""> Bonus : $10 </font>
            </div>
        </div>
    ","null","","","","","","","",""
"","","","","","html-keyboard-response","194","234716","0.0-7.27-3.27","617139bdf6dbf9169a30ad3a","655cb802637e0dbe2941dbc4","655cb8b37f98be58bf2dff82","482","./stimuli//pack_shapes_diff/cat_1/diff_5/ex_1_5_12.png","arrowright","response","ArrowLeft","12","1","5","test","false",""
"","","","","","html-keyboard-response","195","236217","0.0-7.27-4.27","617139bdf6dbf9169a30ad3a","655cb802637e0dbe2941dbc4","655cb8b37f98be58bf2dff82","null","<p> <font size=""4vw""> Wrong category! </font> <br> <br> <font color=""red"" size=""7vw""> - $0.05 points </font> </p>","null","feedback","","","","","","","9.95"
"","","","","","html-keyboard-response","196","237396","0.0-7.28-0.28","617139bdf6dbf9169a30ad3a","655cb802637e0dbe2941dbc4","655cb8b37f98be58bf2dff82","1178","
            
        <div style=""text-align: center; position: fixed; top: 5vh; left: 40vw;"">
            <div style=""margin:0 auto; width: 20vw; top: 8vh; font-size: 2vw""> 
            <font color=""green""> Bonus : $9.95 </font>
            </div>
        </div>
    
            <div> Please press any key to continue to the next image.</div>
        ","arrowleft","ITI","","","","","","",""
"","","","","","html-keyboard-response","197","238010","0.0-7.28-1.28","617139bdf6dbf9169a30ad3a","655cb802637e0dbe2941dbc4","655cb8b37f98be58bf2dff82","null","
        
        <div style=""text-align: center; position: fixed; top: 5vh; left: 40vw;"">
            <div style=""margin:0 auto; width: 20vw; top: 8vh; font-size: 2vw""> 
            <font color=""green""> Bonus : $9.95 </font>
            </div>
        </div>
    
        <img class=""stim"" src=./stimuli//pack_shapes_diff/cat_2/diff_5/ex_2_5_4.png></img>
    ","null","stimulus","","","","","","",""
"","","","","","html-keyboard-response","198","239014","0.0-7.28-2.28","617139bdf6dbf9169a30ad3a","655cb802637e0dbe2941dbc4","655cb8b37f98be58bf2dff82","null","
        <div style=""text-align: center; position: fixed; top: 5vh; left: 40vw;"">
            <div style=""margin:0 auto; width: 20vw; top: 8vh; font-size: 2vw""> 
            <font color=""green""> Bonus : $9.95 </font>
            </div>
        </div>
    ","null","","","","","","","",""
"","","","","","html-keyboard-response","199","239412","0.0-7.28-3.28","617139bdf6dbf9169a30ad3a","655cb802637e0dbe2941dbc4","655cb8b37f98be58bf2dff82","398","./stimuli//pack_shapes_diff/cat_2/diff_5/ex_2_5_4.png","arrowright","response","ArrowRight","4","2","5","test","true",""
"","","","","","html-keyboard-response","200","240921","0.0-7.28-4.28","617139bdf6dbf9169a30ad3a","655cb802637e0dbe2941dbc4","655cb8b37f98be58bf2dff82","null","<p> <font color=""green"" size=""5vw""> Correct category! </font></p>","null","feedback","","","","","","","9.95"
"","","","","","html-keyboard-response","201","241628","0.0-7.29-0.29","617139bdf6dbf9169a30ad3a","655cb802637e0dbe2941dbc4","655cb8b37f98be58bf2dff82","706","
            
        <div style=""text-align: center; position: fixed; top: 5vh; left: 40vw;"">
            <div style=""margin:0 auto; width: 20vw; top: 8vh; font-size: 2vw""> 
            <font color=""green""> Bonus : $9.95 </font>
            </div>
        </div>
    
            <div> Please press any key to continue to the next image.</div>
        ","arrowleft","ITI","","","","","","",""
"","","","","","html-keyboard-response","202","242232","0.0-7.29-1.29","617139bdf6dbf9169a30ad3a","655cb802637e0dbe2941dbc4","655cb8b37f98be58bf2dff82","null","
        
        <div style=""text-align: center; position: fixed; top: 5vh; left: 40vw;"">
            <div style=""margin:0 auto; width: 20vw; top: 8vh; font-size: 2vw""> 
            <font color=""green""> Bonus : $9.95 </font>
            </div>
        </div>
    
        <img class=""stim"" src=./stimuli//pack_shapes_diff/cat_1/diff_5/ex_1_5_2.png></img>
    ","null","stimulus","","","","","","",""
"","","","","","html-keyboard-response","203","243246","0.0-7.29-2.29","617139bdf6dbf9169a30ad3a","655cb802637e0dbe2941dbc4","655cb8b37f98be58bf2dff82","null","
        <div style=""text-align: center; position: fixed; top: 5vh; left: 40vw;"">
            <div style=""margin:0 auto; width: 20vw; top: 8vh; font-size: 2vw""> 
            <font color=""green""> Bonus : $9.95 </font>
            </div>
        </div>
    ","null","","","","","","","",""
"","","","","","html-keyboard-response","204","243660","0.0-7.29-3.29","617139bdf6dbf9169a30ad3a","655cb802637e0dbe2941dbc4","655cb8b37f98be58bf2dff82","414","./stimuli//pack_shapes_diff/cat_1/diff_5/ex_1_5_2.png","arrowleft","response","ArrowLeft","2","1","5","test","true",""
"","","","","","html-keyboard-response","205","245171","0.0-7.29-4.29","617139bdf6dbf9169a30ad3a","655cb802637e0dbe2941dbc4","655cb8b37f98be58bf2dff82","null","<p> <font color=""green"" size=""5vw""> Correct category! </font></p>","null","feedback","","","","","","","9.95"
"","","","","","html-keyboard-response","206","245900","0.0-7.30-0.30","617139bdf6dbf9169a30ad3a","655cb802637e0dbe2941dbc4","655cb8b37f98be58bf2dff82","729","
            
        <div style=""text-align: center; position: fixed; top: 5vh; left: 40vw;"">
            <div style=""margin:0 auto; width: 20vw; top: 8vh; font-size: 2vw""> 
            <font color=""green""> Bonus : $9.95 </font>
            </div>
        </div>
    
            <div> Please press any key to continue to the next image.</div>
        ","arrowleft","ITI","","","","","","",""
"","","","","","html-keyboard-response","207","246514","0.0-7.30-1.30","617139bdf6dbf9169a30ad3a","655cb802637e0dbe2941dbc4","655cb8b37f98be58bf2dff82","null","
        
        <div style=""text-align: center; position: fixed; top: 5vh; left: 40vw;"">
            <div style=""margin:0 auto; width: 20vw; top: 8vh; font-size: 2vw""> 
            <font color=""green""> Bonus : $9.95 </font>
            </div>
        </div>
    
        <img class=""stim"" src=./stimuli//pack_shapes_diff/cat_2/diff_5/ex_2_5_8.png></img>
    ","null","stimulus","","","","","","",""
"","","","","","html-keyboard-response","208","247525","0.0-7.30-2.30","617139bdf6dbf9169a30ad3a","655cb802637e0dbe2941dbc4","655cb8b37f98be58bf2dff82","null","
        <div style=""text-align: center; position: fixed; top: 5vh; left: 40vw;"">
            <div style=""margin:0 auto; width: 20vw; top: 8vh; font-size: 2vw""> 
            <font color=""green""> Bonus : $9.95 </font>
            </div>
        </div>
    ","null","","","","","","","",""
"","","","","","html-keyboard-response","209","247916","0.0-7.30-3.30","617139bdf6dbf9169a30ad3a","655cb802637e0dbe2941dbc4","655cb8b37f98be58bf2dff82","391","./stimuli//pack_shapes_diff/cat_2/diff_5/ex_2_5_8.png","arrowright","response","ArrowRight","8","2","5","test","true",""
"","","","","","html-keyboard-response","210","249418","0.0-7.30-4.30","617139bdf6dbf9169a30ad3a","655cb802637e0dbe2941dbc4","655cb8b37f98be58bf2dff82","null","<p> <font color=""green"" size=""5vw""> Correct category! </font></p>","null","feedback","","","","","","","9.95"
"","","","","","html-keyboard-response","211","250084","0.0-7.31-0.31","617139bdf6dbf9169a30ad3a","655cb802637e0dbe2941dbc4","655cb8b37f98be58bf2dff82","665","
            
        <div style=""text-align: center; position: fixed; top: 5vh; left: 40vw;"">
            <div style=""margin:0 auto; width: 20vw; top: 8vh; font-size: 2vw""> 
            <font color=""green""> Bonus : $9.95 </font>
            </div>
        </div>
    
            <div> Please press any key to continue to the next image.</div>
        ","arrowleft","ITI","","","","","","",""
"","","","","","html-keyboard-response","212","250685","0.0-7.31-1.31","617139bdf6dbf9169a30ad3a","655cb802637e0dbe2941dbc4","655cb8b37f98be58bf2dff82","null","
        
        <div style=""text-align: center; position: fixed; top: 5vh; left: 40vw;"">
            <div style=""margin:0 auto; width: 20vw; top: 8vh; font-size: 2vw""> 
            <font color=""green""> Bonus : $9.95 </font>
            </div>
        </div>
    
        <img class=""stim"" src=./stimuli//pack_shapes_diff/cat_1/diff_5/ex_1_5_17.png></img>
    ","null","stimulus","","","","","","",""
"","","","","","html-keyboard-response","213","251701","0.0-7.31-2.31","617139bdf6dbf9169a30ad3a","655cb802637e0dbe2941dbc4","655cb8b37f98be58bf2dff82","null","
        <div style=""text-align: center; position: fixed; top: 5vh; left: 40vw;"">
            <div style=""margin:0 auto; width: 20vw; top: 8vh; font-size: 2vw""> 
            <font color=""green""> Bonus : $9.95 </font>
            </div>
        </div>
    ","null","","","","","","","",""
"","","","","","html-keyboard-response","214","252180","0.0-7.31-3.31","617139bdf6dbf9169a30ad3a","655cb802637e0dbe2941dbc4","655cb8b37f98be58bf2dff82","478","./stimuli//pack_shapes_diff/cat_1/diff_5/ex_1_5_17.png","arrowright","response","ArrowLeft","17","1","5","test","false",""
"","","","","","html-keyboard-response","215","253685","0.0-7.31-4.31","617139bdf6dbf9169a30ad3a","655cb802637e0dbe2941dbc4","655cb8b37f98be58bf2dff82","null","<p> <font size=""4vw""> Wrong category! </font> <br> <br> <font color=""red"" size=""7vw""> - $0.05 points </font> </p>","null","feedback","","","","","","","9.9"
"","","","","","html-keyboard-response","216","254779","0.0-7.32-0.32","617139bdf6dbf9169a30ad3a","655cb802637e0dbe2941dbc4","655cb8b37f98be58bf2dff82","1094","
            
        <div style=""text-align: center; position: fixed; top: 5vh; left: 40vw;"">
            <div style=""margin:0 auto; width: 20vw; top: 8vh; font-size: 2vw""> 
            <font color=""green""> Bonus : $9.9 </font>
            </div>
        </div>
    
            <div> Please press any key to continue to the next image.</div>
        ","arrowleft","ITI","","","","","","",""
"","","","","","html-keyboard-response","217","255393","0.0-7.32-1.32","617139bdf6dbf9169a30ad3a","655cb802637e0dbe2941dbc4","655cb8b37f98be58bf2dff82","null","
        
        <div style=""text-align: center; position: fixed; top: 5vh; left: 40vw;"">
            <div style=""margin:0 auto; width: 20vw; top: 8vh; font-size: 2vw""> 
            <font color=""green""> Bonus : $9.9 </font>
            </div>
        </div>
    
        <img class=""stim"" src=./stimuli//pack_shapes_diff/cat_1/diff_4/ex_1_4_3.png></img>
    ","null","stimulus","","","","","","",""
"","","","","","html-keyboard-response","218","256395","0.0-7.32-2.32","617139bdf6dbf9169a30ad3a","655cb802637e0dbe2941dbc4","655cb8b37f98be58bf2dff82","null","
        <div style=""text-align: center; position: fixed; top: 5vh; left: 40vw;"">
            <div style=""margin:0 auto; width: 20vw; top: 8vh; font-size: 2vw""> 
            <font color=""green""> Bonus : $9.9 </font>
            </div>
        </div>
    ","null","","","","","","","",""
"","","","","","html-keyboard-response","219","256892","0.0-7.32-3.32","617139bdf6dbf9169a30ad3a","655cb802637e0dbe2941dbc4","655cb8b37f98be58bf2dff82","496","./stimuli//pack_shapes_diff/cat_1/diff_4/ex_1_4_3.png","arrowleft","response","ArrowLeft","3","1","4","test","true",""
"","","","","","html-keyboard-response","220","258400","0.0-7.32-4.32","617139bdf6dbf9169a30ad3a","655cb802637e0dbe2941dbc4","655cb8b37f98be58bf2dff82","null","<p> <font color=""green"" size=""5vw""> Correct category! </font></p>","null","feedback","","","","","","","9.9"
"","","","","","html-keyboard-response","221","259252","0.0-7.33-0.33","617139bdf6dbf9169a30ad3a","655cb802637e0dbe2941dbc4","655cb8b37f98be58bf2dff82","851","
            
        <div style=""text-align: center; position: fixed; top: 5vh; left: 40vw;"">
            <div style=""margin:0 auto; width: 20vw; top: 8vh; font-size: 2vw""> 
            <font color=""green""> Bonus : $9.9 </font>
            </div>
        </div>
    
            <div> Please press any key to continue to the next image.</div>
        ","arrowleft","ITI","","","","","","",""
"","","","","","html-keyboard-response","222","259865","0.0-7.33-1.33","617139bdf6dbf9169a30ad3a","655cb802637e0dbe2941dbc4","655cb8b37f98be58bf2dff82","null","
        
        <div style=""text-align: center; position: fixed; top: 5vh; left: 40vw;"">
            <div style=""margin:0 auto; width: 20vw; top: 8vh; font-size: 2vw""> 
            <font color=""green""> Bonus : $9.9 </font>
            </div>
        </div>
    
        <img class=""stim"" src=./stimuli//pack_shapes_diff/cat_2/diff_4/ex_2_4_16.png></img>
    ","null","stimulus","","","","","","",""
"","","","","","html-keyboard-response","223","260881","0.0-7.33-2.33","617139bdf6dbf9169a30ad3a","655cb802637e0dbe2941dbc4","655cb8b37f98be58bf2dff82","null","
        <div style=""text-align: center; position: fixed; top: 5vh; left: 40vw;"">
            <div style=""margin:0 auto; width: 20vw; top: 8vh; font-size: 2vw""> 
            <font color=""green""> Bonus : $9.9 </font>
            </div>
        </div>
    ","null","","","","","","","",""
"","","","","","html-keyboard-response","224","261228","0.0-7.33-3.33","617139bdf6dbf9169a30ad3a","655cb802637e0dbe2941dbc4","655cb8b37f98be58bf2dff82","347","./stimuli//pack_shapes_diff/cat_2/diff_4/ex_2_4_16.png","arrowleft","response","ArrowRight","16","2","4","test","false",""
"","","","","","html-keyboard-response","225","262735","0.0-7.33-4.33","617139bdf6dbf9169a30ad3a","655cb802637e0dbe2941dbc4","655cb8b37f98be58bf2dff82","null","<p> <font size=""4vw""> Wrong category! </font> <br> <br> <font color=""red"" size=""7vw""> - $0.05 points </font> </p>","null","feedback","","","","","","","9.85"
"","","","","","html-keyboard-response","226","267748","0.0-7.34-0.34","617139bdf6dbf9169a30ad3a","655cb802637e0dbe2941dbc4","655cb8b37f98be58bf2dff82","null","
            
        <div style=""text-align: center; position: fixed; top: 5vh; left: 40vw;"">
            <div style=""margin:0 auto; width: 20vw; top: 8vh; font-size: 2vw""> 
            <font color=""green""> Bonus : $9.85 </font>
            </div>
        </div>
    
            <div> Please press any key to continue to the next image.</div>
        ","null","ITI","","","","","","",""
"","","","","","html-keyboard-response","227","268356","0.0-7.34-1.34","617139bdf6dbf9169a30ad3a","655cb802637e0dbe2941dbc4","655cb8b37f98be58bf2dff82","null","
        
        <div style=""text-align: center; position: fixed; top: 5vh; left: 40vw;"">
            <div style=""margin:0 auto; width: 20vw; top: 8vh; font-size: 2vw""> 
            <font color=""green""> Bonus : $9.85 </font>
            </div>
        </div>
    
        <img class=""stim"" src=./stimuli//pack_shapes_diff/cat_1/diff_4/ex_1_4_14.png></img>
    ","null","stimulus","","","","","","",""
"","","","","","html-keyboard-response","228","269370","0.0-7.34-2.34","617139bdf6dbf9169a30ad3a","655cb802637e0dbe2941dbc4","655cb8b37f98be58bf2dff82","null","
        <div style=""text-align: center; position: fixed; top: 5vh; left: 40vw;"">
            <div style=""margin:0 auto; width: 20vw; top: 8vh; font-size: 2vw""> 
            <font color=""green""> Bonus : $9.85 </font>
            </div>
        </div>
    ","null","","","","","","","",""
"","","","","","html-keyboard-response","229","269892","0.0-7.34-3.34","617139bdf6dbf9169a30ad3a","655cb802637e0dbe2941dbc4","655cb8b37f98be58bf2dff82","522","./stimuli//pack_shapes_diff/cat_1/diff_4/ex_1_4_14.png","arrowleft","response","ArrowLeft","14","1","4","test","true",""
"","","","","","html-keyboard-response","230","271397","0.0-7.34-4.34","617139bdf6dbf9169a30ad3a","655cb802637e0dbe2941dbc4","655cb8b37f98be58bf2dff82","null","<p> <font color=""green"" size=""5vw""> Correct category! </font></p>","null","feedback","","","","","","","9.85"
"","","","","","html-keyboard-response","231","273291","0.0-7.35-0.35","617139bdf6dbf9169a30ad3a","655cb802637e0dbe2941dbc4","655cb8b37f98be58bf2dff82","1894","
            
        <div style=""text-align: center; position: fixed; top: 5vh; left: 40vw;"">
            <div style=""margin:0 auto; width: 20vw; top: 8vh; font-size: 2vw""> 
            <font color=""green""> Bonus : $9.85 </font>
            </div>
        </div>
    
            <div> Please press any key to continue to the next image.</div>
        ","arrowleft","ITI","","","","","","",""
"","","","","","html-keyboard-response","232","273899","0.0-7.35-1.35","617139bdf6dbf9169a30ad3a","655cb802637e0dbe2941dbc4","655cb8b37f98be58bf2dff82","null","
        
        <div style=""text-align: center; position: fixed; top: 5vh; left: 40vw;"">
            <div style=""margin:0 auto; width: 20vw; top: 8vh; font-size: 2vw""> 
            <font color=""green""> Bonus : $9.85 </font>
            </div>
        </div>
    
        <img class=""stim"" src=./stimuli//pack_shapes_diff/cat_2/diff_4/ex_2_4_15.png></img>
    ","null","stimulus","","","","","","",""
"","","","","","html-keyboard-response","233","274914","0.0-7.35-2.35","617139bdf6dbf9169a30ad3a","655cb802637e0dbe2941dbc4","655cb8b37f98be58bf2dff82","null","
        <div style=""text-align: center; position: fixed; top: 5vh; left: 40vw;"">
            <div style=""margin:0 auto; width: 20vw; top: 8vh; font-size: 2vw""> 
