"success","timeout","failed_images","failed_audio","failed_video","trial_type","trial_index","time_elapsed","internal_node_id","subject_id","study_id","session_id","rt","stimulus","response","task","correct_response","exemplar_ID","category","difficulty","phase","correct","bonus"
"true","false","[]","[]","[]","preload","0","3","0.0-0.0","5fd6303361f8c14cb485a447","655cb802637e0dbe2941dbc4","655cb8ccd413ab80eb90989f","","","","","","","","","","",""
"","","","","","html-keyboard-response","1","23162","0.0-1.0","5fd6303361f8c14cb485a447","655cb802637e0dbe2941dbc4","655cb8ccd413ab80eb90989f","23158","Welcome to the Category Learning experiment! Press any key to continue.","b","welcome","","","","","","",""
"","","","","","html-keyboard-response","2","86740","0.0-2.0","5fd6303361f8c14cb485a447","655cb802637e0dbe2941dbc4","655cb8ccd413ab80eb90989f","63578","
            <p>You will be shown images of black shapes. Some are category A, some are category B.
            <br>You will not know in advance which category a specific shape belongs to.</p>
            <p>After you see an image, you will be asked to guess its category <b>(left arrow for category A, right arrow for category B)</b></p>
            <p>After you choose, the screen will show you whether you were correct or not.</p>
            <p>Please try to respond as quickly and accurately as possible every time.</p>
            <p>Press any key to continue.</p>
            ","b","introduction_1","","","","","","",""
"","","","","","html-keyboard-response","3","107568","0.0-3.0","5fd6303361f8c14cb485a447","655cb802637e0dbe2941dbc4","655cb8ccd413ab80eb90989f","20828","
              <p><b>You will receive a bonus payment depending on your performance!</b></p>
              <p><b>You start with a $10 bonus and each time you guess a shape's category incorrectly $0.05 will be subtracted from the bonus. <br> After the end of the experiment you will receive the remaining bonus as payment.</b></p>
              <p>Press any key to continue.</p>
              ","b","introduction_1","","","","","","",""
"","","","","","html-keyboard-response","4","114887","0.0-4.0","5fd6303361f8c14cb485a447","655cb802637e0dbe2941dbc4","655cb8ccd413ab80eb90989f","7318","
            <p> <b>The first 10 trials are a practice round that will not count towards your bonus payment.</b></p>
            <p> You will be notified when practice finishes and the test begins. </p>
            <p> Press any key to begin the practice round.</p>
            ","n","introduction_2","","","","","","",""
"","","","","","html-keyboard-response","5","119903","0.0-5.0-0.0","5fd6303361f8c14cb485a447","655cb802637e0dbe2941dbc4","655cb8ccd413ab80eb90989f","null","
            
        <div style=""text-align: center; position: fixed; top: 5vh; left: 40vw;"">
            <div style=""margin:0 auto; width: 20vw; top: 8vh; font-size: 2vw""> 
            <font color=""green""> Bonus : $10 </font>
            </div>
        </div>
    
            <div> Please press any key to continue to the next image.</div>
        ","null","ITI","","","","","","",""
"","","","","","html-keyboard-response","6","120514","0.0-5.0-1.0","5fd6303361f8c14cb485a447","655cb802637e0dbe2941dbc4","655cb8ccd413ab80eb90989f","null","
        
        <div style=""text-align: center; position: fixed; top: 5vh; left: 40vw;"">
            <div style=""margin:0 auto; width: 20vw; top: 8vh; font-size: 2vw""> 
            <font color=""green""> Bonus : $10 </font>
            </div>
        </div>
    
        <img class=""stim"" src=./stimuli//pack_shapes_diff/cat_2/diff_1/ex_2_1_14.png></img>
    ","null","stimulus","","","","","","",""
"","","","","","html-keyboard-response","7","121519","0.0-5.0-2.0","5fd6303361f8c14cb485a447","655cb802637e0dbe2941dbc4","655cb8ccd413ab80eb90989f","null","
        <div style=""text-align: center; position: fixed; top: 5vh; left: 40vw;"">
            <div style=""margin:0 auto; width: 20vw; top: 8vh; font-size: 2vw""> 
            <font color=""green""> Bonus : $10 </font>
            </div>
        </div>
    ","null","","","","","","","",""
"","","","","","html-keyboard-response","8","125528","0.0-5.0-3.0","5fd6303361f8c14cb485a447","655cb802637e0dbe2941dbc4","655cb8ccd413ab80eb90989f","null","./stimuli//pack_shapes_diff/cat_2/diff_1/ex_2_1_14.png","null","response","ArrowRight","14","2","1","train","false",""
"","","","","","html-keyboard-response","9","125629","0.0-5.0-4.0","5fd6303361f8c14cb485a447","655cb802637e0dbe2941dbc4","655cb8ccd413ab80eb90989f","99","<p> <font color=""red"" size=""5vw""> Time out! </font> <br> Please try to respond as quickly as possible. </p>","arrowleft","feedback","","","","","","","10"
"","","","","","html-keyboard-response","10","129306","0.0-5.0-0.1","5fd6303361f8c14cb485a447","655cb802637e0dbe2941dbc4","655cb8ccd413ab80eb90989f","3676","
            
        <div style=""text-align: center; position: fixed; top: 5vh; left: 40vw;"">
            <div style=""margin:0 auto; width: 20vw; top: 8vh; font-size: 2vw""> 
            <font color=""green""> Bonus : $10 </font>
            </div>
        </div>
    
            <div> Please press any key to continue to the next image.</div>
        ","b","ITI","","","","","","",""
"","","","","","html-keyboard-response","11","129916","0.0-5.0-1.1","5fd6303361f8c14cb485a447","655cb802637e0dbe2941dbc4","655cb8ccd413ab80eb90989f","null","
        
        <div style=""text-align: center; position: fixed; top: 5vh; left: 40vw;"">
            <div style=""margin:0 auto; width: 20vw; top: 8vh; font-size: 2vw""> 
            <font color=""green""> Bonus : $10 </font>
            </div>
        </div>
    
        <img class=""stim"" src=./stimuli//pack_shapes_diff/cat_2/diff_2/ex_2_2_6.png></img>
    ","null","stimulus","","","","","","",""
"","","","","","html-keyboard-response","12","130926","0.0-5.0-2.1","5fd6303361f8c14cb485a447","655cb802637e0dbe2941dbc4","655cb8ccd413ab80eb90989f","null","
        <div style=""text-align: center; position: fixed; top: 5vh; left: 40vw;"">
            <div style=""margin:0 auto; width: 20vw; top: 8vh; font-size: 2vw""> 
            <font color=""green""> Bonus : $10 </font>
            </div>
        </div>
    ","null","","","","","","","",""
"","","","","","html-keyboard-response","13","132538","0.0-5.0-3.1","5fd6303361f8c14cb485a447","655cb802637e0dbe2941dbc4","655cb8ccd413ab80eb90989f","1612","./stimuli//pack_shapes_diff/cat_2/diff_2/ex_2_2_6.png","arrowleft","response","ArrowRight","6","2","2","train","false",""
"","","","","","html-keyboard-response","14","134046","0.0-5.0-4.1","5fd6303361f8c14cb485a447","655cb802637e0dbe2941dbc4","655cb8ccd413ab80eb90989f","null","<p> <font color=""red"" size=""5vw""> Wrong category! </font> </p>","null","feedback","","","","","","","10"
"","","","","","html-keyboard-response","15","136397","0.0-5.0-0.2","5fd6303361f8c14cb485a447","655cb802637e0dbe2941dbc4","655cb8ccd413ab80eb90989f","2350","
            
        <div style=""text-align: center; position: fixed; top: 5vh; left: 40vw;"">
            <div style=""margin:0 auto; width: 20vw; top: 8vh; font-size: 2vw""> 
            <font color=""green""> Bonus : $10 </font>
            </div>
        </div>
    
            <div> Please press any key to continue to the next image.</div>
        ","j","ITI","","","","","","",""
"","","","","","html-keyboard-response","16","137000","0.0-5.0-1.2","5fd6303361f8c14cb485a447","655cb802637e0dbe2941dbc4","655cb8ccd413ab80eb90989f","null","
        
        <div style=""text-align: center; position: fixed; top: 5vh; left: 40vw;"">
            <div style=""margin:0 auto; width: 20vw; top: 8vh; font-size: 2vw""> 
            <font color=""green""> Bonus : $10 </font>
            </div>
        </div>
    
        <img class=""stim"" src=./stimuli//pack_shapes_diff/cat_2/diff_1/ex_2_1_6.png></img>
    ","null","stimulus","","","","","","",""
"","","","","","html-keyboard-response","17","138015","0.0-5.0-2.2","5fd6303361f8c14cb485a447","655cb802637e0dbe2941dbc4","655cb8ccd413ab80eb90989f","null","
        <div style=""text-align: center; position: fixed; top: 5vh; left: 40vw;"">
            <div style=""margin:0 auto; width: 20vw; top: 8vh; font-size: 2vw""> 
            <font color=""green""> Bonus : $10 </font>
            </div>
        </div>
    ","null","","","","","","","",""
"","","","","","html-keyboard-response","18","139700","0.0-5.0-3.2","5fd6303361f8c14cb485a447","655cb802637e0dbe2941dbc4","655cb8ccd413ab80eb90989f","1684","./stimuli//pack_shapes_diff/cat_2/diff_1/ex_2_1_6.png","arrowleft","response","ArrowRight","6","2","1","train","false",""
"","","","","","html-keyboard-response","19","141211","0.0-5.0-4.2","5fd6303361f8c14cb485a447","655cb802637e0dbe2941dbc4","655cb8ccd413ab80eb90989f","null","<p> <font color=""red"" size=""5vw""> Wrong category! </font> </p>","null","feedback","","","","","","","10"
"","","","","","html-keyboard-response","20","142563","0.0-5.0-0.3","5fd6303361f8c14cb485a447","655cb802637e0dbe2941dbc4","655cb8ccd413ab80eb90989f","1351","
            
        <div style=""text-align: center; position: fixed; top: 5vh; left: 40vw;"">
            <div style=""margin:0 auto; width: 20vw; top: 8vh; font-size: 2vw""> 
            <font color=""green""> Bonus : $10 </font>
            </div>
        </div>
    
            <div> Please press any key to continue to the next image.</div>
        ","b","ITI","","","","","","",""
"","","","","","html-keyboard-response","21","143169","0.0-5.0-1.3","5fd6303361f8c14cb485a447","655cb802637e0dbe2941dbc4","655cb8ccd413ab80eb90989f","null","
        
        <div style=""text-align: center; position: fixed; top: 5vh; left: 40vw;"">
            <div style=""margin:0 auto; width: 20vw; top: 8vh; font-size: 2vw""> 
            <font color=""green""> Bonus : $10 </font>
            </div>
        </div>
    
        <img class=""stim"" src=./stimuli//pack_shapes_diff/cat_1/diff_1/ex_1_1_15.png></img>
    ","null","stimulus","","","","","","",""
"","","","","","html-keyboard-response","22","144181","0.0-5.0-2.3","5fd6303361f8c14cb485a447","655cb802637e0dbe2941dbc4","655cb8ccd413ab80eb90989f","null","
        <div style=""text-align: center; position: fixed; top: 5vh; left: 40vw;"">
            <div style=""margin:0 auto; width: 20vw; top: 8vh; font-size: 2vw""> 
            <font color=""green""> Bonus : $10 </font>
            </div>
        </div>
    ","null","","","","","","","",""
"","","","","","html-keyboard-response","23","144648","0.0-5.0-3.3","5fd6303361f8c14cb485a447","655cb802637e0dbe2941dbc4","655cb8ccd413ab80eb90989f","467","./stimuli//pack_shapes_diff/cat_1/diff_1/ex_1_1_15.png","arrowleft","response","ArrowLeft","15","1","1","train","true",""
"","","","","","html-keyboard-response","24","146156","0.0-5.0-4.3","5fd6303361f8c14cb485a447","655cb802637e0dbe2941dbc4","655cb8ccd413ab80eb90989f","null","<p> <font color=""green"" size=""5vw""> Correct category! </font> </p>","null","feedback","","","","","","","10"
"","","","","","html-keyboard-response","25","148167","0.0-5.0-0.4","5fd6303361f8c14cb485a447","655cb802637e0dbe2941dbc4","655cb8ccd413ab80eb90989f","2010","
            
        <div style=""text-align: center; position: fixed; top: 5vh; left: 40vw;"">
            <div style=""margin:0 auto; width: 20vw; top: 8vh; font-size: 2vw""> 
            <font color=""green""> Bonus : $10 </font>
            </div>
        </div>
    
            <div> Please press any key to continue to the next image.</div>
        ","h","ITI","","","","","","",""
"","","","","","html-keyboard-response","26","148777","0.0-5.0-1.4","5fd6303361f8c14cb485a447","655cb802637e0dbe2941dbc4","655cb8ccd413ab80eb90989f","null","
        
        <div style=""text-align: center; position: fixed; top: 5vh; left: 40vw;"">
            <div style=""margin:0 auto; width: 20vw; top: 8vh; font-size: 2vw""> 
            <font color=""green""> Bonus : $10 </font>
            </div>
        </div>
    
        <img class=""stim"" src=./stimuli//pack_shapes_diff/cat_2/diff_2/ex_2_2_11.png></img>
    ","null","stimulus","","","","","","",""
"","","","","","html-keyboard-response","27","149787","0.0-5.0-2.4","5fd6303361f8c14cb485a447","655cb802637e0dbe2941dbc4","655cb8ccd413ab80eb90989f","null","
        <div style=""text-align: center; position: fixed; top: 5vh; left: 40vw;"">
            <div style=""margin:0 auto; width: 20vw; top: 8vh; font-size: 2vw""> 
            <font color=""green""> Bonus : $10 </font>
            </div>
        </div>
    ","null","","","","","","","",""
"","","","","","html-keyboard-response","28","151111","0.0-5.0-3.4","5fd6303361f8c14cb485a447","655cb802637e0dbe2941dbc4","655cb8ccd413ab80eb90989f","1323","./stimuli//pack_shapes_diff/cat_2/diff_2/ex_2_2_11.png","arrowright","response","ArrowRight","11","2","2","train","true",""
"","","","","","html-keyboard-response","29","152617","0.0-5.0-4.4","5fd6303361f8c14cb485a447","655cb802637e0dbe2941dbc4","655cb8ccd413ab80eb90989f","null","<p> <font color=""green"" size=""5vw""> Correct category! </font> </p>","null","feedback","","","","","","","10"
"","","","","","html-keyboard-response","30","154819","0.0-5.0-0.5","5fd6303361f8c14cb485a447","655cb802637e0dbe2941dbc4","655cb8ccd413ab80eb90989f","2201","
            
        <div style=""text-align: center; position: fixed; top: 5vh; left: 40vw;"">
            <div style=""margin:0 auto; width: 20vw; top: 8vh; font-size: 2vw""> 
            <font color=""green""> Bonus : $10 </font>
            </div>
        </div>
    
            <div> Please press any key to continue to the next image.</div>
        ","j","ITI","","","","","","",""
"","","","","","html-keyboard-response","31","155431","0.0-5.0-1.5","5fd6303361f8c14cb485a447","655cb802637e0dbe2941dbc4","655cb8ccd413ab80eb90989f","null","
        
        <div style=""text-align: center; position: fixed; top: 5vh; left: 40vw;"">
            <div style=""margin:0 auto; width: 20vw; top: 8vh; font-size: 2vw""> 
            <font color=""green""> Bonus : $10 </font>
            </div>
        </div>
    
        <img class=""stim"" src=./stimuli//pack_shapes_diff/cat_1/diff_1/ex_1_1_4.png></img>
    ","null","stimulus","","","","","","",""
"","","","","","html-keyboard-response","32","156440","0.0-5.0-2.5","5fd6303361f8c14cb485a447","655cb802637e0dbe2941dbc4","655cb8ccd413ab80eb90989f","null","
        <div style=""text-align: center; position: fixed; top: 5vh; left: 40vw;"">
            <div style=""margin:0 auto; width: 20vw; top: 8vh; font-size: 2vw""> 
            <font color=""green""> Bonus : $10 </font>
            </div>
        </div>
    ","null","","","","","","","",""
"","","","","","html-keyboard-response","33","156713","0.0-5.0-3.5","5fd6303361f8c14cb485a447","655cb802637e0dbe2941dbc4","655cb8ccd413ab80eb90989f","273","./stimuli//pack_shapes_diff/cat_1/diff_1/ex_1_1_4.png","arrowleft","response","ArrowLeft","4","1","1","train","true",""
"","","","","","html-keyboard-response","34","158219","0.0-5.0-4.5","5fd6303361f8c14cb485a447","655cb802637e0dbe2941dbc4","655cb8ccd413ab80eb90989f","null","<p> <font color=""green"" size=""5vw""> Correct category! </font> </p>","null","feedback","","","","","","","10"
"","","","","","html-keyboard-response","35","160015","0.0-5.0-0.6","5fd6303361f8c14cb485a447","655cb802637e0dbe2941dbc4","655cb8ccd413ab80eb90989f","1795","
            
        <div style=""text-align: center; position: fixed; top: 5vh; left: 40vw;"">
            <div style=""margin:0 auto; width: 20vw; top: 8vh; font-size: 2vw""> 
            <font color=""green""> Bonus : $10 </font>
            </div>
        </div>
    
            <div> Please press any key to continue to the next image.</div>
        ","n","ITI","","","","","","",""
"","","","","","html-keyboard-response","36","160619","0.0-5.0-1.6","5fd6303361f8c14cb485a447","655cb802637e0dbe2941dbc4","655cb8ccd413ab80eb90989f","null","
        
        <div style=""text-align: center; position: fixed; top: 5vh; left: 40vw;"">
            <div style=""margin:0 auto; width: 20vw; top: 8vh; font-size: 2vw""> 
            <font color=""green""> Bonus : $10 </font>
            </div>
        </div>
    
        <img class=""stim"" src=./stimuli//pack_shapes_diff/cat_1/diff_2/ex_1_2_8.png></img>
    ","null","stimulus","","","","","","",""
"","","","","","html-keyboard-response","37","161626","0.0-5.0-2.6","5fd6303361f8c14cb485a447","655cb802637e0dbe2941dbc4","655cb8ccd413ab80eb90989f","null","
        <div style=""text-align: center; position: fixed; top: 5vh; left: 40vw;"">
            <div style=""margin:0 auto; width: 20vw; top: 8vh; font-size: 2vw""> 
            <font color=""green""> Bonus : $10 </font>
            </div>
        </div>
    ","null","","","","","","","",""
"","","","","","html-keyboard-response","38","162250","0.0-5.0-3.6","5fd6303361f8c14cb485a447","655cb802637e0dbe2941dbc4","655cb8ccd413ab80eb90989f","623","./stimuli//pack_shapes_diff/cat_1/diff_2/ex_1_2_8.png","arrowright","response","ArrowLeft","8","1","2","train","false",""
"","","","","","html-keyboard-response","39","163757","0.0-5.0-4.6","5fd6303361f8c14cb485a447","655cb802637e0dbe2941dbc4","655cb8ccd413ab80eb90989f","null","<p> <font color=""red"" size=""5vw""> Wrong category! </font> </p>","null","feedback","","","","","","","10"
"","","","","","html-keyboard-response","40","165658","0.0-5.0-0.7","5fd6303361f8c14cb485a447","655cb802637e0dbe2941dbc4","655cb8ccd413ab80eb90989f","1900","
            
        <div style=""text-align: center; position: fixed; top: 5vh; left: 40vw;"">
            <div style=""margin:0 auto; width: 20vw; top: 8vh; font-size: 2vw""> 
            <font color=""green""> Bonus : $10 </font>
            </div>
        </div>
    
            <div> Please press any key to continue to the next image.</div>
        ","arrowleft","ITI","","","","","","",""
"","","","","","html-keyboard-response","41","166264","0.0-5.0-1.7","5fd6303361f8c14cb485a447","655cb802637e0dbe2941dbc4","655cb8ccd413ab80eb90989f","null","
        
        <div style=""text-align: center; position: fixed; top: 5vh; left: 40vw;"">
            <div style=""margin:0 auto; width: 20vw; top: 8vh; font-size: 2vw""> 
            <font color=""green""> Bonus : $10 </font>
            </div>
        </div>
    
        <img class=""stim"" src=./stimuli//pack_shapes_diff/cat_2/diff_1/ex_2_1_13.png></img>
    ","null","stimulus","","","","","","",""
"","","","","","html-keyboard-response","42","167277","0.0-5.0-2.7","5fd6303361f8c14cb485a447","655cb802637e0dbe2941dbc4","655cb8ccd413ab80eb90989f","null","
        <div style=""text-align: center; position: fixed; top: 5vh; left: 40vw;"">
            <div style=""margin:0 auto; width: 20vw; top: 8vh; font-size: 2vw""> 
            <font color=""green""> Bonus : $10 </font>
            </div>
        </div>
    ","null","","","","","","","",""
"","","","","","html-keyboard-response","43","168077","0.0-5.0-3.7","5fd6303361f8c14cb485a447","655cb802637e0dbe2941dbc4","655cb8ccd413ab80eb90989f","799","./stimuli//pack_shapes_diff/cat_2/diff_1/ex_2_1_13.png","arrowleft","response","ArrowRight","13","2","1","train","false",""
"","","","","","html-keyboard-response","44","169583","0.0-5.0-4.7","5fd6303361f8c14cb485a447","655cb802637e0dbe2941dbc4","655cb8ccd413ab80eb90989f","null","<p> <font color=""red"" size=""5vw""> Wrong category! </font> </p>","null","feedback","","","","","","","10"
"","","","","","html-keyboard-response","45","170547","0.0-5.0-0.8","5fd6303361f8c14cb485a447","655cb802637e0dbe2941dbc4","655cb8ccd413ab80eb90989f","963","
            
        <div style=""text-align: center; position: fixed; top: 5vh; left: 40vw;"">
            <div style=""margin:0 auto; width: 20vw; top: 8vh; font-size: 2vw""> 
            <font color=""green""> Bonus : $10 </font>
            </div>
        </div>
    
            <div> Please press any key to continue to the next image.</div>
        ","arrowleft","ITI","","","","","","",""
"","","","","","html-keyboard-response","46","171148","0.0-5.0-1.8","5fd6303361f8c14cb485a447","655cb802637e0dbe2941dbc4","655cb8ccd413ab80eb90989f","null","
        
        <div style=""text-align: center; position: fixed; top: 5vh; left: 40vw;"">
            <div style=""margin:0 auto; width: 20vw; top: 8vh; font-size: 2vw""> 
            <font color=""green""> Bonus : $10 </font>
            </div>
        </div>
    
        <img class=""stim"" src=./stimuli//pack_shapes_diff/cat_1/diff_1/ex_1_1_8.png></img>
    ","null","stimulus","","","","","","",""
"","","","","","html-keyboard-response","47","172158","0.0-5.0-2.8","5fd6303361f8c14cb485a447","655cb802637e0dbe2941dbc4","655cb8ccd413ab80eb90989f","null","
        <div style=""text-align: center; position: fixed; top: 5vh; left: 40vw;"">
            <div style=""margin:0 auto; width: 20vw; top: 8vh; font-size: 2vw""> 
            <font color=""green""> Bonus : $10 </font>
            </div>
        </div>
    ","null","","","","","","","",""
"","","","","","html-keyboard-response","48","173232","0.0-5.0-3.8","5fd6303361f8c14cb485a447","655cb802637e0dbe2941dbc4","655cb8ccd413ab80eb90989f","1073","./stimuli//pack_shapes_diff/cat_1/diff_1/ex_1_1_8.png","arrowleft","response","ArrowLeft","8","1","1","train","true",""
"","","","","","html-keyboard-response","49","174734","0.0-5.0-4.8","5fd6303361f8c14cb485a447","655cb802637e0dbe2941dbc4","655cb8ccd413ab80eb90989f","null","<p> <font color=""green"" size=""5vw""> Correct category! </font> </p>","null","feedback","","","","","","","10"
"","","","","","html-keyboard-response","50","175740","0.0-5.0-0.9","5fd6303361f8c14cb485a447","655cb802637e0dbe2941dbc4","655cb8ccd413ab80eb90989f","1005","
            
        <div style=""text-align: center; position: fixed; top: 5vh; left: 40vw;"">
            <div style=""margin:0 auto; width: 20vw; top: 8vh; font-size: 2vw""> 
            <font color=""green""> Bonus : $10 </font>
            </div>
        </div>
    
            <div> Please press any key to continue to the next image.</div>
        ","arrowleft","ITI","","","","","","",""
"","","","","","html-keyboard-response","51","176343","0.0-5.0-1.9","5fd6303361f8c14cb485a447","655cb802637e0dbe2941dbc4","655cb8ccd413ab80eb90989f","null","
        
        <div style=""text-align: center; position: fixed; top: 5vh; left: 40vw;"">
            <div style=""margin:0 auto; width: 20vw; top: 8vh; font-size: 2vw""> 
            <font color=""green""> Bonus : $10 </font>
            </div>
        </div>
    
        <img class=""stim"" src=./stimuli//pack_shapes_diff/cat_1/diff_2/ex_1_2_9.png></img>
    ","null","stimulus","","","","","","",""
"","","","","","html-keyboard-response","52","177355","0.0-5.0-2.9","5fd6303361f8c14cb485a447","655cb802637e0dbe2941dbc4","655cb8ccd413ab80eb90989f","null","
        <div style=""text-align: center; position: fixed; top: 5vh; left: 40vw;"">
            <div style=""margin:0 auto; width: 20vw; top: 8vh; font-size: 2vw""> 
            <font color=""green""> Bonus : $10 </font>
            </div>
        </div>
    ","null","","","","","","","",""
"","","","","","html-keyboard-response","53","177822","0.0-5.0-3.9","5fd6303361f8c14cb485a447","655cb802637e0dbe2941dbc4","655cb8ccd413ab80eb90989f","466","./stimuli//pack_shapes_diff/cat_1/diff_2/ex_1_2_9.png","arrowright","response","ArrowLeft","9","1","2","train","false",""
"","","","","","html-keyboard-response","54","179326","0.0-5.0-4.9","5fd6303361f8c14cb485a447","655cb802637e0dbe2941dbc4","655cb8ccd413ab80eb90989f","null","<p> <font color=""red"" size=""5vw""> Wrong category! </font> </p>","null","feedback","","","","","","","10"
"","","","","","html-keyboard-response","55","188183","0.0-6.0","5fd6303361f8c14cb485a447","655cb802637e0dbe2941dbc4","655cb8ccd413ab80eb90989f","8855","
            <b> <p> The practice round has finished.</p>
            <b> For the rest of the experiment if you guess incorrectly $0.05 will be subtracted from your bonus!</b>
            <p> Press any key to begin the test. </p>
            ","arrowleft","intermission","","","","","","",""
"","","","","","html-keyboard-response","56","191801","0.0-7.0-0.0","5fd6303361f8c14cb485a447","655cb802637e0dbe2941dbc4","655cb8ccd413ab80eb90989f","3618","
            
        <div style=""text-align: center; position: fixed; top: 5vh; left: 40vw;"">
            <div style=""margin:0 auto; width: 20vw; top: 8vh; font-size: 2vw""> 
            <font color=""green""> Bonus : $10 </font>
            </div>
        </div>
    
            <div> Please press any key to continue to the next image.</div>
        ","arrowleft","ITI","","","","","","",""
"","","","","","html-keyboard-response","57","192418","0.0-7.0-1.0","5fd6303361f8c14cb485a447","655cb802637e0dbe2941dbc4","655cb8ccd413ab80eb90989f","null","
        
        <div style=""text-align: center; position: fixed; top: 5vh; left: 40vw;"">
            <div style=""margin:0 auto; width: 20vw; top: 8vh; font-size: 2vw""> 
            <font color=""green""> Bonus : $10 </font>
            </div>
        </div>
    
        <img class=""stim"" src=./stimuli//pack_shapes_diff/cat_2/diff_1/ex_2_1_10.png></img>
    ","null","stimulus","","","","","","",""
"","","","","","html-keyboard-response","58","193428","0.0-7.0-2.0","5fd6303361f8c14cb485a447","655cb802637e0dbe2941dbc4","655cb8ccd413ab80eb90989f","null","
        <div style=""text-align: center; position: fixed; top: 5vh; left: 40vw;"">
            <div style=""margin:0 auto; width: 20vw; top: 8vh; font-size: 2vw""> 
            <font color=""green""> Bonus : $10 </font>
            </div>
        </div>
    ","null","","","","","","","",""
"","","","","","html-keyboard-response","59","194895","0.0-7.0-3.0","5fd6303361f8c14cb485a447","655cb802637e0dbe2941dbc4","655cb8ccd413ab80eb90989f","1466","./stimuli//pack_shapes_diff/cat_2/diff_1/ex_2_1_10.png","arrowright","response","ArrowRight","10","2","1","test","true",""
"","","","","","html-keyboard-response","60","196399","0.0-7.0-4.0","5fd6303361f8c14cb485a447","655cb802637e0dbe2941dbc4","655cb8ccd413ab80eb90989f","null","<p> <font color=""green"" size=""5vw""> Correct category! </font></p>","null","feedback","","","","","","","10"
"","","","","","html-keyboard-response","61","198443","0.0-7.1-0.1","5fd6303361f8c14cb485a447","655cb802637e0dbe2941dbc4","655cb8ccd413ab80eb90989f","2043","
            
        <div style=""text-align: center; position: fixed; top: 5vh; left: 40vw;"">
            <div style=""margin:0 auto; width: 20vw; top: 8vh; font-size: 2vw""> 
            <font color=""green""> Bonus : $10 </font>
            </div>
        </div>
    
            <div> Please press any key to continue to the next image.</div>
        ","arrowleft","ITI","","","","","","",""
"","","","","","html-keyboard-response","62","199059","0.0-7.1-1.1","5fd6303361f8c14cb485a447","655cb802637e0dbe2941dbc4","655cb8ccd413ab80eb90989f","null","
        
        <div style=""text-align: center; position: fixed; top: 5vh; left: 40vw;"">
            <div style=""margin:0 auto; width: 20vw; top: 8vh; font-size: 2vw""> 
            <font color=""green""> Bonus : $10 </font>
            </div>
        </div>
    
        <img class=""stim"" src=./stimuli//pack_shapes_diff/cat_2/diff_1/ex_2_1_7.png></img>
    ","null","stimulus","","","","","","",""
"","","","","","html-keyboard-response","63","200065","0.0-7.1-2.1","5fd6303361f8c14cb485a447","655cb802637e0dbe2941dbc4","655cb8ccd413ab80eb90989f","null","
        <div style=""text-align: center; position: fixed; top: 5vh; left: 40vw;"">
            <div style=""margin:0 auto; width: 20vw; top: 8vh; font-size: 2vw""> 
            <font color=""green""> Bonus : $10 </font>
            </div>
        </div>
    ","null","","","","","","","",""
"","","","","","html-keyboard-response","64","201239","0.0-7.1-3.1","5fd6303361f8c14cb485a447","655cb802637e0dbe2941dbc4","655cb8ccd413ab80eb90989f","1173","./stimuli//pack_shapes_diff/cat_2/diff_1/ex_2_1_7.png","arrowright","response","ArrowRight","7","2","1","test","true",""
"","","","","","html-keyboard-response","65","202741","0.0-7.1-4.1","5fd6303361f8c14cb485a447","655cb802637e0dbe2941dbc4","655cb8ccd413ab80eb90989f","null","<p> <font color=""green"" size=""5vw""> Correct category! </font></p>","null","feedback","","","","","","","10"
"","","","","","html-keyboard-response","66","207755","0.0-7.2-0.2","5fd6303361f8c14cb485a447","655cb802637e0dbe2941dbc4","655cb8ccd413ab80eb90989f","null","
            
        <div style=""text-align: center; position: fixed; top: 5vh; left: 40vw;"">
            <div style=""margin:0 auto; width: 20vw; top: 8vh; font-size: 2vw""> 
            <font color=""green""> Bonus : $10 </font>
            </div>
        </div>
    
            <div> Please press any key to continue to the next image.</div>
        ","null","ITI","","","","","","",""
"","","","","","html-keyboard-response","67","208365","0.0-7.2-1.2","5fd6303361f8c14cb485a447","655cb802637e0dbe2941dbc4","655cb8ccd413ab80eb90989f","null","
        
        <div style=""text-align: center; position: fixed; top: 5vh; left: 40vw;"">
            <div style=""margin:0 auto; width: 20vw; top: 8vh; font-size: 2vw""> 
            <font color=""green""> Bonus : $10 </font>
            </div>
        </div>
    
        <img class=""stim"" src=./stimuli//pack_shapes_diff/cat_2/diff_1/ex_2_1_16.png></img>
    ","null","stimulus","","","","","","",""
"","","","","","html-keyboard-response","68","209379","0.0-7.2-2.2","5fd6303361f8c14cb485a447","655cb802637e0dbe2941dbc4","655cb8ccd413ab80eb90989f","null","
        <div style=""text-align: center; position: fixed; top: 5vh; left: 40vw;"">
            <div style=""margin:0 auto; width: 20vw; top: 8vh; font-size: 2vw""> 
            <font color=""green""> Bonus : $10 </font>
            </div>
        </div>
    ","null","","","","","","","",""
"","","","","","html-keyboard-response","69","210390","0.0-7.2-3.2","5fd6303361f8c14cb485a447","655cb802637e0dbe2941dbc4","655cb8ccd413ab80eb90989f","1010","./stimuli//pack_shapes_diff/cat_2/diff_1/ex_2_1_16.png","arrowleft","response","ArrowRight","16","2","1","test","false",""
"","","","","","html-keyboard-response","70","211902","0.0-7.2-4.2","5fd6303361f8c14cb485a447","655cb802637e0dbe2941dbc4","655cb8ccd413ab80eb90989f","null","<p> <font size=""4vw""> Wrong category! </font> <br> <br> <font color=""red"" size=""7vw""> - $0.05 points </font> </p>","null","feedback","","","","","","","9.95"
"","","","","","html-keyboard-response","71","212682","0.0-7.3-0.3","5fd6303361f8c14cb485a447","655cb802637e0dbe2941dbc4","655cb8ccd413ab80eb90989f","779","
            
        <div style=""text-align: center; position: fixed; top: 5vh; left: 40vw;"">
            <div style=""margin:0 auto; width: 20vw; top: 8vh; font-size: 2vw""> 
            <font color=""green""> Bonus : $9.95 </font>
            </div>
        </div>
    
            <div> Please press any key to continue to the next image.</div>
        ","arrowleft","ITI","","","","","","",""
"","","","","","html-keyboard-response","72","213285","0.0-7.3-1.3","5fd6303361f8c14cb485a447","655cb802637e0dbe2941dbc4","655cb8ccd413ab80eb90989f","null","
        
        <div style=""text-align: center; position: fixed; top: 5vh; left: 40vw;"">
            <div style=""margin:0 auto; width: 20vw; top: 8vh; font-size: 2vw""> 
            <font color=""green""> Bonus : $9.95 </font>
            </div>
        </div>
    
        <img class=""stim"" src=./stimuli//pack_shapes_diff/cat_2/diff_1/ex_2_1_3.png></img>
    ","null","stimulus","","","","","","",""
"","","","","","html-keyboard-response","73","214300","0.0-7.3-2.3","5fd6303361f8c14cb485a447","655cb802637e0dbe2941dbc4","655cb8ccd413ab80eb90989f","null","
        <div style=""text-align: center; position: fixed; top: 5vh; left: 40vw;"">
            <div style=""margin:0 auto; width: 20vw; top: 8vh; font-size: 2vw""> 
            <font color=""green""> Bonus : $9.95 </font>
            </div>
        </div>
    ","null","","","","","","","",""
"","","","","","html-keyboard-response","74","214970","0.0-7.3-3.3","5fd6303361f8c14cb485a447","655cb802637e0dbe2941dbc4","655cb8ccd413ab80eb90989f","669","./stimuli//pack_shapes_diff/cat_2/diff_1/ex_2_1_3.png","arrowleft","response","ArrowRight","3","2","1","test","false",""
"","","","","","html-keyboard-response","75","216483","0.0-7.3-4.3","5fd6303361f8c14cb485a447","655cb802637e0dbe2941dbc4","655cb8ccd413ab80eb90989f","null","<p> <font size=""4vw""> Wrong category! </font> <br> <br> <font color=""red"" size=""7vw""> - $0.05 points </font> </p>","null","feedback","","","","","","","9.9"
"","","","","","html-keyboard-response","76","218361","0.0-7.4-0.4","5fd6303361f8c14cb485a447","655cb802637e0dbe2941dbc4","655cb8ccd413ab80eb90989f","1877","
            
        <div style=""text-align: center; position: fixed; top: 5vh; left: 40vw;"">
            <div style=""margin:0 auto; width: 20vw; top: 8vh; font-size: 2vw""> 
            <font color=""green""> Bonus : $9.9 </font>
            </div>
        </div>
    
            <div> Please press any key to continue to the next image.</div>
        ","arrowleft","ITI","","","","","","",""
"","","","","","html-keyboard-response","77","218971","0.0-7.4-1.4","5fd6303361f8c14cb485a447","655cb802637e0dbe2941dbc4","655cb8ccd413ab80eb90989f","null","
        
        <div style=""text-align: center; position: fixed; top: 5vh; left: 40vw;"">
            <div style=""margin:0 auto; width: 20vw; top: 8vh; font-size: 2vw""> 
            <font color=""green""> Bonus : $9.9 </font>
            </div>
        </div>
    
        <img class=""stim"" src=./stimuli//pack_shapes_diff/cat_1/diff_1/ex_1_1_14.png></img>
    ","null","stimulus","","","","","","",""
"","","","","","html-keyboard-response","78","219983","0.0-7.4-2.4","5fd6303361f8c14cb485a447","655cb802637e0dbe2941dbc4","655cb8ccd413ab80eb90989f","null","
        <div style=""text-align: center; position: fixed; top: 5vh; left: 40vw;"">
            <div style=""margin:0 auto; width: 20vw; top: 8vh; font-size: 2vw""> 
            <font color=""green""> Bonus : $9.9 </font>
            </div>
        </div>
    ","null","","","","","","","",""
"","","","","","html-keyboard-response","79","220612","0.0-7.4-3.4","5fd6303361f8c14cb485a447","655cb802637e0dbe2941dbc4","655cb8ccd413ab80eb90989f","628","./stimuli//pack_shapes_diff/cat_1/diff_1/ex_1_1_14.png","arrowleft","response","ArrowLeft","14","1","1","test","true",""
"","","","","","html-keyboard-response","80","222119","0.0-7.4-4.4","5fd6303361f8c14cb485a447","655cb802637e0dbe2941dbc4","655cb8ccd413ab80eb90989f","null","<p> <font color=""green"" size=""5vw""> Correct category! </font></p>","null","feedback","","","","","","","9.9"
"","","","","","html-keyboard-response","81","222902","0.0-7.5-0.5","5fd6303361f8c14cb485a447","655cb802637e0dbe2941dbc4","655cb8ccd413ab80eb90989f","782","
            
        <div style=""text-align: center; position: fixed; top: 5vh; left: 40vw;"">
            <div style=""margin:0 auto; width: 20vw; top: 8vh; font-size: 2vw""> 
            <font color=""green""> Bonus : $9.9 </font>
            </div>
        </div>
    
            <div> Please press any key to continue to the next image.</div>
        ","arrowleft","ITI","","","","","","",""
"","","","","","html-keyboard-response","82","223506","0.0-7.5-1.5","5fd6303361f8c14cb485a447","655cb802637e0dbe2941dbc4","655cb8ccd413ab80eb90989f","null","
        
        <div style=""text-align: center; position: fixed; top: 5vh; left: 40vw;"">
            <div style=""margin:0 auto; width: 20vw; top: 8vh; font-size: 2vw""> 
            <font color=""green""> Bonus : $9.9 </font>
            </div>
        </div>
    
        <img class=""stim"" src=./stimuli//pack_shapes_diff/cat_1/diff_1/ex_1_1_6.png></img>
    ","null","stimulus","","","","","","",""
"","","","","","html-keyboard-response","83","224510","0.0-7.5-2.5","5fd6303361f8c14cb485a447","655cb802637e0dbe2941dbc4","655cb8ccd413ab80eb90989f","null","
        <div style=""text-align: center; position: fixed; top: 5vh; left: 40vw;"">
            <div style=""margin:0 auto; width: 20vw; top: 8vh; font-size: 2vw""> 
            <font color=""green""> Bonus : $9.9 </font>
            </div>
        </div>
    ","null","","","","","","","",""
"","","","","","html-keyboard-response","84","224867","0.0-7.5-3.5","5fd6303361f8c14cb485a447","655cb802637e0dbe2941dbc4","655cb8ccd413ab80eb90989f","356","./stimuli//pack_shapes_diff/cat_1/diff_1/ex_1_1_6.png","arrowleft","response","ArrowLeft","6","1","1","test","true",""
"","","","","","html-keyboard-response","85","226369","0.0-7.5-4.5","5fd6303361f8c14cb485a447","655cb802637e0dbe2941dbc4","655cb8ccd413ab80eb90989f","null","<p> <font color=""green"" size=""5vw""> Correct category! </font></p>","null","feedback","","","","","","","9.9"
"","","","","","html-keyboard-response","86","227097","0.0-7.6-0.6","5fd6303361f8c14cb485a447","655cb802637e0dbe2941dbc4","655cb8ccd413ab80eb90989f","728","
            
        <div style=""text-align: center; position: fixed; top: 5vh; left: 40vw;"">
            <div style=""margin:0 auto; width: 20vw; top: 8vh; font-size: 2vw""> 
            <font color=""green""> Bonus : $9.9 </font>
            </div>
        </div>
    
            <div> Please press any key to continue to the next image.</div>
        ","arrowleft","ITI","","","","","","",""
"","","","","","html-keyboard-response","87","227714","0.0-7.6-1.6","5fd6303361f8c14cb485a447","655cb802637e0dbe2941dbc4","655cb8ccd413ab80eb90989f","null","
        
        <div style=""text-align: center; position: fixed; top: 5vh; left: 40vw;"">
            <div style=""margin:0 auto; width: 20vw; top: 8vh; font-size: 2vw""> 
            <font color=""green""> Bonus : $9.9 </font>
            </div>
        </div>
    
        <img class=""stim"" src=./stimuli//pack_shapes_diff/cat_2/diff_1/ex_2_1_3.png></img>
    ","null","stimulus","","","","","","",""
"","","","","","html-keyboard-response","88","228719","0.0-7.6-2.6","5fd6303361f8c14cb485a447","655cb802637e0dbe2941dbc4","655cb8ccd413ab80eb90989f","null","
        <div style=""text-align: center; position: fixed; top: 5vh; left: 40vw;"">
            <div style=""margin:0 auto; width: 20vw; top: 8vh; font-size: 2vw""> 
            <font color=""green""> Bonus : $9.9 </font>
            </div>
        </div>
    ","null","","","","","","","",""
"","","","","","html-keyboard-response","89","229098","0.0-7.6-3.6","5fd6303361f8c14cb485a447","655cb802637e0dbe2941dbc4","655cb8ccd413ab80eb90989f","378","./stimuli//pack_shapes_diff/cat_2/diff_1/ex_2_1_3.png","arrowleft","response","ArrowRight","3","2","1","test","false",""
"","","","","","html-keyboard-response","90","230612","0.0-7.6-4.6","5fd6303361f8c14cb485a447","655cb802637e0dbe2941dbc4","655cb8ccd413ab80eb90989f","null","<p> <font size=""4vw""> Wrong category! </font> <br> <br> <font color=""red"" size=""7vw""> - $0.05 points </font> </p>","null","feedback","","","","","","","9.85"
"","","","","","html-keyboard-response","91","232439","0.0-7.7-0.7","5fd6303361f8c14cb485a447","655cb802637e0dbe2941dbc4","655cb8ccd413ab80eb90989f","1826","
            
        <div style=""text-align: center; position: fixed; top: 5vh; left: 40vw;"">
            <div style=""margin:0 auto; width: 20vw; top: 8vh; font-size: 2vw""> 
            <font color=""green""> Bonus : $9.85 </font>
            </div>
        </div>
    
            <div> Please press any key to continue to the next image.</div>
        ","arrowleft","ITI","","","","","","",""
"","","","","","html-keyboard-response","92","233049","0.0-7.7-1.7","5fd6303361f8c14cb485a447","655cb802637e0dbe2941dbc4","655cb8ccd413ab80eb90989f","null","
        
        <div style=""text-align: center; position: fixed; top: 5vh; left: 40vw;"">
            <div style=""margin:0 auto; width: 20vw; top: 8vh; font-size: 2vw""> 
            <font color=""green""> Bonus : $9.85 </font>
            </div>
        </div>
    
        <img class=""stim"" src=./stimuli//pack_shapes_diff/cat_2/diff_1/ex_2_1_10.png></img>
    ","null","stimulus","","","","","","",""
"","","","","","html-keyboard-response","93","234051","0.0-7.7-2.7","5fd6303361f8c14cb485a447","655cb802637e0dbe2941dbc4","655cb8ccd413ab80eb90989f","null","
        <div style=""text-align: center; position: fixed; top: 5vh; left: 40vw;"">
            <div style=""margin:0 auto; width: 20vw; top: 8vh; font-size: 2vw""> 
            <font color=""green""> Bonus : $9.85 </font>
            </div>
        </div>
    ","null","","","","","","","",""
"","","","","","html-keyboard-response","94","234561","0.0-7.7-3.7","5fd6303361f8c14cb485a447","655cb802637e0dbe2941dbc4","655cb8ccd413ab80eb90989f","509","./stimuli//pack_shapes_diff/cat_2/diff_1/ex_2_1_10.png","arrowright","response","ArrowRight","10","2","1","test","true",""
"","","","","","html-keyboard-response","95","236064","0.0-7.7-4.7","5fd6303361f8c14cb485a447","655cb802637e0dbe2941dbc4","655cb8ccd413ab80eb90989f","null","<p> <font color=""green"" size=""5vw""> Correct category! </font></p>","null","feedback","","","","","","","9.85"
"","","","","","html-keyboard-response","96","238368","0.0-7.8-0.8","5fd6303361f8c14cb485a447","655cb802637e0dbe2941dbc4","655cb8ccd413ab80eb90989f","2303","
            
        <div style=""text-align: center; position: fixed; top: 5vh; left: 40vw;"">
            <div style=""margin:0 auto; width: 20vw; top: 8vh; font-size: 2vw""> 
            <font color=""green""> Bonus : $9.85 </font>
            </div>
        </div>
    
            <div> Please press any key to continue to the next image.</div>
        ","arrowleft","ITI","","","","","","",""
"","","","","","html-keyboard-response","97","238979","0.0-7.8-1.8","5fd6303361f8c14cb485a447","655cb802637e0dbe2941dbc4","655cb8ccd413ab80eb90989f","null","
        
        <div style=""text-align: center; position: fixed; top: 5vh; left: 40vw;"">
            <div style=""margin:0 auto; width: 20vw; top: 8vh; font-size: 2vw""> 
            <font color=""green""> Bonus : $9.85 </font>
            </div>
        </div>
    
        <img class=""stim"" src=./stimuli//pack_shapes_diff/cat_1/diff_1/ex_1_1_5.png></img>
    ","null","stimulus","","","","","","",""
"","","","","","html-keyboard-response","98","239989","0.0-7.8-2.8","5fd6303361f8c14cb485a447","655cb802637e0dbe2941dbc4","655cb8ccd413ab80eb90989f","null","
        <div style=""text-align: center; position: fixed; top: 5vh; left: 40vw;"">
            <div style=""margin:0 auto; width: 20vw; top: 8vh; font-size: 2vw""> 
            <font color=""green""> Bonus : $9.85 </font>
            </div>
        </div>
    ","null","","","","","","","",""
"","","","","","html-keyboard-response","99","240580","0.0-7.8-3.8","5fd6303361f8c14cb485a447","655cb802637e0dbe2941dbc4","655cb8ccd413ab80eb90989f","590","./stimuli//pack_shapes_diff/cat_1/diff_1/ex_1_1_5.png","arrowright","response","ArrowLeft","5","1","1","test","false",""
"","","","","","html-keyboard-response","100","242083","0.0-7.8-4.8","5fd6303361f8c14cb485a447","655cb802637e0dbe2941dbc4","655cb8ccd413ab80eb90989f","null","<p> <font size=""4vw""> Wrong category! </font> <br> <br> <font color=""red"" size=""7vw""> - $0.05 points </font> </p>","null","feedback","","","","","","","9.8"
"","","","","","html-keyboard-response","101","242949","0.0-7.9-0.9","5fd6303361f8c14cb485a447","655cb802637e0dbe2941dbc4","655cb8ccd413ab80eb90989f","865","
            
        <div style=""text-align: center; position: fixed; top: 5vh; left: 40vw;"">
            <div style=""margin:0 auto; width: 20vw; top: 8vh; font-size: 2vw""> 
            <font color=""green""> Bonus : $9.8 </font>
            </div>
        </div>
    
            <div> Please press any key to continue to the next image.</div>
        ","arrowleft","ITI","","","","","","",""
"","","","","","html-keyboard-response","102","243565","0.0-7.9-1.9","5fd6303361f8c14cb485a447","655cb802637e0dbe2941dbc4","655cb8ccd413ab80eb90989f","null","
        
        <div style=""text-align: center; position: fixed; top: 5vh; left: 40vw;"">
            <div style=""margin:0 auto; width: 20vw; top: 8vh; font-size: 2vw""> 
            <font color=""green""> Bonus : $9.8 </font>
            </div>
        </div>
    
        <img class=""stim"" src=./stimuli//pack_shapes_diff/cat_1/diff_1/ex_1_1_5.png></img>
    ","null","stimulus","","","","","","",""
"","","","","","html-keyboard-response","103","244566","0.0-7.9-2.9","5fd6303361f8c14cb485a447","655cb802637e0dbe2941dbc4","655cb8ccd413ab80eb90989f","null","
        <div style=""text-align: center; position: fixed; top: 5vh; left: 40vw;"">
            <div style=""margin:0 auto; width: 20vw; top: 8vh; font-size: 2vw""> 
            <font color=""green""> Bonus : $9.8 </font>
            </div>
        </div>
    ","null","","","","","","","",""
"","","","","","html-keyboard-response","104","245240","0.0-7.9-3.9","5fd6303361f8c14cb485a447","655cb802637e0dbe2941dbc4","655cb8ccd413ab80eb90989f","673","./stimuli//pack_shapes_diff/cat_1/diff_1/ex_1_1_5.png","arrowright","response","ArrowLeft","5","1","1","test","false",""
"","","","","","html-keyboard-response","105","246747","0.0-7.9-4.9","5fd6303361f8c14cb485a447","655cb802637e0dbe2941dbc4","655cb8ccd413ab80eb90989f","null","<p> <font size=""4vw""> Wrong category! </font> <br> <br> <font color=""red"" size=""7vw""> - $0.05 points </font> </p>","null","feedback","","","","","","","9.75"
"","","","","","html-keyboard-response","106","247284","0.0-7.10-0.10","5fd6303361f8c14cb485a447","655cb802637e0dbe2941dbc4","655cb8ccd413ab80eb90989f","536","
            
        <div style=""text-align: center; position: fixed; top: 5vh; left: 40vw;"">
            <div style=""margin:0 auto; width: 20vw; top: 8vh; font-size: 2vw""> 
            <font color=""green""> Bonus : $9.75 </font>
            </div>
        </div>
    
            <div> Please press any key to continue to the next image.</div>
        ","arrowleft","ITI","","","","","","",""
"","","","","","html-keyboard-response","107","247890","0.0-7.10-1.10","5fd6303361f8c14cb485a447","655cb802637e0dbe2941dbc4","655cb8ccd413ab80eb90989f","null","
        
        <div style=""text-align: center; position: fixed; top: 5vh; left: 40vw;"">
            <div style=""margin:0 auto; width: 20vw; top: 8vh; font-size: 2vw""> 
            <font color=""green""> Bonus : $9.75 </font>
            </div>
        </div>
    
        <img class=""stim"" src=./stimuli//pack_shapes_diff/cat_1/diff_1/ex_1_1_3.png></img>
    ","null","stimulus","","","","","","",""
"","","","","","html-keyboard-response","108","248903","0.0-7.10-2.10","5fd6303361f8c14cb485a447","655cb802637e0dbe2941dbc4","655cb8ccd413ab80eb90989f","null","
        <div style=""text-align: center; position: fixed; top: 5vh; left: 40vw;"">
            <div style=""margin:0 auto; width: 20vw; top: 8vh; font-size: 2vw""> 
            <font color=""green""> Bonus : $9.75 </font>
            </div>
        </div>
    ","null","","","","","","","",""
"","","","","","html-keyboard-response","109","249246","0.0-7.10-3.10","5fd6303361f8c14cb485a447","655cb802637e0dbe2941dbc4","655cb8ccd413ab80eb90989f","342","./stimuli//pack_shapes_diff/cat_1/diff_1/ex_1_1_3.png","arrowright","response","ArrowLeft","3","1","1","test","false",""
"","","","","","html-keyboard-response","110","250749","0.0-7.10-4.10","5fd6303361f8c14cb485a447","655cb802637e0dbe2941dbc4","655cb8ccd413ab80eb90989f","null","<p> <font size=""4vw""> Wrong category! </font> <br> <br> <font color=""red"" size=""7vw""> - $0.05 points </font> </p>","null","feedback","","","","","","","9.7"
"","","","","","html-keyboard-response","111","251350","0.0-7.11-0.11","5fd6303361f8c14cb485a447","655cb802637e0dbe2941dbc4","655cb8ccd413ab80eb90989f","600","
            
        <div style=""text-align: center; position: fixed; top: 5vh; left: 40vw;"">
            <div style=""margin:0 auto; width: 20vw; top: 8vh; font-size: 2vw""> 
            <font color=""green""> Bonus : $9.7 </font>
            </div>
        </div>
    
            <div> Please press any key to continue to the next image.</div>
        ","arrowleft","ITI","","","","","","",""
"","","","","","html-keyboard-response","112","251963","0.0-7.11-1.11","5fd6303361f8c14cb485a447","655cb802637e0dbe2941dbc4","655cb8ccd413ab80eb90989f","null","
        
        <div style=""text-align: center; position: fixed; top: 5vh; left: 40vw;"">
            <div style=""margin:0 auto; width: 20vw; top: 8vh; font-size: 2vw""> 
            <font color=""green""> Bonus : $9.7 </font>
            </div>
        </div>
    
        <img class=""stim"" src=./stimuli//pack_shapes_diff/cat_1/diff_1/ex_1_1_6.png></img>
    ","null","stimulus","","","","","","",""
"","","","","","html-keyboard-response","113","252974","0.0-7.11-2.11","5fd6303361f8c14cb485a447","655cb802637e0dbe2941dbc4","655cb8ccd413ab80eb90989f","null","
        <div style=""text-align: center; position: fixed; top: 5vh; left: 40vw;"">
            <div style=""margin:0 auto; width: 20vw; top: 8vh; font-size: 2vw""> 
            <font color=""green""> Bonus : $9.7 </font>
            </div>
        </div>
    ","null","","","","","","","",""
"","","","","","html-keyboard-response","114","253361","0.0-7.11-3.11","5fd6303361f8c14cb485a447","655cb802637e0dbe2941dbc4","655cb8ccd413ab80eb90989f","386","./stimuli//pack_shapes_diff/cat_1/diff_1/ex_1_1_6.png","arrowright","response","ArrowLeft","6","1","1","test","false",""
"","","","","","html-keyboard-response","115","254864","0.0-7.11-4.11","5fd6303361f8c14cb485a447","655cb802637e0dbe2941dbc4","655cb8ccd413ab80eb90989f","null","<p> <font size=""4vw""> Wrong category! </font> <br> <br> <font color=""red"" size=""7vw""> - $0.05 points </font> </p>","null","feedback","","","","","","","9.65"
"","","","","","html-keyboard-response","116","255434","0.0-7.12-0.12","5fd6303361f8c14cb485a447","655cb802637e0dbe2941dbc4","655cb8ccd413ab80eb90989f","569","
            
        <div style=""text-align: center; position: fixed; top: 5vh; left: 40vw;"">
            <div style=""margin:0 auto; width: 20vw; top: 8vh; font-size: 2vw""> 
            <font color=""green""> Bonus : $9.65 </font>
            </div>
        </div>
    
            <div> Please press any key to continue to the next image.</div>
        ","arrowleft","ITI","","","","","","",""
"","","","","","html-keyboard-response","117","256045","0.0-7.12-1.12","5fd6303361f8c14cb485a447","655cb802637e0dbe2941dbc4","655cb8ccd413ab80eb90989f","null","
        
        <div style=""text-align: center; position: fixed; top: 5vh; left: 40vw;"">
            <div style=""margin:0 auto; width: 20vw; top: 8vh; font-size: 2vw""> 
            <font color=""green""> Bonus : $9.65 </font>
            </div>
        </div>
    
        <img class=""stim"" src=./stimuli//pack_shapes_diff/cat_2/diff_1/ex_2_1_16.png></img>
    ","null","stimulus","","","","","","",""
"","","","","","html-keyboard-response","118","257056","0.0-7.12-2.12","5fd6303361f8c14cb485a447","655cb802637e0dbe2941dbc4","655cb8ccd413ab80eb90989f","null","
        <div style=""text-align: center; position: fixed; top: 5vh; left: 40vw;"">
            <div style=""margin:0 auto; width: 20vw; top: 8vh; font-size: 2vw""> 
            <font color=""green""> Bonus : $9.65 </font>
            </div>
        </div>
    ","null","","","","","","","",""
"","","","","","html-keyboard-response","119","257388","0.0-7.12-3.12","5fd6303361f8c14cb485a447","655cb802637e0dbe2941dbc4","655cb8ccd413ab80eb90989f","331","./stimuli//pack_shapes_diff/cat_2/diff_1/ex_2_1_16.png","arrowleft","response","ArrowRight","16","2","1","test","false",""
"","","","","","html-keyboard-response","120","258892","0.0-7.12-4.12","5fd6303361f8c14cb485a447","655cb802637e0dbe2941dbc4","655cb8ccd413ab80eb90989f","null","<p> <font size=""4vw""> Wrong category! </font> <br> <br> <font color=""red"" size=""7vw""> - $0.05 points </font> </p>","null","feedback","","","","","","","9.6"
"","","","","","html-keyboard-response","121","259569","0.0-7.13-0.13","5fd6303361f8c14cb485a447","655cb802637e0dbe2941dbc4","655cb8ccd413ab80eb90989f","676","
            
        <div style=""text-align: center; position: fixed; top: 5vh; left: 40vw;"">
            <div style=""margin:0 auto; width: 20vw; top: 8vh; font-size: 2vw""> 
            <font color=""green""> Bonus : $9.6 </font>
            </div>
        </div>
    
            <div> Please press any key to continue to the next image.</div>
        ","arrowleft","ITI","","","","","","",""
"","","","","","html-keyboard-response","122","260176","0.0-7.13-1.13","5fd6303361f8c14cb485a447","655cb802637e0dbe2941dbc4","655cb8ccd413ab80eb90989f","null","
        
        <div style=""text-align: center; position: fixed; top: 5vh; left: 40vw;"">
            <div style=""margin:0 auto; width: 20vw; top: 8vh; font-size: 2vw""> 
            <font color=""green""> Bonus : $9.6 </font>
            </div>
        </div>
    
        <img class=""stim"" src=./stimuli//pack_shapes_diff/cat_2/diff_1/ex_2_1_9.png></img>
    ","null","stimulus","","","","","","",""
"","","","","","html-keyboard-response","123","261189","0.0-7.13-2.13","5fd6303361f8c14cb485a447","655cb802637e0dbe2941dbc4","655cb8ccd413ab80eb90989f","null","
        <div style=""text-align: center; position: fixed; top: 5vh; left: 40vw;"">
            <div style=""margin:0 auto; width: 20vw; top: 8vh; font-size: 2vw""> 
            <font color=""green""> Bonus : $9.6 </font>
            </div>
        </div>
    ","null","","","","","","","",""
"","","","","","html-keyboard-response","124","261652","0.0-7.13-3.13","5fd6303361f8c14cb485a447","655cb802637e0dbe2941dbc4","655cb8ccd413ab80eb90989f","462","./stimuli//pack_shapes_diff/cat_2/diff_1/ex_2_1_9.png","arrowleft","response","ArrowRight","9","2","1","test","false",""
"","","","","","html-keyboard-response","125","263163","0.0-7.13-4.13","5fd6303361f8c14cb485a447","655cb802637e0dbe2941dbc4","655cb8ccd413ab80eb90989f","null","<p> <font size=""4vw""> Wrong category! </font> <br> <br> <font color=""red"" size=""7vw""> - $0.05 points </font> </p>","null","feedback","","","","","","","9.55"
"","","","","","html-keyboard-response","126","263716","0.0-7.14-0.14","5fd6303361f8c14cb485a447","655cb802637e0dbe2941dbc4","655cb8ccd413ab80eb90989f","552","
            
        <div style=""text-align: center; position: fixed; top: 5vh; left: 40vw;"">
            <div style=""margin:0 auto; width: 20vw; top: 8vh; font-size: 2vw""> 
            <font color=""green""> Bonus : $9.55 </font>
            </div>
        </div>
    
            <div> Please press any key to continue to the next image.</div>
        ","arrowleft","ITI","","","","","","",""
"","","","","","html-keyboard-response","127","264327","0.0-7.14-1.14","5fd6303361f8c14cb485a447","655cb802637e0dbe2941dbc4","655cb8ccd413ab80eb90989f","null","
        
        <div style=""text-align: center; position: fixed; top: 5vh; left: 40vw;"">
            <div style=""margin:0 auto; width: 20vw; top: 8vh; font-size: 2vw""> 
            <font color=""green""> Bonus : $9.55 </font>
            </div>
        </div>
    
        <img class=""stim"" src=./stimuli//pack_shapes_diff/cat_1/diff_1/ex_1_1_17.png></img>
    ","null","stimulus","","","","","","",""
"","","","","","html-keyboard-response","128","265334","0.0-7.14-2.14","5fd6303361f8c14cb485a447","655cb802637e0dbe2941dbc4","655cb8ccd413ab80eb90989f","null","
        <div style=""text-align: center; position: fixed; top: 5vh; left: 40vw;"">
            <div style=""margin:0 auto; width: 20vw; top: 8vh; font-size: 2vw""> 
            <font color=""green""> Bonus : $9.55 </font>
            </div>
        </div>
    ","null","","","","","","","",""
"","","","","","html-keyboard-response","129","265847","0.0-7.14-3.14","5fd6303361f8c14cb485a447","655cb802637e0dbe2941dbc4","655cb8ccd413ab80eb90989f","512","./stimuli//pack_shapes_diff/cat_1/diff_1/ex_1_1_17.png","arrowright","response","ArrowLeft","17","1","1","test","false",""
"","","","","","html-keyboard-response","130","267363","0.0-7.14-4.14","5fd6303361f8c14cb485a447","655cb802637e0dbe2941dbc4","655cb8ccd413ab80eb90989f","null","<p> <font size=""4vw""> Wrong category! </font> <br> <br> <font color=""red"" size=""7vw""> - $0.05 points </font> </p>","null","feedback","","","","","","","9.5"
"","","","","","html-keyboard-response","131","268415","0.0-7.15-0.15","5fd6303361f8c14cb485a447","655cb802637e0dbe2941dbc4","655cb8ccd413ab80eb90989f","1051","
            
        <div style=""text-align: center; position: fixed; top: 5vh; left: 40vw;"">
            <div style=""margin:0 auto; width: 20vw; top: 8vh; font-size: 2vw""> 
            <font color=""green""> Bonus : $9.5 </font>
            </div>
        </div>
    
            <div> Please press any key to continue to the next image.</div>
        ","arrowleft","ITI","","","","","","",""
"","","","","","html-keyboard-response","132","269017","0.0-7.15-1.15","5fd6303361f8c14cb485a447","655cb802637e0dbe2941dbc4","655cb8ccd413ab80eb90989f","null","
        
        <div style=""text-align: center; position: fixed; top: 5vh; left: 40vw;"">
            <div style=""margin:0 auto; width: 20vw; top: 8vh; font-size: 2vw""> 
            <font color=""green""> Bonus : $9.5 </font>
            </div>
        </div>
    
        <img class=""stim"" src=./stimuli//pack_shapes_diff/cat_1/diff_1/ex_1_1_7.png></img>
    ","null","stimulus","","","","","","",""
"","","","","","html-keyboard-response","133","270030","0.0-7.15-2.15","5fd6303361f8c14cb485a447","655cb802637e0dbe2941dbc4","655cb8ccd413ab80eb90989f","null","
        <div style=""text-align: center; position: fixed; top: 5vh; left: 40vw;"">
            <div style=""margin:0 auto; width: 20vw; top: 8vh; font-size: 2vw""> 
            <font color=""green""> Bonus : $9.5 </font>
            </div>
        </div>
    ","null","","","","","","","",""
"","","","","","html-keyboard-response","134","270430","0.0-7.15-3.15","5fd6303361f8c14cb485a447","655cb802637e0dbe2941dbc4","655cb8ccd413ab80eb90989f","400","./stimuli//pack_shapes_diff/cat_1/diff_1/ex_1_1_7.png","arrowleft","response","ArrowLeft","7","1","1","test","true",""
"","","","","","html-keyboard-response","135","271947","0.0-7.15-4.15","5fd6303361f8c14cb485a447","655cb802637e0dbe2941dbc4","655cb8ccd413ab80eb90989f","null","<p> <font color=""green"" size=""5vw""> Correct category! </font></p>","null","feedback","","","","","","","9.5"
"","","","","","html-keyboard-response","136","272690","0.0-7.16-0.16","5fd6303361f8c14cb485a447","655cb802637e0dbe2941dbc4","655cb8ccd413ab80eb90989f","742","
            
        <div style=""text-align: center; position: fixed; top: 5vh; left: 40vw;"">
            <div style=""margin:0 auto; width: 20vw; top: 8vh; font-size: 2vw""> 
            <font color=""green""> Bonus : $9.5 </font>
            </div>
        </div>
    
            <div> Please press any key to continue to the next image.</div>
        ","arrowleft","ITI","","","","","","",""
"","","","","","html-keyboard-response","137","273301","0.0-7.16-1.16","5fd6303361f8c14cb485a447","655cb802637e0dbe2941dbc4","655cb8ccd413ab80eb90989f","null","
        
        <div style=""text-align: center; position: fixed; top: 5vh; left: 40vw;"">
            <div style=""margin:0 auto; width: 20vw; top: 8vh; font-size: 2vw""> 
            <font color=""green""> Bonus : $9.5 </font>
            </div>
        </div>
    
        <img class=""stim"" src=./stimuli//pack_shapes_diff/cat_1/diff_1/ex_1_1_17.png></img>
    ","null","stimulus","","","","","","",""
"","","","","","html-keyboard-response","138","274312","0.0-7.16-2.16","5fd6303361f8c14cb485a447","655cb802637e0dbe2941dbc4","655cb8ccd413ab80eb90989f","null","
        <div style=""text-align: center; position: fixed; top: 5vh; left: 40vw;"">
            <div style=""margin:0 auto; width: 20vw; top: 8vh; font-size: 2vw""> 
            <font color=""green""> Bonus : $9.5 </font>
            </div>
        </div>
    ","null","","","","","","","",""
"","","","","","html-keyboard-response","139","275952","0.0-7.16-3.16","5fd6303361f8c14cb485a447","655cb802637e0dbe2941dbc4","655cb8ccd413ab80eb90989f","1640","./stimuli//pack_shapes_diff/cat_1/diff_1/ex_1_1_17.png","arrowright","response","ArrowLeft","17","1","1","test","false",""
"","","","","","html-keyboard-response","140","277460","0.0-7.16-4.16","5fd6303361f8c14cb485a447","655cb802637e0dbe2941dbc4","655cb8ccd413ab80eb90989f","null","<p> <font size=""4vw""> Wrong category! </font> <br> <br> <font color=""red"" size=""7vw""> - $0.05 points </font> </p>","null","feedback","","","","","","","9.45"
"","","","","","html-keyboard-response","141","277918","0.0-7.17-0.17","5fd6303361f8c14cb485a447","655cb802637e0dbe2941dbc4","655cb8ccd413ab80eb90989f","457","
            
        <div style=""text-align: center; position: fixed; top: 5vh; left: 40vw;"">
            <div style=""margin:0 auto; width: 20vw; top: 8vh; font-size: 2vw""> 
            <font color=""green""> Bonus : $9.45 </font>
            </div>
        </div>
    
            <div> Please press any key to continue to the next image.</div>
        ","arrowleft","ITI","","","","","","",""
"","","","","","html-keyboard-response","142","278523","0.0-7.17-1.17","5fd6303361f8c14cb485a447","655cb802637e0dbe2941dbc4","655cb8ccd413ab80eb90989f","null","
        
        <div style=""text-align: center; position: fixed; top: 5vh; left: 40vw;"">
            <div style=""margin:0 auto; width: 20vw; top: 8vh; font-size: 2vw""> 
            <font color=""green""> Bonus : $9.45 </font>
            </div>
        </div>
    
        <img class=""stim"" src=./stimuli//pack_shapes_diff/cat_2/diff_1/ex_2_1_5.png></img>
    ","null","stimulus","","","","","","",""
"","","","","","html-keyboard-response","143","279529","0.0-7.17-2.17","5fd6303361f8c14cb485a447","655cb802637e0dbe2941dbc4","655cb8ccd413ab80eb90989f","null","
        <div style=""text-align: center; position: fixed; top: 5vh; left: 40vw;"">
            <div style=""margin:0 auto; width: 20vw; top: 8vh; font-size: 2vw""> 
            <font color=""green""> Bonus : $9.45 </font>
            </div>
        </div>
    ","null","","","","","","","",""
"","","","","","html-keyboard-response","144","280624","0.0-7.17-3.17","5fd6303361f8c14cb485a447","655cb802637e0dbe2941dbc4","655cb8ccd413ab80eb90989f","1094","./stimuli//pack_shapes_diff/cat_2/diff_1/ex_2_1_5.png","arrowleft","response","ArrowRight","5","2","1","test","false",""
"","","","","","html-keyboard-response","145","282127","0.0-7.17-4.17","5fd6303361f8c14cb485a447","655cb802637e0dbe2941dbc4","655cb8ccd413ab80eb90989f","null","<p> <font size=""4vw""> Wrong category! </font> <br> <br> <font color=""red"" size=""7vw""> - $0.05 points </font> </p>","null","feedback","","","","","","","9.4"
"","","","","","html-keyboard-response","146","283491","0.0-7.18-0.18","5fd6303361f8c14cb485a447","655cb802637e0dbe2941dbc4","655cb8ccd413ab80eb90989f","1363","
            
        <div style=""text-align: center; position: fixed; top: 5vh; left: 40vw;"">
            <div style=""margin:0 auto; width: 20vw; top: 8vh; font-size: 2vw""> 
            <font color=""green""> Bonus : $9.4 </font>
            </div>
        </div>
    
            <div> Please press any key to continue to the next image.</div>
        ","arrowleft","ITI","","","","","","",""
"","","","","","html-keyboard-response","147","284095","0.0-7.18-1.18","5fd6303361f8c14cb485a447","655cb802637e0dbe2941dbc4","655cb8ccd413ab80eb90989f","null","
        
        <div style=""text-align: center; position: fixed; top: 5vh; left: 40vw;"">
            <div style=""margin:0 auto; width: 20vw; top: 8vh; font-size: 2vw""> 
            <font color=""green""> Bonus : $9.4 </font>
            </div>
        </div>
    
        <img class=""stim"" src=./stimuli//pack_shapes_diff/cat_2/diff_1/ex_2_1_8.png></img>
    ","null","stimulus","","","","","","",""
"","","","","","html-keyboard-response","148","285107","0.0-7.18-2.18","5fd6303361f8c14cb485a447","655cb802637e0dbe2941dbc4","655cb8ccd413ab80eb90989f","null","
        <div style=""text-align: center; position: fixed; top: 5vh; left: 40vw;"">
            <div style=""margin:0 auto; width: 20vw; top: 8vh; font-size: 2vw""> 
            <font color=""green""> Bonus : $9.4 </font>
            </div>
        </div>
    ","null","","","","","","","",""
"","","","","","html-keyboard-response","149","286050","0.0-7.18-3.18","5fd6303361f8c14cb485a447","655cb802637e0dbe2941dbc4","655cb8ccd413ab80eb90989f","943","./stimuli//pack_shapes_diff/cat_2/diff_1/ex_2_1_8.png","arrowright","response","ArrowRight","8","2","1","test","true",""
"","","","","","html-keyboard-response","150","287565","0.0-7.18-4.18","5fd6303361f8c14cb485a447","655cb802637e0dbe2941dbc4","655cb8ccd413ab80eb90989f","null","<p> <font color=""green"" size=""5vw""> Correct category! </font></p>","null","feedback","","","","","","","9.4"
"","","","","","html-keyboard-response","151","288181","0.0-7.19-0.19","5fd6303361f8c14cb485a447","655cb802637e0dbe2941dbc4","655cb8ccd413ab80eb90989f","615","
            
        <div style=""text-align: center; position: fixed; top: 5vh; left: 40vw;"">
            <div style=""margin:0 auto; width: 20vw; top: 8vh; font-size: 2vw""> 
            <font color=""green""> Bonus : $9.4 </font>
            </div>
        </div>
    
            <div> Please press any key to continue to the next image.</div>
        ","arrowleft","ITI","","","","","","",""
"","","","","","html-keyboard-response","152","288789","0.0-7.19-1.19","5fd6303361f8c14cb485a447","655cb802637e0dbe2941dbc4","655cb8ccd413ab80eb90989f","null","
        
        <div style=""text-align: center; position: fixed; top: 5vh; left: 40vw;"">
            <div style=""margin:0 auto; width: 20vw; top: 8vh; font-size: 2vw""> 
            <font color=""green""> Bonus : $9.4 </font>
            </div>
        </div>
    
        <img class=""stim"" src=./stimuli//pack_shapes_diff/cat_1/diff_1/ex_1_1_10.png></img>
    ","null","stimulus","","","","","","",""
"","","","","","html-keyboard-response","153","289795","0.0-7.19-2.19","5fd6303361f8c14cb485a447","655cb802637e0dbe2941dbc4","655cb8ccd413ab80eb90989f","null","
        <div style=""text-align: center; position: fixed; top: 5vh; left: 40vw;"">
            <div style=""margin:0 auto; width: 20vw; top: 8vh; font-size: 2vw""> 
            <font color=""green""> Bonus : $9.4 </font>
            </div>
        </div>
    ","null","","","","","","","",""
"","","","","","html-keyboard-response","154","290690","0.0-7.19-3.19","5fd6303361f8c14cb485a447","655cb802637e0dbe2941dbc4","655cb8ccd413ab80eb90989f","894","./stimuli//pack_shapes_diff/cat_1/diff_1/ex_1_1_10.png","arrowright","response","ArrowLeft","10","1","1","test","false",""
"","","","","","html-keyboard-response","155","292197","0.0-7.19-4.19","5fd6303361f8c14cb485a447","655cb802637e0dbe2941dbc4","655cb8ccd413ab80eb90989f","null","<p> <font size=""4vw""> Wrong category! </font> <br> <br> <font color=""red"" size=""7vw""> - $0.05 points </font> </p>","null","feedback","","","","","","","9.35"
"","","","","","html-keyboard-response","156","293655","0.0-7.20-0.20","5fd6303361f8c14cb485a447","655cb802637e0dbe2941dbc4","655cb8ccd413ab80eb90989f","1457","
            
        <div style=""text-align: center; position: fixed; top: 5vh; left: 40vw;"">
            <div style=""margin:0 auto; width: 20vw; top: 8vh; font-size: 2vw""> 
            <font color=""green""> Bonus : $9.35 </font>
            </div>
        </div>
    
            <div> Please press any key to continue to the next image.</div>
        ","arrowleft","ITI","","","","","","",""
"","","","","","html-keyboard-response","157","294269","0.0-7.20-1.20","5fd6303361f8c14cb485a447","655cb802637e0dbe2941dbc4","655cb8ccd413ab80eb90989f","null","
        
        <div style=""text-align: center; position: fixed; top: 5vh; left: 40vw;"">
            <div style=""margin:0 auto; width: 20vw; top: 8vh; font-size: 2vw""> 
            <font color=""green""> Bonus : $9.35 </font>
            </div>
        </div>
    
        <img class=""stim"" src=./stimuli//pack_shapes_diff/cat_2/diff_1/ex_2_1_1.png></img>
    ","null","stimulus","","","","","","",""
"","","","","","html-keyboard-response","158","295281","0.0-7.20-2.20","5fd6303361f8c14cb485a447","655cb802637e0dbe2941dbc4","655cb8ccd413ab80eb90989f","null","
        <div style=""text-align: center; position: fixed; top: 5vh; left: 40vw;"">
            <div style=""margin:0 auto; width: 20vw; top: 8vh; font-size: 2vw""> 
            <font color=""green""> Bonus : $9.35 </font>
            </div>
        </div>
    ","null","","","","","","","",""
"","","","","","html-keyboard-response","159","295789","0.0-7.20-3.20","5fd6303361f8c14cb485a447","655cb802637e0dbe2941dbc4","655cb8ccd413ab80eb90989f","507","./stimuli//pack_shapes_diff/cat_2/diff_1/ex_2_1_1.png","arrowright","response","ArrowRight","1","2","1","test","true",""
"","","","","","html-keyboard-response","160","297301","0.0-7.20-4.20","5fd6303361f8c14cb485a447","655cb802637e0dbe2941dbc4","655cb8ccd413ab80eb90989f","null","<p> <font color=""green"" size=""5vw""> Correct category! </font></p>","null","feedback","","","","","","","9.35"
"","","","","","html-keyboard-response","161","297960","0.0-7.21-0.21","5fd6303361f8c14cb485a447","655cb802637e0dbe2941dbc4","655cb8ccd413ab80eb90989f","658","
            
        <div style=""text-align: center; position: fixed; top: 5vh; left: 40vw;"">
            <div style=""margin:0 auto; width: 20vw; top: 8vh; font-size: 2vw""> 
            <font color=""green""> Bonus : $9.35 </font>
            </div>
        </div>
    
            <div> Please press any key to continue to the next image.</div>
        ","arrowleft","ITI","","","","","","",""
"","","","","","html-keyboard-response","162","298563","0.0-7.21-1.21","5fd6303361f8c14cb485a447","655cb802637e0dbe2941dbc4","655cb8ccd413ab80eb90989f","null","
        
        <div style=""text-align: center; position: fixed; top: 5vh; left: 40vw;"">
            <div style=""margin:0 auto; width: 20vw; top: 8vh; font-size: 2vw""> 
            <font color=""green""> Bonus : $9.35 </font>
            </div>
        </div>
    
        <img class=""stim"" src=./stimuli//pack_shapes_diff/cat_1/diff_1/ex_1_1_9.png></img>
    ","null","stimulus","","","","","","",""
"","","","","","html-keyboard-response","163","299579","0.0-7.21-2.21","5fd6303361f8c14cb485a447","655cb802637e0dbe2941dbc4","655cb8ccd413ab80eb90989f","null","
        <div style=""text-align: center; position: fixed; top: 5vh; left: 40vw;"">
            <div style=""margin:0 auto; width: 20vw; top: 8vh; font-size: 2vw""> 
            <font color=""green""> Bonus : $9.35 </font>
            </div>
        </div>
    ","null","","","","","","","",""
"","","","","","html-keyboard-response","164","299993","0.0-7.21-3.21","5fd6303361f8c14cb485a447","655cb802637e0dbe2941dbc4","655cb8ccd413ab80eb90989f","414","./stimuli//pack_shapes_diff/cat_1/diff_1/ex_1_1_9.png","arrowleft","response","ArrowLeft","9","1","1","test","true",""
"","","","","","html-keyboard-response","165","301500","0.0-7.21-4.21","5fd6303361f8c14cb485a447","655cb802637e0dbe2941dbc4","655cb8ccd413ab80eb90989f","null","<p> <font color=""green"" size=""5vw""> Correct category! </font></p>","null","feedback","","","","","","","9.35"
"","","","","","html-keyboard-response","166","302542","0.0-7.22-0.22","5fd6303361f8c14cb485a447","655cb802637e0dbe2941dbc4","655cb8ccd413ab80eb90989f","1041","
            
        <div style=""text-align: center; position: fixed; top: 5vh; left: 40vw;"">
            <div style=""margin:0 auto; width: 20vw; top: 8vh; font-size: 2vw""> 
            <font color=""green""> Bonus : $9.35 </font>
            </div>
        </div>
    
            <div> Please press any key to continue to the next image.</div>
        ","arrowleft","ITI","","","","","","",""
"","","","","","html-keyboard-response","167","303145","0.0-7.22-1.22","5fd6303361f8c14cb485a447","655cb802637e0dbe2941dbc4","655cb8ccd413ab80eb90989f","null","
        
        <div style=""text-align: center; position: fixed; top: 5vh; left: 40vw;"">
            <div style=""margin:0 auto; width: 20vw; top: 8vh; font-size: 2vw""> 
            <font color=""green""> Bonus : $9.35 </font>
            </div>
        </div>
    
        <img class=""stim"" src=./stimuli//pack_shapes_diff/cat_2/diff_1/ex_2_1_15.png></img>
    ","null","stimulus","","","","","","",""
"","","","","","html-keyboard-response","168","304158","0.0-7.22-2.22","5fd6303361f8c14cb485a447","655cb802637e0dbe2941dbc4","655cb8ccd413ab80eb90989f","null","
        <div style=""text-align: center; position: fixed; top: 5vh; left: 40vw;"">
            <div style=""margin:0 auto; width: 20vw; top: 8vh; font-size: 2vw""> 
            <font color=""green""> Bonus : $9.35 </font>
            </div>
        </div>
    ","null","","","","","","","",""
"","","","","","html-keyboard-response","169","304744","0.0-7.22-3.22","5fd6303361f8c14cb485a447","655cb802637e0dbe2941dbc4","655cb8ccd413ab80eb90989f","585","./stimuli//pack_shapes_diff/cat_2/diff_1/ex_2_1_15.png","arrowright","response","ArrowRight","15","2","1","test","true",""
"","","","","","html-keyboard-response","170","306259","0.0-7.22-4.22","5fd6303361f8c14cb485a447","655cb802637e0dbe2941dbc4","655cb8ccd413ab80eb90989f","null","<p> <font color=""green"" size=""5vw""> Correct category! </font></p>","null","feedback","","","","","","","9.35"
"","","","","","html-keyboard-response","171","307048","0.0-7.23-0.23","5fd6303361f8c14cb485a447","655cb802637e0dbe2941dbc4","655cb8ccd413ab80eb90989f","788","
            
        <div style=""text-align: center; position: fixed; top: 5vh; left: 40vw;"">
            <div style=""margin:0 auto; width: 20vw; top: 8vh; font-size: 2vw""> 
            <font color=""green""> Bonus : $9.35 </font>
            </div>
        </div>
    
            <div> Please press any key to continue to the next image.</div>
        ","arrowleft","ITI","","","","","","",""
"","","","","","html-keyboard-response","172","307661","0.0-7.23-1.23","5fd6303361f8c14cb485a447","655cb802637e0dbe2941dbc4","655cb8ccd413ab80eb90989f","null","
        
        <div style=""text-align: center; position: fixed; top: 5vh; left: 40vw;"">
            <div style=""margin:0 auto; width: 20vw; top: 8vh; font-size: 2vw""> 
            <font color=""green""> Bonus : $9.35 </font>
            </div>
        </div>
    
        <img class=""stim"" src=./stimuli//pack_shapes_diff/cat_2/diff_2/ex_2_2_17.png></img>
    ","null","stimulus","","","","","","",""
"","","","","","html-keyboard-response","173","308673","0.0-7.23-2.23","5fd6303361f8c14cb485a447","655cb802637e0dbe2941dbc4","655cb8ccd413ab80eb90989f","null","
        <div style=""text-align: center; position: fixed; top: 5vh; left: 40vw;"">
            <div style=""margin:0 auto; width: 20vw; top: 8vh; font-size: 2vw""> 
            <font color=""green""> Bonus : $9.35 </font>
            </div>
        </div>
    ","null","","","","","","","",""
"","","","","","html-keyboard-response","174","309349","0.0-7.23-3.23","5fd6303361f8c14cb485a447","655cb802637e0dbe2941dbc4","655cb8ccd413ab80eb90989f","675","./stimuli//pack_shapes_diff/cat_2/diff_2/ex_2_2_17.png","arrowleft","response","ArrowRight","17","2","2","test","false",""
"","","","","","html-keyboard-response","175","310865","0.0-7.23-4.23","5fd6303361f8c14cb485a447","655cb802637e0dbe2941dbc4","655cb8ccd413ab80eb90989f","null","<p> <font size=""4vw""> Wrong category! </font> <br> <br> <font color=""red"" size=""7vw""> - $0.05 points </font> </p>","null","feedback","","","","","","","9.3"
"","","","","","html-keyboard-response","176","311608","0.0-7.24-0.24","5fd6303361f8c14cb485a447","655cb802637e0dbe2941dbc4","655cb8ccd413ab80eb90989f","742","
            
        <div style=""text-align: center; position: fixed; top: 5vh; left: 40vw;"">
            <div style=""margin:0 auto; width: 20vw; top: 8vh; font-size: 2vw""> 
            <font color=""green""> Bonus : $9.3 </font>
            </div>
        </div>
    
            <div> Please press any key to continue to the next image.</div>
        ","arrowleft","ITI","","","","","","",""
"","","","","","html-keyboard-response","177","312219","0.0-7.24-1.24","5fd6303361f8c14cb485a447","655cb802637e0dbe2941dbc4","655cb8ccd413ab80eb90989f","null","
        
        <div style=""text-align: center; position: fixed; top: 5vh; left: 40vw;"">
            <div style=""margin:0 auto; width: 20vw; top: 8vh; font-size: 2vw""> 
            <font color=""green""> Bonus : $9.3 </font>
            </div>
        </div>
    
        <img class=""stim"" src=./stimuli//pack_shapes_diff/cat_2/diff_2/ex_2_2_4.png></img>
    ","null","stimulus","","","","","","",""
"","","","","","html-keyboard-response","178","313229","0.0-7.24-2.24","5fd6303361f8c14cb485a447","655cb802637e0dbe2941dbc4","655cb8ccd413ab80eb90989f","null","
        <div style=""text-align: center; position: fixed; top: 5vh; left: 40vw;"">
            <div style=""margin:0 auto; width: 20vw; top: 8vh; font-size: 2vw""> 
            <font color=""green""> Bonus : $9.3 </font>
            </div>
        </div>
    ","null","","","","","","","",""
"","","","","","html-keyboard-response","179","313641","0.0-7.24-3.24","5fd6303361f8c14cb485a447","655cb802637e0dbe2941dbc4","655cb8ccd413ab80eb90989f","411","./stimuli//pack_shapes_diff/cat_2/diff_2/ex_2_2_4.png","arrowleft","response","ArrowRight","4","2","2","test","false",""
"","","","","","html-keyboard-response","180","315149","0.0-7.24-4.24","5fd6303361f8c14cb485a447","655cb802637e0dbe2941dbc4","655cb8ccd413ab80eb90989f","null","<p> <font size=""4vw""> Wrong category! </font> <br> <br> <font color=""red"" size=""7vw""> - $0.05 points </font> </p>","null","feedback","","","","","","","9.25"
"","","","","","html-keyboard-response","181","315595","0.0-7.25-0.25","5fd6303361f8c14cb485a447","655cb802637e0dbe2941dbc4","655cb8ccd413ab80eb90989f","445","
            
        <div style=""text-align: center; position: fixed; top: 5vh; left: 40vw;"">
            <div style=""margin:0 auto; width: 20vw; top: 8vh; font-size: 2vw""> 
            <font color=""green""> Bonus : $9.25 </font>
            </div>
        </div>
    
            <div> Please press any key to continue to the next image.</div>
        ","arrowleft","ITI","","","","","","",""
"","","","","","html-keyboard-response","182","316199","0.0-7.25-1.25","5fd6303361f8c14cb485a447","655cb802637e0dbe2941dbc4","655cb8ccd413ab80eb90989f","null","
        
        <div style=""text-align: center; position: fixed; top: 5vh; left: 40vw;"">
            <div style=""margin:0 auto; width: 20vw; top: 8vh; font-size: 2vw""> 
            <font color=""green""> Bonus : $9.25 </font>
            </div>
        </div>
    
        <img class=""stim"" src=./stimuli//pack_shapes_diff/cat_2/diff_2/ex_2_2_14.png></img>
    ","null","stimulus","","","","","","",""
"","","","","","html-keyboard-response","183","317207","0.0-7.25-2.25","5fd6303361f8c14cb485a447","655cb802637e0dbe2941dbc4","655cb8ccd413ab80eb90989f","null","
        <div style=""text-align: center; position: fixed; top: 5vh; left: 40vw;"">
            <div style=""margin:0 auto; width: 20vw; top: 8vh; font-size: 2vw""> 
            <font color=""green""> Bonus : $9.25 </font>
            </div>
        </div>
    ","null","","","","","","","",""
"","","","","","html-keyboard-response","184","317729","0.0-7.25-3.25","5fd6303361f8c14cb485a447","655cb802637e0dbe2941dbc4","655cb8ccd413ab80eb90989f","521","./stimuli//pack_shapes_diff/cat_2/diff_2/ex_2_2_14.png","arrowleft","response","ArrowRight","14","2","2","test","false",""
"","","","","","html-keyboard-response","185","319234","0.0-7.25-4.25","5fd6303361f8c14cb485a447","655cb802637e0dbe2941dbc4","655cb8ccd413ab80eb90989f","null","<p> <font size=""4vw""> Wrong category! </font> <br> <br> <font color=""red"" size=""7vw""> - $0.05 points </font> </p>","null","feedback","","","","","","","9.2"
"","","","","","html-keyboard-response","186","319989","0.0-7.26-0.26","5fd6303361f8c14cb485a447","655cb802637e0dbe2941dbc4","655cb8ccd413ab80eb90989f","754","
            
        <div style=""text-align: center; position: fixed; top: 5vh; left: 40vw;"">
            <div style=""margin:0 auto; width: 20vw; top: 8vh; font-size: 2vw""> 
            <font color=""green""> Bonus : $9.2 </font>
            </div>
        </div>
    
            <div> Please press any key to continue to the next image.</div>
        ","arrowleft","ITI","","","","","","",""
"","","","","","html-keyboard-response","187","320605","0.0-7.26-1.26","5fd6303361f8c14cb485a447","655cb802637e0dbe2941dbc4","655cb8ccd413ab80eb90989f","null","
        
        <div style=""text-align: center; position: fixed; top: 5vh; left: 40vw;"">
            <div style=""margin:0 auto; width: 20vw; top: 8vh; font-size: 2vw""> 
            <font color=""green""> Bonus : $9.2 </font>
            </div>
        </div>
    
        <img class=""stim"" src=./stimuli//pack_shapes_diff/cat_1/diff_2/ex_1_2_10.png></img>
    ","null","stimulus","","","","","","",""
"","","","","","html-keyboard-response","188","321619","0.0-7.26-2.26","5fd6303361f8c14cb485a447","655cb802637e0dbe2941dbc4","655cb8ccd413ab80eb90989f","null","
        <div style=""text-align: center; position: fixed; top: 5vh; left: 40vw;"">
            <div style=""margin:0 auto; width: 20vw; top: 8vh; font-size: 2vw""> 
            <font color=""green""> Bonus : $9.2 </font>
            </div>
        </div>
    ","null","","","","","","","",""
"","","","","","html-keyboard-response","189","322706","0.0-7.26-3.26","5fd6303361f8c14cb485a447","655cb802637e0dbe2941dbc4","655cb8ccd413ab80eb90989f","1087","./stimuli//pack_shapes_diff/cat_1/diff_2/ex_1_2_10.png","arrowleft","response","ArrowLeft","10","1","2","test","true",""
"","","","","","html-keyboard-response","190","324218","0.0-7.26-4.26","5fd6303361f8c14cb485a447","655cb802637e0dbe2941dbc4","655cb8ccd413ab80eb90989f","null","<p> <font color=""green"" size=""5vw""> Correct category! </font></p>","null","feedback","","","","","","","9.2"
"","","","","","html-keyboard-response","191","326191","0.0-7.27-0.27","5fd6303361f8c14cb485a447","655cb802637e0dbe2941dbc4","655cb8ccd413ab80eb90989f","1972","
            
        <div style=""text-align: center; position: fixed; top: 5vh; left: 40vw;"">
            <div style=""margin:0 auto; width: 20vw; top: 8vh; font-size: 2vw""> 
            <font color=""green""> Bonus : $9.2 </font>
            </div>
        </div>
    
            <div> Please press any key to continue to the next image.</div>
        ","arrowleft","ITI","","","","","","",""
"","","","","","html-keyboard-response","192","326801","0.0-7.27-1.27","5fd6303361f8c14cb485a447","655cb802637e0dbe2941dbc4","655cb8ccd413ab80eb90989f","null","
        
        <div style=""text-align: center; position: fixed; top: 5vh; left: 40vw;"">
            <div style=""margin:0 auto; width: 20vw; top: 8vh; font-size: 2vw""> 
            <font color=""green""> Bonus : $9.2 </font>
            </div>
        </div>
    
        <img class=""stim"" src=./stimuli//pack_shapes_diff/cat_2/diff_2/ex_2_2_3.png></img>
    ","null","stimulus","","","","","","",""
"","","","","","html-keyboard-response","193","327813","0.0-7.27-2.27","5fd6303361f8c14cb485a447","655cb802637e0dbe2941dbc4","655cb8ccd413ab80eb90989f","null","
        <div style=""text-align: center; position: fixed; top: 5vh; left: 40vw;"">
            <div style=""margin:0 auto; width: 20vw; top: 8vh; font-size: 2vw""> 
            <font color=""green""> Bonus : $9.2 </font>
            </div>
        </div>
    ","null","","","","","","","",""
"","","","","","html-keyboard-response","194","328342","0.0-7.27-3.27","5fd6303361f8c14cb485a447","655cb802637e0dbe2941dbc4","655cb8ccd413ab80eb90989f","529","./stimuli//pack_shapes_diff/cat_2/diff_2/ex_2_2_3.png","arrowleft","response","ArrowRight","3","2","2","test","false",""
"","","","","","html-keyboard-response","195","329850","0.0-7.27-4.27","5fd6303361f8c14cb485a447","655cb802637e0dbe2941dbc4","655cb8ccd413ab80eb90989f","null","<p> <font size=""4vw""> Wrong category! </font> <br> <br> <font color=""red"" size=""7vw""> - $0.05 points </font> </p>","null","feedback","","","","","","","9.15"
"","","","","","html-keyboard-response","196","331357","0.0-7.28-0.28","5fd6303361f8c14cb485a447","655cb802637e0dbe2941dbc4","655cb8ccd413ab80eb90989f","1506","
            
        <div style=""text-align: center; position: fixed; top: 5vh; left: 40vw;"">
            <div style=""margin:0 auto; width: 20vw; top: 8vh; font-size: 2vw""> 
            <font color=""green""> Bonus : $9.15 </font>
            </div>
        </div>
    
            <div> Please press any key to continue to the next image.</div>
        ","arrowleft","ITI","","","","","","",""
"","","","","","html-keyboard-response","197","331963","0.0-7.28-1.28","5fd6303361f8c14cb485a447","655cb802637e0dbe2941dbc4","655cb8ccd413ab80eb90989f","null","
        
        <div style=""text-align: center; position: fixed; top: 5vh; left: 40vw;"">
            <div style=""margin:0 auto; width: 20vw; top: 8vh; font-size: 2vw""> 
            <font color=""green""> Bonus : $9.15 </font>
            </div>
        </div>
    
        <img class=""stim"" src=./stimuli//pack_shapes_diff/cat_1/diff_1/ex_1_1_13.png></img>
    ","null","stimulus","","","","","","",""
"","","","","","html-keyboard-response","198","332970","0.0-7.28-2.28","5fd6303361f8c14cb485a447","655cb802637e0dbe2941dbc4","655cb8ccd413ab80eb90989f","null","
        <div style=""text-align: center; position: fixed; top: 5vh; left: 40vw;"">
            <div style=""margin:0 auto; width: 20vw; top: 8vh; font-size: 2vw""> 
            <font color=""green""> Bonus : $9.15 </font>
            </div>
        </div>
    ","null","","","","","","","",""
"","","","","","html-keyboard-response","199","333074","0.0-7.28-3.28","5fd6303361f8c14cb485a447","655cb802637e0dbe2941dbc4","655cb8ccd413ab80eb90989f","103","./stimuli//pack_shapes_diff/cat_1/diff_1/ex_1_1_13.png","arrowright","response","ArrowLeft","13","1","1","test","false",""
"","","","","","html-keyboard-response","200","334590","0.0-7.28-4.28","5fd6303361f8c14cb485a447","655cb802637e0dbe2941dbc4","655cb8ccd413ab80eb90989f","null","<p> <font size=""4vw""> Wrong category! </font> <br> <br> <font color=""red"" size=""7vw""> - $0.05 points </font> </p>","null","feedback","","","","","","","9.1"
"","","","","","html-keyboard-response","201","335137","0.0-7.29-0.29","5fd6303361f8c14cb485a447","655cb802637e0dbe2941dbc4","655cb8ccd413ab80eb90989f","545","
            
        <div style=""text-align: center; position: fixed; top: 5vh; left: 40vw;"">
            <div style=""margin:0 auto; width: 20vw; top: 8vh; font-size: 2vw""> 
            <font color=""green""> Bonus : $9.1 </font>
            </div>
        </div>
    
            <div> Please press any key to continue to the next image.</div>
        ","arrowleft","ITI","","","","","","",""
"","","","","","html-keyboard-response","202","335745","0.0-7.29-1.29","5fd6303361f8c14cb485a447","655cb802637e0dbe2941dbc4","655cb8ccd413ab80eb90989f","null","
        
        <div style=""text-align: center; position: fixed; top: 5vh; left: 40vw;"">
            <div style=""margin:0 auto; width: 20vw; top: 8vh; font-size: 2vw""> 
            <font color=""green""> Bonus : $9.1 </font>
            </div>
        </div>
    
        <img class=""stim"" src=./stimuli//pack_shapes_diff/cat_1/diff_1/ex_1_1_12.png></img>
    ","null","stimulus","","","","","","",""
"","","","","","html-keyboard-response","203","336760","0.0-7.29-2.29","5fd6303361f8c14cb485a447","655cb802637e0dbe2941dbc4","655cb8ccd413ab80eb90989f","null","
        <div style=""text-align: center; position: fixed; top: 5vh; left: 40vw;"">
            <div style=""margin:0 auto; width: 20vw; top: 8vh; font-size: 2vw""> 
            <font color=""green""> Bonus : $9.1 </font>
            </div>
        </div>
    ","null","","","","","","","",""
"","","","","","html-keyboard-response","204","337221","0.0-7.29-3.29","5fd6303361f8c14cb485a447","655cb802637e0dbe2941dbc4","655cb8ccd413ab80eb90989f","461","./stimuli//pack_shapes_diff/cat_1/diff_1/ex_1_1_12.png","arrowright","response","ArrowLeft","12","1","1","test","false",""
"","","","","","html-keyboard-response","205","338731","0.0-7.29-4.29","5fd6303361f8c14cb485a447","655cb802637e0dbe2941dbc4","655cb8ccd413ab80eb90989f","null","<p> <font size=""4vw""> Wrong category! </font> <br> <br> <font color=""red"" size=""7vw""> - $0.05 points </font> </p>","null","feedback","","","","","","","9.05"
"","","","","","html-keyboard-response","206","339869","0.0-7.30-0.30","5fd6303361f8c14cb485a447","655cb802637e0dbe2941dbc4","655cb8ccd413ab80eb90989f","1137","
            
        <div style=""text-align: center; position: fixed; top: 5vh; left: 40vw;"">
            <div style=""margin:0 auto; width: 20vw; top: 8vh; font-size: 2vw""> 
            <font color=""green""> Bonus : $9.05 </font>
            </div>
        </div>
    
            <div> Please press any key to continue to the next image.</div>
        ","arrowleft","ITI","","","","","","",""
"","","","","","html-keyboard-response","207","340481","0.0-7.30-1.30","5fd6303361f8c14cb485a447","655cb802637e0dbe2941dbc4","655cb8ccd413ab80eb90989f","null","
        
        <div style=""text-align: center; position: fixed; top: 5vh; left: 40vw;"">
            <div style=""margin:0 auto; width: 20vw; top: 8vh; font-size: 2vw""> 
            <font color=""green""> Bonus : $9.05 </font>
            </div>
        </div>
    
        <img class=""stim"" src=./stimuli//pack_shapes_diff/cat_2/diff_1/ex_2_1_15.png></img>
    ","null","stimulus","","","","","","",""
"","","","","","html-keyboard-response","208","341489","0.0-7.30-2.30","5fd6303361f8c14cb485a447","655cb802637e0dbe2941dbc4","655cb8ccd413ab80eb90989f","null","
        <div style=""text-align: center; position: fixed; top: 5vh; left: 40vw;"">
            <div style=""margin:0 auto; width: 20vw; top: 8vh; font-size: 2vw""> 
            <font color=""green""> Bonus : $9.05 </font>
            </div>
        </div>
    ","null","","","","","","","",""
"","","","","","html-keyboard-response","209","342100","0.0-7.30-3.30","5fd6303361f8c14cb485a447","655cb802637e0dbe2941dbc4","655cb8ccd413ab80eb90989f","610","./stimuli//pack_shapes_diff/cat_2/diff_1/ex_2_1_15.png","arrowleft","response","ArrowRight","15","2","1","test","false",""
"","","","","","html-keyboard-response","210","343614","0.0-7.30-4.30","5fd6303361f8c14cb485a447","655cb802637e0dbe2941dbc4","655cb8ccd413ab80eb90989f","null","<p> <font size=""4vw""> Wrong category! </font> <br> <br> <font color=""red"" size=""7vw""> - $0.05 points </font> </p>","null","feedback","","","","","","","9"
"","","","","","html-keyboard-response","211","344163","0.0-7.31-0.31","5fd6303361f8c14cb485a447","655cb802637e0dbe2941dbc4","655cb8ccd413ab80eb90989f","549","
            
        <div style=""text-align: center; position: fixed; top: 5vh; left: 40vw;"">
            <div style=""margin:0 auto; width: 20vw; top: 8vh; font-size: 2vw""> 
            <font color=""green""> Bonus : $9 </font>
            </div>
        </div>
    
            <div> Please press any key to continue to the next image.</div>
        ","arrowleft","ITI","","","","","","",""
"","","","","","html-keyboard-response","212","344765","0.0-7.31-1.31","5fd6303361f8c14cb485a447","655cb802637e0dbe2941dbc4","655cb8ccd413ab80eb90989f","null","
        
        <div style=""text-align: center; position: fixed; top: 5vh; left: 40vw;"">
            <div style=""margin:0 auto; width: 20vw; top: 8vh; font-size: 2vw""> 
            <font color=""green""> Bonus : $9 </font>
            </div>
        </div>
    
        <img class=""stim"" src=./stimuli//pack_shapes_diff/cat_1/diff_1/ex_1_1_2.png></img>
    ","null","stimulus","","","","","","",""
"","","","","","html-keyboard-response","213","345768","0.0-7.31-2.31","5fd6303361f8c14cb485a447","655cb802637e0dbe2941dbc4","655cb8ccd413ab80eb90989f","null","
        <div style=""text-align: center; position: fixed; top: 5vh; left: 40vw;"">
            <div style=""margin:0 auto; width: 20vw; top: 8vh; font-size: 2vw""> 
            <font color=""green""> Bonus : $9 </font>
            </div>
        </div>
    ","null","","","","","","","",""
"","","","","","html-keyboard-response","214","346209","0.0-7.31-3.31","5fd6303361f8c14cb485a447","655cb802637e0dbe2941dbc4","655cb8ccd413ab80eb90989f","440","./stimuli//pack_shapes_diff/cat_1/diff_1/ex_1_1_2.png","arrowright","response","ArrowLeft","2","1","1","test","false",""
"","","","","","html-keyboard-response","215","347725","0.0-7.31-4.31","5fd6303361f8c14cb485a447","655cb802637e0dbe2941dbc4","655cb8ccd413ab80eb90989f","null","<p> <font size=""4vw""> Wrong category! </font> <br> <br> <font color=""red"" size=""7vw""> - $0.05 points </font> </p>","null","feedback","","","","","","","8.95"
"","","","","","html-keyboard-response","216","348260","0.0-7.32-0.32","5fd6303361f8c14cb485a447","655cb802637e0dbe2941dbc4","655cb8ccd413ab80eb90989f","534","
            
        <div style=""text-align: center; position: fixed; top: 5vh; left: 40vw;"">
            <div style=""margin:0 auto; width: 20vw; top: 8vh; font-size: 2vw""> 
            <font color=""green""> Bonus : $8.95 </font>
            </div>
        </div>
    
            <div> Please press any key to continue to the next image.</div>
        ","arrowleft","ITI","","","","","","",""
"","","","","","html-keyboard-response","217","348865","0.0-7.32-1.32","5fd6303361f8c14cb485a447","655cb802637e0dbe2941dbc4","655cb8ccd413ab80eb90989f","null","
        
        <div style=""text-align: center; position: fixed; top: 5vh; left: 40vw;"">
            <div style=""margin:0 auto; width: 20vw; top: 8vh; font-size: 2vw""> 
            <font color=""green""> Bonus : $8.95 </font>
            </div>
        </div>
    
        <img class=""stim"" src=./stimuli//pack_shapes_diff/cat_1/diff_1/ex_1_1_6.png></img>
    ","null","stimulus","","","","","","",""
"","","","","","html-keyboard-response","218","349870","0.0-7.32-2.32","5fd6303361f8c14cb485a447","655cb802637e0dbe2941dbc4","655cb8ccd413ab80eb90989f","null","
        <div style=""text-align: center; position: fixed; top: 5vh; left: 40vw;"">
            <div style=""margin:0 auto; width: 20vw; top: 8vh; font-size: 2vw""> 
            <font color=""green""> Bonus : $8.95 </font>
            </div>
        </div>
    ","null","","","","","","","",""
"","","","","","html-keyboard-response","219","350314","0.0-7.32-3.32","5fd6303361f8c14cb485a447","655cb802637e0dbe2941dbc4","655cb8ccd413ab80eb90989f","443","./stimuli//pack_shapes_diff/cat_1/diff_1/ex_1_1_6.png","arrowleft","response","ArrowLeft","6","1","1","test","true",""
"","","","","","html-keyboard-response","220","351816","0.0-7.32-4.32","5fd6303361f8c14cb485a447","655cb802637e0dbe2941dbc4","655cb8ccd413ab80eb90989f","null","<p> <font color=""green"" size=""5vw""> Correct category! </font></p>","null","feedback","","","","","","","8.95"
"","","","","","html-keyboard-response","221","352437","0.0-7.33-0.33","5fd6303361f8c14cb485a447","655cb802637e0dbe2941dbc4","655cb8ccd413ab80eb90989f","620","
            
        <div style=""text-align: center; position: fixed; top: 5vh; left: 40vw;"">
            <div style=""margin:0 auto; width: 20vw; top: 8vh; font-size: 2vw""> 
            <font color=""green""> Bonus : $8.95 </font>
            </div>
        </div>
    
            <div> Please press any key to continue to the next image.</div>
        ","arrowleft","ITI","","","","","","",""
"","","","","","html-keyboard-response","222","353042","0.0-7.33-1.33","5fd6303361f8c14cb485a447","655cb802637e0dbe2941dbc4","655cb8ccd413ab80eb90989f","null","
        
        <div style=""text-align: center; position: fixed; top: 5vh; left: 40vw;"">
            <div style=""margin:0 auto; width: 20vw; top: 8vh; font-size: 2vw""> 
            <font color=""green""> Bonus : $8.95 </font>
            </div>
        </div>
    
        <img class=""stim"" src=./stimuli//pack_shapes_diff/cat_2/diff_1/ex_2_1_5.png></img>
    ","null","stimulus","","","","","","",""
"","","","","","html-keyboard-response","223","354053","0.0-7.33-2.33","5fd6303361f8c14cb485a447","655cb802637e0dbe2941dbc4","655cb8ccd413ab80eb90989f","null","
        <div style=""text-align: center; position: fixed; top: 5vh; left: 40vw;"">
            <div style=""margin:0 auto; width: 20vw; top: 8vh; font-size: 2vw""> 
            <font color=""green""> Bonus : $8.95 </font>
            </div>
        </div>
    ","null","","","","","","","",""
"","","","","","html-keyboard-response","224","354996","0.0-7.33-3.33","5fd6303361f8c14cb485a447","655cb802637e0dbe2941dbc4","655cb8ccd413ab80eb90989f","942","./stimuli//pack_shapes_diff/cat_2/diff_1/ex_2_1_5.png","arrowright","response","ArrowRight","5","2","1","test","true",""
"","","","","","html-keyboard-response","225","356506","0.0-7.33-4.33","5fd6303361f8c14cb485a447","655cb802637e0dbe2941dbc4","655cb8ccd413ab80eb90989f","null","<p> <font color=""green"" size=""5vw""> Correct category! </font></p>","null","feedback","","","","","","","8.95"
"","","","","","html-keyboard-response","226","357260","0.0-7.34-0.34","5fd6303361f8c14cb485a447","655cb802637e0dbe2941dbc4","655cb8ccd413ab80eb90989f","753","
            
        <div style=""text-align: center; position: fixed; top: 5vh; left: 40vw;"">
            <div style=""margin:0 auto; width: 20vw; top: 8vh; font-size: 2vw""> 
            <font color=""green""> Bonus : $8.95 </font>
            </div>
        </div>
    
            <div> Please press any key to continue to the next image.</div>
        ","arrowright","ITI","","","","","","",""
"","","","","","html-keyboard-response","227","357870","0.0-7.34-1.34","5fd6303361f8c14cb485a447","655cb802637e0dbe2941dbc4","655cb8ccd413ab80eb90989f","null","
        
        <div style=""text-align: center; position: fixed; top: 5vh; left: 40vw;"">
            <div style=""margin:0 auto; width: 20vw; top: 8vh; font-size: 2vw""> 
            <font color=""green""> Bonus : $8.95 </font>
            </div>
        </div>
    
        <img class=""stim"" src=./stimuli//pack_shapes_diff/cat_2/diff_1/ex_2_1_2.png></img>
    ","null","stimulus","","","","","","",""
"","","","","","html-keyboard-response","228","358877","0.0-7.34-2.34","5fd6303361f8c14cb485a447","655cb802637e0dbe2941dbc4","655cb8ccd413ab80eb90989f","null","
        <div style=""text-align: center; position: fixed; top: 5vh; left: 40vw;"">
            <div style=""margin:0 auto; width: 20vw; top: 8vh; font-size: 2vw""> 
            <font color=""green""> Bonus : $8.95 </font>
            </div>
        </div>
    ","null","","","","","","","",""
"","","","","","html-keyboard-response","229","360622","0.0-7.34-3.34","5fd6303361f8c14cb485a447","655cb802637e0dbe2941dbc4","655cb8ccd413ab80eb90989f","1745","./stimuli//pack_shapes_diff/cat_2/diff_1/ex_2_1_2.png","arrowright","response","ArrowRight","2","2","1","test","true",""
"","","","","","html-keyboard-response","230","362139","0.0-7.34-4.34","5fd6303361f8c14cb485a447","655cb802637e0dbe2941dbc4","655cb8ccd413ab80eb90989f","null","<p> <font color=""green"" size=""5vw""> Correct category! </font></p>","null","feedback","","","","","","","8.95"
"","","","","","html-keyboard-response","231","363399","0.0-7.35-0.35","5fd6303361f8c14cb485a447","655cb802637e0dbe2941dbc4","655cb8ccd413ab80eb90989f","1260","
            
