"success","timeout","failed_images","failed_audio","failed_video","trial_type","trial_index","time_elapsed","internal_node_id","subject_id","study_id","session_id","rt","stimulus","response","task","correct_response","exemplar_ID","category","difficulty","phase","correct","bonus"
"true","false","[]","[]","[]","preload","0","4","0.0-0.0","612d68db25f37c6d62dfc3f7","655cb802637e0dbe2941dbc4","655cb8c5b40eac52ac2dffa4","","","","","","","","","","",""
"","","","","","html-keyboard-response","1","4604","0.0-1.0","612d68db25f37c6d62dfc3f7","655cb802637e0dbe2941dbc4","655cb8c5b40eac52ac2dffa4","4599","Welcome to the Category Learning experiment! Press any key to continue.","enter","welcome","","","","","","",""
"","","","","","html-keyboard-response","2","37991","0.0-2.0","612d68db25f37c6d62dfc3f7","655cb802637e0dbe2941dbc4","655cb8c5b40eac52ac2dffa4","33385","
            <p>You will be shown images of black shapes. Some are category A, some are category B.
            <br>You will not know in advance which category a specific shape belongs to.</p>
            <p>After you see an image, you will be asked to guess its category <b>(left arrow for category A, right arrow for category B)</b></p>
            <p>After you choose, the screen will show you whether you were correct or not.</p>
            <p>Please try to respond as quickly and accurately as possible every time.</p>
            <p>Press any key to continue.</p>
            ","enter","introduction_1","","","","","","",""
"","","","","","html-keyboard-response","3","51288","0.0-3.0","612d68db25f37c6d62dfc3f7","655cb802637e0dbe2941dbc4","655cb8c5b40eac52ac2dffa4","13296","
              <p><b>You will receive a bonus payment depending on your performance!</b></p>
              <p><b>You start with a $10 bonus and each time you guess a shape's category incorrectly $0.05 will be subtracted from the bonus. <br> After the end of the experiment you will receive the remaining bonus as payment.</b></p>
              <p>Press any key to continue.</p>
              ","enter","introduction_1","","","","","","",""
"","","","","","html-keyboard-response","4","64514","0.0-4.0","612d68db25f37c6d62dfc3f7","655cb802637e0dbe2941dbc4","655cb8c5b40eac52ac2dffa4","13226","
            <p> <b>The first 10 trials are a practice round that will not count towards your bonus payment.</b></p>
            <p> You will be notified when practice finishes and the test begins. </p>
            <p> Press any key to begin the practice round.</p>
            ","enter","introduction_2","","","","","","",""
"","","","","","html-keyboard-response","5","69520","0.0-5.0-0.0","612d68db25f37c6d62dfc3f7","655cb802637e0dbe2941dbc4","655cb8c5b40eac52ac2dffa4","null","
            
        <div style=""text-align: center; position: fixed; top: 5vh; left: 40vw;"">
            <div style=""margin:0 auto; width: 20vw; top: 8vh; font-size: 2vw""> 
            <font color=""green""> Bonus : $10 </font>
            </div>
        </div>
    
            <div> Please press any key to continue to the next image.</div>
        ","null","ITI","","","","","","",""
"","","","","","html-keyboard-response","6","70124","0.0-5.0-1.0","612d68db25f37c6d62dfc3f7","655cb802637e0dbe2941dbc4","655cb8c5b40eac52ac2dffa4","null","
        
        <div style=""text-align: center; position: fixed; top: 5vh; left: 40vw;"">
            <div style=""margin:0 auto; width: 20vw; top: 8vh; font-size: 2vw""> 
            <font color=""green""> Bonus : $10 </font>
            </div>
        </div>
    
        <img class=""stim"" src=./stimuli//pack_shapes_diff/cat_2/diff_2/ex_2_2_12.png></img>
    ","null","stimulus","","","","","","",""
"","","","","","html-keyboard-response","7","71131","0.0-5.0-2.0","612d68db25f37c6d62dfc3f7","655cb802637e0dbe2941dbc4","655cb8c5b40eac52ac2dffa4","null","
        <div style=""text-align: center; position: fixed; top: 5vh; left: 40vw;"">
            <div style=""margin:0 auto; width: 20vw; top: 8vh; font-size: 2vw""> 
            <font color=""green""> Bonus : $10 </font>
            </div>
        </div>
    ","null","","","","","","","",""
"","","","","","html-keyboard-response","8","75136","0.0-5.0-3.0","612d68db25f37c6d62dfc3f7","655cb802637e0dbe2941dbc4","655cb8c5b40eac52ac2dffa4","null","./stimuli//pack_shapes_diff/cat_2/diff_2/ex_2_2_12.png","null","response","ArrowRight","12","2","2","train","false",""
"","","","","","html-keyboard-response","9","76639","0.0-5.0-4.0","612d68db25f37c6d62dfc3f7","655cb802637e0dbe2941dbc4","655cb8c5b40eac52ac2dffa4","null","<p> <font color=""red"" size=""5vw""> Time out! </font> <br> Please try to respond as quickly as possible. </p>","null","feedback","","","","","","","10"
"","","","","","html-keyboard-response","10","79217","0.0-5.0-0.1","612d68db25f37c6d62dfc3f7","655cb802637e0dbe2941dbc4","655cb8c5b40eac52ac2dffa4","2578","
            
        <div style=""text-align: center; position: fixed; top: 5vh; left: 40vw;"">
            <div style=""margin:0 auto; width: 20vw; top: 8vh; font-size: 2vw""> 
            <font color=""green""> Bonus : $10 </font>
            </div>
        </div>
    
            <div> Please press any key to continue to the next image.</div>
        ","arrowleft","ITI","","","","","","",""
"","","","","","html-keyboard-response","11","79819","0.0-5.0-1.1","612d68db25f37c6d62dfc3f7","655cb802637e0dbe2941dbc4","655cb8c5b40eac52ac2dffa4","null","
        
        <div style=""text-align: center; position: fixed; top: 5vh; left: 40vw;"">
            <div style=""margin:0 auto; width: 20vw; top: 8vh; font-size: 2vw""> 
            <font color=""green""> Bonus : $10 </font>
            </div>
        </div>
    
        <img class=""stim"" src=./stimuli//pack_shapes_diff/cat_1/diff_1/ex_1_1_15.png></img>
    ","null","stimulus","","","","","","",""
"","","","","","html-keyboard-response","12","80821","0.0-5.0-2.1","612d68db25f37c6d62dfc3f7","655cb802637e0dbe2941dbc4","655cb8c5b40eac52ac2dffa4","null","
        <div style=""text-align: center; position: fixed; top: 5vh; left: 40vw;"">
            <div style=""margin:0 auto; width: 20vw; top: 8vh; font-size: 2vw""> 
            <font color=""green""> Bonus : $10 </font>
            </div>
        </div>
    ","null","","","","","","","",""
"","","","","","html-keyboard-response","13","81666","0.0-5.0-3.1","612d68db25f37c6d62dfc3f7","655cb802637e0dbe2941dbc4","655cb8c5b40eac52ac2dffa4","844","./stimuli//pack_shapes_diff/cat_1/diff_1/ex_1_1_15.png","arrowleft","response","ArrowLeft","15","1","1","train","true",""
"","","","","","html-keyboard-response","14","83169","0.0-5.0-4.1","612d68db25f37c6d62dfc3f7","655cb802637e0dbe2941dbc4","655cb8c5b40eac52ac2dffa4","null","<p> <font color=""green"" size=""5vw""> Correct category! </font> </p>","null","feedback","","","","","","","10"
"","","","","","html-keyboard-response","15","84612","0.0-5.0-0.2","612d68db25f37c6d62dfc3f7","655cb802637e0dbe2941dbc4","655cb8c5b40eac52ac2dffa4","1441","
            
        <div style=""text-align: center; position: fixed; top: 5vh; left: 40vw;"">
            <div style=""margin:0 auto; width: 20vw; top: 8vh; font-size: 2vw""> 
            <font color=""green""> Bonus : $10 </font>
            </div>
        </div>
    
            <div> Please press any key to continue to the next image.</div>
        ","arrowleft","ITI","","","","","","",""
"","","","","","html-keyboard-response","16","85215","0.0-5.0-1.2","612d68db25f37c6d62dfc3f7","655cb802637e0dbe2941dbc4","655cb8c5b40eac52ac2dffa4","null","
        
        <div style=""text-align: center; position: fixed; top: 5vh; left: 40vw;"">
            <div style=""margin:0 auto; width: 20vw; top: 8vh; font-size: 2vw""> 
            <font color=""green""> Bonus : $10 </font>
            </div>
        </div>
    
        <img class=""stim"" src=./stimuli//pack_shapes_diff/cat_1/diff_2/ex_1_2_9.png></img>
    ","null","stimulus","","","","","","",""
"","","","","","html-keyboard-response","17","86221","0.0-5.0-2.2","612d68db25f37c6d62dfc3f7","655cb802637e0dbe2941dbc4","655cb8c5b40eac52ac2dffa4","null","
        <div style=""text-align: center; position: fixed; top: 5vh; left: 40vw;"">
            <div style=""margin:0 auto; width: 20vw; top: 8vh; font-size: 2vw""> 
            <font color=""green""> Bonus : $10 </font>
            </div>
        </div>
    ","null","","","","","","","",""
"","","","","","html-keyboard-response","18","86978","0.0-5.0-3.2","612d68db25f37c6d62dfc3f7","655cb802637e0dbe2941dbc4","655cb8c5b40eac52ac2dffa4","757","./stimuli//pack_shapes_diff/cat_1/diff_2/ex_1_2_9.png","arrowright","response","ArrowLeft","9","1","2","train","false",""
"","","","","","html-keyboard-response","19","88482","0.0-5.0-4.2","612d68db25f37c6d62dfc3f7","655cb802637e0dbe2941dbc4","655cb8c5b40eac52ac2dffa4","null","<p> <font color=""red"" size=""5vw""> Wrong category! </font> </p>","null","feedback","","","","","","","10"
"","","","","","html-keyboard-response","20","91212","0.0-5.0-0.3","612d68db25f37c6d62dfc3f7","655cb802637e0dbe2941dbc4","655cb8c5b40eac52ac2dffa4","2729","
            
        <div style=""text-align: center; position: fixed; top: 5vh; left: 40vw;"">
            <div style=""margin:0 auto; width: 20vw; top: 8vh; font-size: 2vw""> 
            <font color=""green""> Bonus : $10 </font>
            </div>
        </div>
    
            <div> Please press any key to continue to the next image.</div>
        ","arrowleft","ITI","","","","","","",""
"","","","","","html-keyboard-response","21","91818","0.0-5.0-1.3","612d68db25f37c6d62dfc3f7","655cb802637e0dbe2941dbc4","655cb8c5b40eac52ac2dffa4","null","
        
        <div style=""text-align: center; position: fixed; top: 5vh; left: 40vw;"">
            <div style=""margin:0 auto; width: 20vw; top: 8vh; font-size: 2vw""> 
            <font color=""green""> Bonus : $10 </font>
            </div>
        </div>
    
        <img class=""stim"" src=./stimuli//pack_shapes_diff/cat_2/diff_1/ex_2_1_7.png></img>
    ","null","stimulus","","","","","","",""
"","","","","","html-keyboard-response","22","92819","0.0-5.0-2.3","612d68db25f37c6d62dfc3f7","655cb802637e0dbe2941dbc4","655cb8c5b40eac52ac2dffa4","null","
        <div style=""text-align: center; position: fixed; top: 5vh; left: 40vw;"">
            <div style=""margin:0 auto; width: 20vw; top: 8vh; font-size: 2vw""> 
            <font color=""green""> Bonus : $10 </font>
            </div>
        </div>
    ","null","","","","","","","",""
"","","","","","html-keyboard-response","23","93019","0.0-5.0-3.3","612d68db25f37c6d62dfc3f7","655cb802637e0dbe2941dbc4","655cb8c5b40eac52ac2dffa4","199","./stimuli//pack_shapes_diff/cat_2/diff_1/ex_2_1_7.png","arrowleft","response","ArrowRight","7","2","1","train","false",""
"","","","","","html-keyboard-response","24","94525","0.0-5.0-4.3","612d68db25f37c6d62dfc3f7","655cb802637e0dbe2941dbc4","655cb8c5b40eac52ac2dffa4","null","<p> <font color=""red"" size=""5vw""> Wrong category! </font> </p>","null","feedback","","","","","","","10"
"","","","","","html-keyboard-response","25","97426","0.0-5.0-0.4","612d68db25f37c6d62dfc3f7","655cb802637e0dbe2941dbc4","655cb8c5b40eac52ac2dffa4","2901","
            
        <div style=""text-align: center; position: fixed; top: 5vh; left: 40vw;"">
            <div style=""margin:0 auto; width: 20vw; top: 8vh; font-size: 2vw""> 
            <font color=""green""> Bonus : $10 </font>
            </div>
        </div>
    
            <div> Please press any key to continue to the next image.</div>
        ","arrowleft","ITI","","","","","","",""
"","","","","","html-keyboard-response","26","98029","0.0-5.0-1.4","612d68db25f37c6d62dfc3f7","655cb802637e0dbe2941dbc4","655cb8c5b40eac52ac2dffa4","null","
        
        <div style=""text-align: center; position: fixed; top: 5vh; left: 40vw;"">
            <div style=""margin:0 auto; width: 20vw; top: 8vh; font-size: 2vw""> 
            <font color=""green""> Bonus : $10 </font>
            </div>
        </div>
    
        <img class=""stim"" src=./stimuli//pack_shapes_diff/cat_1/diff_2/ex_1_2_16.png></img>
    ","null","stimulus","","","","","","",""
"","","","","","html-keyboard-response","27","99035","0.0-5.0-2.4","612d68db25f37c6d62dfc3f7","655cb802637e0dbe2941dbc4","655cb8c5b40eac52ac2dffa4","null","
        <div style=""text-align: center; position: fixed; top: 5vh; left: 40vw;"">
            <div style=""margin:0 auto; width: 20vw; top: 8vh; font-size: 2vw""> 
            <font color=""green""> Bonus : $10 </font>
            </div>
        </div>
    ","null","","","","","","","",""
"","","","","","html-keyboard-response","28","99682","0.0-5.0-3.4","612d68db25f37c6d62dfc3f7","655cb802637e0dbe2941dbc4","655cb8c5b40eac52ac2dffa4","646","./stimuli//pack_shapes_diff/cat_1/diff_2/ex_1_2_16.png","arrowleft","response","ArrowLeft","16","1","2","train","true",""
"","","","","","html-keyboard-response","29","101186","0.0-5.0-4.4","612d68db25f37c6d62dfc3f7","655cb802637e0dbe2941dbc4","655cb8c5b40eac52ac2dffa4","null","<p> <font color=""green"" size=""5vw""> Correct category! </font> </p>","null","feedback","","","","","","","10"
"","","","","","html-keyboard-response","30","102368","0.0-5.0-0.5","612d68db25f37c6d62dfc3f7","655cb802637e0dbe2941dbc4","655cb8c5b40eac52ac2dffa4","1181","
            
        <div style=""text-align: center; position: fixed; top: 5vh; left: 40vw;"">
            <div style=""margin:0 auto; width: 20vw; top: 8vh; font-size: 2vw""> 
            <font color=""green""> Bonus : $10 </font>
            </div>
        </div>
    
            <div> Please press any key to continue to the next image.</div>
        ","arrowleft","ITI","","","","","","",""
"","","","","","html-keyboard-response","31","102969","0.0-5.0-1.5","612d68db25f37c6d62dfc3f7","655cb802637e0dbe2941dbc4","655cb8c5b40eac52ac2dffa4","null","
        
        <div style=""text-align: center; position: fixed; top: 5vh; left: 40vw;"">
            <div style=""margin:0 auto; width: 20vw; top: 8vh; font-size: 2vw""> 
            <font color=""green""> Bonus : $10 </font>
            </div>
        </div>
    
        <img class=""stim"" src=./stimuli//pack_shapes_diff/cat_2/diff_1/ex_2_1_16.png></img>
    ","null","stimulus","","","","","","",""
"","","","","","html-keyboard-response","32","103976","0.0-5.0-2.5","612d68db25f37c6d62dfc3f7","655cb802637e0dbe2941dbc4","655cb8c5b40eac52ac2dffa4","null","
        <div style=""text-align: center; position: fixed; top: 5vh; left: 40vw;"">
            <div style=""margin:0 auto; width: 20vw; top: 8vh; font-size: 2vw""> 
            <font color=""green""> Bonus : $10 </font>
            </div>
        </div>
    ","null","","","","","","","",""
"","","","","","html-keyboard-response","33","104381","0.0-5.0-3.5","612d68db25f37c6d62dfc3f7","655cb802637e0dbe2941dbc4","655cb8c5b40eac52ac2dffa4","404","./stimuli//pack_shapes_diff/cat_2/diff_1/ex_2_1_16.png","arrowright","response","ArrowRight","16","2","1","train","true",""
"","","","","","html-keyboard-response","34","105885","0.0-5.0-4.5","612d68db25f37c6d62dfc3f7","655cb802637e0dbe2941dbc4","655cb8c5b40eac52ac2dffa4","null","<p> <font color=""green"" size=""5vw""> Correct category! </font> </p>","null","feedback","","","","","","","10"
"","","","","","html-keyboard-response","35","107325","0.0-5.0-0.6","612d68db25f37c6d62dfc3f7","655cb802637e0dbe2941dbc4","655cb8c5b40eac52ac2dffa4","1439","
            
        <div style=""text-align: center; position: fixed; top: 5vh; left: 40vw;"">
            <div style=""margin:0 auto; width: 20vw; top: 8vh; font-size: 2vw""> 
            <font color=""green""> Bonus : $10 </font>
            </div>
        </div>
    
            <div> Please press any key to continue to the next image.</div>
        ","arrowleft","ITI","","","","","","",""
"","","","","","html-keyboard-response","36","107929","0.0-5.0-1.6","612d68db25f37c6d62dfc3f7","655cb802637e0dbe2941dbc4","655cb8c5b40eac52ac2dffa4","null","
        
        <div style=""text-align: center; position: fixed; top: 5vh; left: 40vw;"">
            <div style=""margin:0 auto; width: 20vw; top: 8vh; font-size: 2vw""> 
            <font color=""green""> Bonus : $10 </font>
            </div>
        </div>
    
        <img class=""stim"" src=./stimuli//pack_shapes_diff/cat_1/diff_1/ex_1_1_3.png></img>
    ","null","stimulus","","","","","","",""
"","","","","","html-keyboard-response","37","108936","0.0-5.0-2.6","612d68db25f37c6d62dfc3f7","655cb802637e0dbe2941dbc4","655cb8c5b40eac52ac2dffa4","null","
        <div style=""text-align: center; position: fixed; top: 5vh; left: 40vw;"">
            <div style=""margin:0 auto; width: 20vw; top: 8vh; font-size: 2vw""> 
            <font color=""green""> Bonus : $10 </font>
            </div>
        </div>
    ","null","","","","","","","",""
"","","","","","html-keyboard-response","38","109571","0.0-5.0-3.6","612d68db25f37c6d62dfc3f7","655cb802637e0dbe2941dbc4","655cb8c5b40eac52ac2dffa4","634","./stimuli//pack_shapes_diff/cat_1/diff_1/ex_1_1_3.png","arrowleft","response","ArrowLeft","3","1","1","train","true",""
"","","","","","html-keyboard-response","39","111072","0.0-5.0-4.6","612d68db25f37c6d62dfc3f7","655cb802637e0dbe2941dbc4","655cb8c5b40eac52ac2dffa4","null","<p> <font color=""green"" size=""5vw""> Correct category! </font> </p>","null","feedback","","","","","","","10"
"","","","","","html-keyboard-response","40","112161","0.0-5.0-0.7","612d68db25f37c6d62dfc3f7","655cb802637e0dbe2941dbc4","655cb8c5b40eac52ac2dffa4","1087","
            
        <div style=""text-align: center; position: fixed; top: 5vh; left: 40vw;"">
            <div style=""margin:0 auto; width: 20vw; top: 8vh; font-size: 2vw""> 
            <font color=""green""> Bonus : $10 </font>
            </div>
        </div>
    
            <div> Please press any key to continue to the next image.</div>
        ","arrowright","ITI","","","","","","",""
"","","","","","html-keyboard-response","41","112763","0.0-5.0-1.7","612d68db25f37c6d62dfc3f7","655cb802637e0dbe2941dbc4","655cb8c5b40eac52ac2dffa4","null","
        
        <div style=""text-align: center; position: fixed; top: 5vh; left: 40vw;"">
            <div style=""margin:0 auto; width: 20vw; top: 8vh; font-size: 2vw""> 
            <font color=""green""> Bonus : $10 </font>
            </div>
        </div>
    
        <img class=""stim"" src=./stimuli//pack_shapes_diff/cat_2/diff_1/ex_2_1_3.png></img>
    ","null","stimulus","","","","","","",""
"","","","","","html-keyboard-response","42","113767","0.0-5.0-2.7","612d68db25f37c6d62dfc3f7","655cb802637e0dbe2941dbc4","655cb8c5b40eac52ac2dffa4","null","
        <div style=""text-align: center; position: fixed; top: 5vh; left: 40vw;"">
            <div style=""margin:0 auto; width: 20vw; top: 8vh; font-size: 2vw""> 
            <font color=""green""> Bonus : $10 </font>
            </div>
        </div>
    ","null","","","","","","","",""
"","","","","","html-keyboard-response","43","114284","0.0-5.0-3.7","612d68db25f37c6d62dfc3f7","655cb802637e0dbe2941dbc4","655cb8c5b40eac52ac2dffa4","516","./stimuli//pack_shapes_diff/cat_2/diff_1/ex_2_1_3.png","arrowright","response","ArrowRight","3","2","1","train","true",""
"","","","","","html-keyboard-response","44","115786","0.0-5.0-4.7","612d68db25f37c6d62dfc3f7","655cb802637e0dbe2941dbc4","655cb8c5b40eac52ac2dffa4","null","<p> <font color=""green"" size=""5vw""> Correct category! </font> </p>","null","feedback","","","","","","","10"
"","","","","","html-keyboard-response","45","116751","0.0-5.0-0.8","612d68db25f37c6d62dfc3f7","655cb802637e0dbe2941dbc4","655cb8c5b40eac52ac2dffa4","965","
            
        <div style=""text-align: center; position: fixed; top: 5vh; left: 40vw;"">
            <div style=""margin:0 auto; width: 20vw; top: 8vh; font-size: 2vw""> 
            <font color=""green""> Bonus : $10 </font>
            </div>
        </div>
    
            <div> Please press any key to continue to the next image.</div>
        ","arrowright","ITI","","","","","","",""
"","","","","","html-keyboard-response","46","117354","0.0-5.0-1.8","612d68db25f37c6d62dfc3f7","655cb802637e0dbe2941dbc4","655cb8c5b40eac52ac2dffa4","null","
        
        <div style=""text-align: center; position: fixed; top: 5vh; left: 40vw;"">
            <div style=""margin:0 auto; width: 20vw; top: 8vh; font-size: 2vw""> 
            <font color=""green""> Bonus : $10 </font>
            </div>
        </div>
    
        <img class=""stim"" src=./stimuli//pack_shapes_diff/cat_2/diff_2/ex_2_2_17.png></img>
    ","null","stimulus","","","","","","",""
"","","","","","html-keyboard-response","47","118356","0.0-5.0-2.8","612d68db25f37c6d62dfc3f7","655cb802637e0dbe2941dbc4","655cb8c5b40eac52ac2dffa4","null","
        <div style=""text-align: center; position: fixed; top: 5vh; left: 40vw;"">
            <div style=""margin:0 auto; width: 20vw; top: 8vh; font-size: 2vw""> 
            <font color=""green""> Bonus : $10 </font>
            </div>
        </div>
    ","null","","","","","","","",""
"","","","","","html-keyboard-response","48","118839","0.0-5.0-3.8","612d68db25f37c6d62dfc3f7","655cb802637e0dbe2941dbc4","655cb8c5b40eac52ac2dffa4","482","./stimuli//pack_shapes_diff/cat_2/diff_2/ex_2_2_17.png","arrowright","response","ArrowRight","17","2","2","train","true",""
"","","","","","html-keyboard-response","49","120340","0.0-5.0-4.8","612d68db25f37c6d62dfc3f7","655cb802637e0dbe2941dbc4","655cb8c5b40eac52ac2dffa4","null","<p> <font color=""green"" size=""5vw""> Correct category! </font> </p>","null","feedback","","","","","","","10"
"","","","","","html-keyboard-response","50","121446","0.0-5.0-0.9","612d68db25f37c6d62dfc3f7","655cb802637e0dbe2941dbc4","655cb8c5b40eac52ac2dffa4","1105","
            
        <div style=""text-align: center; position: fixed; top: 5vh; left: 40vw;"">
            <div style=""margin:0 auto; width: 20vw; top: 8vh; font-size: 2vw""> 
            <font color=""green""> Bonus : $10 </font>
            </div>
        </div>
    
            <div> Please press any key to continue to the next image.</div>
        ","arrowright","ITI","","","","","","",""
"","","","","","html-keyboard-response","51","122051","0.0-5.0-1.9","612d68db25f37c6d62dfc3f7","655cb802637e0dbe2941dbc4","655cb8c5b40eac52ac2dffa4","null","
        
        <div style=""text-align: center; position: fixed; top: 5vh; left: 40vw;"">
            <div style=""margin:0 auto; width: 20vw; top: 8vh; font-size: 2vw""> 
            <font color=""green""> Bonus : $10 </font>
            </div>
        </div>
    
        <img class=""stim"" src=./stimuli//pack_shapes_diff/cat_1/diff_1/ex_1_1_2.png></img>
    ","null","stimulus","","","","","","",""
"","","","","","html-keyboard-response","52","123056","0.0-5.0-2.9","612d68db25f37c6d62dfc3f7","655cb802637e0dbe2941dbc4","655cb8c5b40eac52ac2dffa4","null","
        <div style=""text-align: center; position: fixed; top: 5vh; left: 40vw;"">
            <div style=""margin:0 auto; width: 20vw; top: 8vh; font-size: 2vw""> 
            <font color=""green""> Bonus : $10 </font>
            </div>
        </div>
    ","null","","","","","","","",""
"","","","","","html-keyboard-response","53","123522","0.0-5.0-3.9","612d68db25f37c6d62dfc3f7","655cb802637e0dbe2941dbc4","655cb8c5b40eac52ac2dffa4","465","./stimuli//pack_shapes_diff/cat_1/diff_1/ex_1_1_2.png","arrowleft","response","ArrowLeft","2","1","1","train","true",""
"","","","","","html-keyboard-response","54","125027","0.0-5.0-4.9","612d68db25f37c6d62dfc3f7","655cb802637e0dbe2941dbc4","655cb8c5b40eac52ac2dffa4","null","<p> <font color=""green"" size=""5vw""> Correct category! </font> </p>","null","feedback","","","","","","","10"
"","","","","","html-keyboard-response","55","127586","0.0-6.0","612d68db25f37c6d62dfc3f7","655cb802637e0dbe2941dbc4","655cb8c5b40eac52ac2dffa4","2558","
            <b> <p> The practice round has finished.</p>
            <b> For the rest of the experiment if you guess incorrectly $0.05 will be subtracted from your bonus!</b>
            <p> Press any key to begin the test. </p>
            ","arrowleft","intermission","","","","","","",""
"","","","","","html-keyboard-response","56","130174","0.0-7.0-0.0","612d68db25f37c6d62dfc3f7","655cb802637e0dbe2941dbc4","655cb8c5b40eac52ac2dffa4","2588","
            
        <div style=""text-align: center; position: fixed; top: 5vh; left: 40vw;"">
            <div style=""margin:0 auto; width: 20vw; top: 8vh; font-size: 2vw""> 
            <font color=""green""> Bonus : $10 </font>
            </div>
        </div>
    
            <div> Please press any key to continue to the next image.</div>
        ","arrowleft","ITI","","","","","","",""
"","","","","","html-keyboard-response","57","130777","0.0-7.0-1.0","612d68db25f37c6d62dfc3f7","655cb802637e0dbe2941dbc4","655cb8c5b40eac52ac2dffa4","null","
        
        <div style=""text-align: center; position: fixed; top: 5vh; left: 40vw;"">
            <div style=""margin:0 auto; width: 20vw; top: 8vh; font-size: 2vw""> 
            <font color=""green""> Bonus : $10 </font>
            </div>
        </div>
    
        <img class=""stim"" src=./stimuli//pack_shapes_diff/cat_2/diff_1/ex_2_1_1.png></img>
    ","null","stimulus","","","","","","",""
"","","","","","html-keyboard-response","58","131781","0.0-7.0-2.0","612d68db25f37c6d62dfc3f7","655cb802637e0dbe2941dbc4","655cb8c5b40eac52ac2dffa4","null","
        <div style=""text-align: center; position: fixed; top: 5vh; left: 40vw;"">
            <div style=""margin:0 auto; width: 20vw; top: 8vh; font-size: 2vw""> 
            <font color=""green""> Bonus : $10 </font>
            </div>
        </div>
    ","null","","","","","","","",""
"","","","","","html-keyboard-response","59","132197","0.0-7.0-3.0","612d68db25f37c6d62dfc3f7","655cb802637e0dbe2941dbc4","655cb8c5b40eac52ac2dffa4","414","./stimuli//pack_shapes_diff/cat_2/diff_1/ex_2_1_1.png","arrowright","response","ArrowRight","1","2","1","test","true",""
"","","","","","html-keyboard-response","60","133702","0.0-7.0-4.0","612d68db25f37c6d62dfc3f7","655cb802637e0dbe2941dbc4","655cb8c5b40eac52ac2dffa4","null","<p> <font color=""green"" size=""5vw""> Correct category! </font></p>","null","feedback","","","","","","","10"
"","","","","","html-keyboard-response","61","136713","0.0-7.1-0.1","612d68db25f37c6d62dfc3f7","655cb802637e0dbe2941dbc4","655cb8c5b40eac52ac2dffa4","3010","
            
        <div style=""text-align: center; position: fixed; top: 5vh; left: 40vw;"">
            <div style=""margin:0 auto; width: 20vw; top: 8vh; font-size: 2vw""> 
            <font color=""green""> Bonus : $10 </font>
            </div>
        </div>
    
            <div> Please press any key to continue to the next image.</div>
        ","arrowright","ITI","","","","","","",""
"","","","","","html-keyboard-response","62","137319","0.0-7.1-1.1","612d68db25f37c6d62dfc3f7","655cb802637e0dbe2941dbc4","655cb8c5b40eac52ac2dffa4","null","
        
        <div style=""text-align: center; position: fixed; top: 5vh; left: 40vw;"">
            <div style=""margin:0 auto; width: 20vw; top: 8vh; font-size: 2vw""> 
            <font color=""green""> Bonus : $10 </font>
            </div>
        </div>
    
        <img class=""stim"" src=./stimuli//pack_shapes_diff/cat_1/diff_1/ex_1_1_7.png></img>
    ","null","stimulus","","","","","","",""
"","","","","","html-keyboard-response","63","138323","0.0-7.1-2.1","612d68db25f37c6d62dfc3f7","655cb802637e0dbe2941dbc4","655cb8c5b40eac52ac2dffa4","null","
        <div style=""text-align: center; position: fixed; top: 5vh; left: 40vw;"">
            <div style=""margin:0 auto; width: 20vw; top: 8vh; font-size: 2vw""> 
            <font color=""green""> Bonus : $10 </font>
            </div>
        </div>
    ","null","","","","","","","",""
"","","","","","html-keyboard-response","64","138756","0.0-7.1-3.1","612d68db25f37c6d62dfc3f7","655cb802637e0dbe2941dbc4","655cb8c5b40eac52ac2dffa4","432","./stimuli//pack_shapes_diff/cat_1/diff_1/ex_1_1_7.png","arrowleft","response","ArrowLeft","7","1","1","test","true",""
"","","","","","html-keyboard-response","65","140259","0.0-7.1-4.1","612d68db25f37c6d62dfc3f7","655cb802637e0dbe2941dbc4","655cb8c5b40eac52ac2dffa4","null","<p> <font color=""green"" size=""5vw""> Correct category! </font></p>","null","feedback","","","","","","","10"
"","","","","","html-keyboard-response","66","141149","0.0-7.2-0.2","612d68db25f37c6d62dfc3f7","655cb802637e0dbe2941dbc4","655cb8c5b40eac52ac2dffa4","888","
            
        <div style=""text-align: center; position: fixed; top: 5vh; left: 40vw;"">
            <div style=""margin:0 auto; width: 20vw; top: 8vh; font-size: 2vw""> 
            <font color=""green""> Bonus : $10 </font>
            </div>
        </div>
    
            <div> Please press any key to continue to the next image.</div>
        ","arrowleft","ITI","","","","","","",""
"","","","","","html-keyboard-response","67","141751","0.0-7.2-1.2","612d68db25f37c6d62dfc3f7","655cb802637e0dbe2941dbc4","655cb8c5b40eac52ac2dffa4","null","
        
        <div style=""text-align: center; position: fixed; top: 5vh; left: 40vw;"">
            <div style=""margin:0 auto; width: 20vw; top: 8vh; font-size: 2vw""> 
            <font color=""green""> Bonus : $10 </font>
            </div>
        </div>
    
        <img class=""stim"" src=./stimuli//pack_shapes_diff/cat_1/diff_1/ex_1_1_1.png></img>
    ","null","stimulus","","","","","","",""
"","","","","","html-keyboard-response","68","142755","0.0-7.2-2.2","612d68db25f37c6d62dfc3f7","655cb802637e0dbe2941dbc4","655cb8c5b40eac52ac2dffa4","null","
        <div style=""text-align: center; position: fixed; top: 5vh; left: 40vw;"">
            <div style=""margin:0 auto; width: 20vw; top: 8vh; font-size: 2vw""> 
            <font color=""green""> Bonus : $10 </font>
            </div>
        </div>
    ","null","","","","","","","",""
"","","","","","html-keyboard-response","69","143231","0.0-7.2-3.2","612d68db25f37c6d62dfc3f7","655cb802637e0dbe2941dbc4","655cb8c5b40eac52ac2dffa4","476","./stimuli//pack_shapes_diff/cat_1/diff_1/ex_1_1_1.png","arrowleft","response","ArrowLeft","1","1","1","test","true",""
"","","","","","html-keyboard-response","70","144736","0.0-7.2-4.2","612d68db25f37c6d62dfc3f7","655cb802637e0dbe2941dbc4","655cb8c5b40eac52ac2dffa4","null","<p> <font color=""green"" size=""5vw""> Correct category! </font></p>","null","feedback","","","","","","","10"
"","","","","","html-keyboard-response","71","145926","0.0-7.3-0.3","612d68db25f37c6d62dfc3f7","655cb802637e0dbe2941dbc4","655cb8c5b40eac52ac2dffa4","1190","
            
        <div style=""text-align: center; position: fixed; top: 5vh; left: 40vw;"">
            <div style=""margin:0 auto; width: 20vw; top: 8vh; font-size: 2vw""> 
            <font color=""green""> Bonus : $10 </font>
            </div>
        </div>
    
            <div> Please press any key to continue to the next image.</div>
        ","arrowleft","ITI","","","","","","",""
"","","","","","html-keyboard-response","72","146530","0.0-7.3-1.3","612d68db25f37c6d62dfc3f7","655cb802637e0dbe2941dbc4","655cb8c5b40eac52ac2dffa4","null","
        
        <div style=""text-align: center; position: fixed; top: 5vh; left: 40vw;"">
            <div style=""margin:0 auto; width: 20vw; top: 8vh; font-size: 2vw""> 
            <font color=""green""> Bonus : $10 </font>
            </div>
        </div>
    
        <img class=""stim"" src=./stimuli//pack_shapes_diff/cat_1/diff_1/ex_1_1_8.png></img>
    ","null","stimulus","","","","","","",""
"","","","","","html-keyboard-response","73","147536","0.0-7.3-2.3","612d68db25f37c6d62dfc3f7","655cb802637e0dbe2941dbc4","655cb8c5b40eac52ac2dffa4","null","
        <div style=""text-align: center; position: fixed; top: 5vh; left: 40vw;"">
            <div style=""margin:0 auto; width: 20vw; top: 8vh; font-size: 2vw""> 
            <font color=""green""> Bonus : $10 </font>
            </div>
        </div>
    ","null","","","","","","","",""
"","","","","","html-keyboard-response","74","147974","0.0-7.3-3.3","612d68db25f37c6d62dfc3f7","655cb802637e0dbe2941dbc4","655cb8c5b40eac52ac2dffa4","438","./stimuli//pack_shapes_diff/cat_1/diff_1/ex_1_1_8.png","arrowleft","response","ArrowLeft","8","1","1","test","true",""
"","","","","","html-keyboard-response","75","149477","0.0-7.3-4.3","612d68db25f37c6d62dfc3f7","655cb802637e0dbe2941dbc4","655cb8c5b40eac52ac2dffa4","null","<p> <font color=""green"" size=""5vw""> Correct category! </font></p>","null","feedback","","","","","","","10"
"","","","","","html-keyboard-response","76","150176","0.0-7.4-0.4","612d68db25f37c6d62dfc3f7","655cb802637e0dbe2941dbc4","655cb8c5b40eac52ac2dffa4","699","
            
        <div style=""text-align: center; position: fixed; top: 5vh; left: 40vw;"">
            <div style=""margin:0 auto; width: 20vw; top: 8vh; font-size: 2vw""> 
            <font color=""green""> Bonus : $10 </font>
            </div>
        </div>
    
            <div> Please press any key to continue to the next image.</div>
        ","arrowleft","ITI","","","","","","",""
"","","","","","html-keyboard-response","77","150780","0.0-7.4-1.4","612d68db25f37c6d62dfc3f7","655cb802637e0dbe2941dbc4","655cb8c5b40eac52ac2dffa4","null","
        
        <div style=""text-align: center; position: fixed; top: 5vh; left: 40vw;"">
            <div style=""margin:0 auto; width: 20vw; top: 8vh; font-size: 2vw""> 
            <font color=""green""> Bonus : $10 </font>
            </div>
        </div>
    
        <img class=""stim"" src=./stimuli//pack_shapes_diff/cat_2/diff_1/ex_2_1_13.png></img>
    ","null","stimulus","","","","","","",""
"","","","","","html-keyboard-response","78","151786","0.0-7.4-2.4","612d68db25f37c6d62dfc3f7","655cb802637e0dbe2941dbc4","655cb8c5b40eac52ac2dffa4","null","
        <div style=""text-align: center; position: fixed; top: 5vh; left: 40vw;"">
            <div style=""margin:0 auto; width: 20vw; top: 8vh; font-size: 2vw""> 
            <font color=""green""> Bonus : $10 </font>
            </div>
        </div>
    ","null","","","","","","","",""
"","","","","","html-keyboard-response","79","152706","0.0-7.4-3.4","612d68db25f37c6d62dfc3f7","655cb802637e0dbe2941dbc4","655cb8c5b40eac52ac2dffa4","920","./stimuli//pack_shapes_diff/cat_2/diff_1/ex_2_1_13.png","arrowright","response","ArrowRight","13","2","1","test","true",""
"","","","","","html-keyboard-response","80","154207","0.0-7.4-4.4","612d68db25f37c6d62dfc3f7","655cb802637e0dbe2941dbc4","655cb8c5b40eac52ac2dffa4","null","<p> <font color=""green"" size=""5vw""> Correct category! </font></p>","null","feedback","","","","","","","10"
"","","","","","html-keyboard-response","81","155059","0.0-7.5-0.5","612d68db25f37c6d62dfc3f7","655cb802637e0dbe2941dbc4","655cb8c5b40eac52ac2dffa4","852","
            
        <div style=""text-align: center; position: fixed; top: 5vh; left: 40vw;"">
            <div style=""margin:0 auto; width: 20vw; top: 8vh; font-size: 2vw""> 
            <font color=""green""> Bonus : $10 </font>
            </div>
        </div>
    
            <div> Please press any key to continue to the next image.</div>
        ","arrowright","ITI","","","","","","",""
"","","","","","html-keyboard-response","82","155663","0.0-7.5-1.5","612d68db25f37c6d62dfc3f7","655cb802637e0dbe2941dbc4","655cb8c5b40eac52ac2dffa4","null","
        
        <div style=""text-align: center; position: fixed; top: 5vh; left: 40vw;"">
            <div style=""margin:0 auto; width: 20vw; top: 8vh; font-size: 2vw""> 
            <font color=""green""> Bonus : $10 </font>
            </div>
        </div>
    
        <img class=""stim"" src=./stimuli//pack_shapes_diff/cat_1/diff_2/ex_1_2_3.png></img>
    ","null","stimulus","","","","","","",""
"","","","","","html-keyboard-response","83","156667","0.0-7.5-2.5","612d68db25f37c6d62dfc3f7","655cb802637e0dbe2941dbc4","655cb8c5b40eac52ac2dffa4","null","
        <div style=""text-align: center; position: fixed; top: 5vh; left: 40vw;"">
            <div style=""margin:0 auto; width: 20vw; top: 8vh; font-size: 2vw""> 
            <font color=""green""> Bonus : $10 </font>
            </div>
        </div>
    ","null","","","","","","","",""
"","","","","","html-keyboard-response","84","157160","0.0-7.5-3.5","612d68db25f37c6d62dfc3f7","655cb802637e0dbe2941dbc4","655cb8c5b40eac52ac2dffa4","492","./stimuli//pack_shapes_diff/cat_1/diff_2/ex_1_2_3.png","arrowleft","response","ArrowLeft","3","1","2","test","true",""
"","","","","","html-keyboard-response","85","158663","0.0-7.5-4.5","612d68db25f37c6d62dfc3f7","655cb802637e0dbe2941dbc4","655cb8c5b40eac52ac2dffa4","null","<p> <font color=""green"" size=""5vw""> Correct category! </font></p>","null","feedback","","","","","","","10"
"","","","","","html-keyboard-response","86","159375","0.0-7.6-0.6","612d68db25f37c6d62dfc3f7","655cb802637e0dbe2941dbc4","655cb8c5b40eac52ac2dffa4","711","
            
        <div style=""text-align: center; position: fixed; top: 5vh; left: 40vw;"">
            <div style=""margin:0 auto; width: 20vw; top: 8vh; font-size: 2vw""> 
            <font color=""green""> Bonus : $10 </font>
            </div>
        </div>
    
            <div> Please press any key to continue to the next image.</div>
        ","arrowleft","ITI","","","","","","",""
"","","","","","html-keyboard-response","87","159978","0.0-7.6-1.6","612d68db25f37c6d62dfc3f7","655cb802637e0dbe2941dbc4","655cb8c5b40eac52ac2dffa4","null","
        
        <div style=""text-align: center; position: fixed; top: 5vh; left: 40vw;"">
            <div style=""margin:0 auto; width: 20vw; top: 8vh; font-size: 2vw""> 
            <font color=""green""> Bonus : $10 </font>
            </div>
        </div>
    
        <img class=""stim"" src=./stimuli//pack_shapes_diff/cat_2/diff_2/ex_2_2_5.png></img>
    ","null","stimulus","","","","","","",""
"","","","","","html-keyboard-response","88","160984","0.0-7.6-2.6","612d68db25f37c6d62dfc3f7","655cb802637e0dbe2941dbc4","655cb8c5b40eac52ac2dffa4","null","
        <div style=""text-align: center; position: fixed; top: 5vh; left: 40vw;"">
            <div style=""margin:0 auto; width: 20vw; top: 8vh; font-size: 2vw""> 
            <font color=""green""> Bonus : $10 </font>
            </div>
        </div>
    ","null","","","","","","","",""
"","","","","","html-keyboard-response","89","161548","0.0-7.6-3.6","612d68db25f37c6d62dfc3f7","655cb802637e0dbe2941dbc4","655cb8c5b40eac52ac2dffa4","563","./stimuli//pack_shapes_diff/cat_2/diff_2/ex_2_2_5.png","arrowright","response","ArrowRight","5","2","2","test","true",""
"","","","","","html-keyboard-response","90","163052","0.0-7.6-4.6","612d68db25f37c6d62dfc3f7","655cb802637e0dbe2941dbc4","655cb8c5b40eac52ac2dffa4","null","<p> <font color=""green"" size=""5vw""> Correct category! </font></p>","null","feedback","","","","","","","10"
"","","","","","html-keyboard-response","91","164185","0.0-7.7-0.7","612d68db25f37c6d62dfc3f7","655cb802637e0dbe2941dbc4","655cb8c5b40eac52ac2dffa4","1132","
            
        <div style=""text-align: center; position: fixed; top: 5vh; left: 40vw;"">
            <div style=""margin:0 auto; width: 20vw; top: 8vh; font-size: 2vw""> 
            <font color=""green""> Bonus : $10 </font>
            </div>
        </div>
    
            <div> Please press any key to continue to the next image.</div>
        ","arrowleft","ITI","","","","","","",""
"","","","","","html-keyboard-response","92","164786","0.0-7.7-1.7","612d68db25f37c6d62dfc3f7","655cb802637e0dbe2941dbc4","655cb8c5b40eac52ac2dffa4","null","
        
        <div style=""text-align: center; position: fixed; top: 5vh; left: 40vw;"">
            <div style=""margin:0 auto; width: 20vw; top: 8vh; font-size: 2vw""> 
            <font color=""green""> Bonus : $10 </font>
            </div>
        </div>
    
        <img class=""stim"" src=./stimuli//pack_shapes_diff/cat_2/diff_2/ex_2_2_10.png></img>
    ","null","stimulus","","","","","","",""
"","","","","","html-keyboard-response","93","165790","0.0-7.7-2.7","612d68db25f37c6d62dfc3f7","655cb802637e0dbe2941dbc4","655cb8c5b40eac52ac2dffa4","null","
        <div style=""text-align: center; position: fixed; top: 5vh; left: 40vw;"">
            <div style=""margin:0 auto; width: 20vw; top: 8vh; font-size: 2vw""> 
            <font color=""green""> Bonus : $10 </font>
            </div>
        </div>
    ","null","","","","","","","",""
"","","","","","html-keyboard-response","94","166285","0.0-7.7-3.7","612d68db25f37c6d62dfc3f7","655cb802637e0dbe2941dbc4","655cb8c5b40eac52ac2dffa4","494","./stimuli//pack_shapes_diff/cat_2/diff_2/ex_2_2_10.png","arrowright","response","ArrowRight","10","2","2","test","true",""
"","","","","","html-keyboard-response","95","167786","0.0-7.7-4.7","612d68db25f37c6d62dfc3f7","655cb802637e0dbe2941dbc4","655cb8c5b40eac52ac2dffa4","null","<p> <font color=""green"" size=""5vw""> Correct category! </font></p>","null","feedback","","","","","","","10"
"","","","","","html-keyboard-response","96","168444","0.0-7.8-0.8","612d68db25f37c6d62dfc3f7","655cb802637e0dbe2941dbc4","655cb8c5b40eac52ac2dffa4","657","
            
        <div style=""text-align: center; position: fixed; top: 5vh; left: 40vw;"">
            <div style=""margin:0 auto; width: 20vw; top: 8vh; font-size: 2vw""> 
            <font color=""green""> Bonus : $10 </font>
            </div>
        </div>
    
            <div> Please press any key to continue to the next image.</div>
        ","arrowleft","ITI","","","","","","",""
"","","","","","html-keyboard-response","97","169049","0.0-7.8-1.8","612d68db25f37c6d62dfc3f7","655cb802637e0dbe2941dbc4","655cb8c5b40eac52ac2dffa4","null","
        
        <div style=""text-align: center; position: fixed; top: 5vh; left: 40vw;"">
            <div style=""margin:0 auto; width: 20vw; top: 8vh; font-size: 2vw""> 
            <font color=""green""> Bonus : $10 </font>
            </div>
        </div>
    
        <img class=""stim"" src=./stimuli//pack_shapes_diff/cat_2/diff_2/ex_2_2_4.png></img>
    ","null","stimulus","","","","","","",""
"","","","","","html-keyboard-response","98","170052","0.0-7.8-2.8","612d68db25f37c6d62dfc3f7","655cb802637e0dbe2941dbc4","655cb8c5b40eac52ac2dffa4","null","
        <div style=""text-align: center; position: fixed; top: 5vh; left: 40vw;"">
            <div style=""margin:0 auto; width: 20vw; top: 8vh; font-size: 2vw""> 
            <font color=""green""> Bonus : $10 </font>
            </div>
        </div>
    ","null","","","","","","","",""
"","","","","","html-keyboard-response","99","170427","0.0-7.8-3.8","612d68db25f37c6d62dfc3f7","655cb802637e0dbe2941dbc4","655cb8c5b40eac52ac2dffa4","374","./stimuli//pack_shapes_diff/cat_2/diff_2/ex_2_2_4.png","arrowright","response","ArrowRight","4","2","2","test","true",""
"","","","","","html-keyboard-response","100","171934","0.0-7.8-4.8","612d68db25f37c6d62dfc3f7","655cb802637e0dbe2941dbc4","655cb8c5b40eac52ac2dffa4","null","<p> <font color=""green"" size=""5vw""> Correct category! </font></p>","null","feedback","","","","","","","10"
"","","","","","html-keyboard-response","101","172991","0.0-7.9-0.9","612d68db25f37c6d62dfc3f7","655cb802637e0dbe2941dbc4","655cb8c5b40eac52ac2dffa4","1057","
            
        <div style=""text-align: center; position: fixed; top: 5vh; left: 40vw;"">
            <div style=""margin:0 auto; width: 20vw; top: 8vh; font-size: 2vw""> 
            <font color=""green""> Bonus : $10 </font>
            </div>
        </div>
    
            <div> Please press any key to continue to the next image.</div>
        ","arrowleft","ITI","","","","","","",""
"","","","","","html-keyboard-response","102","173593","0.0-7.9-1.9","612d68db25f37c6d62dfc3f7","655cb802637e0dbe2941dbc4","655cb8c5b40eac52ac2dffa4","null","
        
        <div style=""text-align: center; position: fixed; top: 5vh; left: 40vw;"">
            <div style=""margin:0 auto; width: 20vw; top: 8vh; font-size: 2vw""> 
            <font color=""green""> Bonus : $10 </font>
            </div>
        </div>
    
        <img class=""stim"" src=./stimuli//pack_shapes_diff/cat_1/diff_2/ex_1_2_2.png></img>
    ","null","stimulus","","","","","","",""
"","","","","","html-keyboard-response","103","174597","0.0-7.9-2.9","612d68db25f37c6d62dfc3f7","655cb802637e0dbe2941dbc4","655cb8c5b40eac52ac2dffa4","null","
        <div style=""text-align: center; position: fixed; top: 5vh; left: 40vw;"">
            <div style=""margin:0 auto; width: 20vw; top: 8vh; font-size: 2vw""> 
            <font color=""green""> Bonus : $10 </font>
            </div>
        </div>
    ","null","","","","","","","",""
"","","","","","html-keyboard-response","104","175029","0.0-7.9-3.9","612d68db25f37c6d62dfc3f7","655cb802637e0dbe2941dbc4","655cb8c5b40eac52ac2dffa4","430","./stimuli//pack_shapes_diff/cat_1/diff_2/ex_1_2_2.png","arrowleft","response","ArrowLeft","2","1","2","test","true",""
"","","","","","html-keyboard-response","105","176534","0.0-7.9-4.9","612d68db25f37c6d62dfc3f7","655cb802637e0dbe2941dbc4","655cb8c5b40eac52ac2dffa4","null","<p> <font color=""green"" size=""5vw""> Correct category! </font></p>","null","feedback","","","","","","","10"
"","","","","","html-keyboard-response","106","177294","0.0-7.10-0.10","612d68db25f37c6d62dfc3f7","655cb802637e0dbe2941dbc4","655cb8c5b40eac52ac2dffa4","759","
            
        <div style=""text-align: center; position: fixed; top: 5vh; left: 40vw;"">
            <div style=""margin:0 auto; width: 20vw; top: 8vh; font-size: 2vw""> 
            <font color=""green""> Bonus : $10 </font>
            </div>
        </div>
    
            <div> Please press any key to continue to the next image.</div>
        ","arrowleft","ITI","","","","","","",""
"","","","","","html-keyboard-response","107","177896","0.0-7.10-1.10","612d68db25f37c6d62dfc3f7","655cb802637e0dbe2941dbc4","655cb8c5b40eac52ac2dffa4","null","
        
        <div style=""text-align: center; position: fixed; top: 5vh; left: 40vw;"">
            <div style=""margin:0 auto; width: 20vw; top: 8vh; font-size: 2vw""> 
            <font color=""green""> Bonus : $10 </font>
            </div>
        </div>
    
        <img class=""stim"" src=./stimuli//pack_shapes_diff/cat_1/diff_3/ex_1_3_4.png></img>
    ","null","stimulus","","","","","","",""
"","","","","","html-keyboard-response","108","178902","0.0-7.10-2.10","612d68db25f37c6d62dfc3f7","655cb802637e0dbe2941dbc4","655cb8c5b40eac52ac2dffa4","null","
        <div style=""text-align: center; position: fixed; top: 5vh; left: 40vw;"">
            <div style=""margin:0 auto; width: 20vw; top: 8vh; font-size: 2vw""> 
            <font color=""green""> Bonus : $10 </font>
            </div>
        </div>
    ","null","","","","","","","",""
"","","","","","html-keyboard-response","109","179327","0.0-7.10-3.10","612d68db25f37c6d62dfc3f7","655cb802637e0dbe2941dbc4","655cb8c5b40eac52ac2dffa4","425","./stimuli//pack_shapes_diff/cat_1/diff_3/ex_1_3_4.png","arrowleft","response","ArrowLeft","4","1","3","test","true",""
"","","","","","html-keyboard-response","110","180834","0.0-7.10-4.10","612d68db25f37c6d62dfc3f7","655cb802637e0dbe2941dbc4","655cb8c5b40eac52ac2dffa4","null","<p> <font color=""green"" size=""5vw""> Correct category! </font></p>","null","feedback","","","","","","","10"
"","","","","","html-keyboard-response","111","181585","0.0-7.11-0.11","612d68db25f37c6d62dfc3f7","655cb802637e0dbe2941dbc4","655cb8c5b40eac52ac2dffa4","750","
            
        <div style=""text-align: center; position: fixed; top: 5vh; left: 40vw;"">
            <div style=""margin:0 auto; width: 20vw; top: 8vh; font-size: 2vw""> 
            <font color=""green""> Bonus : $10 </font>
            </div>
        </div>
    
            <div> Please press any key to continue to the next image.</div>
        ","arrowleft","ITI","","","","","","",""
"","","","","","html-keyboard-response","112","182185","0.0-7.11-1.11","612d68db25f37c6d62dfc3f7","655cb802637e0dbe2941dbc4","655cb8c5b40eac52ac2dffa4","null","
        
        <div style=""text-align: center; position: fixed; top: 5vh; left: 40vw;"">
            <div style=""margin:0 auto; width: 20vw; top: 8vh; font-size: 2vw""> 
            <font color=""green""> Bonus : $10 </font>
            </div>
        </div>
    
        <img class=""stim"" src=./stimuli//pack_shapes_diff/cat_1/diff_3/ex_1_3_9.png></img>
    ","null","stimulus","","","","","","",""
"","","","","","html-keyboard-response","113","183190","0.0-7.11-2.11","612d68db25f37c6d62dfc3f7","655cb802637e0dbe2941dbc4","655cb8c5b40eac52ac2dffa4","null","
        <div style=""text-align: center; position: fixed; top: 5vh; left: 40vw;"">
            <div style=""margin:0 auto; width: 20vw; top: 8vh; font-size: 2vw""> 
            <font color=""green""> Bonus : $10 </font>
            </div>
        </div>
    ","null","","","","","","","",""
"","","","","","html-keyboard-response","114","183620","0.0-7.11-3.11","612d68db25f37c6d62dfc3f7","655cb802637e0dbe2941dbc4","655cb8c5b40eac52ac2dffa4","430","./stimuli//pack_shapes_diff/cat_1/diff_3/ex_1_3_9.png","arrowleft","response","ArrowLeft","9","1","3","test","true",""
"","","","","","html-keyboard-response","115","185126","0.0-7.11-4.11","612d68db25f37c6d62dfc3f7","655cb802637e0dbe2941dbc4","655cb8c5b40eac52ac2dffa4","null","<p> <font color=""green"" size=""5vw""> Correct category! </font></p>","null","feedback","","","","","","","10"
"","","","","","html-keyboard-response","116","185692","0.0-7.12-0.12","612d68db25f37c6d62dfc3f7","655cb802637e0dbe2941dbc4","655cb8c5b40eac52ac2dffa4","565","
            
        <div style=""text-align: center; position: fixed; top: 5vh; left: 40vw;"">
            <div style=""margin:0 auto; width: 20vw; top: 8vh; font-size: 2vw""> 
            <font color=""green""> Bonus : $10 </font>
            </div>
        </div>
    
            <div> Please press any key to continue to the next image.</div>
        ","arrowleft","ITI","","","","","","",""
"","","","","","html-keyboard-response","117","186296","0.0-7.12-1.12","612d68db25f37c6d62dfc3f7","655cb802637e0dbe2941dbc4","655cb8c5b40eac52ac2dffa4","null","
        
        <div style=""text-align: center; position: fixed; top: 5vh; left: 40vw;"">
            <div style=""margin:0 auto; width: 20vw; top: 8vh; font-size: 2vw""> 
            <font color=""green""> Bonus : $10 </font>
            </div>
        </div>
    
        <img class=""stim"" src=./stimuli//pack_shapes_diff/cat_1/diff_3/ex_1_3_7.png></img>
    ","null","stimulus","","","","","","",""
"","","","","","html-keyboard-response","118","187302","0.0-7.12-2.12","612d68db25f37c6d62dfc3f7","655cb802637e0dbe2941dbc4","655cb8c5b40eac52ac2dffa4","null","
        <div style=""text-align: center; position: fixed; top: 5vh; left: 40vw;"">
            <div style=""margin:0 auto; width: 20vw; top: 8vh; font-size: 2vw""> 
            <font color=""green""> Bonus : $10 </font>
            </div>
        </div>
    ","null","","","","","","","",""
"","","","","","html-keyboard-response","119","187654","0.0-7.12-3.12","612d68db25f37c6d62dfc3f7","655cb802637e0dbe2941dbc4","655cb8c5b40eac52ac2dffa4","351","./stimuli//pack_shapes_diff/cat_1/diff_3/ex_1_3_7.png","arrowleft","response","ArrowLeft","7","1","3","test","true",""
"","","","","","html-keyboard-response","120","189158","0.0-7.12-4.12","612d68db25f37c6d62dfc3f7","655cb802637e0dbe2941dbc4","655cb8c5b40eac52ac2dffa4","null","<p> <font color=""green"" size=""5vw""> Correct category! </font></p>","null","feedback","","","","","","","10"
"","","","","","html-keyboard-response","121","189684","0.0-7.13-0.13","612d68db25f37c6d62dfc3f7","655cb802637e0dbe2941dbc4","655cb8c5b40eac52ac2dffa4","525","
            
        <div style=""text-align: center; position: fixed; top: 5vh; left: 40vw;"">
            <div style=""margin:0 auto; width: 20vw; top: 8vh; font-size: 2vw""> 
            <font color=""green""> Bonus : $10 </font>
            </div>
        </div>
    
            <div> Please press any key to continue to the next image.</div>
        ","arrowleft","ITI","","","","","","",""
"","","","","","html-keyboard-response","122","190289","0.0-7.13-1.13","612d68db25f37c6d62dfc3f7","655cb802637e0dbe2941dbc4","655cb8c5b40eac52ac2dffa4","null","
        
        <div style=""text-align: center; position: fixed; top: 5vh; left: 40vw;"">
            <div style=""margin:0 auto; width: 20vw; top: 8vh; font-size: 2vw""> 
            <font color=""green""> Bonus : $10 </font>
            </div>
        </div>
    
        <img class=""stim"" src=./stimuli//pack_shapes_diff/cat_1/diff_3/ex_1_3_9.png></img>
    ","null","stimulus","","","","","","",""
"","","","","","html-keyboard-response","123","191294","0.0-7.13-2.13","612d68db25f37c6d62dfc3f7","655cb802637e0dbe2941dbc4","655cb8c5b40eac52ac2dffa4","null","
        <div style=""text-align: center; position: fixed; top: 5vh; left: 40vw;"">
            <div style=""margin:0 auto; width: 20vw; top: 8vh; font-size: 2vw""> 
            <font color=""green""> Bonus : $10 </font>
            </div>
        </div>
    ","null","","","","","","","",""
"","","","","","html-keyboard-response","124","191700","0.0-7.13-3.13","612d68db25f37c6d62dfc3f7","655cb802637e0dbe2941dbc4","655cb8c5b40eac52ac2dffa4","405","./stimuli//pack_shapes_diff/cat_1/diff_3/ex_1_3_9.png","arrowleft","response","ArrowLeft","9","1","3","test","true",""
"","","","","","html-keyboard-response","125","193204","0.0-7.13-4.13","612d68db25f37c6d62dfc3f7","655cb802637e0dbe2941dbc4","655cb8c5b40eac52ac2dffa4","null","<p> <font color=""green"" size=""5vw""> Correct category! </font></p>","null","feedback","","","","","","","10"
"","","","","","html-keyboard-response","126","193766","0.0-7.14-0.14","612d68db25f37c6d62dfc3f7","655cb802637e0dbe2941dbc4","655cb8c5b40eac52ac2dffa4","561","
            
        <div style=""text-align: center; position: fixed; top: 5vh; left: 40vw;"">
            <div style=""margin:0 auto; width: 20vw; top: 8vh; font-size: 2vw""> 
            <font color=""green""> Bonus : $10 </font>
            </div>
        </div>
    
            <div> Please press any key to continue to the next image.</div>
        ","arrowleft","ITI","","","","","","",""
"","","","","","html-keyboard-response","127","194371","0.0-7.14-1.14","612d68db25f37c6d62dfc3f7","655cb802637e0dbe2941dbc4","655cb8c5b40eac52ac2dffa4","null","
        
        <div style=""text-align: center; position: fixed; top: 5vh; left: 40vw;"">
            <div style=""margin:0 auto; width: 20vw; top: 8vh; font-size: 2vw""> 
            <font color=""green""> Bonus : $10 </font>
            </div>
        </div>
    
        <img class=""stim"" src=./stimuli//pack_shapes_diff/cat_2/diff_3/ex_2_3_10.png></img>
    ","null","stimulus","","","","","","",""
"","","","","","html-keyboard-response","128","195372","0.0-7.14-2.14","612d68db25f37c6d62dfc3f7","655cb802637e0dbe2941dbc4","655cb8c5b40eac52ac2dffa4","null","
        <div style=""text-align: center; position: fixed; top: 5vh; left: 40vw;"">
            <div style=""margin:0 auto; width: 20vw; top: 8vh; font-size: 2vw""> 
            <font color=""green""> Bonus : $10 </font>
            </div>
        </div>
    ","null","","","","","","","",""
"","","","","","html-keyboard-response","129","195945","0.0-7.14-3.14","612d68db25f37c6d62dfc3f7","655cb802637e0dbe2941dbc4","655cb8c5b40eac52ac2dffa4","573","./stimuli//pack_shapes_diff/cat_2/diff_3/ex_2_3_10.png","arrowright","response","ArrowRight","10","2","3","test","true",""
"","","","","","html-keyboard-response","130","197451","0.0-7.14-4.14","612d68db25f37c6d62dfc3f7","655cb802637e0dbe2941dbc4","655cb8c5b40eac52ac2dffa4","null","<p> <font color=""green"" size=""5vw""> Correct category! </font></p>","null","feedback","","","","","","","10"
"","","","","","html-keyboard-response","131","198021","0.0-7.15-0.15","612d68db25f37c6d62dfc3f7","655cb802637e0dbe2941dbc4","655cb8c5b40eac52ac2dffa4","570","
            
        <div style=""text-align: center; position: fixed; top: 5vh; left: 40vw;"">
            <div style=""margin:0 auto; width: 20vw; top: 8vh; font-size: 2vw""> 
            <font color=""green""> Bonus : $10 </font>
            </div>
        </div>
    
            <div> Please press any key to continue to the next image.</div>
        ","arrowleft","ITI","","","","","","",""
"","","","","","html-keyboard-response","132","198624","0.0-7.15-1.15","612d68db25f37c6d62dfc3f7","655cb802637e0dbe2941dbc4","655cb8c5b40eac52ac2dffa4","null","
        
        <div style=""text-align: center; position: fixed; top: 5vh; left: 40vw;"">
            <div style=""margin:0 auto; width: 20vw; top: 8vh; font-size: 2vw""> 
            <font color=""green""> Bonus : $10 </font>
            </div>
        </div>
    
        <img class=""stim"" src=./stimuli//pack_shapes_diff/cat_2/diff_4/ex_2_4_4.png></img>
    ","null","stimulus","","","","","","",""
"","","","","","html-keyboard-response","133","199629","0.0-7.15-2.15","612d68db25f37c6d62dfc3f7","655cb802637e0dbe2941dbc4","655cb8c5b40eac52ac2dffa4","null","
        <div style=""text-align: center; position: fixed; top: 5vh; left: 40vw;"">
            <div style=""margin:0 auto; width: 20vw; top: 8vh; font-size: 2vw""> 
            <font color=""green""> Bonus : $10 </font>
            </div>
        </div>
    ","null","","","","","","","",""
"","","","","","html-keyboard-response","134","200085","0.0-7.15-3.15","612d68db25f37c6d62dfc3f7","655cb802637e0dbe2941dbc4","655cb8c5b40eac52ac2dffa4","455","./stimuli//pack_shapes_diff/cat_2/diff_4/ex_2_4_4.png","arrowright","response","ArrowRight","4","2","4","test","true",""
"","","","","","html-keyboard-response","135","201588","0.0-7.15-4.15","612d68db25f37c6d62dfc3f7","655cb802637e0dbe2941dbc4","655cb8c5b40eac52ac2dffa4","null","<p> <font color=""green"" size=""5vw""> Correct category! </font></p>","null","feedback","","","","","","","10"
"","","","","","html-keyboard-response","136","202082","0.0-7.16-0.16","612d68db25f37c6d62dfc3f7","655cb802637e0dbe2941dbc4","655cb8c5b40eac52ac2dffa4","494","
            
        <div style=""text-align: center; position: fixed; top: 5vh; left: 40vw;"">
            <div style=""margin:0 auto; width: 20vw; top: 8vh; font-size: 2vw""> 
            <font color=""green""> Bonus : $10 </font>
            </div>
        </div>
    
            <div> Please press any key to continue to the next image.</div>
        ","arrowleft","ITI","","","","","","",""
"","","","","","html-keyboard-response","137","202685","0.0-7.16-1.16","612d68db25f37c6d62dfc3f7","655cb802637e0dbe2941dbc4","655cb8c5b40eac52ac2dffa4","null","
        
        <div style=""text-align: center; position: fixed; top: 5vh; left: 40vw;"">
            <div style=""margin:0 auto; width: 20vw; top: 8vh; font-size: 2vw""> 
            <font color=""green""> Bonus : $10 </font>
            </div>
        </div>
    
        <img class=""stim"" src=./stimuli//pack_shapes_diff/cat_2/diff_4/ex_2_4_1.png></img>
    ","null","stimulus","","","","","","",""
"","","","","","html-keyboard-response","138","203689","0.0-7.16-2.16","612d68db25f37c6d62dfc3f7","655cb802637e0dbe2941dbc4","655cb8c5b40eac52ac2dffa4","null","
        <div style=""text-align: center; position: fixed; top: 5vh; left: 40vw;"">
            <div style=""margin:0 auto; width: 20vw; top: 8vh; font-size: 2vw""> 
            <font color=""green""> Bonus : $10 </font>
            </div>
        </div>
    ","null","","","","","","","",""
"","","","","","html-keyboard-response","139","204207","0.0-7.16-3.16","612d68db25f37c6d62dfc3f7","655cb802637e0dbe2941dbc4","655cb8c5b40eac52ac2dffa4","517","./stimuli//pack_shapes_diff/cat_2/diff_4/ex_2_4_1.png","arrowright","response","ArrowRight","1","2","4","test","true",""
"","","","","","html-keyboard-response","140","205713","0.0-7.16-4.16","612d68db25f37c6d62dfc3f7","655cb802637e0dbe2941dbc4","655cb8c5b40eac52ac2dffa4","null","<p> <font color=""green"" size=""5vw""> Correct category! </font></p>","null","feedback","","","","","","","10"
"","","","","","html-keyboard-response","141","206321","0.0-7.17-0.17","612d68db25f37c6d62dfc3f7","655cb802637e0dbe2941dbc4","655cb8c5b40eac52ac2dffa4","607","
            
        <div style=""text-align: center; position: fixed; top: 5vh; left: 40vw;"">
            <div style=""margin:0 auto; width: 20vw; top: 8vh; font-size: 2vw""> 
            <font color=""green""> Bonus : $10 </font>
            </div>
        </div>
    
            <div> Please press any key to continue to the next image.</div>
        ","arrowleft","ITI","","","","","","",""
"","","","","","html-keyboard-response","142","206927","0.0-7.17-1.17","612d68db25f37c6d62dfc3f7","655cb802637e0dbe2941dbc4","655cb8c5b40eac52ac2dffa4","null","
        
        <div style=""text-align: center; position: fixed; top: 5vh; left: 40vw;"">
            <div style=""margin:0 auto; width: 20vw; top: 8vh; font-size: 2vw""> 
            <font color=""green""> Bonus : $10 </font>
            </div>
        </div>
    
        <img class=""stim"" src=./stimuli//pack_shapes_diff/cat_2/diff_4/ex_2_4_1.png></img>
    ","null","stimulus","","","","","","",""
"","","","","","html-keyboard-response","143","207931","0.0-7.17-2.17","612d68db25f37c6d62dfc3f7","655cb802637e0dbe2941dbc4","655cb8c5b40eac52ac2dffa4","null","
        <div style=""text-align: center; position: fixed; top: 5vh; left: 40vw;"">
            <div style=""margin:0 auto; width: 20vw; top: 8vh; font-size: 2vw""> 
            <font color=""green""> Bonus : $10 </font>
            </div>
        </div>
    ","null","","","","","","","",""
"","","","","","html-keyboard-response","144","208316","0.0-7.17-3.17","612d68db25f37c6d62dfc3f7","655cb802637e0dbe2941dbc4","655cb8c5b40eac52ac2dffa4","384","./stimuli//pack_shapes_diff/cat_2/diff_4/ex_2_4_1.png","arrowright","response","ArrowRight","1","2","4","test","true",""
"","","","","","html-keyboard-response","145","209819","0.0-7.17-4.17","612d68db25f37c6d62dfc3f7","655cb802637e0dbe2941dbc4","655cb8c5b40eac52ac2dffa4","null","<p> <font color=""green"" size=""5vw""> Correct category! </font></p>","null","feedback","","","","","","","10"
"","","","","","html-keyboard-response","146","210488","0.0-7.18-0.18","612d68db25f37c6d62dfc3f7","655cb802637e0dbe2941dbc4","655cb8c5b40eac52ac2dffa4","668","
            
        <div style=""text-align: center; position: fixed; top: 5vh; left: 40vw;"">
            <div style=""margin:0 auto; width: 20vw; top: 8vh; font-size: 2vw""> 
            <font color=""green""> Bonus : $10 </font>
            </div>
        </div>
    
            <div> Please press any key to continue to the next image.</div>
        ","arrowleft","ITI","","","","","","",""
"","","","","","html-keyboard-response","147","211089","0.0-7.18-1.18","612d68db25f37c6d62dfc3f7","655cb802637e0dbe2941dbc4","655cb8c5b40eac52ac2dffa4","null","
        
        <div style=""text-align: center; position: fixed; top: 5vh; left: 40vw;"">
            <div style=""margin:0 auto; width: 20vw; top: 8vh; font-size: 2vw""> 
            <font color=""green""> Bonus : $10 </font>
            </div>
        </div>
    
        <img class=""stim"" src=./stimuli//pack_shapes_diff/cat_1/diff_4/ex_1_4_11.png></img>
    ","null","stimulus","","","","","","",""
"","","","","","html-keyboard-response","148","212094","0.0-7.18-2.18","612d68db25f37c6d62dfc3f7","655cb802637e0dbe2941dbc4","655cb8c5b40eac52ac2dffa4","null","
        <div style=""text-align: center; position: fixed; top: 5vh; left: 40vw;"">
            <div style=""margin:0 auto; width: 20vw; top: 8vh; font-size: 2vw""> 
            <font color=""green""> Bonus : $10 </font>
            </div>
        </div>
    ","null","","","","","","","",""
"","","","","","html-keyboard-response","149","212739","0.0-7.18-3.18","612d68db25f37c6d62dfc3f7","655cb802637e0dbe2941dbc4","655cb8c5b40eac52ac2dffa4","644","./stimuli//pack_shapes_diff/cat_1/diff_4/ex_1_4_11.png","arrowleft","response","ArrowLeft","11","1","4","test","true",""
"","","","","","html-keyboard-response","150","214245","0.0-7.18-4.18","612d68db25f37c6d62dfc3f7","655cb802637e0dbe2941dbc4","655cb8c5b40eac52ac2dffa4","null","<p> <font color=""green"" size=""5vw""> Correct category! </font></p>","null","feedback","","","","","","","10"
"","","","","","html-keyboard-response","151","214793","0.0-7.19-0.19","612d68db25f37c6d62dfc3f7","655cb802637e0dbe2941dbc4","655cb8c5b40eac52ac2dffa4","547","
            
        <div style=""text-align: center; position: fixed; top: 5vh; left: 40vw;"">
            <div style=""margin:0 auto; width: 20vw; top: 8vh; font-size: 2vw""> 
            <font color=""green""> Bonus : $10 </font>
            </div>
        </div>
    
            <div> Please press any key to continue to the next image.</div>
        ","arrowleft","ITI","","","","","","",""
"","","","","","html-keyboard-response","152","215397","0.0-7.19-1.19","612d68db25f37c6d62dfc3f7","655cb802637e0dbe2941dbc4","655cb8c5b40eac52ac2dffa4","null","
        
        <div style=""text-align: center; position: fixed; top: 5vh; left: 40vw;"">
            <div style=""margin:0 auto; width: 20vw; top: 8vh; font-size: 2vw""> 
            <font color=""green""> Bonus : $10 </font>
            </div>
        </div>
    
        <img class=""stim"" src=./stimuli//pack_shapes_diff/cat_1/diff_4/ex_1_4_1.png></img>
    ","null","stimulus","","","","","","",""
"","","","","","html-keyboard-response","153","216401","0.0-7.19-2.19","612d68db25f37c6d62dfc3f7","655cb802637e0dbe2941dbc4","655cb8c5b40eac52ac2dffa4","null","
        <div style=""text-align: center; position: fixed; top: 5vh; left: 40vw;"">
            <div style=""margin:0 auto; width: 20vw; top: 8vh; font-size: 2vw""> 
            <font color=""green""> Bonus : $10 </font>
            </div>
        </div>
    ","null","","","","","","","",""
"","","","","","html-keyboard-response","154","216804","0.0-7.19-3.19","612d68db25f37c6d62dfc3f7","655cb802637e0dbe2941dbc4","655cb8c5b40eac52ac2dffa4","402","./stimuli//pack_shapes_diff/cat_1/diff_4/ex_1_4_1.png","arrowleft","response","ArrowLeft","1","1","4","test","true",""
"","","","","","html-keyboard-response","155","218306","0.0-7.19-4.19","612d68db25f37c6d62dfc3f7","655cb802637e0dbe2941dbc4","655cb8c5b40eac52ac2dffa4","null","<p> <font color=""green"" size=""5vw""> Correct category! </font></p>","null","feedback","","","","","","","10"
"","","","","","html-keyboard-response","156","219269","0.0-7.20-0.20","612d68db25f37c6d62dfc3f7","655cb802637e0dbe2941dbc4","655cb8c5b40eac52ac2dffa4","962","
            
        <div style=""text-align: center; position: fixed; top: 5vh; left: 40vw;"">
            <div style=""margin:0 auto; width: 20vw; top: 8vh; font-size: 2vw""> 
            <font color=""green""> Bonus : $10 </font>
            </div>
        </div>
    
            <div> Please press any key to continue to the next image.</div>
        ","arrowleft","ITI","","","","","","",""
"","","","","","html-keyboard-response","157","219870","0.0-7.20-1.20","612d68db25f37c6d62dfc3f7","655cb802637e0dbe2941dbc4","655cb8c5b40eac52ac2dffa4","null","
        
        <div style=""text-align: center; position: fixed; top: 5vh; left: 40vw;"">
            <div style=""margin:0 auto; width: 20vw; top: 8vh; font-size: 2vw""> 
            <font color=""green""> Bonus : $10 </font>
            </div>
        </div>
    
        <img class=""stim"" src=./stimuli//pack_shapes_diff/cat_2/diff_5/ex_2_5_3.png></img>
    ","null","stimulus","","","","","","",""
"","","","","","html-keyboard-response","158","220872","0.0-7.20-2.20","612d68db25f37c6d62dfc3f7","655cb802637e0dbe2941dbc4","655cb8c5b40eac52ac2dffa4","null","
        <div style=""text-align: center; position: fixed; top: 5vh; left: 40vw;"">
            <div style=""margin:0 auto; width: 20vw; top: 8vh; font-size: 2vw""> 
            <font color=""green""> Bonus : $10 </font>
            </div>
        </div>
    ","null","","","","","","","",""
"","","","","","html-keyboard-response","159","221376","0.0-7.20-3.20","612d68db25f37c6d62dfc3f7","655cb802637e0dbe2941dbc4","655cb8c5b40eac52ac2dffa4","503","./stimuli//pack_shapes_diff/cat_2/diff_5/ex_2_5_3.png","arrowright","response","ArrowRight","3","2","5","test","true",""
"","","","","","html-keyboard-response","160","222879","0.0-7.20-4.20","612d68db25f37c6d62dfc3f7","655cb802637e0dbe2941dbc4","655cb8c5b40eac52ac2dffa4","null","<p> <font color=""green"" size=""5vw""> Correct category! </font></p>","null","feedback","","","","","","","10"
"","","","","","html-keyboard-response","161","223485","0.0-7.21-0.21","612d68db25f37c6d62dfc3f7","655cb802637e0dbe2941dbc4","655cb8c5b40eac52ac2dffa4","605","
            
        <div style=""text-align: center; position: fixed; top: 5vh; left: 40vw;"">
            <div style=""margin:0 auto; width: 20vw; top: 8vh; font-size: 2vw""> 
            <font color=""green""> Bonus : $10 </font>
            </div>
        </div>
    
            <div> Please press any key to continue to the next image.</div>
        ","arrowleft","ITI","","","","","","",""
"","","","","","html-keyboard-response","162","224088","0.0-7.21-1.21","612d68db25f37c6d62dfc3f7","655cb802637e0dbe2941dbc4","655cb8c5b40eac52ac2dffa4","null","
        
        <div style=""text-align: center; position: fixed; top: 5vh; left: 40vw;"">
            <div style=""margin:0 auto; width: 20vw; top: 8vh; font-size: 2vw""> 
            <font color=""green""> Bonus : $10 </font>
            </div>
        </div>
    
        <img class=""stim"" src=./stimuli//pack_shapes_diff/cat_1/diff_5/ex_1_5_17.png></img>
    ","null","stimulus","","","","","","",""
"","","","","","html-keyboard-response","163","225091","0.0-7.21-2.21","612d68db25f37c6d62dfc3f7","655cb802637e0dbe2941dbc4","655cb8c5b40eac52ac2dffa4","null","
        <div style=""text-align: center; position: fixed; top: 5vh; left: 40vw;"">
            <div style=""margin:0 auto; width: 20vw; top: 8vh; font-size: 2vw""> 
            <font color=""green""> Bonus : $10 </font>
            </div>
        </div>
    ","null","","","","","","","",""
"","","","","","html-keyboard-response","164","225634","0.0-7.21-3.21","612d68db25f37c6d62dfc3f7","655cb802637e0dbe2941dbc4","655cb8c5b40eac52ac2dffa4","542","./stimuli//pack_shapes_diff/cat_1/diff_5/ex_1_5_17.png","arrowright","response","ArrowLeft","17","1","5","test","false",""
"","","","","","html-keyboard-response","165","227135","0.0-7.21-4.21","612d68db25f37c6d62dfc3f7","655cb802637e0dbe2941dbc4","655cb8c5b40eac52ac2dffa4","null","<p> <font size=""4vw""> Wrong category! </font> <br> <br> <font color=""red"" size=""7vw""> - $0.05 points </font> </p>","null","feedback","","","","","","","9.95"
"","","","","","html-keyboard-response","166","229144","0.0-7.22-0.22","612d68db25f37c6d62dfc3f7","655cb802637e0dbe2941dbc4","655cb8c5b40eac52ac2dffa4","2008","
            
        <div style=""text-align: center; position: fixed; top: 5vh; left: 40vw;"">
            <div style=""margin:0 auto; width: 20vw; top: 8vh; font-size: 2vw""> 
            <font color=""green""> Bonus : $9.95 </font>
            </div>
        </div>
    
            <div> Please press any key to continue to the next image.</div>
        ","arrowleft","ITI","","","","","","",""
"","","","","","html-keyboard-response","167","229748","0.0-7.22-1.22","612d68db25f37c6d62dfc3f7","655cb802637e0dbe2941dbc4","655cb8c5b40eac52ac2dffa4","null","
        
        <div style=""text-align: center; position: fixed; top: 5vh; left: 40vw;"">
            <div style=""margin:0 auto; width: 20vw; top: 8vh; font-size: 2vw""> 
            <font color=""green""> Bonus : $9.95 </font>
            </div>
        </div>
    
        <img class=""stim"" src=./stimuli//pack_shapes_diff/cat_1/diff_5/ex_1_5_17.png></img>
    ","null","stimulus","","","","","","",""
"","","","","","html-keyboard-response","168","230752","0.0-7.22-2.22","612d68db25f37c6d62dfc3f7","655cb802637e0dbe2941dbc4","655cb8c5b40eac52ac2dffa4","null","
        <div style=""text-align: center; position: fixed; top: 5vh; left: 40vw;"">
            <div style=""margin:0 auto; width: 20vw; top: 8vh; font-size: 2vw""> 
            <font color=""green""> Bonus : $9.95 </font>
            </div>
        </div>
    ","null","","","","","","","",""
"","","","","","html-keyboard-response","169","231172","0.0-7.22-3.22","612d68db25f37c6d62dfc3f7","655cb802637e0dbe2941dbc4","655cb8c5b40eac52ac2dffa4","420","./stimuli//pack_shapes_diff/cat_1/diff_5/ex_1_5_17.png","arrowleft","response","ArrowLeft","17","1","5","test","true",""
"","","","","","html-keyboard-response","170","232677","0.0-7.22-4.22","612d68db25f37c6d62dfc3f7","655cb802637e0dbe2941dbc4","655cb8c5b40eac52ac2dffa4","null","<p> <font color=""green"" size=""5vw""> Correct category! </font></p>","null","feedback","","","","","","","9.95"
"","","","","","html-keyboard-response","171","233237","0.0-7.23-0.23","612d68db25f37c6d62dfc3f7","655cb802637e0dbe2941dbc4","655cb8c5b40eac52ac2dffa4","559","
            
        <div style=""text-align: center; position: fixed; top: 5vh; left: 40vw;"">
            <div style=""margin:0 auto; width: 20vw; top: 8vh; font-size: 2vw""> 
            <font color=""green""> Bonus : $9.95 </font>
            </div>
        </div>
    
            <div> Please press any key to continue to the next image.</div>
        ","arrowleft","ITI","","","","","","",""
"","","","","","html-keyboard-response","172","233840","0.0-7.23-1.23","612d68db25f37c6d62dfc3f7","655cb802637e0dbe2941dbc4","655cb8c5b40eac52ac2dffa4","null","
        
        <div style=""text-align: center; position: fixed; top: 5vh; left: 40vw;"">
            <div style=""margin:0 auto; width: 20vw; top: 8vh; font-size: 2vw""> 
            <font color=""green""> Bonus : $9.95 </font>
            </div>
        </div>
    
        <img class=""stim"" src=./stimuli//pack_shapes_diff/cat_2/diff_5/ex_2_5_16.png></img>
    ","null","stimulus","","","","","","",""
"","","","","","html-keyboard-response","173","234846","0.0-7.23-2.23","612d68db25f37c6d62dfc3f7","655cb802637e0dbe2941dbc4","655cb8c5b40eac52ac2dffa4","null","
        <div style=""text-align: center; position: fixed; top: 5vh; left: 40vw;"">
            <div style=""margin:0 auto; width: 20vw; top: 8vh; font-size: 2vw""> 
            <font color=""green""> Bonus : $9.95 </font>
            </div>
        </div>
    ","null","","","","","","","",""
"","","","","","html-keyboard-response","174","235305","0.0-7.23-3.23","612d68db25f37c6d62dfc3f7","655cb802637e0dbe2941dbc4","655cb8c5b40eac52ac2dffa4","458","./stimuli//pack_shapes_diff/cat_2/diff_5/ex_2_5_16.png","arrowleft","response","ArrowRight","16","2","5","test","false",""
"","","","","","html-keyboard-response","175","236461","0.0-7.23-4.23","612d68db25f37c6d62dfc3f7","655cb802637e0dbe2941dbc4","655cb8c5b40eac52ac2dffa4","1156","<p> <font size=""4vw""> Wrong category! </font> <br> <br> <font color=""red"" size=""7vw""> - $0.05 points </font> </p>","arrowleft","feedback","","","","","","","9.9"
"","","","","","html-keyboard-response","176","238300","0.0-7.24-0.24","612d68db25f37c6d62dfc3f7","655cb802637e0dbe2941dbc4","655cb8c5b40eac52ac2dffa4","1838","
            
        <div style=""text-align: center; position: fixed; top: 5vh; left: 40vw;"">
            <div style=""margin:0 auto; width: 20vw; top: 8vh; font-size: 2vw""> 
            <font color=""green""> Bonus : $9.9 </font>
            </div>
        </div>
    
            <div> Please press any key to continue to the next image.</div>
        ","arrowleft","ITI","","","","","","",""
"","","","","","html-keyboard-response","177","238901","0.0-7.24-1.24","612d68db25f37c6d62dfc3f7","655cb802637e0dbe2941dbc4","655cb8c5b40eac52ac2dffa4","null","
        
        <div style=""text-align: center; position: fixed; top: 5vh; left: 40vw;"">
            <div style=""margin:0 auto; width: 20vw; top: 8vh; font-size: 2vw""> 
            <font color=""green""> Bonus : $9.9 </font>
            </div>
        </div>
    
        <img class=""stim"" src=./stimuli//pack_shapes_diff/cat_1/diff_5/ex_1_5_13.png></img>
    ","null","stimulus","","","","","","",""
"","","","","","html-keyboard-response","178","239906","0.0-7.24-2.24","612d68db25f37c6d62dfc3f7","655cb802637e0dbe2941dbc4","655cb8c5b40eac52ac2dffa4","null","
        <div style=""text-align: center; position: fixed; top: 5vh; left: 40vw;"">
            <div style=""margin:0 auto; width: 20vw; top: 8vh; font-size: 2vw""> 
            <font color=""green""> Bonus : $9.9 </font>
            </div>
        </div>
    ","null","","","","","","","",""
"","","","","","html-keyboard-response","179","240511","0.0-7.24-3.24","612d68db25f37c6d62dfc3f7","655cb802637e0dbe2941dbc4","655cb8c5b40eac52ac2dffa4","604","./stimuli//pack_shapes_diff/cat_1/diff_5/ex_1_5_13.png","arrowleft","response","ArrowLeft","13","1","5","test","true",""
"","","","","","html-keyboard-response","180","242015","0.0-7.24-4.24","612d68db25f37c6d62dfc3f7","655cb802637e0dbe2941dbc4","655cb8c5b40eac52ac2dffa4","null","<p> <font color=""green"" size=""5vw""> Correct category! </font></p>","null","feedback","","","","","","","9.9"
"","","","","","html-keyboard-response","181","242524","0.0-7.25-0.25","612d68db25f37c6d62dfc3f7","655cb802637e0dbe2941dbc4","655cb8c5b40eac52ac2dffa4","508","
            
        <div style=""text-align: center; position: fixed; top: 5vh; left: 40vw;"">
            <div style=""margin:0 auto; width: 20vw; top: 8vh; font-size: 2vw""> 
            <font color=""green""> Bonus : $9.9 </font>
            </div>
        </div>
    
            <div> Please press any key to continue to the next image.</div>
        ","arrowleft","ITI","","","","","","",""
"","","","","","html-keyboard-response","182","243132","0.0-7.25-1.25","612d68db25f37c6d62dfc3f7","655cb802637e0dbe2941dbc4","655cb8c5b40eac52ac2dffa4","null","
        
        <div style=""text-align: center; position: fixed; top: 5vh; left: 40vw;"">
            <div style=""margin:0 auto; width: 20vw; top: 8vh; font-size: 2vw""> 
            <font color=""green""> Bonus : $9.9 </font>
            </div>
        </div>
    
        <img class=""stim"" src=./stimuli//pack_shapes_diff/cat_2/diff_4/ex_2_4_4.png></img>
    ","null","stimulus","","","","","","",""
"","","","","","html-keyboard-response","183","244133","0.0-7.25-2.25","612d68db25f37c6d62dfc3f7","655cb802637e0dbe2941dbc4","655cb8c5b40eac52ac2dffa4","null","
        <div style=""text-align: center; position: fixed; top: 5vh; left: 40vw;"">
            <div style=""margin:0 auto; width: 20vw; top: 8vh; font-size: 2vw""> 
            <font color=""green""> Bonus : $9.9 </font>
            </div>
        </div>
    ","null","","","","","","","",""
"","","","","","html-keyboard-response","184","244737","0.0-7.25-3.25","612d68db25f37c6d62dfc3f7","655cb802637e0dbe2941dbc4","655cb8c5b40eac52ac2dffa4","603","./stimuli//pack_shapes_diff/cat_2/diff_4/ex_2_4_4.png","arrowleft","response","ArrowRight","4","2","4","test","false",""
"","","","","","html-keyboard-response","185","245784","0.0-7.25-4.25","612d68db25f37c6d62dfc3f7","655cb802637e0dbe2941dbc4","655cb8c5b40eac52ac2dffa4","1047","<p> <font size=""4vw""> Wrong category! </font> <br> <br> <font color=""red"" size=""7vw""> - $0.05 points </font> </p>","arrowleft","feedback","","","","","","","9.85"
"","","","","","html-keyboard-response","186","247674","0.0-7.26-0.26","612d68db25f37c6d62dfc3f7","655cb802637e0dbe2941dbc4","655cb8c5b40eac52ac2dffa4","1890","
            
        <div style=""text-align: center; position: fixed; top: 5vh; left: 40vw;"">
            <div style=""margin:0 auto; width: 20vw; top: 8vh; font-size: 2vw""> 
            <font color=""green""> Bonus : $9.85 </font>
            </div>
        </div>
    
            <div> Please press any key to continue to the next image.</div>
        ","arrowleft","ITI","","","","","","",""
"","","","","","html-keyboard-response","187","248280","0.0-7.26-1.26","612d68db25f37c6d62dfc3f7","655cb802637e0dbe2941dbc4","655cb8c5b40eac52ac2dffa4","null","
        
        <div style=""text-align: center; position: fixed; top: 5vh; left: 40vw;"">
            <div style=""margin:0 auto; width: 20vw; top: 8vh; font-size: 2vw""> 
            <font color=""green""> Bonus : $9.85 </font>
            </div>
        </div>
    
        <img class=""stim"" src=./stimuli//pack_shapes_diff/cat_1/diff_4/ex_1_4_16.png></img>
    ","null","stimulus","","","","","","",""
"","","","","","html-keyboard-response","188","249285","0.0-7.26-2.26","612d68db25f37c6d62dfc3f7","655cb802637e0dbe2941dbc4","655cb8c5b40eac52ac2dffa4","null","
        <div style=""text-align: center; position: fixed; top: 5vh; left: 40vw;"">
            <div style=""margin:0 auto; width: 20vw; top: 8vh; font-size: 2vw""> 
            <font color=""green""> Bonus : $9.85 </font>
            </div>
        </div>
    ","null","","","","","","","",""
"","","","","","html-keyboard-response","189","249774","0.0-7.26-3.26","612d68db25f37c6d62dfc3f7","655cb802637e0dbe2941dbc4","655cb8c5b40eac52ac2dffa4","488","./stimuli//pack_shapes_diff/cat_1/diff_4/ex_1_4_16.png","arrowleft","response","ArrowLeft","16","1","4","test","true",""
"","","","","","html-keyboard-response","190","251280","0.0-7.26-4.26","612d68db25f37c6d62dfc3f7","655cb802637e0dbe2941dbc4","655cb8c5b40eac52ac2dffa4","null","<p> <font color=""green"" size=""5vw""> Correct category! </font></p>","null","feedback","","","","","","","9.85"
"","","","","","html-keyboard-response","191","251820","0.0-7.27-0.27","612d68db25f37c6d62dfc3f7","655cb802637e0dbe2941dbc4","655cb8c5b40eac52ac2dffa4","539","
            
        <div style=""text-align: center; position: fixed; top: 5vh; left: 40vw;"">
            <div style=""margin:0 auto; width: 20vw; top: 8vh; font-size: 2vw""> 
            <font color=""green""> Bonus : $9.85 </font>
            </div>
        </div>
    
            <div> Please press any key to continue to the next image.</div>
        ","arrowleft","ITI","","","","","","",""
"","","","","","html-keyboard-response","192","252427","0.0-7.27-1.27","612d68db25f37c6d62dfc3f7","655cb802637e0dbe2941dbc4","655cb8c5b40eac52ac2dffa4","null","
        
        <div style=""text-align: center; position: fixed; top: 5vh; left: 40vw;"">
            <div style=""margin:0 auto; width: 20vw; top: 8vh; font-size: 2vw""> 
            <font color=""green""> Bonus : $9.85 </font>
            </div>
        </div>
    
        <img class=""stim"" src=./stimuli//pack_shapes_diff/cat_1/diff_4/ex_1_4_1.png></img>
    ","null","stimulus","","","","","","",""
"","","","","","html-keyboard-response","193","253431","0.0-7.27-2.27","612d68db25f37c6d62dfc3f7","655cb802637e0dbe2941dbc4","655cb8c5b40eac52ac2dffa4","null","
        <div style=""text-align: center; position: fixed; top: 5vh; left: 40vw;"">
            <div style=""margin:0 auto; width: 20vw; top: 8vh; font-size: 2vw""> 
            <font color=""green""> Bonus : $9.85 </font>
            </div>
        </div>
    ","null","","","","","","","",""
"","","","","","html-keyboard-response","194","253810","0.0-7.27-3.27","612d68db25f37c6d62dfc3f7","655cb802637e0dbe2941dbc4","655cb8c5b40eac52ac2dffa4","379","./stimuli//pack_shapes_diff/cat_1/diff_4/ex_1_4_1.png","arrowleft","response","ArrowLeft","1","1","4","test","true",""
"","","","","","html-keyboard-response","195","255316","0.0-7.27-4.27","612d68db25f37c6d62dfc3f7","655cb802637e0dbe2941dbc4","655cb8c5b40eac52ac2dffa4","null","<p> <font color=""green"" size=""5vw""> Correct category! </font></p>","null","feedback","","","","","","","9.85"
"","","","","","html-keyboard-response","196","256014","0.0-7.28-0.28","612d68db25f37c6d62dfc3f7","655cb802637e0dbe2941dbc4","655cb8c5b40eac52ac2dffa4","697","
            
        <div style=""text-align: center; position: fixed; top: 5vh; left: 40vw;"">
            <div style=""margin:0 auto; width: 20vw; top: 8vh; font-size: 2vw""> 
            <font color=""green""> Bonus : $9.85 </font>
            </div>
        </div>
    
            <div> Please press any key to continue to the next image.</div>
        ","arrowleft","ITI","","","","","","",""
"","","","","","html-keyboard-response","197","256620","0.0-7.28-1.28","612d68db25f37c6d62dfc3f7","655cb802637e0dbe2941dbc4","655cb8c5b40eac52ac2dffa4","null","
        
        <div style=""text-align: center; position: fixed; top: 5vh; left: 40vw;"">
            <div style=""margin:0 auto; width: 20vw; top: 8vh; font-size: 2vw""> 
            <font color=""green""> Bonus : $9.85 </font>
            </div>
        </div>
    
        <img class=""stim"" src=./stimuli//pack_shapes_diff/cat_1/diff_4/ex_1_4_7.png></img>
    ","null","stimulus","","","","","","",""
"","","","","","html-keyboard-response","198","257625","0.0-7.28-2.28","612d68db25f37c6d62dfc3f7","655cb802637e0dbe2941dbc4","655cb8c5b40eac52ac2dffa4","null","
        <div style=""text-align: center; position: fixed; top: 5vh; left: 40vw;"">
            <div style=""margin:0 auto; width: 20vw; top: 8vh; font-size: 2vw""> 
            <font color=""green""> Bonus : $9.85 </font>
            </div>
        </div>
    ","null","","","","","","","",""
"","","","","","html-keyboard-response","199","258015","0.0-7.28-3.28","612d68db25f37c6d62dfc3f7","655cb802637e0dbe2941dbc4","655cb8c5b40eac52ac2dffa4","390","./stimuli//pack_shapes_diff/cat_1/diff_4/ex_1_4_7.png","arrowleft","response","ArrowLeft","7","1","4","test","true",""
"","","","","","html-keyboard-response","200","259518","0.0-7.28-4.28","612d68db25f37c6d62dfc3f7","655cb802637e0dbe2941dbc4","655cb8c5b40eac52ac2dffa4","null","<p> <font color=""green"" size=""5vw""> Correct category! </font></p>","null","feedback","","","","","","","9.85"
"","","","","","html-keyboard-response","201","260036","0.0-7.29-0.29","612d68db25f37c6d62dfc3f7","655cb802637e0dbe2941dbc4","655cb8c5b40eac52ac2dffa4","517","
            
        <div style=""text-align: center; position: fixed; top: 5vh; left: 40vw;"">
            <div style=""margin:0 auto; width: 20vw; top: 8vh; font-size: 2vw""> 
            <font color=""green""> Bonus : $9.85 </font>
            </div>
        </div>
    
            <div> Please press any key to continue to the next image.</div>
        ","arrowleft","ITI","","","","","","",""
"","","","","","html-keyboard-response","202","260643","0.0-7.29-1.29","612d68db25f37c6d62dfc3f7","655cb802637e0dbe2941dbc4","655cb8c5b40eac52ac2dffa4","null","
        
        <div style=""text-align: center; position: fixed; top: 5vh; left: 40vw;"">
            <div style=""margin:0 auto; width: 20vw; top: 8vh; font-size: 2vw""> 
            <font color=""green""> Bonus : $9.85 </font>
            </div>
        </div>
    
        <img class=""stim"" src=./stimuli//pack_shapes_diff/cat_1/diff_4/ex_1_4_5.png></img>
    ","null","stimulus","","","","","","",""
"","","","","","html-keyboard-response","203","261648","0.0-7.29-2.29","612d68db25f37c6d62dfc3f7","655cb802637e0dbe2941dbc4","655cb8c5b40eac52ac2dffa4","null","
        <div style=""text-align: center; position: fixed; top: 5vh; left: 40vw;"">
            <div style=""margin:0 auto; width: 20vw; top: 8vh; font-size: 2vw""> 
            <font color=""green""> Bonus : $9.85 </font>
            </div>
        </div>
    ","null","","","","","","","",""
"","","","","","html-keyboard-response","204","262125","0.0-7.29-3.29","612d68db25f37c6d62dfc3f7","655cb802637e0dbe2941dbc4","655cb8c5b40eac52ac2dffa4","476","./stimuli//pack_shapes_diff/cat_1/diff_4/ex_1_4_5.png","arrowleft","response","ArrowLeft","5","1","4","test","true",""
"","","","","","html-keyboard-response","205","263630","0.0-7.29-4.29","612d68db25f37c6d62dfc3f7","655cb802637e0dbe2941dbc4","655cb8c5b40eac52ac2dffa4","null","<p> <font color=""green"" size=""5vw""> Correct category! </font></p>","null","feedback","","","","","","","9.85"
"","","","","","html-keyboard-response","206","264075","0.0-7.30-0.30","612d68db25f37c6d62dfc3f7","655cb802637e0dbe2941dbc4","655cb8c5b40eac52ac2dffa4","444","
            
        <div style=""text-align: center; position: fixed; top: 5vh; left: 40vw;"">
            <div style=""margin:0 auto; width: 20vw; top: 8vh; font-size: 2vw""> 
            <font color=""green""> Bonus : $9.85 </font>
            </div>
        </div>
    
            <div> Please press any key to continue to the next image.</div>
        ","arrowleft","ITI","","","","","","",""
"","","","","","html-keyboard-response","207","264677","0.0-7.30-1.30","612d68db25f37c6d62dfc3f7","655cb802637e0dbe2941dbc4","655cb8c5b40eac52ac2dffa4","null","
        
        <div style=""text-align: center; position: fixed; top: 5vh; left: 40vw;"">
            <div style=""margin:0 auto; width: 20vw; top: 8vh; font-size: 2vw""> 
            <font color=""green""> Bonus : $9.85 </font>
            </div>
        </div>
    
        <img class=""stim"" src=./stimuli//pack_shapes_diff/cat_2/diff_5/ex_2_5_11.png></img>
    ","null","stimulus","","","","","","",""
"","","","","","html-keyboard-response","208","265679","0.0-7.30-2.30","612d68db25f37c6d62dfc3f7","655cb802637e0dbe2941dbc4","655cb8c5b40eac52ac2dffa4","null","
        <div style=""text-align: center; position: fixed; top: 5vh; left: 40vw;"">
            <div style=""margin:0 auto; width: 20vw; top: 8vh; font-size: 2vw""> 
            <font color=""green""> Bonus : $9.85 </font>
            </div>
        </div>
    ","null","","","","","","","",""
"","","","","","html-keyboard-response","209","266184","0.0-7.30-3.30","612d68db25f37c6d62dfc3f7","655cb802637e0dbe2941dbc4","655cb8c5b40eac52ac2dffa4","505","./stimuli//pack_shapes_diff/cat_2/diff_5/ex_2_5_11.png","arrowright","response","ArrowRight","11","2","5","test","true",""
"","","","","","html-keyboard-response","210","267685","0.0-7.30-4.30","612d68db25f37c6d62dfc3f7","655cb802637e0dbe2941dbc4","655cb8c5b40eac52ac2dffa4","null","<p> <font color=""green"" size=""5vw""> Correct category! </font></p>","null","feedback","","","","","","","9.85"
"","","","","","html-keyboard-response","211","268151","0.0-7.31-0.31","612d68db25f37c6d62dfc3f7","655cb802637e0dbe2941dbc4","655cb8c5b40eac52ac2dffa4","465","
            
        <div style=""text-align: center; position: fixed; top: 5vh; left: 40vw;"">
            <div style=""margin:0 auto; width: 20vw; top: 8vh; font-size: 2vw""> 
            <font color=""green""> Bonus : $9.85 </font>
            </div>
        </div>
    
            <div> Please press any key to continue to the next image.</div>
        ","arrowleft","ITI","","","","","","",""
"","","","","","html-keyboard-response","212","268753","0.0-7.31-1.31","612d68db25f37c6d62dfc3f7","655cb802637e0dbe2941dbc4","655cb8c5b40eac52ac2dffa4","null","
        
        <div style=""text-align: center; position: fixed; top: 5vh; left: 40vw;"">
            <div style=""margin:0 auto; width: 20vw; top: 8vh; font-size: 2vw""> 
            <font color=""green""> Bonus : $9.85 </font>
            </div>
        </div>
    
        <img class=""stim"" src=./stimuli//pack_shapes_diff/cat_1/diff_5/ex_1_5_2.png></img>
    ","null","stimulus","","","","","","",""
"","","","","","html-keyboard-response","213","269757","0.0-7.31-2.31","612d68db25f37c6d62dfc3f7","655cb802637e0dbe2941dbc4","655cb8c5b40eac52ac2dffa4","null","
        <div style=""text-align: center; position: fixed; top: 5vh; left: 40vw;"">
            <div style=""margin:0 auto; width: 20vw; top: 8vh; font-size: 2vw""> 
            <font color=""green""> Bonus : $9.85 </font>
            </div>
        </div>
    ","null","","","","","","","",""
"","","","","","html-keyboard-response","214","270205","0.0-7.31-3.31","612d68db25f37c6d62dfc3f7","655cb802637e0dbe2941dbc4","655cb8c5b40eac52ac2dffa4","448","./stimuli//pack_shapes_diff/cat_1/diff_5/ex_1_5_2.png","arrowleft","response","ArrowLeft","2","1","5","test","true",""
"","","","","","html-keyboard-response","215","271712","0.0-7.31-4.31","612d68db25f37c6d62dfc3f7","655cb802637e0dbe2941dbc4","655cb8c5b40eac52ac2dffa4","null","<p> <font color=""green"" size=""5vw""> Correct category! </font></p>","null","feedback","","","","","","","9.85"
"","","","","","html-keyboard-response","216","272185","0.0-7.32-0.32","612d68db25f37c6d62dfc3f7","655cb802637e0dbe2941dbc4","655cb8c5b40eac52ac2dffa4","473","
            
        <div style=""text-align: center; position: fixed; top: 5vh; left: 40vw;"">
            <div style=""margin:0 auto; width: 20vw; top: 8vh; font-size: 2vw""> 
            <font color=""green""> Bonus : $9.85 </font>
            </div>
        </div>
    
            <div> Please press any key to continue to the next image.</div>
        ","arrowleft","ITI","","","","","","",""
"","","","","","html-keyboard-response","217","272787","0.0-7.32-1.32","612d68db25f37c6d62dfc3f7","655cb802637e0dbe2941dbc4","655cb8c5b40eac52ac2dffa4","null","
        
        <div style=""text-align: center; position: fixed; top: 5vh; left: 40vw;"">
            <div style=""margin:0 auto; width: 20vw; top: 8vh; font-size: 2vw""> 
            <font color=""green""> Bonus : $9.85 </font>
            </div>
        </div>
    
        <img class=""stim"" src=./stimuli//pack_shapes_diff/cat_2/diff_5/ex_2_5_3.png></img>
    ","null","stimulus","","","","","","",""
"","","","","","html-keyboard-response","218","273789","0.0-7.32-2.32","612d68db25f37c6d62dfc3f7","655cb802637e0dbe2941dbc4","655cb8c5b40eac52ac2dffa4","null","
        <div style=""text-align: center; position: fixed; top: 5vh; left: 40vw;"">
            <div style=""margin:0 auto; width: 20vw; top: 8vh; font-size: 2vw""> 
            <font color=""green""> Bonus : $9.85 </font>
            </div>
        </div>
    ","null","","","","","","","",""
"","","","","","html-keyboard-response","219","274193","0.0-7.32-3.32","612d68db25f37c6d62dfc3f7","655cb802637e0dbe2941dbc4","655cb8c5b40eac52ac2dffa4","404","./stimuli//pack_shapes_diff/cat_2/diff_5/ex_2_5_3.png","arrowleft","response","ArrowRight","3","2","5","test","false",""
"","","","","","html-keyboard-response","220","275475","0.0-7.32-4.32","612d68db25f37c6d62dfc3f7","655cb802637e0dbe2941dbc4","655cb8c5b40eac52ac2dffa4","1281","<p> <font size=""4vw""> Wrong category! </font> <br> <br> <font color=""red"" size=""7vw""> - $0.05 points </font> </p>","arrowleft","feedback","","","","","","","9.8"
"","","","","","html-keyboard-response","221","276505","0.0-7.33-0.33","612d68db25f37c6d62dfc3f7","655cb802637e0dbe2941dbc4","655cb8c5b40eac52ac2dffa4","1029","
            
        <div style=""text-align: center; position: fixed; top: 5vh; left: 40vw;"">
            <div style=""margin:0 auto; width: 20vw; top: 8vh; font-size: 2vw""> 
            <font color=""green""> Bonus : $9.8 </font>
            </div>
        </div>
    
            <div> Please press any key to continue to the next image.</div>
        ","arrowleft","ITI","","","","","","",""
"","","","","","html-keyboard-response","222","277108","0.0-7.33-1.33","612d68db25f37c6d62dfc3f7","655cb802637e0dbe2941dbc4","655cb8c5b40eac52ac2dffa4","null","
        
        <div style=""text-align: center; position: fixed; top: 5vh; left: 40vw;"">
            <div style=""margin:0 auto; width: 20vw; top: 8vh; font-size: 2vw""> 
            <font color=""green""> Bonus : $9.8 </font>
            </div>
        </div>
    
        <img class=""stim"" src=./stimuli//pack_shapes_diff/cat_2/diff_5/ex_2_5_8.png></img>
    ","null","stimulus","","","","","","",""
"","","","","","html-keyboard-response","223","278110","0.0-7.33-2.33","612d68db25f37c6d62dfc3f7","655cb802637e0dbe2941dbc4","655cb8c5b40eac52ac2dffa4","null","
        <div style=""text-align: center; position: fixed; top: 5vh; left: 40vw;"">
            <div style=""margin:0 auto; width: 20vw; top: 8vh; font-size: 2vw""> 
            <font color=""green""> Bonus : $9.8 </font>
            </div>
        </div>
    ","null","","","","","","","",""
"","","","","","html-keyboard-response","224","278472","0.0-7.33-3.33","612d68db25f37c6d62dfc3f7","655cb802637e0dbe2941dbc4","655cb8c5b40eac52ac2dffa4","361","./stimuli//pack_shapes_diff/cat_2/diff_5/ex_2_5_8.png","arrowright","response","ArrowRight","8","2","5","test","true",""
"","","","","","html-keyboard-response","225","279979","0.0-7.33-4.33","612d68db25f37c6d62dfc3f7","655cb802637e0dbe2941dbc4","655cb8c5b40eac52ac2dffa4","null","<p> <font color=""green"" size=""5vw""> Correct category! </font></p>","null","feedback","","","","","","","9.8"
"","","","","","html-keyboard-response","226","280513","0.0-7.34-0.34","612d68db25f37c6d62dfc3f7","655cb802637e0dbe2941dbc4","655cb8c5b40eac52ac2dffa4","533","
            
        <div style=""text-align: center; position: fixed; top: 5vh; left: 40vw;"">
            <div style=""margin:0 auto; width: 20vw; top: 8vh; font-size: 2vw""> 
            <font color=""green""> Bonus : $9.8 </font>
            </div>
        </div>
    
            <div> Please press any key to continue to the next image.</div>
        ","arrowleft","ITI","","","","","","",""
"","","","","","html-keyboard-response","227","281118","0.0-7.34-1.34","612d68db25f37c6d62dfc3f7","655cb802637e0dbe2941dbc4","655cb8c5b40eac52ac2dffa4","null","
        
        <div style=""text-align: center; position: fixed; top: 5vh; left: 40vw;"">
            <div style=""margin:0 auto; width: 20vw; top: 8vh; font-size: 2vw""> 
            <font color=""green""> Bonus : $9.8 </font>
            </div>
        </div>
    
        <img class=""stim"" src=./stimuli//pack_shapes_diff/cat_2/diff_5/ex_2_5_12.png></img>
    ","null","stimulus","","","","","","",""
"","","","","","html-keyboard-response","228","282122","0.0-7.34-2.34","612d68db25f37c6d62dfc3f7","655cb802637e0dbe2941dbc4","655cb8c5b40eac52ac2dffa4","null","
        <div style=""text-align: center; position: fixed; top: 5vh; left: 40vw;"">
            <div style=""margin:0 auto; width: 20vw; top: 8vh; font-size: 2vw""> 
            <font color=""green""> Bonus : $9.8 </font>
            </div>
        </div>
    ","null","","","","","","","",""
"","","","","","html-keyboard-response","229","282512","0.0-7.34-3.34","612d68db25f37c6d62dfc3f7","655cb802637e0dbe2941dbc4","655cb8c5b40eac52ac2dffa4","389","./stimuli//pack_shapes_diff/cat_2/diff_5/ex_2_5_12.png","arrowleft","response","ArrowRight","12","2","5","test","false",""
"","","","","","html-keyboard-response","230","284018","0.0-7.34-4.34","612d68db25f37c6d62dfc3f7","655cb802637e0dbe2941dbc4","655cb8c5b40eac52ac2dffa4","null","<p> <font size=""4vw""> Wrong category! </font> <br> <br> <font color=""red"" size=""7vw""> - $0.05 points </font> </p>","null","feedback","","","","","","","9.75"
"","","","","","html-keyboard-response","231","284134","0.0-7.35-0.35","612d68db25f37c6d62dfc3f7","655cb802637e0dbe2941dbc4","655cb8c5b40eac52ac2dffa4","115","
            
        <div style=""text-align: center; position: fixed; top: 5vh; left: 40vw;"">
            <div style=""margin:0 auto; width: 20vw; top: 8vh; font-size: 2vw""> 
            <font color=""green""> Bonus : $9.75 </font>
            </div>
        </div>
    
            <div> Please press any key to continue to the next image.</div>
        ","arrowleft","ITI","","","","","","",""
"","","","","","html-keyboard-response","232","284741","0.0-7.35-1.35","612d68db25f37c6d62dfc3f7","655cb802637e0dbe2941dbc4","655cb8c5b40eac52ac2dffa4","null","
        
        <div style=""text-align: center; position: fixed; top: 5vh; left: 40vw;"">
            <div style=""margin:0 auto; width: 20vw; top: 8vh; font-size: 2vw""> 
            <font color=""green""> Bonus : $9.75 </font>
            </div>
        </div>
    
        <img class=""stim"" src=./stimuli//pack_shapes_diff/cat_1/diff_4/ex_1_4_6.png></img>
