"success","timeout","failed_images","failed_audio","failed_video","trial_type","trial_index","time_elapsed","internal_node_id","subject_id","study_id","session_id","rt","stimulus","response","task","correct_response","exemplar_ID","category","difficulty","phase","correct","bonus"
"true","false","[]","[]","[]","preload","0","6","0.0-0.0","652e6224f7c742cf18c79e7f","655cb802637e0dbe2941dbc4","655cb8cfbf067b49b2a60c38","","","","","","","","","","",""
"","","","","","html-keyboard-response","1","3645","0.0-1.0","652e6224f7c742cf18c79e7f","655cb802637e0dbe2941dbc4","655cb8cfbf067b49b2a60c38","3637","Welcome to the Category Learning experiment! Press any key to continue."," ","welcome","","","","","","",""
"","","","","","html-keyboard-response","2","18088","0.0-2.0","652e6224f7c742cf18c79e7f","655cb802637e0dbe2941dbc4","655cb8cfbf067b49b2a60c38","14442","
            <p>You will be shown images of black shapes. Some are category A, some are category B.
            <br>You will not know in advance which category a specific shape belongs to.</p>
            <p>After you see an image, you will be asked to guess its category <b>(left arrow for category A, right arrow for category B)</b></p>
            <p>After you choose, the screen will show you whether you were correct or not.</p>
            <p>Please try to respond as quickly and accurately as possible every time.</p>
            <p>Press any key to continue.</p>
            "," ","introduction_1","","","","","","",""
"","","","","","html-keyboard-response","3","25186","0.0-3.0","652e6224f7c742cf18c79e7f","655cb802637e0dbe2941dbc4","655cb8cfbf067b49b2a60c38","7096","
              <p><b>You will receive a bonus payment depending on your performance!</b></p>
              <p><b>You start with a $10 bonus and each time you guess a shape's category incorrectly $0.05 will be subtracted from the bonus. <br> After the end of the experiment you will receive the remaining bonus as payment.</b></p>
              <p>Press any key to continue.</p>
              "," ","introduction_1","","","","","","",""
"","","","","","html-keyboard-response","4","30151","0.0-4.0","652e6224f7c742cf18c79e7f","655cb802637e0dbe2941dbc4","655cb8cfbf067b49b2a60c38","4963","
            <p> <b>The first 10 trials are a practice round that will not count towards your bonus payment.</b></p>
            <p> You will be notified when practice finishes and the test begins. </p>
            <p> Press any key to begin the practice round.</p>
            "," ","introduction_2","","","","","","",""
"","","","","","html-keyboard-response","5","32801","0.0-5.0-0.0","652e6224f7c742cf18c79e7f","655cb802637e0dbe2941dbc4","655cb8cfbf067b49b2a60c38","2649","
            
        <div style=""text-align: center; position: fixed; top: 5vh; left: 40vw;"">
            <div style=""margin:0 auto; width: 20vw; top: 8vh; font-size: 2vw""> 
            <font color=""green""> Bonus : $10 </font>
            </div>
        </div>
    
            <div> Please press any key to continue to the next image.</div>
        ","arrowright","ITI","","","","","","",""
"","","","","","html-keyboard-response","6","33405","0.0-5.0-1.0","652e6224f7c742cf18c79e7f","655cb802637e0dbe2941dbc4","655cb8cfbf067b49b2a60c38","null","
        
        <div style=""text-align: center; position: fixed; top: 5vh; left: 40vw;"">
            <div style=""margin:0 auto; width: 20vw; top: 8vh; font-size: 2vw""> 
            <font color=""green""> Bonus : $10 </font>
            </div>
        </div>
    
        <img class=""stim"" src=./stimuli//pack_shapes_diff/cat_1/diff_2/ex_1_2_17.png></img>
    ","null","stimulus","","","","","","",""
"","","","","","html-keyboard-response","7","34412","0.0-5.0-2.0","652e6224f7c742cf18c79e7f","655cb802637e0dbe2941dbc4","655cb8cfbf067b49b2a60c38","null","
        <div style=""text-align: center; position: fixed; top: 5vh; left: 40vw;"">
            <div style=""margin:0 auto; width: 20vw; top: 8vh; font-size: 2vw""> 
            <font color=""green""> Bonus : $10 </font>
            </div>
        </div>
    ","null","","","","","","","",""
"","","","","","html-keyboard-response","8","35956","0.0-5.0-3.0","652e6224f7c742cf18c79e7f","655cb802637e0dbe2941dbc4","655cb8cfbf067b49b2a60c38","1543","./stimuli//pack_shapes_diff/cat_1/diff_2/ex_1_2_17.png","arrowright","response","ArrowLeft","17","1","2","train","false",""
"","","","","","html-keyboard-response","9","37461","0.0-5.0-4.0","652e6224f7c742cf18c79e7f","655cb802637e0dbe2941dbc4","655cb8cfbf067b49b2a60c38","null","<p> <font color=""red"" size=""5vw""> Wrong category! </font> </p>","null","feedback","","","","","","","10"
"","","","","","html-keyboard-response","10","38324","0.0-5.0-0.1","652e6224f7c742cf18c79e7f","655cb802637e0dbe2941dbc4","655cb8cfbf067b49b2a60c38","861","
            
        <div style=""text-align: center; position: fixed; top: 5vh; left: 40vw;"">
            <div style=""margin:0 auto; width: 20vw; top: 8vh; font-size: 2vw""> 
            <font color=""green""> Bonus : $10 </font>
            </div>
        </div>
    
            <div> Please press any key to continue to the next image.</div>
        "," ","ITI","","","","","","",""
"","","","","","html-keyboard-response","11","38939","0.0-5.0-1.1","652e6224f7c742cf18c79e7f","655cb802637e0dbe2941dbc4","655cb8cfbf067b49b2a60c38","null","
        
        <div style=""text-align: center; position: fixed; top: 5vh; left: 40vw;"">
            <div style=""margin:0 auto; width: 20vw; top: 8vh; font-size: 2vw""> 
            <font color=""green""> Bonus : $10 </font>
            </div>
        </div>
    
        <img class=""stim"" src=./stimuli//pack_shapes_diff/cat_2/diff_1/ex_2_1_2.png></img>
    ","null","stimulus","","","","","","",""
"","","","","","html-keyboard-response","12","39945","0.0-5.0-2.1","652e6224f7c742cf18c79e7f","655cb802637e0dbe2941dbc4","655cb8cfbf067b49b2a60c38","null","
        <div style=""text-align: center; position: fixed; top: 5vh; left: 40vw;"">
            <div style=""margin:0 auto; width: 20vw; top: 8vh; font-size: 2vw""> 
            <font color=""green""> Bonus : $10 </font>
            </div>
        </div>
    ","null","","","","","","","",""
"","","","","","html-keyboard-response","13","40604","0.0-5.0-3.1","652e6224f7c742cf18c79e7f","655cb802637e0dbe2941dbc4","655cb8cfbf067b49b2a60c38","658","./stimuli//pack_shapes_diff/cat_2/diff_1/ex_2_1_2.png","arrowleft","response","ArrowRight","2","2","1","train","false",""
"","","","","","html-keyboard-response","14","42120","0.0-5.0-4.1","652e6224f7c742cf18c79e7f","655cb802637e0dbe2941dbc4","655cb8cfbf067b49b2a60c38","null","<p> <font color=""red"" size=""5vw""> Wrong category! </font> </p>","null","feedback","","","","","","","10"
"","","","","","html-keyboard-response","15","43197","0.0-5.0-0.2","652e6224f7c742cf18c79e7f","655cb802637e0dbe2941dbc4","655cb8cfbf067b49b2a60c38","1075","
            
        <div style=""text-align: center; position: fixed; top: 5vh; left: 40vw;"">
            <div style=""margin:0 auto; width: 20vw; top: 8vh; font-size: 2vw""> 
            <font color=""green""> Bonus : $10 </font>
            </div>
        </div>
    
            <div> Please press any key to continue to the next image.</div>
        "," ","ITI","","","","","","",""
"","","","","","html-keyboard-response","16","43808","0.0-5.0-1.2","652e6224f7c742cf18c79e7f","655cb802637e0dbe2941dbc4","655cb8cfbf067b49b2a60c38","null","
        
        <div style=""text-align: center; position: fixed; top: 5vh; left: 40vw;"">
            <div style=""margin:0 auto; width: 20vw; top: 8vh; font-size: 2vw""> 
            <font color=""green""> Bonus : $10 </font>
            </div>
        </div>
    
        <img class=""stim"" src=./stimuli//pack_shapes_diff/cat_1/diff_2/ex_1_2_5.png></img>
    ","null","stimulus","","","","","","",""
"","","","","","html-keyboard-response","17","44815","0.0-5.0-2.2","652e6224f7c742cf18c79e7f","655cb802637e0dbe2941dbc4","655cb8cfbf067b49b2a60c38","null","
        <div style=""text-align: center; position: fixed; top: 5vh; left: 40vw;"">
            <div style=""margin:0 auto; width: 20vw; top: 8vh; font-size: 2vw""> 
            <font color=""green""> Bonus : $10 </font>
            </div>
        </div>
    ","null","","","","","","","",""
"","","","","","html-keyboard-response","18","45452","0.0-5.0-3.2","652e6224f7c742cf18c79e7f","655cb802637e0dbe2941dbc4","655cb8cfbf067b49b2a60c38","636","./stimuli//pack_shapes_diff/cat_1/diff_2/ex_1_2_5.png","arrowright","response","ArrowLeft","5","1","2","train","false",""
"","","","","","html-keyboard-response","19","46961","0.0-5.0-4.2","652e6224f7c742cf18c79e7f","655cb802637e0dbe2941dbc4","655cb8cfbf067b49b2a60c38","null","<p> <font color=""red"" size=""5vw""> Wrong category! </font> </p>","null","feedback","","","","","","","10"
"","","","","","html-keyboard-response","20","47903","0.0-5.0-0.3","652e6224f7c742cf18c79e7f","655cb802637e0dbe2941dbc4","655cb8cfbf067b49b2a60c38","941","
            
        <div style=""text-align: center; position: fixed; top: 5vh; left: 40vw;"">
            <div style=""margin:0 auto; width: 20vw; top: 8vh; font-size: 2vw""> 
            <font color=""green""> Bonus : $10 </font>
            </div>
        </div>
    
            <div> Please press any key to continue to the next image.</div>
        "," ","ITI","","","","","","",""
"","","","","","html-keyboard-response","21","48517","0.0-5.0-1.3","652e6224f7c742cf18c79e7f","655cb802637e0dbe2941dbc4","655cb8cfbf067b49b2a60c38","null","
        
        <div style=""text-align: center; position: fixed; top: 5vh; left: 40vw;"">
            <div style=""margin:0 auto; width: 20vw; top: 8vh; font-size: 2vw""> 
            <font color=""green""> Bonus : $10 </font>
            </div>
        </div>
    
        <img class=""stim"" src=./stimuli//pack_shapes_diff/cat_2/diff_2/ex_2_2_2.png></img>
    ","null","stimulus","","","","","","",""
"","","","","","html-keyboard-response","22","49518","0.0-5.0-2.3","652e6224f7c742cf18c79e7f","655cb802637e0dbe2941dbc4","655cb8cfbf067b49b2a60c38","null","
        <div style=""text-align: center; position: fixed; top: 5vh; left: 40vw;"">
            <div style=""margin:0 auto; width: 20vw; top: 8vh; font-size: 2vw""> 
            <font color=""green""> Bonus : $10 </font>
            </div>
        </div>
    ","null","","","","","","","",""
"","","","","","html-keyboard-response","23","50284","0.0-5.0-3.3","652e6224f7c742cf18c79e7f","655cb802637e0dbe2941dbc4","655cb8cfbf067b49b2a60c38","764","./stimuli//pack_shapes_diff/cat_2/diff_2/ex_2_2_2.png","arrowleft","response","ArrowRight","2","2","2","train","false",""
"","","","","","html-keyboard-response","24","51788","0.0-5.0-4.3","652e6224f7c742cf18c79e7f","655cb802637e0dbe2941dbc4","655cb8cfbf067b49b2a60c38","null","<p> <font color=""red"" size=""5vw""> Wrong category! </font> </p>","null","feedback","","","","","","","10"
"","","","","","html-keyboard-response","25","53438","0.0-5.0-0.4","652e6224f7c742cf18c79e7f","655cb802637e0dbe2941dbc4","655cb8cfbf067b49b2a60c38","1649","
            
        <div style=""text-align: center; position: fixed; top: 5vh; left: 40vw;"">
            <div style=""margin:0 auto; width: 20vw; top: 8vh; font-size: 2vw""> 
            <font color=""green""> Bonus : $10 </font>
            </div>
        </div>
    
            <div> Please press any key to continue to the next image.</div>
        "," ","ITI","","","","","","",""
"","","","","","html-keyboard-response","26","54041","0.0-5.0-1.4","652e6224f7c742cf18c79e7f","655cb802637e0dbe2941dbc4","655cb8cfbf067b49b2a60c38","null","
        
        <div style=""text-align: center; position: fixed; top: 5vh; left: 40vw;"">
            <div style=""margin:0 auto; width: 20vw; top: 8vh; font-size: 2vw""> 
            <font color=""green""> Bonus : $10 </font>
            </div>
        </div>
    
        <img class=""stim"" src=./stimuli//pack_shapes_diff/cat_2/diff_2/ex_2_2_9.png></img>
    ","null","stimulus","","","","","","",""
"","","","","","html-keyboard-response","27","55059","0.0-5.0-2.4","652e6224f7c742cf18c79e7f","655cb802637e0dbe2941dbc4","655cb8cfbf067b49b2a60c38","null","
        <div style=""text-align: center; position: fixed; top: 5vh; left: 40vw;"">
            <div style=""margin:0 auto; width: 20vw; top: 8vh; font-size: 2vw""> 
            <font color=""green""> Bonus : $10 </font>
            </div>
        </div>
    ","null","","","","","","","",""
"","","","","","html-keyboard-response","28","55719","0.0-5.0-3.4","652e6224f7c742cf18c79e7f","655cb802637e0dbe2941dbc4","655cb8cfbf067b49b2a60c38","659","./stimuli//pack_shapes_diff/cat_2/diff_2/ex_2_2_9.png","arrowleft","response","ArrowRight","9","2","2","train","false",""
"","","","","","html-keyboard-response","29","57235","0.0-5.0-4.4","652e6224f7c742cf18c79e7f","655cb802637e0dbe2941dbc4","655cb8cfbf067b49b2a60c38","null","<p> <font color=""red"" size=""5vw""> Wrong category! </font> </p>","null","feedback","","","","","","","10"
"","","","","","html-keyboard-response","30","58137","0.0-5.0-0.5","652e6224f7c742cf18c79e7f","655cb802637e0dbe2941dbc4","655cb8cfbf067b49b2a60c38","901","
            
        <div style=""text-align: center; position: fixed; top: 5vh; left: 40vw;"">
            <div style=""margin:0 auto; width: 20vw; top: 8vh; font-size: 2vw""> 
            <font color=""green""> Bonus : $10 </font>
            </div>
        </div>
    
            <div> Please press any key to continue to the next image.</div>
        "," ","ITI","","","","","","",""
"","","","","","html-keyboard-response","31","58742","0.0-5.0-1.5","652e6224f7c742cf18c79e7f","655cb802637e0dbe2941dbc4","655cb8cfbf067b49b2a60c38","null","
        
        <div style=""text-align: center; position: fixed; top: 5vh; left: 40vw;"">
            <div style=""margin:0 auto; width: 20vw; top: 8vh; font-size: 2vw""> 
            <font color=""green""> Bonus : $10 </font>
            </div>
        </div>
    
        <img class=""stim"" src=./stimuli//pack_shapes_diff/cat_1/diff_1/ex_1_1_10.png></img>
    ","null","stimulus","","","","","","",""
"","","","","","html-keyboard-response","32","59751","0.0-5.0-2.5","652e6224f7c742cf18c79e7f","655cb802637e0dbe2941dbc4","655cb8cfbf067b49b2a60c38","null","
        <div style=""text-align: center; position: fixed; top: 5vh; left: 40vw;"">
            <div style=""margin:0 auto; width: 20vw; top: 8vh; font-size: 2vw""> 
            <font color=""green""> Bonus : $10 </font>
            </div>
        </div>
    ","null","","","","","","","",""
"","","","","","html-keyboard-response","33","60341","0.0-5.0-3.5","652e6224f7c742cf18c79e7f","655cb802637e0dbe2941dbc4","655cb8cfbf067b49b2a60c38","589","./stimuli//pack_shapes_diff/cat_1/diff_1/ex_1_1_10.png","arrowleft","response","ArrowLeft","10","1","1","train","true",""
"","","","","","html-keyboard-response","34","61858","0.0-5.0-4.5","652e6224f7c742cf18c79e7f","655cb802637e0dbe2941dbc4","655cb8cfbf067b49b2a60c38","null","<p> <font color=""green"" size=""5vw""> Correct category! </font> </p>","null","feedback","","","","","","","10"
"","","","","","html-keyboard-response","35","63418","0.0-5.0-0.6","652e6224f7c742cf18c79e7f","655cb802637e0dbe2941dbc4","655cb8cfbf067b49b2a60c38","1559","
            
        <div style=""text-align: center; position: fixed; top: 5vh; left: 40vw;"">
            <div style=""margin:0 auto; width: 20vw; top: 8vh; font-size: 2vw""> 
            <font color=""green""> Bonus : $10 </font>
            </div>
        </div>
    
            <div> Please press any key to continue to the next image.</div>
        "," ","ITI","","","","","","",""
"","","","","","html-keyboard-response","36","64020","0.0-5.0-1.6","652e6224f7c742cf18c79e7f","655cb802637e0dbe2941dbc4","655cb8cfbf067b49b2a60c38","null","
        
        <div style=""text-align: center; position: fixed; top: 5vh; left: 40vw;"">
            <div style=""margin:0 auto; width: 20vw; top: 8vh; font-size: 2vw""> 
            <font color=""green""> Bonus : $10 </font>
            </div>
        </div>
    
        <img class=""stim"" src=./stimuli//pack_shapes_diff/cat_2/diff_1/ex_2_1_3.png></img>
    ","null","stimulus","","","","","","",""
"","","","","","html-keyboard-response","37","65037","0.0-5.0-2.6","652e6224f7c742cf18c79e7f","655cb802637e0dbe2941dbc4","655cb8cfbf067b49b2a60c38","null","
        <div style=""text-align: center; position: fixed; top: 5vh; left: 40vw;"">
            <div style=""margin:0 auto; width: 20vw; top: 8vh; font-size: 2vw""> 
            <font color=""green""> Bonus : $10 </font>
            </div>
        </div>
    ","null","","","","","","","",""
"","","","","","html-keyboard-response","38","65539","0.0-5.0-3.6","652e6224f7c742cf18c79e7f","655cb802637e0dbe2941dbc4","655cb8cfbf067b49b2a60c38","501","./stimuli//pack_shapes_diff/cat_2/diff_1/ex_2_1_3.png","arrowright","response","ArrowRight","3","2","1","train","true",""
"","","","","","html-keyboard-response","39","67048","0.0-5.0-4.6","652e6224f7c742cf18c79e7f","655cb802637e0dbe2941dbc4","655cb8cfbf067b49b2a60c38","null","<p> <font color=""green"" size=""5vw""> Correct category! </font> </p>","null","feedback","","","","","","","10"
"","","","","","html-keyboard-response","40","67766","0.0-5.0-0.7","652e6224f7c742cf18c79e7f","655cb802637e0dbe2941dbc4","655cb8cfbf067b49b2a60c38","717","
            
        <div style=""text-align: center; position: fixed; top: 5vh; left: 40vw;"">
            <div style=""margin:0 auto; width: 20vw; top: 8vh; font-size: 2vw""> 
            <font color=""green""> Bonus : $10 </font>
            </div>
        </div>
    
            <div> Please press any key to continue to the next image.</div>
        "," ","ITI","","","","","","",""
"","","","","","html-keyboard-response","41","68369","0.0-5.0-1.7","652e6224f7c742cf18c79e7f","655cb802637e0dbe2941dbc4","655cb8cfbf067b49b2a60c38","null","
        
        <div style=""text-align: center; position: fixed; top: 5vh; left: 40vw;"">
            <div style=""margin:0 auto; width: 20vw; top: 8vh; font-size: 2vw""> 
            <font color=""green""> Bonus : $10 </font>
            </div>
        </div>
    
        <img class=""stim"" src=./stimuli//pack_shapes_diff/cat_1/diff_1/ex_1_1_14.png></img>
    ","null","stimulus","","","","","","",""
"","","","","","html-keyboard-response","42","69381","0.0-5.0-2.7","652e6224f7c742cf18c79e7f","655cb802637e0dbe2941dbc4","655cb8cfbf067b49b2a60c38","null","
        <div style=""text-align: center; position: fixed; top: 5vh; left: 40vw;"">
            <div style=""margin:0 auto; width: 20vw; top: 8vh; font-size: 2vw""> 
            <font color=""green""> Bonus : $10 </font>
            </div>
        </div>
    ","null","","","","","","","",""
"","","","","","html-keyboard-response","43","69507","0.0-5.0-3.7","652e6224f7c742cf18c79e7f","655cb802637e0dbe2941dbc4","655cb8cfbf067b49b2a60c38","125","./stimuli//pack_shapes_diff/cat_1/diff_1/ex_1_1_14.png","arrowright","response","ArrowLeft","14","1","1","train","false",""
"","","","","","html-keyboard-response","44","71022","0.0-5.0-4.7","652e6224f7c742cf18c79e7f","655cb802637e0dbe2941dbc4","655cb8cfbf067b49b2a60c38","null","<p> <font color=""red"" size=""5vw""> Wrong category! </font> </p>","null","feedback","","","","","","","10"
"","","","","","html-keyboard-response","45","72315","0.0-5.0-0.8","652e6224f7c742cf18c79e7f","655cb802637e0dbe2941dbc4","655cb8cfbf067b49b2a60c38","1292","
            
        <div style=""text-align: center; position: fixed; top: 5vh; left: 40vw;"">
            <div style=""margin:0 auto; width: 20vw; top: 8vh; font-size: 2vw""> 
            <font color=""green""> Bonus : $10 </font>
            </div>
        </div>
    
            <div> Please press any key to continue to the next image.</div>
        "," ","ITI","","","","","","",""
"","","","","","html-keyboard-response","46","72927","0.0-5.0-1.8","652e6224f7c742cf18c79e7f","655cb802637e0dbe2941dbc4","655cb8cfbf067b49b2a60c38","null","
        
        <div style=""text-align: center; position: fixed; top: 5vh; left: 40vw;"">
            <div style=""margin:0 auto; width: 20vw; top: 8vh; font-size: 2vw""> 
            <font color=""green""> Bonus : $10 </font>
            </div>
        </div>
    
        <img class=""stim"" src=./stimuli//pack_shapes_diff/cat_2/diff_1/ex_2_1_16.png></img>
    ","null","stimulus","","","","","","",""
"","","","","","html-keyboard-response","47","73938","0.0-5.0-2.8","652e6224f7c742cf18c79e7f","655cb802637e0dbe2941dbc4","655cb8cfbf067b49b2a60c38","null","
        <div style=""text-align: center; position: fixed; top: 5vh; left: 40vw;"">
            <div style=""margin:0 auto; width: 20vw; top: 8vh; font-size: 2vw""> 
            <font color=""green""> Bonus : $10 </font>
            </div>
        </div>
    ","null","","","","","","","",""
"","","","","","html-keyboard-response","48","74990","0.0-5.0-3.8","652e6224f7c742cf18c79e7f","655cb802637e0dbe2941dbc4","655cb8cfbf067b49b2a60c38","1051","./stimuli//pack_shapes_diff/cat_2/diff_1/ex_2_1_16.png","arrowright","response","ArrowRight","16","2","1","train","true",""
"","","","","","html-keyboard-response","49","76502","0.0-5.0-4.8","652e6224f7c742cf18c79e7f","655cb802637e0dbe2941dbc4","655cb8cfbf067b49b2a60c38","null","<p> <font color=""green"" size=""5vw""> Correct category! </font> </p>","null","feedback","","","","","","","10"
"","","","","","html-keyboard-response","50","77637","0.0-5.0-0.9","652e6224f7c742cf18c79e7f","655cb802637e0dbe2941dbc4","655cb8cfbf067b49b2a60c38","1133","
            
        <div style=""text-align: center; position: fixed; top: 5vh; left: 40vw;"">
            <div style=""margin:0 auto; width: 20vw; top: 8vh; font-size: 2vw""> 
            <font color=""green""> Bonus : $10 </font>
            </div>
        </div>
    
            <div> Please press any key to continue to the next image.</div>
        "," ","ITI","","","","","","",""
"","","","","","html-keyboard-response","51","78240","0.0-5.0-1.9","652e6224f7c742cf18c79e7f","655cb802637e0dbe2941dbc4","655cb8cfbf067b49b2a60c38","null","
        
        <div style=""text-align: center; position: fixed; top: 5vh; left: 40vw;"">
            <div style=""margin:0 auto; width: 20vw; top: 8vh; font-size: 2vw""> 
            <font color=""green""> Bonus : $10 </font>
            </div>
        </div>
    
        <img class=""stim"" src=./stimuli//pack_shapes_diff/cat_1/diff_1/ex_1_1_17.png></img>
    ","null","stimulus","","","","","","",""
"","","","","","html-keyboard-response","52","79251","0.0-5.0-2.9","652e6224f7c742cf18c79e7f","655cb802637e0dbe2941dbc4","655cb8cfbf067b49b2a60c38","null","
        <div style=""text-align: center; position: fixed; top: 5vh; left: 40vw;"">
            <div style=""margin:0 auto; width: 20vw; top: 8vh; font-size: 2vw""> 
            <font color=""green""> Bonus : $10 </font>
            </div>
        </div>
    ","null","","","","","","","",""
"","","","","","html-keyboard-response","53","79824","0.0-5.0-3.9","652e6224f7c742cf18c79e7f","655cb802637e0dbe2941dbc4","655cb8cfbf067b49b2a60c38","571","./stimuli//pack_shapes_diff/cat_1/diff_1/ex_1_1_17.png","arrowleft","response","ArrowLeft","17","1","1","train","true",""
"","","","","","html-keyboard-response","54","81337","0.0-5.0-4.9","652e6224f7c742cf18c79e7f","655cb802637e0dbe2941dbc4","655cb8cfbf067b49b2a60c38","null","<p> <font color=""green"" size=""5vw""> Correct category! </font> </p>","null","feedback","","","","","","","10"
"","","","","","html-keyboard-response","55","89333","0.0-6.0","652e6224f7c742cf18c79e7f","655cb802637e0dbe2941dbc4","655cb8cfbf067b49b2a60c38","7995","
            <b> <p> The practice round has finished.</p>
            <b> For the rest of the experiment if you guess incorrectly $0.05 will be subtracted from your bonus!</b>
            <p> Press any key to begin the test. </p>
            "," ","intermission","","","","","","",""
"","","","","","html-keyboard-response","56","92698","0.0-7.0-0.0","652e6224f7c742cf18c79e7f","655cb802637e0dbe2941dbc4","655cb8cfbf067b49b2a60c38","3364","
            
        <div style=""text-align: center; position: fixed; top: 5vh; left: 40vw;"">
            <div style=""margin:0 auto; width: 20vw; top: 8vh; font-size: 2vw""> 
            <font color=""green""> Bonus : $10 </font>
            </div>
        </div>
    
            <div> Please press any key to continue to the next image.</div>
        "," ","ITI","","","","","","",""
"","","","","","html-keyboard-response","57","93309","0.0-7.0-1.0","652e6224f7c742cf18c79e7f","655cb802637e0dbe2941dbc4","655cb8cfbf067b49b2a60c38","null","
        
        <div style=""text-align: center; position: fixed; top: 5vh; left: 40vw;"">
            <div style=""margin:0 auto; width: 20vw; top: 8vh; font-size: 2vw""> 
            <font color=""green""> Bonus : $10 </font>
            </div>
        </div>
    
        <img class=""stim"" src=./stimuli//pack_shapes_diff/cat_2/diff_1/ex_2_1_4.png></img>
    ","null","stimulus","","","","","","",""
"","","","","","html-keyboard-response","58","94312","0.0-7.0-2.0","652e6224f7c742cf18c79e7f","655cb802637e0dbe2941dbc4","655cb8cfbf067b49b2a60c38","null","
        <div style=""text-align: center; position: fixed; top: 5vh; left: 40vw;"">
            <div style=""margin:0 auto; width: 20vw; top: 8vh; font-size: 2vw""> 
            <font color=""green""> Bonus : $10 </font>
            </div>
        </div>
    ","null","","","","","","","",""
"","","","","","html-keyboard-response","59","94839","0.0-7.0-3.0","652e6224f7c742cf18c79e7f","655cb802637e0dbe2941dbc4","655cb8cfbf067b49b2a60c38","525","./stimuli//pack_shapes_diff/cat_2/diff_1/ex_2_1_4.png","arrowleft","response","ArrowRight","4","2","1","test","false",""
"","","","","","html-keyboard-response","60","96353","0.0-7.0-4.0","652e6224f7c742cf18c79e7f","655cb802637e0dbe2941dbc4","655cb8cfbf067b49b2a60c38","null","<p> <font size=""4vw""> Wrong category! </font> <br> <br> <font color=""red"" size=""7vw""> - $0.05 points </font> </p>","null","feedback","","","","","","","9.95"
"","","","","","html-keyboard-response","61","98447","0.0-7.1-0.1","652e6224f7c742cf18c79e7f","655cb802637e0dbe2941dbc4","655cb8cfbf067b49b2a60c38","2093","
            
        <div style=""text-align: center; position: fixed; top: 5vh; left: 40vw;"">
            <div style=""margin:0 auto; width: 20vw; top: 8vh; font-size: 2vw""> 
            <font color=""green""> Bonus : $9.95 </font>
            </div>
        </div>
    
            <div> Please press any key to continue to the next image.</div>
        "," ","ITI","","","","","","",""
"","","","","","html-keyboard-response","62","99060","0.0-7.1-1.1","652e6224f7c742cf18c79e7f","655cb802637e0dbe2941dbc4","655cb8cfbf067b49b2a60c38","null","
        
        <div style=""text-align: center; position: fixed; top: 5vh; left: 40vw;"">
            <div style=""margin:0 auto; width: 20vw; top: 8vh; font-size: 2vw""> 
            <font color=""green""> Bonus : $9.95 </font>
            </div>
        </div>
    
        <img class=""stim"" src=./stimuli//pack_shapes_diff/cat_1/diff_1/ex_1_1_16.png></img>
    ","null","stimulus","","","","","","",""
"","","","","","html-keyboard-response","63","100064","0.0-7.1-2.1","652e6224f7c742cf18c79e7f","655cb802637e0dbe2941dbc4","655cb8cfbf067b49b2a60c38","null","
        <div style=""text-align: center; position: fixed; top: 5vh; left: 40vw;"">
            <div style=""margin:0 auto; width: 20vw; top: 8vh; font-size: 2vw""> 
            <font color=""green""> Bonus : $9.95 </font>
            </div>
        </div>
    ","null","","","","","","","",""
"","","","","","html-keyboard-response","64","100584","0.0-7.1-3.1","652e6224f7c742cf18c79e7f","655cb802637e0dbe2941dbc4","655cb8cfbf067b49b2a60c38","519","./stimuli//pack_shapes_diff/cat_1/diff_1/ex_1_1_16.png","arrowright","response","ArrowLeft","16","1","1","test","false",""
"","","","","","html-keyboard-response","65","102088","0.0-7.1-4.1","652e6224f7c742cf18c79e7f","655cb802637e0dbe2941dbc4","655cb8cfbf067b49b2a60c38","null","<p> <font size=""4vw""> Wrong category! </font> <br> <br> <font color=""red"" size=""7vw""> - $0.05 points </font> </p>","null","feedback","","","","","","","9.9"
"","","","","","html-keyboard-response","66","102695","0.0-7.2-0.2","652e6224f7c742cf18c79e7f","655cb802637e0dbe2941dbc4","655cb8cfbf067b49b2a60c38","606","
            
        <div style=""text-align: center; position: fixed; top: 5vh; left: 40vw;"">
            <div style=""margin:0 auto; width: 20vw; top: 8vh; font-size: 2vw""> 
            <font color=""green""> Bonus : $9.9 </font>
            </div>
        </div>
    
            <div> Please press any key to continue to the next image.</div>
        "," ","ITI","","","","","","",""
"","","","","","html-keyboard-response","67","103303","0.0-7.2-1.2","652e6224f7c742cf18c79e7f","655cb802637e0dbe2941dbc4","655cb8cfbf067b49b2a60c38","null","
        
        <div style=""text-align: center; position: fixed; top: 5vh; left: 40vw;"">
            <div style=""margin:0 auto; width: 20vw; top: 8vh; font-size: 2vw""> 
            <font color=""green""> Bonus : $9.9 </font>
            </div>
        </div>
    
        <img class=""stim"" src=./stimuli//pack_shapes_diff/cat_1/diff_1/ex_1_1_5.png></img>
    ","null","stimulus","","","","","","",""
"","","","","","html-keyboard-response","68","104316","0.0-7.2-2.2","652e6224f7c742cf18c79e7f","655cb802637e0dbe2941dbc4","655cb8cfbf067b49b2a60c38","null","
        <div style=""text-align: center; position: fixed; top: 5vh; left: 40vw;"">
            <div style=""margin:0 auto; width: 20vw; top: 8vh; font-size: 2vw""> 
            <font color=""green""> Bonus : $9.9 </font>
            </div>
        </div>
    ","null","","","","","","","",""
"","","","","","html-keyboard-response","69","104981","0.0-7.2-3.2","652e6224f7c742cf18c79e7f","655cb802637e0dbe2941dbc4","655cb8cfbf067b49b2a60c38","664","./stimuli//pack_shapes_diff/cat_1/diff_1/ex_1_1_5.png","arrowright","response","ArrowLeft","5","1","1","test","false",""
"","","","","","html-keyboard-response","70","106491","0.0-7.2-4.2","652e6224f7c742cf18c79e7f","655cb802637e0dbe2941dbc4","655cb8cfbf067b49b2a60c38","null","<p> <font size=""4vw""> Wrong category! </font> <br> <br> <font color=""red"" size=""7vw""> - $0.05 points </font> </p>","null","feedback","","","","","","","9.85"
"","","","","","html-keyboard-response","71","107103","0.0-7.3-0.3","652e6224f7c742cf18c79e7f","655cb802637e0dbe2941dbc4","655cb8cfbf067b49b2a60c38","611","
            
        <div style=""text-align: center; position: fixed; top: 5vh; left: 40vw;"">
            <div style=""margin:0 auto; width: 20vw; top: 8vh; font-size: 2vw""> 
            <font color=""green""> Bonus : $9.85 </font>
            </div>
        </div>
    
            <div> Please press any key to continue to the next image.</div>
        "," ","ITI","","","","","","",""
"","","","","","html-keyboard-response","72","107712","0.0-7.3-1.3","652e6224f7c742cf18c79e7f","655cb802637e0dbe2941dbc4","655cb8cfbf067b49b2a60c38","null","
        
        <div style=""text-align: center; position: fixed; top: 5vh; left: 40vw;"">
            <div style=""margin:0 auto; width: 20vw; top: 8vh; font-size: 2vw""> 
            <font color=""green""> Bonus : $9.85 </font>
            </div>
        </div>
    
        <img class=""stim"" src=./stimuli//pack_shapes_diff/cat_2/diff_1/ex_2_1_7.png></img>
    ","null","stimulus","","","","","","",""
"","","","","","html-keyboard-response","73","108728","0.0-7.3-2.3","652e6224f7c742cf18c79e7f","655cb802637e0dbe2941dbc4","655cb8cfbf067b49b2a60c38","null","
        <div style=""text-align: center; position: fixed; top: 5vh; left: 40vw;"">
            <div style=""margin:0 auto; width: 20vw; top: 8vh; font-size: 2vw""> 
            <font color=""green""> Bonus : $9.85 </font>
            </div>
        </div>
    ","null","","","","","","","",""
"","","","","","html-keyboard-response","74","109317","0.0-7.3-3.3","652e6224f7c742cf18c79e7f","655cb802637e0dbe2941dbc4","655cb8cfbf067b49b2a60c38","588","./stimuli//pack_shapes_diff/cat_2/diff_1/ex_2_1_7.png","arrowright","response","ArrowRight","7","2","1","test","true",""
"","","","","","html-keyboard-response","75","110821","0.0-7.3-4.3","652e6224f7c742cf18c79e7f","655cb802637e0dbe2941dbc4","655cb8cfbf067b49b2a60c38","null","<p> <font color=""green"" size=""5vw""> Correct category! </font></p>","null","feedback","","","","","","","9.85"
"","","","","","html-keyboard-response","76","111650","0.0-7.4-0.4","652e6224f7c742cf18c79e7f","655cb802637e0dbe2941dbc4","655cb8cfbf067b49b2a60c38","828","
            
        <div style=""text-align: center; position: fixed; top: 5vh; left: 40vw;"">
            <div style=""margin:0 auto; width: 20vw; top: 8vh; font-size: 2vw""> 
            <font color=""green""> Bonus : $9.85 </font>
            </div>
        </div>
    
            <div> Please press any key to continue to the next image.</div>
        "," ","ITI","","","","","","",""
"","","","","","html-keyboard-response","77","112266","0.0-7.4-1.4","652e6224f7c742cf18c79e7f","655cb802637e0dbe2941dbc4","655cb8cfbf067b49b2a60c38","null","
        
        <div style=""text-align: center; position: fixed; top: 5vh; left: 40vw;"">
            <div style=""margin:0 auto; width: 20vw; top: 8vh; font-size: 2vw""> 
            <font color=""green""> Bonus : $9.85 </font>
            </div>
        </div>
    
        <img class=""stim"" src=./stimuli//pack_shapes_diff/cat_2/diff_1/ex_2_1_15.png></img>
    ","null","stimulus","","","","","","",""
"","","","","","html-keyboard-response","78","113271","0.0-7.4-2.4","652e6224f7c742cf18c79e7f","655cb802637e0dbe2941dbc4","655cb8cfbf067b49b2a60c38","null","
        <div style=""text-align: center; position: fixed; top: 5vh; left: 40vw;"">
            <div style=""margin:0 auto; width: 20vw; top: 8vh; font-size: 2vw""> 
            <font color=""green""> Bonus : $9.85 </font>
            </div>
        </div>
    ","null","","","","","","","",""
"","","","","","html-keyboard-response","79","113932","0.0-7.4-3.4","652e6224f7c742cf18c79e7f","655cb802637e0dbe2941dbc4","655cb8cfbf067b49b2a60c38","659","./stimuli//pack_shapes_diff/cat_2/diff_1/ex_2_1_15.png","arrowright","response","ArrowRight","15","2","1","test","true",""
"","","","","","html-keyboard-response","80","115448","0.0-7.4-4.4","652e6224f7c742cf18c79e7f","655cb802637e0dbe2941dbc4","655cb8cfbf067b49b2a60c38","null","<p> <font color=""green"" size=""5vw""> Correct category! </font></p>","null","feedback","","","","","","","9.85"
"","","","","","html-keyboard-response","81","116136","0.0-7.5-0.5","652e6224f7c742cf18c79e7f","655cb802637e0dbe2941dbc4","655cb8cfbf067b49b2a60c38","687","
            
        <div style=""text-align: center; position: fixed; top: 5vh; left: 40vw;"">
            <div style=""margin:0 auto; width: 20vw; top: 8vh; font-size: 2vw""> 
            <font color=""green""> Bonus : $9.85 </font>
            </div>
        </div>
    
            <div> Please press any key to continue to the next image.</div>
        "," ","ITI","","","","","","",""
"","","","","","html-keyboard-response","82","116741","0.0-7.5-1.5","652e6224f7c742cf18c79e7f","655cb802637e0dbe2941dbc4","655cb8cfbf067b49b2a60c38","null","
        
        <div style=""text-align: center; position: fixed; top: 5vh; left: 40vw;"">
            <div style=""margin:0 auto; width: 20vw; top: 8vh; font-size: 2vw""> 
            <font color=""green""> Bonus : $9.85 </font>
            </div>
        </div>
    
        <img class=""stim"" src=./stimuli//pack_shapes_diff/cat_1/diff_1/ex_1_1_6.png></img>
    ","null","stimulus","","","","","","",""
"","","","","","html-keyboard-response","83","117749","0.0-7.5-2.5","652e6224f7c742cf18c79e7f","655cb802637e0dbe2941dbc4","655cb8cfbf067b49b2a60c38","null","
        <div style=""text-align: center; position: fixed; top: 5vh; left: 40vw;"">
            <div style=""margin:0 auto; width: 20vw; top: 8vh; font-size: 2vw""> 
            <font color=""green""> Bonus : $9.85 </font>
            </div>
        </div>
    ","null","","","","","","","",""
"","","","","","html-keyboard-response","84","118137","0.0-7.5-3.5","652e6224f7c742cf18c79e7f","655cb802637e0dbe2941dbc4","655cb8cfbf067b49b2a60c38","387","./stimuli//pack_shapes_diff/cat_1/diff_1/ex_1_1_6.png","arrowleft","response","ArrowLeft","6","1","1","test","true",""
"","","","","","html-keyboard-response","85","119640","0.0-7.5-4.5","652e6224f7c742cf18c79e7f","655cb802637e0dbe2941dbc4","655cb8cfbf067b49b2a60c38","null","<p> <font color=""green"" size=""5vw""> Correct category! </font></p>","null","feedback","","","","","","","9.85"
"","","","","","html-keyboard-response","86","120318","0.0-7.6-0.6","652e6224f7c742cf18c79e7f","655cb802637e0dbe2941dbc4","655cb8cfbf067b49b2a60c38","676","
            
        <div style=""text-align: center; position: fixed; top: 5vh; left: 40vw;"">
            <div style=""margin:0 auto; width: 20vw; top: 8vh; font-size: 2vw""> 
            <font color=""green""> Bonus : $9.85 </font>
            </div>
        </div>
    
            <div> Please press any key to continue to the next image.</div>
        "," ","ITI","","","","","","",""
"","","","","","html-keyboard-response","87","120932","0.0-7.6-1.6","652e6224f7c742cf18c79e7f","655cb802637e0dbe2941dbc4","655cb8cfbf067b49b2a60c38","null","
        
        <div style=""text-align: center; position: fixed; top: 5vh; left: 40vw;"">
            <div style=""margin:0 auto; width: 20vw; top: 8vh; font-size: 2vw""> 
            <font color=""green""> Bonus : $9.85 </font>
            </div>
        </div>
    
        <img class=""stim"" src=./stimuli//pack_shapes_diff/cat_2/diff_1/ex_2_1_9.png></img>
    ","null","stimulus","","","","","","",""
"","","","","","html-keyboard-response","88","121944","0.0-7.6-2.6","652e6224f7c742cf18c79e7f","655cb802637e0dbe2941dbc4","655cb8cfbf067b49b2a60c38","null","
        <div style=""text-align: center; position: fixed; top: 5vh; left: 40vw;"">
            <div style=""margin:0 auto; width: 20vw; top: 8vh; font-size: 2vw""> 
            <font color=""green""> Bonus : $9.85 </font>
            </div>
        </div>
    ","null","","","","","","","",""
"","","","","","html-keyboard-response","89","121996","0.0-7.6-3.6","652e6224f7c742cf18c79e7f","655cb802637e0dbe2941dbc4","655cb8cfbf067b49b2a60c38","50","./stimuli//pack_shapes_diff/cat_2/diff_1/ex_2_1_9.png","arrowright","response","ArrowRight","9","2","1","test","true",""
"","","","","","html-keyboard-response","90","123019","0.0-7.6-4.6","652e6224f7c742cf18c79e7f","655cb802637e0dbe2941dbc4","655cb8cfbf067b49b2a60c38","1022","<p> <font color=""green"" size=""5vw""> Correct category! </font></p>"," ","feedback","","","","","","","9.85"
"","","","","","html-keyboard-response","91","125976","0.0-7.7-0.7","652e6224f7c742cf18c79e7f","655cb802637e0dbe2941dbc4","655cb8cfbf067b49b2a60c38","2956","
            
        <div style=""text-align: center; position: fixed; top: 5vh; left: 40vw;"">
            <div style=""margin:0 auto; width: 20vw; top: 8vh; font-size: 2vw""> 
            <font color=""green""> Bonus : $9.85 </font>
            </div>
        </div>
    
            <div> Please press any key to continue to the next image.</div>
        "," ","ITI","","","","","","",""
"","","","","","html-keyboard-response","92","126590","0.0-7.7-1.7","652e6224f7c742cf18c79e7f","655cb802637e0dbe2941dbc4","655cb8cfbf067b49b2a60c38","null","
        
        <div style=""text-align: center; position: fixed; top: 5vh; left: 40vw;"">
            <div style=""margin:0 auto; width: 20vw; top: 8vh; font-size: 2vw""> 
            <font color=""green""> Bonus : $9.85 </font>
            </div>
        </div>
    
        <img class=""stim"" src=./stimuli//pack_shapes_diff/cat_1/diff_2/ex_1_2_6.png></img>
    ","null","stimulus","","","","","","",""
"","","","","","html-keyboard-response","93","127599","0.0-7.7-2.7","652e6224f7c742cf18c79e7f","655cb802637e0dbe2941dbc4","655cb8cfbf067b49b2a60c38","null","
        <div style=""text-align: center; position: fixed; top: 5vh; left: 40vw;"">
            <div style=""margin:0 auto; width: 20vw; top: 8vh; font-size: 2vw""> 
            <font color=""green""> Bonus : $9.85 </font>
            </div>
        </div>
    ","null","","","","","","","",""
"","","","","","html-keyboard-response","94","128139","0.0-7.7-3.7","652e6224f7c742cf18c79e7f","655cb802637e0dbe2941dbc4","655cb8cfbf067b49b2a60c38","539","./stimuli//pack_shapes_diff/cat_1/diff_2/ex_1_2_6.png","arrowleft","response","ArrowLeft","6","1","2","test","true",""
"","","","","","html-keyboard-response","95","129654","0.0-7.7-4.7","652e6224f7c742cf18c79e7f","655cb802637e0dbe2941dbc4","655cb8cfbf067b49b2a60c38","null","<p> <font color=""green"" size=""5vw""> Correct category! </font></p>","null","feedback","","","","","","","9.85"
"","","","","","html-keyboard-response","96","130614","0.0-7.8-0.8","652e6224f7c742cf18c79e7f","655cb802637e0dbe2941dbc4","655cb8cfbf067b49b2a60c38","958","
            
        <div style=""text-align: center; position: fixed; top: 5vh; left: 40vw;"">
            <div style=""margin:0 auto; width: 20vw; top: 8vh; font-size: 2vw""> 
            <font color=""green""> Bonus : $9.85 </font>
            </div>
        </div>
    
            <div> Please press any key to continue to the next image.</div>
        "," ","ITI","","","","","","",""
"","","","","","html-keyboard-response","97","131227","0.0-7.8-1.8","652e6224f7c742cf18c79e7f","655cb802637e0dbe2941dbc4","655cb8cfbf067b49b2a60c38","null","
        
        <div style=""text-align: center; position: fixed; top: 5vh; left: 40vw;"">
            <div style=""margin:0 auto; width: 20vw; top: 8vh; font-size: 2vw""> 
            <font color=""green""> Bonus : $9.85 </font>
            </div>
        </div>
    
        <img class=""stim"" src=./stimuli//pack_shapes_diff/cat_1/diff_2/ex_1_2_13.png></img>
    ","null","stimulus","","","","","","",""
"","","","","","html-keyboard-response","98","132232","0.0-7.8-2.8","652e6224f7c742cf18c79e7f","655cb802637e0dbe2941dbc4","655cb8cfbf067b49b2a60c38","null","
        <div style=""text-align: center; position: fixed; top: 5vh; left: 40vw;"">
            <div style=""margin:0 auto; width: 20vw; top: 8vh; font-size: 2vw""> 
            <font color=""green""> Bonus : $9.85 </font>
            </div>
        </div>
    ","null","","","","","","","",""
"","","","","","html-keyboard-response","99","132680","0.0-7.8-3.8","652e6224f7c742cf18c79e7f","655cb802637e0dbe2941dbc4","655cb8cfbf067b49b2a60c38","446","./stimuli//pack_shapes_diff/cat_1/diff_2/ex_1_2_13.png","arrowleft","response","ArrowLeft","13","1","2","test","true",""
"","","","","","html-keyboard-response","100","134197","0.0-7.8-4.8","652e6224f7c742cf18c79e7f","655cb802637e0dbe2941dbc4","655cb8cfbf067b49b2a60c38","null","<p> <font color=""green"" size=""5vw""> Correct category! </font></p>","null","feedback","","","","","","","9.85"
"","","","","","html-keyboard-response","101","134871","0.0-7.9-0.9","652e6224f7c742cf18c79e7f","655cb802637e0dbe2941dbc4","655cb8cfbf067b49b2a60c38","673","
            
        <div style=""text-align: center; position: fixed; top: 5vh; left: 40vw;"">
            <div style=""margin:0 auto; width: 20vw; top: 8vh; font-size: 2vw""> 
            <font color=""green""> Bonus : $9.85 </font>
            </div>
        </div>
    
            <div> Please press any key to continue to the next image.</div>
        "," ","ITI","","","","","","",""
"","","","","","html-keyboard-response","102","135487","0.0-7.9-1.9","652e6224f7c742cf18c79e7f","655cb802637e0dbe2941dbc4","655cb8cfbf067b49b2a60c38","null","
        
        <div style=""text-align: center; position: fixed; top: 5vh; left: 40vw;"">
            <div style=""margin:0 auto; width: 20vw; top: 8vh; font-size: 2vw""> 
            <font color=""green""> Bonus : $9.85 </font>
            </div>
        </div>
    
        <img class=""stim"" src=./stimuli//pack_shapes_diff/cat_2/diff_2/ex_2_2_17.png></img>
    ","null","stimulus","","","","","","",""
"","","","","","html-keyboard-response","103","136504","0.0-7.9-2.9","652e6224f7c742cf18c79e7f","655cb802637e0dbe2941dbc4","655cb8cfbf067b49b2a60c38","null","
        <div style=""text-align: center; position: fixed; top: 5vh; left: 40vw;"">
            <div style=""margin:0 auto; width: 20vw; top: 8vh; font-size: 2vw""> 
            <font color=""green""> Bonus : $9.85 </font>
            </div>
        </div>
    ","null","","","","","","","",""
"","","","","","html-keyboard-response","104","138420","0.0-7.9-3.9","652e6224f7c742cf18c79e7f","655cb802637e0dbe2941dbc4","655cb8cfbf067b49b2a60c38","1915","./stimuli//pack_shapes_diff/cat_2/diff_2/ex_2_2_17.png","arrowright","response","ArrowRight","17","2","2","test","true",""
"","","","","","html-keyboard-response","105","139934","0.0-7.9-4.9","652e6224f7c742cf18c79e7f","655cb802637e0dbe2941dbc4","655cb8cfbf067b49b2a60c38","null","<p> <font color=""green"" size=""5vw""> Correct category! </font></p>","null","feedback","","","","","","","9.85"
"","","","","","html-keyboard-response","106","140451","0.0-7.10-0.10","652e6224f7c742cf18c79e7f","655cb802637e0dbe2941dbc4","655cb8cfbf067b49b2a60c38","516","
            
        <div style=""text-align: center; position: fixed; top: 5vh; left: 40vw;"">
            <div style=""margin:0 auto; width: 20vw; top: 8vh; font-size: 2vw""> 
            <font color=""green""> Bonus : $9.85 </font>
            </div>
        </div>
    
            <div> Please press any key to continue to the next image.</div>
        "," ","ITI","","","","","","",""
"","","","","","html-keyboard-response","107","141067","0.0-7.10-1.10","652e6224f7c742cf18c79e7f","655cb802637e0dbe2941dbc4","655cb8cfbf067b49b2a60c38","null","
        
        <div style=""text-align: center; position: fixed; top: 5vh; left: 40vw;"">
            <div style=""margin:0 auto; width: 20vw; top: 8vh; font-size: 2vw""> 
            <font color=""green""> Bonus : $9.85 </font>
            </div>
        </div>
    
        <img class=""stim"" src=./stimuli//pack_shapes_diff/cat_2/diff_2/ex_2_2_14.png></img>
    ","null","stimulus","","","","","","",""
"","","","","","html-keyboard-response","108","142077","0.0-7.10-2.10","652e6224f7c742cf18c79e7f","655cb802637e0dbe2941dbc4","655cb8cfbf067b49b2a60c38","null","
        <div style=""text-align: center; position: fixed; top: 5vh; left: 40vw;"">
            <div style=""margin:0 auto; width: 20vw; top: 8vh; font-size: 2vw""> 
            <font color=""green""> Bonus : $9.85 </font>
            </div>
        </div>
    ","null","","","","","","","",""
"","","","","","html-keyboard-response","109","142419","0.0-7.10-3.10","652e6224f7c742cf18c79e7f","655cb802637e0dbe2941dbc4","655cb8cfbf067b49b2a60c38","342","./stimuli//pack_shapes_diff/cat_2/diff_2/ex_2_2_14.png","arrowleft","response","ArrowRight","14","2","2","test","false",""
"","","","","","html-keyboard-response","110","143922","0.0-7.10-4.10","652e6224f7c742cf18c79e7f","655cb802637e0dbe2941dbc4","655cb8cfbf067b49b2a60c38","null","<p> <font size=""4vw""> Wrong category! </font> <br> <br> <font color=""red"" size=""7vw""> - $0.05 points </font> </p>","null","feedback","","","","","","","9.8"
"","","","","","html-keyboard-response","111","144412","0.0-7.11-0.11","652e6224f7c742cf18c79e7f","655cb802637e0dbe2941dbc4","655cb8cfbf067b49b2a60c38","489","
            
        <div style=""text-align: center; position: fixed; top: 5vh; left: 40vw;"">
            <div style=""margin:0 auto; width: 20vw; top: 8vh; font-size: 2vw""> 
            <font color=""green""> Bonus : $9.8 </font>
            </div>
        </div>
    
            <div> Please press any key to continue to the next image.</div>
        "," ","ITI","","","","","","",""
"","","","","","html-keyboard-response","112","145021","0.0-7.11-1.11","652e6224f7c742cf18c79e7f","655cb802637e0dbe2941dbc4","655cb8cfbf067b49b2a60c38","null","
        
        <div style=""text-align: center; position: fixed; top: 5vh; left: 40vw;"">
            <div style=""margin:0 auto; width: 20vw; top: 8vh; font-size: 2vw""> 
            <font color=""green""> Bonus : $9.8 </font>
            </div>
        </div>
    
        <img class=""stim"" src=./stimuli//pack_shapes_diff/cat_1/diff_2/ex_1_2_11.png></img>
    ","null","stimulus","","","","","","",""
"","","","","","html-keyboard-response","113","146023","0.0-7.11-2.11","652e6224f7c742cf18c79e7f","655cb802637e0dbe2941dbc4","655cb8cfbf067b49b2a60c38","null","
        <div style=""text-align: center; position: fixed; top: 5vh; left: 40vw;"">
            <div style=""margin:0 auto; width: 20vw; top: 8vh; font-size: 2vw""> 
            <font color=""green""> Bonus : $9.8 </font>
            </div>
        </div>
    ","null","","","","","","","",""
"","","","","","html-keyboard-response","114","146633","0.0-7.11-3.11","652e6224f7c742cf18c79e7f","655cb802637e0dbe2941dbc4","655cb8cfbf067b49b2a60c38","609","./stimuli//pack_shapes_diff/cat_1/diff_2/ex_1_2_11.png","arrowright","response","ArrowLeft","11","1","2","test","false",""
"","","","","","html-keyboard-response","115","148149","0.0-7.11-4.11","652e6224f7c742cf18c79e7f","655cb802637e0dbe2941dbc4","655cb8cfbf067b49b2a60c38","null","<p> <font size=""4vw""> Wrong category! </font> <br> <br> <font color=""red"" size=""7vw""> - $0.05 points </font> </p>","null","feedback","","","","","","","9.75"
"","","","","","html-keyboard-response","116","148807","0.0-7.12-0.12","652e6224f7c742cf18c79e7f","655cb802637e0dbe2941dbc4","655cb8cfbf067b49b2a60c38","657","
            
        <div style=""text-align: center; position: fixed; top: 5vh; left: 40vw;"">
            <div style=""margin:0 auto; width: 20vw; top: 8vh; font-size: 2vw""> 
            <font color=""green""> Bonus : $9.75 </font>
            </div>
        </div>
    
            <div> Please press any key to continue to the next image.</div>
        "," ","ITI","","","","","","",""
"","","","","","html-keyboard-response","117","149408","0.0-7.12-1.12","652e6224f7c742cf18c79e7f","655cb802637e0dbe2941dbc4","655cb8cfbf067b49b2a60c38","null","
        
        <div style=""text-align: center; position: fixed; top: 5vh; left: 40vw;"">
            <div style=""margin:0 auto; width: 20vw; top: 8vh; font-size: 2vw""> 
            <font color=""green""> Bonus : $9.75 </font>
            </div>
        </div>
    
        <img class=""stim"" src=./stimuli//pack_shapes_diff/cat_2/diff_1/ex_2_1_10.png></img>
    ","null","stimulus","","","","","","",""
"","","","","","html-keyboard-response","118","150424","0.0-7.12-2.12","652e6224f7c742cf18c79e7f","655cb802637e0dbe2941dbc4","655cb8cfbf067b49b2a60c38","null","
        <div style=""text-align: center; position: fixed; top: 5vh; left: 40vw;"">
            <div style=""margin:0 auto; width: 20vw; top: 8vh; font-size: 2vw""> 
            <font color=""green""> Bonus : $9.75 </font>
            </div>
        </div>
    ","null","","","","","","","",""
"","","","","","html-keyboard-response","119","152418","0.0-7.12-3.12","652e6224f7c742cf18c79e7f","655cb802637e0dbe2941dbc4","655cb8cfbf067b49b2a60c38","1992","./stimuli//pack_shapes_diff/cat_2/diff_1/ex_2_1_10.png","arrowright","response","ArrowRight","10","2","1","test","true",""
"","","","","","html-keyboard-response","120","153930","0.0-7.12-4.12","652e6224f7c742cf18c79e7f","655cb802637e0dbe2941dbc4","655cb8cfbf067b49b2a60c38","null","<p> <font color=""green"" size=""5vw""> Correct category! </font></p>","null","feedback","","","","","","","9.75"
"","","","","","html-keyboard-response","121","154958","0.0-7.13-0.13","652e6224f7c742cf18c79e7f","655cb802637e0dbe2941dbc4","655cb8cfbf067b49b2a60c38","1027","
            
        <div style=""text-align: center; position: fixed; top: 5vh; left: 40vw;"">
            <div style=""margin:0 auto; width: 20vw; top: 8vh; font-size: 2vw""> 
            <font color=""green""> Bonus : $9.75 </font>
            </div>
        </div>
    
            <div> Please press any key to continue to the next image.</div>
        "," ","ITI","","","","","","",""
"","","","","","html-keyboard-response","122","155569","0.0-7.13-1.13","652e6224f7c742cf18c79e7f","655cb802637e0dbe2941dbc4","655cb8cfbf067b49b2a60c38","null","
        
        <div style=""text-align: center; position: fixed; top: 5vh; left: 40vw;"">
            <div style=""margin:0 auto; width: 20vw; top: 8vh; font-size: 2vw""> 
            <font color=""green""> Bonus : $9.75 </font>
            </div>
        </div>
    
        <img class=""stim"" src=./stimuli//pack_shapes_diff/cat_2/diff_1/ex_2_1_4.png></img>
    ","null","stimulus","","","","","","",""
"","","","","","html-keyboard-response","123","156581","0.0-7.13-2.13","652e6224f7c742cf18c79e7f","655cb802637e0dbe2941dbc4","655cb8cfbf067b49b2a60c38","null","
        <div style=""text-align: center; position: fixed; top: 5vh; left: 40vw;"">
            <div style=""margin:0 auto; width: 20vw; top: 8vh; font-size: 2vw""> 
            <font color=""green""> Bonus : $9.75 </font>
            </div>
        </div>
    ","null","","","","","","","",""
"","","","","","html-keyboard-response","124","157336","0.0-7.13-3.13","652e6224f7c742cf18c79e7f","655cb802637e0dbe2941dbc4","655cb8cfbf067b49b2a60c38","753","./stimuli//pack_shapes_diff/cat_2/diff_1/ex_2_1_4.png","arrowleft","response","ArrowRight","4","2","1","test","false",""
"","","","","","html-keyboard-response","125","158848","0.0-7.13-4.13","652e6224f7c742cf18c79e7f","655cb802637e0dbe2941dbc4","655cb8cfbf067b49b2a60c38","null","<p> <font size=""4vw""> Wrong category! </font> <br> <br> <font color=""red"" size=""7vw""> - $0.05 points </font> </p>","null","feedback","","","","","","","9.7"
"","","","","","html-keyboard-response","126","159350","0.0-7.14-0.14","652e6224f7c742cf18c79e7f","655cb802637e0dbe2941dbc4","655cb8cfbf067b49b2a60c38","500","
            
        <div style=""text-align: center; position: fixed; top: 5vh; left: 40vw;"">
            <div style=""margin:0 auto; width: 20vw; top: 8vh; font-size: 2vw""> 
            <font color=""green""> Bonus : $9.7 </font>
            </div>
        </div>
    
            <div> Please press any key to continue to the next image.</div>
        "," ","ITI","","","","","","",""
"","","","","","html-keyboard-response","127","159953","0.0-7.14-1.14","652e6224f7c742cf18c79e7f","655cb802637e0dbe2941dbc4","655cb8cfbf067b49b2a60c38","null","
        
        <div style=""text-align: center; position: fixed; top: 5vh; left: 40vw;"">
            <div style=""margin:0 auto; width: 20vw; top: 8vh; font-size: 2vw""> 
            <font color=""green""> Bonus : $9.7 </font>
            </div>
        </div>
    
        <img class=""stim"" src=./stimuli//pack_shapes_diff/cat_2/diff_1/ex_2_1_17.png></img>
    ","null","stimulus","","","","","","",""
"","","","","","html-keyboard-response","128","160963","0.0-7.14-2.14","652e6224f7c742cf18c79e7f","655cb802637e0dbe2941dbc4","655cb8cfbf067b49b2a60c38","null","
        <div style=""text-align: center; position: fixed; top: 5vh; left: 40vw;"">
            <div style=""margin:0 auto; width: 20vw; top: 8vh; font-size: 2vw""> 
            <font color=""green""> Bonus : $9.7 </font>
            </div>
        </div>
    ","null","","","","","","","",""
"","","","","","html-keyboard-response","129","161395","0.0-7.14-3.14","652e6224f7c742cf18c79e7f","655cb802637e0dbe2941dbc4","655cb8cfbf067b49b2a60c38","432","./stimuli//pack_shapes_diff/cat_2/diff_1/ex_2_1_17.png","arrowright","response","ArrowRight","17","2","1","test","true",""
"","","","","","html-keyboard-response","130","162903","0.0-7.14-4.14","652e6224f7c742cf18c79e7f","655cb802637e0dbe2941dbc4","655cb8cfbf067b49b2a60c38","null","<p> <font color=""green"" size=""5vw""> Correct category! </font></p>","null","feedback","","","","","","","9.7"
"","","","","","html-keyboard-response","131","163435","0.0-7.15-0.15","652e6224f7c742cf18c79e7f","655cb802637e0dbe2941dbc4","655cb8cfbf067b49b2a60c38","531","
            
        <div style=""text-align: center; position: fixed; top: 5vh; left: 40vw;"">
            <div style=""margin:0 auto; width: 20vw; top: 8vh; font-size: 2vw""> 
            <font color=""green""> Bonus : $9.7 </font>
            </div>
        </div>
    
            <div> Please press any key to continue to the next image.</div>
        "," ","ITI","","","","","","",""
"","","","","","html-keyboard-response","132","164051","0.0-7.15-1.15","652e6224f7c742cf18c79e7f","655cb802637e0dbe2941dbc4","655cb8cfbf067b49b2a60c38","null","
        
        <div style=""text-align: center; position: fixed; top: 5vh; left: 40vw;"">
            <div style=""margin:0 auto; width: 20vw; top: 8vh; font-size: 2vw""> 
            <font color=""green""> Bonus : $9.7 </font>
            </div>
        </div>
    
        <img class=""stim"" src=./stimuli//pack_shapes_diff/cat_2/diff_1/ex_2_1_10.png></img>
    ","null","stimulus","","","","","","",""
"","","","","","html-keyboard-response","133","165067","0.0-7.15-2.15","652e6224f7c742cf18c79e7f","655cb802637e0dbe2941dbc4","655cb8cfbf067b49b2a60c38","null","
        <div style=""text-align: center; position: fixed; top: 5vh; left: 40vw;"">
            <div style=""margin:0 auto; width: 20vw; top: 8vh; font-size: 2vw""> 
            <font color=""green""> Bonus : $9.7 </font>
            </div>
        </div>
    ","null","","","","","","","",""
"","","","","","html-keyboard-response","134","165537","0.0-7.15-3.15","652e6224f7c742cf18c79e7f","655cb802637e0dbe2941dbc4","655cb8cfbf067b49b2a60c38","469","./stimuli//pack_shapes_diff/cat_2/diff_1/ex_2_1_10.png","arrowright","response","ArrowRight","10","2","1","test","true",""
"","","","","","html-keyboard-response","135","167046","0.0-7.15-4.15","652e6224f7c742cf18c79e7f","655cb802637e0dbe2941dbc4","655cb8cfbf067b49b2a60c38","null","<p> <font color=""green"" size=""5vw""> Correct category! </font></p>","null","feedback","","","","","","","9.7"
"","","","","","html-keyboard-response","136","168033","0.0-7.16-0.16","652e6224f7c742cf18c79e7f","655cb802637e0dbe2941dbc4","655cb8cfbf067b49b2a60c38","986","
            
        <div style=""text-align: center; position: fixed; top: 5vh; left: 40vw;"">
            <div style=""margin:0 auto; width: 20vw; top: 8vh; font-size: 2vw""> 
            <font color=""green""> Bonus : $9.7 </font>
            </div>
        </div>
    
            <div> Please press any key to continue to the next image.</div>
        "," ","ITI","","","","","","",""
"","","","","","html-keyboard-response","137","168635","0.0-7.16-1.16","652e6224f7c742cf18c79e7f","655cb802637e0dbe2941dbc4","655cb8cfbf067b49b2a60c38","null","
        
        <div style=""text-align: center; position: fixed; top: 5vh; left: 40vw;"">
            <div style=""margin:0 auto; width: 20vw; top: 8vh; font-size: 2vw""> 
            <font color=""green""> Bonus : $9.7 </font>
            </div>
        </div>
    
        <img class=""stim"" src=./stimuli//pack_shapes_diff/cat_1/diff_1/ex_1_1_7.png></img>
    ","null","stimulus","","","","","","",""
"","","","","","html-keyboard-response","138","169649","0.0-7.16-2.16","652e6224f7c742cf18c79e7f","655cb802637e0dbe2941dbc4","655cb8cfbf067b49b2a60c38","null","
        <div style=""text-align: center; position: fixed; top: 5vh; left: 40vw;"">
            <div style=""margin:0 auto; width: 20vw; top: 8vh; font-size: 2vw""> 
            <font color=""green""> Bonus : $9.7 </font>
            </div>
        </div>
    ","null","","","","","","","",""
"","","","","","html-keyboard-response","139","170111","0.0-7.16-3.16","652e6224f7c742cf18c79e7f","655cb802637e0dbe2941dbc4","655cb8cfbf067b49b2a60c38","460","./stimuli//pack_shapes_diff/cat_1/diff_1/ex_1_1_7.png","arrowleft","response","ArrowLeft","7","1","1","test","true",""
"","","","","","html-keyboard-response","140","171628","0.0-7.16-4.16","652e6224f7c742cf18c79e7f","655cb802637e0dbe2941dbc4","655cb8cfbf067b49b2a60c38","null","<p> <font color=""green"" size=""5vw""> Correct category! </font></p>","null","feedback","","","","","","","9.7"
"","","","","","html-keyboard-response","141","172665","0.0-7.17-0.17","652e6224f7c742cf18c79e7f","655cb802637e0dbe2941dbc4","655cb8cfbf067b49b2a60c38","1036","
            
        <div style=""text-align: center; position: fixed; top: 5vh; left: 40vw;"">
            <div style=""margin:0 auto; width: 20vw; top: 8vh; font-size: 2vw""> 
            <font color=""green""> Bonus : $9.7 </font>
            </div>
        </div>
    
            <div> Please press any key to continue to the next image.</div>
        "," ","ITI","","","","","","",""
"","","","","","html-keyboard-response","142","173282","0.0-7.17-1.17","652e6224f7c742cf18c79e7f","655cb802637e0dbe2941dbc4","655cb8cfbf067b49b2a60c38","null","
        
        <div style=""text-align: center; position: fixed; top: 5vh; left: 40vw;"">
            <div style=""margin:0 auto; width: 20vw; top: 8vh; font-size: 2vw""> 
            <font color=""green""> Bonus : $9.7 </font>
            </div>
        </div>
    
        <img class=""stim"" src=./stimuli//pack_shapes_diff/cat_2/diff_2/ex_2_2_7.png></img>
    ","null","stimulus","","","","","","",""
"","","","","","html-keyboard-response","143","174291","0.0-7.17-2.17","652e6224f7c742cf18c79e7f","655cb802637e0dbe2941dbc4","655cb8cfbf067b49b2a60c38","null","
        <div style=""text-align: center; position: fixed; top: 5vh; left: 40vw;"">
            <div style=""margin:0 auto; width: 20vw; top: 8vh; font-size: 2vw""> 
            <font color=""green""> Bonus : $9.7 </font>
            </div>
        </div>
    ","null","","","","","","","",""
"","","","","","html-keyboard-response","144","175738","0.0-7.17-3.17","652e6224f7c742cf18c79e7f","655cb802637e0dbe2941dbc4","655cb8cfbf067b49b2a60c38","1445","./stimuli//pack_shapes_diff/cat_2/diff_2/ex_2_2_7.png","arrowright","response","ArrowRight","7","2","2","test","true",""
"","","","","","html-keyboard-response","145","177250","0.0-7.17-4.17","652e6224f7c742cf18c79e7f","655cb802637e0dbe2941dbc4","655cb8cfbf067b49b2a60c38","null","<p> <font color=""green"" size=""5vw""> Correct category! </font></p>","null","feedback","","","","","","","9.7"
"","","","","","html-keyboard-response","146","178105","0.0-7.18-0.18","652e6224f7c742cf18c79e7f","655cb802637e0dbe2941dbc4","655cb8cfbf067b49b2a60c38","854","
            
        <div style=""text-align: center; position: fixed; top: 5vh; left: 40vw;"">
            <div style=""margin:0 auto; width: 20vw; top: 8vh; font-size: 2vw""> 
            <font color=""green""> Bonus : $9.7 </font>
            </div>
        </div>
    
            <div> Please press any key to continue to the next image.</div>
        "," ","ITI","","","","","","",""
"","","","","","html-keyboard-response","147","178712","0.0-7.18-1.18","652e6224f7c742cf18c79e7f","655cb802637e0dbe2941dbc4","655cb8cfbf067b49b2a60c38","null","
        
        <div style=""text-align: center; position: fixed; top: 5vh; left: 40vw;"">
            <div style=""margin:0 auto; width: 20vw; top: 8vh; font-size: 2vw""> 
            <font color=""green""> Bonus : $9.7 </font>
            </div>
        </div>
    
        <img class=""stim"" src=./stimuli//pack_shapes_diff/cat_2/diff_2/ex_2_2_7.png></img>
    ","null","stimulus","","","","","","",""
"","","","","","html-keyboard-response","148","179718","0.0-7.18-2.18","652e6224f7c742cf18c79e7f","655cb802637e0dbe2941dbc4","655cb8cfbf067b49b2a60c38","null","
        <div style=""text-align: center; position: fixed; top: 5vh; left: 40vw;"">
            <div style=""margin:0 auto; width: 20vw; top: 8vh; font-size: 2vw""> 
            <font color=""green""> Bonus : $9.7 </font>
            </div>
        </div>
    ","null","","","","","","","",""
"","","","","","html-keyboard-response","149","180206","0.0-7.18-3.18","652e6224f7c742cf18c79e7f","655cb802637e0dbe2941dbc4","655cb8cfbf067b49b2a60c38","487","./stimuli//pack_shapes_diff/cat_2/diff_2/ex_2_2_7.png","arrowright","response","ArrowRight","7","2","2","test","true",""
"","","","","","html-keyboard-response","150","181712","0.0-7.18-4.18","652e6224f7c742cf18c79e7f","655cb802637e0dbe2941dbc4","655cb8cfbf067b49b2a60c38","null","<p> <font color=""green"" size=""5vw""> Correct category! </font></p>","null","feedback","","","","","","","9.7"
"","","","","","html-keyboard-response","151","182296","0.0-7.19-0.19","652e6224f7c742cf18c79e7f","655cb802637e0dbe2941dbc4","655cb8cfbf067b49b2a60c38","584","
            
        <div style=""text-align: center; position: fixed; top: 5vh; left: 40vw;"">
            <div style=""margin:0 auto; width: 20vw; top: 8vh; font-size: 2vw""> 
            <font color=""green""> Bonus : $9.7 </font>
            </div>
        </div>
    
            <div> Please press any key to continue to the next image.</div>
        "," ","ITI","","","","","","",""
"","","","","","html-keyboard-response","152","182912","0.0-7.19-1.19","652e6224f7c742cf18c79e7f","655cb802637e0dbe2941dbc4","655cb8cfbf067b49b2a60c38","null","
        
        <div style=""text-align: center; position: fixed; top: 5vh; left: 40vw;"">
            <div style=""margin:0 auto; width: 20vw; top: 8vh; font-size: 2vw""> 
            <font color=""green""> Bonus : $9.7 </font>
            </div>
        </div>
    
        <img class=""stim"" src=./stimuli//pack_shapes_diff/cat_1/diff_2/ex_1_2_3.png></img>
    ","null","stimulus","","","","","","",""
"","","","","","html-keyboard-response","153","183917","0.0-7.19-2.19","652e6224f7c742cf18c79e7f","655cb802637e0dbe2941dbc4","655cb8cfbf067b49b2a60c38","null","
        <div style=""text-align: center; position: fixed; top: 5vh; left: 40vw;"">
            <div style=""margin:0 auto; width: 20vw; top: 8vh; font-size: 2vw""> 
            <font color=""green""> Bonus : $9.7 </font>
            </div>
        </div>
    ","null","","","","","","","",""
"","","","","","html-keyboard-response","154","184448","0.0-7.19-3.19","652e6224f7c742cf18c79e7f","655cb802637e0dbe2941dbc4","655cb8cfbf067b49b2a60c38","530","./stimuli//pack_shapes_diff/cat_1/diff_2/ex_1_2_3.png","arrowleft","response","ArrowLeft","3","1","2","test","true",""
"","","","","","html-keyboard-response","155","185958","0.0-7.19-4.19","652e6224f7c742cf18c79e7f","655cb802637e0dbe2941dbc4","655cb8cfbf067b49b2a60c38","null","<p> <font color=""green"" size=""5vw""> Correct category! </font></p>","null","feedback","","","","","","","9.7"
"","","","","","html-keyboard-response","156","186586","0.0-7.20-0.20","652e6224f7c742cf18c79e7f","655cb802637e0dbe2941dbc4","655cb8cfbf067b49b2a60c38","627","
            
        <div style=""text-align: center; position: fixed; top: 5vh; left: 40vw;"">
            <div style=""margin:0 auto; width: 20vw; top: 8vh; font-size: 2vw""> 
            <font color=""green""> Bonus : $9.7 </font>
            </div>
        </div>
    
            <div> Please press any key to continue to the next image.</div>
        "," ","ITI","","","","","","",""
"","","","","","html-keyboard-response","157","187188","0.0-7.20-1.20","652e6224f7c742cf18c79e7f","655cb802637e0dbe2941dbc4","655cb8cfbf067b49b2a60c38","null","
        
        <div style=""text-align: center; position: fixed; top: 5vh; left: 40vw;"">
            <div style=""margin:0 auto; width: 20vw; top: 8vh; font-size: 2vw""> 
            <font color=""green""> Bonus : $9.7 </font>
            </div>
        </div>
    
        <img class=""stim"" src=./stimuli//pack_shapes_diff/cat_1/diff_2/ex_1_2_1.png></img>
    ","null","stimulus","","","","","","",""
"","","","","","html-keyboard-response","158","188191","0.0-7.20-2.20","652e6224f7c742cf18c79e7f","655cb802637e0dbe2941dbc4","655cb8cfbf067b49b2a60c38","null","
        <div style=""text-align: center; position: fixed; top: 5vh; left: 40vw;"">
            <div style=""margin:0 auto; width: 20vw; top: 8vh; font-size: 2vw""> 
            <font color=""green""> Bonus : $9.7 </font>
            </div>
        </div>
    ","null","","","","","","","",""
"","","","","","html-keyboard-response","159","190363","0.0-7.20-3.20","652e6224f7c742cf18c79e7f","655cb802637e0dbe2941dbc4","655cb8cfbf067b49b2a60c38","2172","./stimuli//pack_shapes_diff/cat_1/diff_2/ex_1_2_1.png","arrowright","response","ArrowLeft","1","1","2","test","false",""
"","","","","","html-keyboard-response","160","191879","0.0-7.20-4.20","652e6224f7c742cf18c79e7f","655cb802637e0dbe2941dbc4","655cb8cfbf067b49b2a60c38","null","<p> <font size=""4vw""> Wrong category! </font> <br> <br> <font color=""red"" size=""7vw""> - $0.05 points </font> </p>","null","feedback","","","","","","","9.65"
"","","","","","html-keyboard-response","161","192455","0.0-7.21-0.21","652e6224f7c742cf18c79e7f","655cb802637e0dbe2941dbc4","655cb8cfbf067b49b2a60c38","575","
            
        <div style=""text-align: center; position: fixed; top: 5vh; left: 40vw;"">
            <div style=""margin:0 auto; width: 20vw; top: 8vh; font-size: 2vw""> 
            <font color=""green""> Bonus : $9.65 </font>
            </div>
        </div>
    
            <div> Please press any key to continue to the next image.</div>
        "," ","ITI","","","","","","",""
"","","","","","html-keyboard-response","162","193071","0.0-7.21-1.21","652e6224f7c742cf18c79e7f","655cb802637e0dbe2941dbc4","655cb8cfbf067b49b2a60c38","null","
        
        <div style=""text-align: center; position: fixed; top: 5vh; left: 40vw;"">
            <div style=""margin:0 auto; width: 20vw; top: 8vh; font-size: 2vw""> 
            <font color=""green""> Bonus : $9.65 </font>
            </div>
        </div>
    
        <img class=""stim"" src=./stimuli//pack_shapes_diff/cat_1/diff_2/ex_1_2_15.png></img>
    ","null","stimulus","","","","","","",""
"","","","","","html-keyboard-response","163","194076","0.0-7.21-2.21","652e6224f7c742cf18c79e7f","655cb802637e0dbe2941dbc4","655cb8cfbf067b49b2a60c38","null","
        <div style=""text-align: center; position: fixed; top: 5vh; left: 40vw;"">
            <div style=""margin:0 auto; width: 20vw; top: 8vh; font-size: 2vw""> 
            <font color=""green""> Bonus : $9.65 </font>
            </div>
        </div>
    ","null","","","","","","","",""
"","","","","","html-keyboard-response","164","194455","0.0-7.21-3.21","652e6224f7c742cf18c79e7f","655cb802637e0dbe2941dbc4","655cb8cfbf067b49b2a60c38","378","./stimuli//pack_shapes_diff/cat_1/diff_2/ex_1_2_15.png","arrowleft","response","ArrowLeft","15","1","2","test","true",""
"","","","","","html-keyboard-response","165","195960","0.0-7.21-4.21","652e6224f7c742cf18c79e7f","655cb802637e0dbe2941dbc4","655cb8cfbf067b49b2a60c38","null","<p> <font color=""green"" size=""5vw""> Correct category! </font></p>","null","feedback","","","","","","","9.65"
"","","","","","html-keyboard-response","166","197444","0.0-7.22-0.22","652e6224f7c742cf18c79e7f","655cb802637e0dbe2941dbc4","655cb8cfbf067b49b2a60c38","1483","
            
        <div style=""text-align: center; position: fixed; top: 5vh; left: 40vw;"">
            <div style=""margin:0 auto; width: 20vw; top: 8vh; font-size: 2vw""> 
            <font color=""green""> Bonus : $9.65 </font>
            </div>
        </div>
    
            <div> Please press any key to continue to the next image.</div>
        "," ","ITI","","","","","","",""
"","","","","","html-keyboard-response","167","198061","0.0-7.22-1.22","652e6224f7c742cf18c79e7f","655cb802637e0dbe2941dbc4","655cb8cfbf067b49b2a60c38","null","
        
        <div style=""text-align: center; position: fixed; top: 5vh; left: 40vw;"">
            <div style=""margin:0 auto; width: 20vw; top: 8vh; font-size: 2vw""> 
            <font color=""green""> Bonus : $9.65 </font>
            </div>
        </div>
    
        <img class=""stim"" src=./stimuli//pack_shapes_diff/cat_2/diff_3/ex_2_3_1.png></img>
    ","null","stimulus","","","","","","",""
"","","","","","html-keyboard-response","168","199076","0.0-7.22-2.22","652e6224f7c742cf18c79e7f","655cb802637e0dbe2941dbc4","655cb8cfbf067b49b2a60c38","null","
        <div style=""text-align: center; position: fixed; top: 5vh; left: 40vw;"">
            <div style=""margin:0 auto; width: 20vw; top: 8vh; font-size: 2vw""> 
            <font color=""green""> Bonus : $9.65 </font>
            </div>
        </div>
    ","null","","","","","","","",""
"","","","","","html-keyboard-response","169","200362","0.0-7.22-3.22","652e6224f7c742cf18c79e7f","655cb802637e0dbe2941dbc4","655cb8cfbf067b49b2a60c38","1285","./stimuli//pack_shapes_diff/cat_2/diff_3/ex_2_3_1.png","arrowright","response","ArrowRight","1","2","3","test","true",""
"","","","","","html-keyboard-response","170","201870","0.0-7.22-4.22","652e6224f7c742cf18c79e7f","655cb802637e0dbe2941dbc4","655cb8cfbf067b49b2a60c38","null","<p> <font color=""green"" size=""5vw""> Correct category! </font></p>","null","feedback","","","","","","","9.65"
"","","","","","html-keyboard-response","171","202452","0.0-7.23-0.23","652e6224f7c742cf18c79e7f","655cb802637e0dbe2941dbc4","655cb8cfbf067b49b2a60c38","582","
            
        <div style=""text-align: center; position: fixed; top: 5vh; left: 40vw;"">
            <div style=""margin:0 auto; width: 20vw; top: 8vh; font-size: 2vw""> 
            <font color=""green""> Bonus : $9.65 </font>
            </div>
        </div>
    
            <div> Please press any key to continue to the next image.</div>
        "," ","ITI","","","","","","",""
"","","","","","html-keyboard-response","172","203069","0.0-7.23-1.23","652e6224f7c742cf18c79e7f","655cb802637e0dbe2941dbc4","655cb8cfbf067b49b2a60c38","null","
        
        <div style=""text-align: center; position: fixed; top: 5vh; left: 40vw;"">
            <div style=""margin:0 auto; width: 20vw; top: 8vh; font-size: 2vw""> 
            <font color=""green""> Bonus : $9.65 </font>
            </div>
        </div>
    
        <img class=""stim"" src=./stimuli//pack_shapes_diff/cat_1/diff_3/ex_1_3_2.png></img>
    ","null","stimulus","","","","","","",""
"","","","","","html-keyboard-response","173","204079","0.0-7.23-2.23","652e6224f7c742cf18c79e7f","655cb802637e0dbe2941dbc4","655cb8cfbf067b49b2a60c38","null","
        <div style=""text-align: center; position: fixed; top: 5vh; left: 40vw;"">
            <div style=""margin:0 auto; width: 20vw; top: 8vh; font-size: 2vw""> 
            <font color=""green""> Bonus : $9.65 </font>
            </div>
        </div>
    ","null","","","","","","","",""
"","","","","","html-keyboard-response","174","204472","0.0-7.23-3.23","652e6224f7c742cf18c79e7f","655cb802637e0dbe2941dbc4","655cb8cfbf067b49b2a60c38","392","./stimuli//pack_shapes_diff/cat_1/diff_3/ex_1_3_2.png","arrowleft","response","ArrowLeft","2","1","3","test","true",""
"","","","","","html-keyboard-response","175","205980","0.0-7.23-4.23","652e6224f7c742cf18c79e7f","655cb802637e0dbe2941dbc4","655cb8cfbf067b49b2a60c38","null","<p> <font color=""green"" size=""5vw""> Correct category! </font></p>","null","feedback","","","","","","","9.65"
"","","","","","html-keyboard-response","176","206651","0.0-7.24-0.24","652e6224f7c742cf18c79e7f","655cb802637e0dbe2941dbc4","655cb8cfbf067b49b2a60c38","671","
            
        <div style=""text-align: center; position: fixed; top: 5vh; left: 40vw;"">
            <div style=""margin:0 auto; width: 20vw; top: 8vh; font-size: 2vw""> 
            <font color=""green""> Bonus : $9.65 </font>
            </div>
        </div>
    
            <div> Please press any key to continue to the next image.</div>
        "," ","ITI","","","","","","",""
"","","","","","html-keyboard-response","177","207264","0.0-7.24-1.24","652e6224f7c742cf18c79e7f","655cb802637e0dbe2941dbc4","655cb8cfbf067b49b2a60c38","null","
        
        <div style=""text-align: center; position: fixed; top: 5vh; left: 40vw;"">
            <div style=""margin:0 auto; width: 20vw; top: 8vh; font-size: 2vw""> 
            <font color=""green""> Bonus : $9.65 </font>
            </div>
        </div>
    
        <img class=""stim"" src=./stimuli//pack_shapes_diff/cat_2/diff_3/ex_2_3_3.png></img>
    ","null","stimulus","","","","","","",""
"","","","","","html-keyboard-response","178","208276","0.0-7.24-2.24","652e6224f7c742cf18c79e7f","655cb802637e0dbe2941dbc4","655cb8cfbf067b49b2a60c38","null","
        <div style=""text-align: center; position: fixed; top: 5vh; left: 40vw;"">
            <div style=""margin:0 auto; width: 20vw; top: 8vh; font-size: 2vw""> 
            <font color=""green""> Bonus : $9.65 </font>
            </div>
        </div>
    ","null","","","","","","","",""
"","","","","","html-keyboard-response","179","208700","0.0-7.24-3.24","652e6224f7c742cf18c79e7f","655cb802637e0dbe2941dbc4","655cb8cfbf067b49b2a60c38","423","./stimuli//pack_shapes_diff/cat_2/diff_3/ex_2_3_3.png","arrowleft","response","ArrowRight","3","2","3","test","false",""
"","","","","","html-keyboard-response","180","210213","0.0-7.24-4.24","652e6224f7c742cf18c79e7f","655cb802637e0dbe2941dbc4","655cb8cfbf067b49b2a60c38","null","<p> <font size=""4vw""> Wrong category! </font> <br> <br> <font color=""red"" size=""7vw""> - $0.05 points </font> </p>","null","feedback","","","","","","","9.6"
"","","","","","html-keyboard-response","181","210891","0.0-7.25-0.25","652e6224f7c742cf18c79e7f","655cb802637e0dbe2941dbc4","655cb8cfbf067b49b2a60c38","676","
            
        <div style=""text-align: center; position: fixed; top: 5vh; left: 40vw;"">
            <div style=""margin:0 auto; width: 20vw; top: 8vh; font-size: 2vw""> 
            <font color=""green""> Bonus : $9.6 </font>
            </div>
        </div>
    
            <div> Please press any key to continue to the next image.</div>
        "," ","ITI","","","","","","",""
"","","","","","html-keyboard-response","182","211504","0.0-7.25-1.25","652e6224f7c742cf18c79e7f","655cb802637e0dbe2941dbc4","655cb8cfbf067b49b2a60c38","null","
        
        <div style=""text-align: center; position: fixed; top: 5vh; left: 40vw;"">
            <div style=""margin:0 auto; width: 20vw; top: 8vh; font-size: 2vw""> 
            <font color=""green""> Bonus : $9.6 </font>
            </div>
        </div>
    
        <img class=""stim"" src=./stimuli//pack_shapes_diff/cat_1/diff_3/ex_1_3_4.png></img>
    ","null","stimulus","","","","","","",""
"","","","","","html-keyboard-response","183","212507","0.0-7.25-2.25","652e6224f7c742cf18c79e7f","655cb802637e0dbe2941dbc4","655cb8cfbf067b49b2a60c38","null","
        <div style=""text-align: center; position: fixed; top: 5vh; left: 40vw;"">
            <div style=""margin:0 auto; width: 20vw; top: 8vh; font-size: 2vw""> 
            <font color=""green""> Bonus : $9.6 </font>
            </div>
        </div>
    ","null","","","","","","","",""
"","","","","","html-keyboard-response","184","212860","0.0-7.25-3.25","652e6224f7c742cf18c79e7f","655cb802637e0dbe2941dbc4","655cb8cfbf067b49b2a60c38","352","./stimuli//pack_shapes_diff/cat_1/diff_3/ex_1_3_4.png","arrowleft","response","ArrowLeft","4","1","3","test","true",""
"","","","","","html-keyboard-response","185","214375","0.0-7.25-4.25","652e6224f7c742cf18c79e7f","655cb802637e0dbe2941dbc4","655cb8cfbf067b49b2a60c38","null","<p> <font color=""green"" size=""5vw""> Correct category! </font></p>","null","feedback","","","","","","","9.6"
"","","","","","html-keyboard-response","186","216030","0.0-7.26-0.26","652e6224f7c742cf18c79e7f","655cb802637e0dbe2941dbc4","655cb8cfbf067b49b2a60c38","1654","
            
        <div style=""text-align: center; position: fixed; top: 5vh; left: 40vw;"">
            <div style=""margin:0 auto; width: 20vw; top: 8vh; font-size: 2vw""> 
            <font color=""green""> Bonus : $9.6 </font>
            </div>
        </div>
    
            <div> Please press any key to continue to the next image.</div>
        "," ","ITI","","","","","","",""
"","","","","","html-keyboard-response","187","216638","0.0-7.26-1.26","652e6224f7c742cf18c79e7f","655cb802637e0dbe2941dbc4","655cb8cfbf067b49b2a60c38","null","
        
        <div style=""text-align: center; position: fixed; top: 5vh; left: 40vw;"">
            <div style=""margin:0 auto; width: 20vw; top: 8vh; font-size: 2vw""> 
            <font color=""green""> Bonus : $9.6 </font>
            </div>
        </div>
    
        <img class=""stim"" src=./stimuli//pack_shapes_diff/cat_2/diff_3/ex_2_3_11.png></img>
    ","null","stimulus","","","","","","",""
"","","","","","html-keyboard-response","188","217647","0.0-7.26-2.26","652e6224f7c742cf18c79e7f","655cb802637e0dbe2941dbc4","655cb8cfbf067b49b2a60c38","null","
        <div style=""text-align: center; position: fixed; top: 5vh; left: 40vw;"">
            <div style=""margin:0 auto; width: 20vw; top: 8vh; font-size: 2vw""> 
            <font color=""green""> Bonus : $9.6 </font>
            </div>
        </div>
    ","null","","","","","","","",""
"","","","","","html-keyboard-response","189","220242","0.0-7.26-3.26","652e6224f7c742cf18c79e7f","655cb802637e0dbe2941dbc4","655cb8cfbf067b49b2a60c38","2593","./stimuli//pack_shapes_diff/cat_2/diff_3/ex_2_3_11.png","arrowright","response","ArrowRight","11","2","3","test","true",""
"","","","","","html-keyboard-response","190","221743","0.0-7.26-4.26","652e6224f7c742cf18c79e7f","655cb802637e0dbe2941dbc4","655cb8cfbf067b49b2a60c38","null","<p> <font color=""green"" size=""5vw""> Correct category! </font></p>","null","feedback","","","","","","","9.6"
"","","","","","html-keyboard-response","191","222507","0.0-7.27-0.27","652e6224f7c742cf18c79e7f","655cb802637e0dbe2941dbc4","655cb8cfbf067b49b2a60c38","763","
            
        <div style=""text-align: center; position: fixed; top: 5vh; left: 40vw;"">
            <div style=""margin:0 auto; width: 20vw; top: 8vh; font-size: 2vw""> 
            <font color=""green""> Bonus : $9.6 </font>
            </div>
        </div>
    
            <div> Please press any key to continue to the next image.</div>
        "," ","ITI","","","","","","",""
"","","","","","html-keyboard-response","192","223117","0.0-7.27-1.27","652e6224f7c742cf18c79e7f","655cb802637e0dbe2941dbc4","655cb8cfbf067b49b2a60c38","null","
        
        <div style=""text-align: center; position: fixed; top: 5vh; left: 40vw;"">
            <div style=""margin:0 auto; width: 20vw; top: 8vh; font-size: 2vw""> 
            <font color=""green""> Bonus : $9.6 </font>
            </div>
        </div>
    
        <img class=""stim"" src=./stimuli//pack_shapes_diff/cat_1/diff_4/ex_1_4_17.png></img>
    ","null","stimulus","","","","","","",""
"","","","","","html-keyboard-response","193","224130","0.0-7.27-2.27","652e6224f7c742cf18c79e7f","655cb802637e0dbe2941dbc4","655cb8cfbf067b49b2a60c38","null","
        <div style=""text-align: center; position: fixed; top: 5vh; left: 40vw;"">
            <div style=""margin:0 auto; width: 20vw; top: 8vh; font-size: 2vw""> 
            <font color=""green""> Bonus : $9.6 </font>
            </div>
        </div>
    ","null","","","","","","","",""
"","","","","","html-keyboard-response","194","224487","0.0-7.27-3.27","652e6224f7c742cf18c79e7f","655cb802637e0dbe2941dbc4","655cb8cfbf067b49b2a60c38","356","./stimuli//pack_shapes_diff/cat_1/diff_4/ex_1_4_17.png","arrowleft","response","ArrowLeft","17","1","4","test","true",""
"","","","","","html-keyboard-response","195","226000","0.0-7.27-4.27","652e6224f7c742cf18c79e7f","655cb802637e0dbe2941dbc4","655cb8cfbf067b49b2a60c38","null","<p> <font color=""green"" size=""5vw""> Correct category! </font></p>","null","feedback","","","","","","","9.6"
"","","","","","html-keyboard-response","196","226715","0.0-7.28-0.28","652e6224f7c742cf18c79e7f","655cb802637e0dbe2941dbc4","655cb8cfbf067b49b2a60c38","714","
            
        <div style=""text-align: center; position: fixed; top: 5vh; left: 40vw;"">
            <div style=""margin:0 auto; width: 20vw; top: 8vh; font-size: 2vw""> 
            <font color=""green""> Bonus : $9.6 </font>
            </div>
        </div>
    
            <div> Please press any key to continue to the next image.</div>
        "," ","ITI","","","","","","",""
"","","","","","html-keyboard-response","197","227322","0.0-7.28-1.28","652e6224f7c742cf18c79e7f","655cb802637e0dbe2941dbc4","655cb8cfbf067b49b2a60c38","null","
        
        <div style=""text-align: center; position: fixed; top: 5vh; left: 40vw;"">
            <div style=""margin:0 auto; width: 20vw; top: 8vh; font-size: 2vw""> 
            <font color=""green""> Bonus : $9.6 </font>
            </div>
        </div>
    
        <img class=""stim"" src=./stimuli//pack_shapes_diff/cat_1/diff_4/ex_1_4_12.png></img>
    ","null","stimulus","","","","","","",""
"","","","","","html-keyboard-response","198","228336","0.0-7.28-2.28","652e6224f7c742cf18c79e7f","655cb802637e0dbe2941dbc4","655cb8cfbf067b49b2a60c38","null","
        <div style=""text-align: center; position: fixed; top: 5vh; left: 40vw;"">
            <div style=""margin:0 auto; width: 20vw; top: 8vh; font-size: 2vw""> 
            <font color=""green""> Bonus : $9.6 </font>
            </div>
        </div>
    ","null","","","","","","","",""
"","","","","","html-keyboard-response","199","228755","0.0-7.28-3.28","652e6224f7c742cf18c79e7f","655cb802637e0dbe2941dbc4","655cb8cfbf067b49b2a60c38","418","./stimuli//pack_shapes_diff/cat_1/diff_4/ex_1_4_12.png","arrowleft","response","ArrowLeft","12","1","4","test","true",""
"","","","","","html-keyboard-response","200","230264","0.0-7.28-4.28","652e6224f7c742cf18c79e7f","655cb802637e0dbe2941dbc4","655cb8cfbf067b49b2a60c38","null","<p> <font color=""green"" size=""5vw""> Correct category! </font></p>","null","feedback","","","","","","","9.6"
"","","","","","html-keyboard-response","201","231006","0.0-7.29-0.29","652e6224f7c742cf18c79e7f","655cb802637e0dbe2941dbc4","655cb8cfbf067b49b2a60c38","741","
            
        <div style=""text-align: center; position: fixed; top: 5vh; left: 40vw;"">
            <div style=""margin:0 auto; width: 20vw; top: 8vh; font-size: 2vw""> 
            <font color=""green""> Bonus : $9.6 </font>
            </div>
        </div>
    
            <div> Please press any key to continue to the next image.</div>
        "," ","ITI","","","","","","",""
"","","","","","html-keyboard-response","202","231610","0.0-7.29-1.29","652e6224f7c742cf18c79e7f","655cb802637e0dbe2941dbc4","655cb8cfbf067b49b2a60c38","null","
        
        <div style=""text-align: center; position: fixed; top: 5vh; left: 40vw;"">
            <div style=""margin:0 auto; width: 20vw; top: 8vh; font-size: 2vw""> 
            <font color=""green""> Bonus : $9.6 </font>
            </div>
        </div>
    
        <img class=""stim"" src=./stimuli//pack_shapes_diff/cat_2/diff_4/ex_2_4_11.png></img>
    ","null","stimulus","","","","","","",""
"","","","","","html-keyboard-response","203","232618","0.0-7.29-2.29","652e6224f7c742cf18c79e7f","655cb802637e0dbe2941dbc4","655cb8cfbf067b49b2a60c38","null","
        <div style=""text-align: center; position: fixed; top: 5vh; left: 40vw;"">
            <div style=""margin:0 auto; width: 20vw; top: 8vh; font-size: 2vw""> 
            <font color=""green""> Bonus : $9.6 </font>
            </div>
        </div>
    ","null","","","","","","","",""
"","","","","","html-keyboard-response","204","233007","0.0-7.29-3.29","652e6224f7c742cf18c79e7f","655cb802637e0dbe2941dbc4","655cb8cfbf067b49b2a60c38","388","./stimuli//pack_shapes_diff/cat_2/diff_4/ex_2_4_11.png","arrowright","response","ArrowRight","11","2","4","test","true",""
"","","","","","html-keyboard-response","205","234522","0.0-7.29-4.29","652e6224f7c742cf18c79e7f","655cb802637e0dbe2941dbc4","655cb8cfbf067b49b2a60c38","null","<p> <font color=""green"" size=""5vw""> Correct category! </font></p>","null","feedback","","","","","","","9.6"
"","","","","","html-keyboard-response","206","235899","0.0-7.30-0.30","652e6224f7c742cf18c79e7f","655cb802637e0dbe2941dbc4","655cb8cfbf067b49b2a60c38","1377","
            
        <div style=""text-align: center; position: fixed; top: 5vh; left: 40vw;"">
            <div style=""margin:0 auto; width: 20vw; top: 8vh; font-size: 2vw""> 
            <font color=""green""> Bonus : $9.6 </font>
            </div>
        </div>
    
            <div> Please press any key to continue to the next image.</div>
        "," ","ITI","","","","","","",""
"","","","","","html-keyboard-response","207","236502","0.0-7.30-1.30","652e6224f7c742cf18c79e7f","655cb802637e0dbe2941dbc4","655cb8cfbf067b49b2a60c38","null","
        
        <div style=""text-align: center; position: fixed; top: 5vh; left: 40vw;"">
            <div style=""margin:0 auto; width: 20vw; top: 8vh; font-size: 2vw""> 
            <font color=""green""> Bonus : $9.6 </font>
            </div>
        </div>
    
        <img class=""stim"" src=./stimuli//pack_shapes_diff/cat_2/diff_4/ex_2_4_3.png></img>
    ","null","stimulus","","","","","","",""
"","","","","","html-keyboard-response","208","237504","0.0-7.30-2.30","652e6224f7c742cf18c79e7f","655cb802637e0dbe2941dbc4","655cb8cfbf067b49b2a60c38","null","
        <div style=""text-align: center; position: fixed; top: 5vh; left: 40vw;"">
            <div style=""margin:0 auto; width: 20vw; top: 8vh; font-size: 2vw""> 
            <font color=""green""> Bonus : $9.6 </font>
            </div>
        </div>
    ","null","","","","","","","",""
"","","","","","html-keyboard-response","209","238944","0.0-7.30-3.30","652e6224f7c742cf18c79e7f","655cb802637e0dbe2941dbc4","655cb8cfbf067b49b2a60c38","1439","./stimuli//pack_shapes_diff/cat_2/diff_4/ex_2_4_3.png","arrowleft","response","ArrowRight","3","2","4","test","false",""
"","","","","","html-keyboard-response","210","240456","0.0-7.30-4.30","652e6224f7c742cf18c79e7f","655cb802637e0dbe2941dbc4","655cb8cfbf067b49b2a60c38","null","<p> <font size=""4vw""> Wrong category! </font> <br> <br> <font color=""red"" size=""7vw""> - $0.05 points </font> </p>","null","feedback","","","","","","","9.55"
"","","","","","html-keyboard-response","211","240940","0.0-7.31-0.31","652e6224f7c742cf18c79e7f","655cb802637e0dbe2941dbc4","655cb8cfbf067b49b2a60c38","482","
            
        <div style=""text-align: center; position: fixed; top: 5vh; left: 40vw;"">
            <div style=""margin:0 auto; width: 20vw; top: 8vh; font-size: 2vw""> 
            <font color=""green""> Bonus : $9.55 </font>
            </div>
        </div>
    
            <div> Please press any key to continue to the next image.</div>
        "," ","ITI","","","","","","",""
"","","","","","html-keyboard-response","212","241554","0.0-7.31-1.31","652e6224f7c742cf18c79e7f","655cb802637e0dbe2941dbc4","655cb8cfbf067b49b2a60c38","null","
        
        <div style=""text-align: center; position: fixed; top: 5vh; left: 40vw;"">
            <div style=""margin:0 auto; width: 20vw; top: 8vh; font-size: 2vw""> 
            <font color=""green""> Bonus : $9.55 </font>
            </div>
        </div>
    
        <img class=""stim"" src=./stimuli//pack_shapes_diff/cat_1/diff_4/ex_1_4_1.png></img>
    ","null","stimulus","","","","","","",""
"","","","","","html-keyboard-response","213","242559","0.0-7.31-2.31","652e6224f7c742cf18c79e7f","655cb802637e0dbe2941dbc4","655cb8cfbf067b49b2a60c38","null","
        <div style=""text-align: center; position: fixed; top: 5vh; left: 40vw;"">
            <div style=""margin:0 auto; width: 20vw; top: 8vh; font-size: 2vw""> 
            <font color=""green""> Bonus : $9.55 </font>
            </div>
        </div>
    ","null","","","","","","","",""
"","","","","","html-keyboard-response","214","242932","0.0-7.31-3.31","652e6224f7c742cf18c79e7f","655cb802637e0dbe2941dbc4","655cb8cfbf067b49b2a60c38","372","./stimuli//pack_shapes_diff/cat_1/diff_4/ex_1_4_1.png","arrowleft","response","ArrowLeft","1","1","4","test","true",""
"","","","","","html-keyboard-response","215","244433","0.0-7.31-4.31","652e6224f7c742cf18c79e7f","655cb802637e0dbe2941dbc4","655cb8cfbf067b49b2a60c38","null","<p> <font color=""green"" size=""5vw""> Correct category! </font></p>","null","feedback","","","","","","","9.55"
"","","","","","html-keyboard-response","216","245081","0.0-7.32-0.32","652e6224f7c742cf18c79e7f","655cb802637e0dbe2941dbc4","655cb8cfbf067b49b2a60c38","647","
            
        <div style=""text-align: center; position: fixed; top: 5vh; left: 40vw;"">
            <div style=""margin:0 auto; width: 20vw; top: 8vh; font-size: 2vw""> 
            <font color=""green""> Bonus : $9.55 </font>
            </div>
        </div>
    
            <div> Please press any key to continue to the next image.</div>
        "," ","ITI","","","","","","",""
"","","","","","html-keyboard-response","217","245683","0.0-7.32-1.32","652e6224f7c742cf18c79e7f","655cb802637e0dbe2941dbc4","655cb8cfbf067b49b2a60c38","null","
        
        <div style=""text-align: center; position: fixed; top: 5vh; left: 40vw;"">
            <div style=""margin:0 auto; width: 20vw; top: 8vh; font-size: 2vw""> 
            <font color=""green""> Bonus : $9.55 </font>
            </div>
        </div>
    
        <img class=""stim"" src=./stimuli//pack_shapes_diff/cat_2/diff_5/ex_2_5_2.png></img>
    ","null","stimulus","","","","","","",""
"","","","","","html-keyboard-response","218","246686","0.0-7.32-2.32","652e6224f7c742cf18c79e7f","655cb802637e0dbe2941dbc4","655cb8cfbf067b49b2a60c38","null","
        <div style=""text-align: center; position: fixed; top: 5vh; left: 40vw;"">
            <div style=""margin:0 auto; width: 20vw; top: 8vh; font-size: 2vw""> 
            <font color=""green""> Bonus : $9.55 </font>
            </div>
        </div>
    ","null","","","","","","","",""
"","","","","","html-keyboard-response","219","247391","0.0-7.32-3.32","652e6224f7c742cf18c79e7f","655cb802637e0dbe2941dbc4","655cb8cfbf067b49b2a60c38","704","./stimuli//pack_shapes_diff/cat_2/diff_5/ex_2_5_2.png","arrowright","response","ArrowRight","2","2","5","test","true",""
"","","","","","html-keyboard-response","220","248902","0.0-7.32-4.32","652e6224f7c742cf18c79e7f","655cb802637e0dbe2941dbc4","655cb8cfbf067b49b2a60c38","null","<p> <font color=""green"" size=""5vw""> Correct category! </font></p>","null","feedback","","","","","","","9.55"
"","","","","","html-keyboard-response","221","249488","0.0-7.33-0.33","652e6224f7c742cf18c79e7f","655cb802637e0dbe2941dbc4","655cb8cfbf067b49b2a60c38","585","
            
        <div style=""text-align: center; position: fixed; top: 5vh; left: 40vw;"">
            <div style=""margin:0 auto; width: 20vw; top: 8vh; font-size: 2vw""> 
            <font color=""green""> Bonus : $9.55 </font>
            </div>
        </div>
    
            <div> Please press any key to continue to the next image.</div>
        "," ","ITI","","","","","","",""
"","","","","","html-keyboard-response","222","250094","0.0-7.33-1.33","652e6224f7c742cf18c79e7f","655cb802637e0dbe2941dbc4","655cb8cfbf067b49b2a60c38","null","
        
        <div style=""text-align: center; position: fixed; top: 5vh; left: 40vw;"">
            <div style=""margin:0 auto; width: 20vw; top: 8vh; font-size: 2vw""> 
            <font color=""green""> Bonus : $9.55 </font>
            </div>
        </div>
    
        <img class=""stim"" src=./stimuli//pack_shapes_diff/cat_1/diff_5/ex_1_5_11.png></img>
    ","null","stimulus","","","","","","",""
"","","","","","html-keyboard-response","223","251096","0.0-7.33-2.33","652e6224f7c742cf18c79e7f","655cb802637e0dbe2941dbc4","655cb8cfbf067b49b2a60c38","null","
        <div style=""text-align: center; position: fixed; top: 5vh; left: 40vw;"">
            <div style=""margin:0 auto; width: 20vw; top: 8vh; font-size: 2vw""> 
            <font color=""green""> Bonus : $9.55 </font>
            </div>
        </div>
    ","null","","","","","","","",""
"","","","","","html-keyboard-response","224","251549","0.0-7.33-3.33","652e6224f7c742cf18c79e7f","655cb802637e0dbe2941dbc4","655cb8cfbf067b49b2a60c38","452","./stimuli//pack_shapes_diff/cat_1/diff_5/ex_1_5_11.png","arrowright","response","ArrowLeft","11","1","5","test","false",""
"","","","","","html-keyboard-response","225","253055","0.0-7.33-4.33","652e6224f7c742cf18c79e7f","655cb802637e0dbe2941dbc4","655cb8cfbf067b49b2a60c38","null","<p> <font size=""4vw""> Wrong category! </font> <br> <br> <font color=""red"" size=""7vw""> - $0.05 points </font> </p>","null","feedback","","","","","","","9.5"
"","","","","","html-keyboard-response","226","253968","0.0-7.34-0.34","652e6224f7c742cf18c79e7f","655cb802637e0dbe2941dbc4","655cb8cfbf067b49b2a60c38","912","
            
        <div style=""text-align: center; position: fixed; top: 5vh; left: 40vw;"">
            <div style=""margin:0 auto; width: 20vw; top: 8vh; font-size: 2vw""> 
            <font color=""green""> Bonus : $9.5 </font>
            </div>
        </div>
    
            <div> Please press any key to continue to the next image.</div>
        "," ","ITI","","","","","","",""
"","","","","","html-keyboard-response","227","254571","0.0-7.34-1.34","652e6224f7c742cf18c79e7f","655cb802637e0dbe2941dbc4","655cb8cfbf067b49b2a60c38","null","
        
        <div style=""text-align: center; position: fixed; top: 5vh; left: 40vw;"">
            <div style=""margin:0 auto; width: 20vw; top: 8vh; font-size: 2vw""> 
            <font color=""green""> Bonus : $9.5 </font>
            </div>
        </div>
    
        <img class=""stim"" src=./stimuli//pack_shapes_diff/cat_1/diff_5/ex_1_5_4.png></img>
    ","null","stimulus","","","","","","",""
"","","","","","html-keyboard-response","228","255574","0.0-7.34-2.34","652e6224f7c742cf18c79e7f","655cb802637e0dbe2941dbc4","655cb8cfbf067b49b2a60c38","null","
        <div style=""text-align: center; position: fixed; top: 5vh; left: 40vw;"">
            <div style=""margin:0 auto; width: 20vw; top: 8vh; font-size: 2vw""> 
            <font color=""green""> Bonus : $9.5 </font>
            </div>
        </div>
    ","null","","","","","","","",""
"","","","","","html-keyboard-response","229","256082","0.0-7.34-3.34","652e6224f7c742cf18c79e7f","655cb802637e0dbe2941dbc4","655cb8cfbf067b49b2a60c38","508","./stimuli//pack_shapes_diff/cat_1/diff_5/ex_1_5_4.png","arrowleft","response","ArrowLeft","4","1","5","test","true",""
"","","","","","html-keyboard-response","230","257590","0.0-7.34-4.34","652e6224f7c742cf18c79e7f","655cb802637e0dbe2941dbc4","655cb8cfbf067b49b2a60c38","null","<p> <font color=""green"" size=""5vw""> Correct category! </font></p>","null","feedback","","","","","","","9.5"
"","","","","","html-keyboard-response","231","258920","0.0-7.35-0.35","652e6224f7c742cf18c79e7f","655cb802637e0dbe2941dbc4","655cb8cfbf067b49b2a60c38","1329","
            
        <div style=""text-align: center; position: fixed; top: 5vh; left: 40vw;"">
            <div style=""margin:0 auto; width: 20vw; top: 8vh; font-size: 2vw""> 
            <font color=""green""> Bonus : $9.5 </font>
            </div>
        </div>
    
            <div> Please press any key to continue to the next image.</div>
        "," ","ITI","","","","","","",""
"","","","","","html-keyboard-response","232","259524","0.0-7.35-1.35","652e6224f7c742cf18c79e7f","655cb802637e0dbe2941dbc4","655cb8cfbf067b49b2a60c38","null","
        
        <div style=""text-align: center; position: fixed; top: 5vh; left: 40vw;"">
            <div style=""margin:0 auto; width: 20vw; top: 8vh; font-size: 2vw""> 
            <font color=""green""> Bonus : $9.5 </font>
            </div>
        </div>
    
        <img class=""stim"" src=./stimuli//pack_shapes_diff/cat_2/diff_5/ex_2_5_10.png></img>
    ","null","stimulus","","","","","","",""
