"success","timeout","failed_images","failed_audio","failed_video","trial_type","trial_index","time_elapsed","internal_node_id","subject_id","study_id","session_id","rt","stimulus","response","task","correct_response","exemplar_ID","category","difficulty","phase","correct","bonus"
"true","false","[]","[]","[]","preload","0","3","0.0-0.0","60f01d9692d019017760b69a","655cb802637e0dbe2941dbc4","655cb8a9b9f82033bea7aeb7","","","","","","","","","","",""
"","","","","","html-keyboard-response","1","6539","0.0-1.0","60f01d9692d019017760b69a","655cb802637e0dbe2941dbc4","655cb8a9b9f82033bea7aeb7","6535","Welcome to the Category Learning experiment! Press any key to continue."," ","welcome","","","","","","",""
"","","","","","html-keyboard-response","2","21643","0.0-2.0","60f01d9692d019017760b69a","655cb802637e0dbe2941dbc4","655cb8a9b9f82033bea7aeb7","15103","
            <p>You will be shown images of black shapes. Some are category A, some are category B.
            <br>You will not know in advance which category a specific shape belongs to.</p>
            <p>After you see an image, you will be asked to guess its category <b>(left arrow for category A, right arrow for category B)</b></p>
            <p>After you choose, the screen will show you whether you were correct or not.</p>
            <p>Please try to respond as quickly and accurately as possible every time.</p>
            <p>Press any key to continue.</p>
            "," ","introduction_1","","","","","","",""
"","","","","","html-keyboard-response","3","28769","0.0-3.0","60f01d9692d019017760b69a","655cb802637e0dbe2941dbc4","655cb8a9b9f82033bea7aeb7","7126","
              <p><b>You will receive a bonus payment depending on your performance!</b></p>
              <p><b>You start with a $10 bonus and each time you guess a shape's category incorrectly $0.05 will be subtracted from the bonus. <br> After the end of the experiment you will receive the remaining bonus as payment.</b></p>
              <p>Press any key to continue.</p>
              "," ","introduction_1","","","","","","",""
"","","","","","html-keyboard-response","4","33355","0.0-4.0","60f01d9692d019017760b69a","655cb802637e0dbe2941dbc4","655cb8a9b9f82033bea7aeb7","4586","
            <p> <b>The first 10 trials are a practice round that will not count towards your bonus payment.</b></p>
            <p> You will be notified when practice finishes and the test begins. </p>
            <p> Press any key to begin the practice round.</p>
            "," ","introduction_2","","","","","","",""
"","","","","","html-keyboard-response","5","37232","0.0-5.0-0.0","60f01d9692d019017760b69a","655cb802637e0dbe2941dbc4","655cb8a9b9f82033bea7aeb7","3875","
            
        <div style=""text-align: center; position: fixed; top: 5vh; left: 40vw;"">
            <div style=""margin:0 auto; width: 20vw; top: 8vh; font-size: 2vw""> 
            <font color=""green""> Bonus : $10 </font>
            </div>
        </div>
    
            <div> Please press any key to continue to the next image.</div>
        ","arrowright","ITI","","","","","","",""
"","","","","","html-keyboard-response","6","37846","0.0-5.0-1.0","60f01d9692d019017760b69a","655cb802637e0dbe2941dbc4","655cb8a9b9f82033bea7aeb7","null","
        
        <div style=""text-align: center; position: fixed; top: 5vh; left: 40vw;"">
            <div style=""margin:0 auto; width: 20vw; top: 8vh; font-size: 2vw""> 
            <font color=""green""> Bonus : $10 </font>
            </div>
        </div>
    
        <img class=""stim"" src=./stimuli//pack_shapes_diff/cat_2/diff_1/ex_2_1_14.png></img>
    ","null","stimulus","","","","","","",""
"","","","","","html-keyboard-response","7","38861","0.0-5.0-2.0","60f01d9692d019017760b69a","655cb802637e0dbe2941dbc4","655cb8a9b9f82033bea7aeb7","null","
        <div style=""text-align: center; position: fixed; top: 5vh; left: 40vw;"">
            <div style=""margin:0 auto; width: 20vw; top: 8vh; font-size: 2vw""> 
            <font color=""green""> Bonus : $10 </font>
            </div>
        </div>
    ","null","","","","","","","",""
"","","","","","html-keyboard-response","8","42753","0.0-5.0-3.0","60f01d9692d019017760b69a","655cb802637e0dbe2941dbc4","655cb8a9b9f82033bea7aeb7","3891","./stimuli//pack_shapes_diff/cat_2/diff_1/ex_2_1_14.png","arrowleft","response","ArrowRight","14","2","1","train","false",""
"","","","","","html-keyboard-response","9","44262","0.0-5.0-4.0","60f01d9692d019017760b69a","655cb802637e0dbe2941dbc4","655cb8a9b9f82033bea7aeb7","null","<p> <font color=""red"" size=""5vw""> Wrong category! </font> </p>","null","feedback","","","","","","","10"
"","","","","","html-keyboard-response","10","46443","0.0-5.0-0.1","60f01d9692d019017760b69a","655cb802637e0dbe2941dbc4","655cb8a9b9f82033bea7aeb7","2180","
            
        <div style=""text-align: center; position: fixed; top: 5vh; left: 40vw;"">
            <div style=""margin:0 auto; width: 20vw; top: 8vh; font-size: 2vw""> 
            <font color=""green""> Bonus : $10 </font>
            </div>
        </div>
    
            <div> Please press any key to continue to the next image.</div>
        ","arrowright","ITI","","","","","","",""
"","","","","","html-keyboard-response","11","47048","0.0-5.0-1.1","60f01d9692d019017760b69a","655cb802637e0dbe2941dbc4","655cb8a9b9f82033bea7aeb7","null","
        
        <div style=""text-align: center; position: fixed; top: 5vh; left: 40vw;"">
            <div style=""margin:0 auto; width: 20vw; top: 8vh; font-size: 2vw""> 
            <font color=""green""> Bonus : $10 </font>
            </div>
        </div>
    
        <img class=""stim"" src=./stimuli//pack_shapes_diff/cat_2/diff_2/ex_2_2_12.png></img>
    ","null","stimulus","","","","","","",""
"","","","","","html-keyboard-response","12","48063","0.0-5.0-2.1","60f01d9692d019017760b69a","655cb802637e0dbe2941dbc4","655cb8a9b9f82033bea7aeb7","null","
        <div style=""text-align: center; position: fixed; top: 5vh; left: 40vw;"">
            <div style=""margin:0 auto; width: 20vw; top: 8vh; font-size: 2vw""> 
            <font color=""green""> Bonus : $10 </font>
            </div>
        </div>
    ","null","","","","","","","",""
"","","","","","html-keyboard-response","13","49169","0.0-5.0-3.1","60f01d9692d019017760b69a","655cb802637e0dbe2941dbc4","655cb8a9b9f82033bea7aeb7","1106","./stimuli//pack_shapes_diff/cat_2/diff_2/ex_2_2_12.png","arrowright","response","ArrowRight","12","2","2","train","true",""
"","","","","","html-keyboard-response","14","50678","0.0-5.0-4.1","60f01d9692d019017760b69a","655cb802637e0dbe2941dbc4","655cb8a9b9f82033bea7aeb7","null","<p> <font color=""green"" size=""5vw""> Correct category! </font> </p>","null","feedback","","","","","","","10"
"","","","","","html-keyboard-response","15","52683","0.0-5.0-0.2","60f01d9692d019017760b69a","655cb802637e0dbe2941dbc4","655cb8a9b9f82033bea7aeb7","2004","
            
        <div style=""text-align: center; position: fixed; top: 5vh; left: 40vw;"">
            <div style=""margin:0 auto; width: 20vw; top: 8vh; font-size: 2vw""> 
            <font color=""green""> Bonus : $10 </font>
            </div>
        </div>
    
            <div> Please press any key to continue to the next image.</div>
        ","arrowright","ITI","","","","","","",""
"","","","","","html-keyboard-response","16","53295","0.0-5.0-1.2","60f01d9692d019017760b69a","655cb802637e0dbe2941dbc4","655cb8a9b9f82033bea7aeb7","null","
        
        <div style=""text-align: center; position: fixed; top: 5vh; left: 40vw;"">
            <div style=""margin:0 auto; width: 20vw; top: 8vh; font-size: 2vw""> 
            <font color=""green""> Bonus : $10 </font>
            </div>
        </div>
    
        <img class=""stim"" src=./stimuli//pack_shapes_diff/cat_2/diff_2/ex_2_2_7.png></img>
    ","null","stimulus","","","","","","",""
"","","","","","html-keyboard-response","17","54308","0.0-5.0-2.2","60f01d9692d019017760b69a","655cb802637e0dbe2941dbc4","655cb8a9b9f82033bea7aeb7","null","
        <div style=""text-align: center; position: fixed; top: 5vh; left: 40vw;"">
            <div style=""margin:0 auto; width: 20vw; top: 8vh; font-size: 2vw""> 
            <font color=""green""> Bonus : $10 </font>
            </div>
        </div>
    ","null","","","","","","","",""
"","","","","","html-keyboard-response","18","55539","0.0-5.0-3.2","60f01d9692d019017760b69a","655cb802637e0dbe2941dbc4","655cb8a9b9f82033bea7aeb7","1231","./stimuli//pack_shapes_diff/cat_2/diff_2/ex_2_2_7.png","arrowleft","response","ArrowRight","7","2","2","train","false",""
"","","","","","html-keyboard-response","19","57042","0.0-5.0-4.2","60f01d9692d019017760b69a","655cb802637e0dbe2941dbc4","655cb8a9b9f82033bea7aeb7","null","<p> <font color=""red"" size=""5vw""> Wrong category! </font> </p>","null","feedback","","","","","","","10"
"","","","","","html-keyboard-response","20","57425","0.0-5.0-0.3","60f01d9692d019017760b69a","655cb802637e0dbe2941dbc4","655cb8a9b9f82033bea7aeb7","383","
            
        <div style=""text-align: center; position: fixed; top: 5vh; left: 40vw;"">
            <div style=""margin:0 auto; width: 20vw; top: 8vh; font-size: 2vw""> 
            <font color=""green""> Bonus : $10 </font>
            </div>
        </div>
    
            <div> Please press any key to continue to the next image.</div>
        ","arrowright","ITI","","","","","","",""
"","","","","","html-keyboard-response","21","58033","0.0-5.0-1.3","60f01d9692d019017760b69a","655cb802637e0dbe2941dbc4","655cb8a9b9f82033bea7aeb7","null","
        
        <div style=""text-align: center; position: fixed; top: 5vh; left: 40vw;"">
            <div style=""margin:0 auto; width: 20vw; top: 8vh; font-size: 2vw""> 
            <font color=""green""> Bonus : $10 </font>
            </div>
        </div>
    
        <img class=""stim"" src=./stimuli//pack_shapes_diff/cat_1/diff_1/ex_1_1_8.png></img>
    ","null","stimulus","","","","","","",""
"","","","","","html-keyboard-response","22","59035","0.0-5.0-2.3","60f01d9692d019017760b69a","655cb802637e0dbe2941dbc4","655cb8a9b9f82033bea7aeb7","null","
        <div style=""text-align: center; position: fixed; top: 5vh; left: 40vw;"">
            <div style=""margin:0 auto; width: 20vw; top: 8vh; font-size: 2vw""> 
            <font color=""green""> Bonus : $10 </font>
            </div>
        </div>
    ","null","","","","","","","",""
"","","","","","html-keyboard-response","23","59680","0.0-5.0-3.3","60f01d9692d019017760b69a","655cb802637e0dbe2941dbc4","655cb8a9b9f82033bea7aeb7","644","./stimuli//pack_shapes_diff/cat_1/diff_1/ex_1_1_8.png","arrowleft","response","ArrowLeft","8","1","1","train","true",""
"","","","","","html-keyboard-response","24","61190","0.0-5.0-4.3","60f01d9692d019017760b69a","655cb802637e0dbe2941dbc4","655cb8a9b9f82033bea7aeb7","null","<p> <font color=""green"" size=""5vw""> Correct category! </font> </p>","null","feedback","","","","","","","10"
"","","","","","html-keyboard-response","25","62801","0.0-5.0-0.4","60f01d9692d019017760b69a","655cb802637e0dbe2941dbc4","655cb8a9b9f82033bea7aeb7","1610","
            
        <div style=""text-align: center; position: fixed; top: 5vh; left: 40vw;"">
            <div style=""margin:0 auto; width: 20vw; top: 8vh; font-size: 2vw""> 
            <font color=""green""> Bonus : $10 </font>
            </div>
        </div>
    
            <div> Please press any key to continue to the next image.</div>
        ","arrowright","ITI","","","","","","",""
"","","","","","html-keyboard-response","26","63409","0.0-5.0-1.4","60f01d9692d019017760b69a","655cb802637e0dbe2941dbc4","655cb8a9b9f82033bea7aeb7","null","
        
        <div style=""text-align: center; position: fixed; top: 5vh; left: 40vw;"">
            <div style=""margin:0 auto; width: 20vw; top: 8vh; font-size: 2vw""> 
            <font color=""green""> Bonus : $10 </font>
            </div>
        </div>
    
        <img class=""stim"" src=./stimuli//pack_shapes_diff/cat_1/diff_1/ex_1_1_3.png></img>
    ","null","stimulus","","","","","","",""
"","","","","","html-keyboard-response","27","64422","0.0-5.0-2.4","60f01d9692d019017760b69a","655cb802637e0dbe2941dbc4","655cb8a9b9f82033bea7aeb7","null","
        <div style=""text-align: center; position: fixed; top: 5vh; left: 40vw;"">
            <div style=""margin:0 auto; width: 20vw; top: 8vh; font-size: 2vw""> 
            <font color=""green""> Bonus : $10 </font>
            </div>
        </div>
    ","null","","","","","","","",""
"","","","","","html-keyboard-response","28","64685","0.0-5.0-3.4","60f01d9692d019017760b69a","655cb802637e0dbe2941dbc4","655cb8a9b9f82033bea7aeb7","262","./stimuli//pack_shapes_diff/cat_1/diff_1/ex_1_1_3.png","arrowleft","response","ArrowLeft","3","1","1","train","true",""
"","","","","","html-keyboard-response","29","66194","0.0-5.0-4.4","60f01d9692d019017760b69a","655cb802637e0dbe2941dbc4","655cb8a9b9f82033bea7aeb7","null","<p> <font color=""green"" size=""5vw""> Correct category! </font> </p>","null","feedback","","","","","","","10"
"","","","","","html-keyboard-response","30","67584","0.0-5.0-0.5","60f01d9692d019017760b69a","655cb802637e0dbe2941dbc4","655cb8a9b9f82033bea7aeb7","1390","
            
        <div style=""text-align: center; position: fixed; top: 5vh; left: 40vw;"">
            <div style=""margin:0 auto; width: 20vw; top: 8vh; font-size: 2vw""> 
            <font color=""green""> Bonus : $10 </font>
            </div>
        </div>
    
            <div> Please press any key to continue to the next image.</div>
        ","arrowleft","ITI","","","","","","",""
"","","","","","html-keyboard-response","31","68187","0.0-5.0-1.5","60f01d9692d019017760b69a","655cb802637e0dbe2941dbc4","655cb8a9b9f82033bea7aeb7","null","
        
        <div style=""text-align: center; position: fixed; top: 5vh; left: 40vw;"">
            <div style=""margin:0 auto; width: 20vw; top: 8vh; font-size: 2vw""> 
            <font color=""green""> Bonus : $10 </font>
            </div>
        </div>
    
        <img class=""stim"" src=./stimuli//pack_shapes_diff/cat_1/diff_2/ex_1_2_15.png></img>
    ","null","stimulus","","","","","","",""
"","","","","","html-keyboard-response","32","69200","0.0-5.0-2.5","60f01d9692d019017760b69a","655cb802637e0dbe2941dbc4","655cb8a9b9f82033bea7aeb7","null","
        <div style=""text-align: center; position: fixed; top: 5vh; left: 40vw;"">
            <div style=""margin:0 auto; width: 20vw; top: 8vh; font-size: 2vw""> 
            <font color=""green""> Bonus : $10 </font>
            </div>
        </div>
    ","null","","","","","","","",""
"","","","","","html-keyboard-response","33","69529","0.0-5.0-3.5","60f01d9692d019017760b69a","655cb802637e0dbe2941dbc4","655cb8a9b9f82033bea7aeb7","328","./stimuli//pack_shapes_diff/cat_1/diff_2/ex_1_2_15.png","arrowright","response","ArrowLeft","15","1","2","train","false",""
"","","","","","html-keyboard-response","34","71031","0.0-5.0-4.5","60f01d9692d019017760b69a","655cb802637e0dbe2941dbc4","655cb8a9b9f82033bea7aeb7","null","<p> <font color=""red"" size=""5vw""> Wrong category! </font> </p>","null","feedback","","","","","","","10"
"","","","","","html-keyboard-response","35","71617","0.0-5.0-0.6","60f01d9692d019017760b69a","655cb802637e0dbe2941dbc4","655cb8a9b9f82033bea7aeb7","586","
            
        <div style=""text-align: center; position: fixed; top: 5vh; left: 40vw;"">
            <div style=""margin:0 auto; width: 20vw; top: 8vh; font-size: 2vw""> 
            <font color=""green""> Bonus : $10 </font>
            </div>
        </div>
    
            <div> Please press any key to continue to the next image.</div>
        ","arrowleft","ITI","","","","","","",""
"","","","","","html-keyboard-response","36","72231","0.0-5.0-1.6","60f01d9692d019017760b69a","655cb802637e0dbe2941dbc4","655cb8a9b9f82033bea7aeb7","null","
        
        <div style=""text-align: center; position: fixed; top: 5vh; left: 40vw;"">
            <div style=""margin:0 auto; width: 20vw; top: 8vh; font-size: 2vw""> 
            <font color=""green""> Bonus : $10 </font>
            </div>
        </div>
    
        <img class=""stim"" src=./stimuli//pack_shapes_diff/cat_2/diff_1/ex_2_1_16.png></img>
    ","null","stimulus","","","","","","",""
"","","","","","html-keyboard-response","37","73240","0.0-5.0-2.6","60f01d9692d019017760b69a","655cb802637e0dbe2941dbc4","655cb8a9b9f82033bea7aeb7","null","
        <div style=""text-align: center; position: fixed; top: 5vh; left: 40vw;"">
            <div style=""margin:0 auto; width: 20vw; top: 8vh; font-size: 2vw""> 
            <font color=""green""> Bonus : $10 </font>
            </div>
        </div>
    ","null","","","","","","","",""
"","","","","","html-keyboard-response","38","73582","0.0-5.0-3.6","60f01d9692d019017760b69a","655cb802637e0dbe2941dbc4","655cb8a9b9f82033bea7aeb7","341","./stimuli//pack_shapes_diff/cat_2/diff_1/ex_2_1_16.png","arrowright","response","ArrowRight","16","2","1","train","true",""
"","","","","","html-keyboard-response","39","75094","0.0-5.0-4.6","60f01d9692d019017760b69a","655cb802637e0dbe2941dbc4","655cb8a9b9f82033bea7aeb7","null","<p> <font color=""green"" size=""5vw""> Correct category! </font> </p>","null","feedback","","","","","","","10"
"","","","","","html-keyboard-response","40","75786","0.0-5.0-0.7","60f01d9692d019017760b69a","655cb802637e0dbe2941dbc4","655cb8a9b9f82033bea7aeb7","691","
            
        <div style=""text-align: center; position: fixed; top: 5vh; left: 40vw;"">
            <div style=""margin:0 auto; width: 20vw; top: 8vh; font-size: 2vw""> 
            <font color=""green""> Bonus : $10 </font>
            </div>
        </div>
    
            <div> Please press any key to continue to the next image.</div>
        ","arrowright","ITI","","","","","","",""
"","","","","","html-keyboard-response","41","76394","0.0-5.0-1.7","60f01d9692d019017760b69a","655cb802637e0dbe2941dbc4","655cb8a9b9f82033bea7aeb7","null","
        
        <div style=""text-align: center; position: fixed; top: 5vh; left: 40vw;"">
            <div style=""margin:0 auto; width: 20vw; top: 8vh; font-size: 2vw""> 
            <font color=""green""> Bonus : $10 </font>
            </div>
        </div>
    
        <img class=""stim"" src=./stimuli//pack_shapes_diff/cat_2/diff_1/ex_2_1_1.png></img>
    ","null","stimulus","","","","","","",""
"","","","","","html-keyboard-response","42","77404","0.0-5.0-2.7","60f01d9692d019017760b69a","655cb802637e0dbe2941dbc4","655cb8a9b9f82033bea7aeb7","null","
        <div style=""text-align: center; position: fixed; top: 5vh; left: 40vw;"">
            <div style=""margin:0 auto; width: 20vw; top: 8vh; font-size: 2vw""> 
            <font color=""green""> Bonus : $10 </font>
            </div>
        </div>
    ","null","","","","","","","",""
"","","","","","html-keyboard-response","43","77610","0.0-5.0-3.7","60f01d9692d019017760b69a","655cb802637e0dbe2941dbc4","655cb8a9b9f82033bea7aeb7","206","./stimuli//pack_shapes_diff/cat_2/diff_1/ex_2_1_1.png","arrowright","response","ArrowRight","1","2","1","train","true",""
"","","","","","html-keyboard-response","44","79121","0.0-5.0-4.7","60f01d9692d019017760b69a","655cb802637e0dbe2941dbc4","655cb8a9b9f82033bea7aeb7","null","<p> <font color=""green"" size=""5vw""> Correct category! </font> </p>","null","feedback","","","","","","","10"
"","","","","","html-keyboard-response","45","80643","0.0-5.0-0.8","60f01d9692d019017760b69a","655cb802637e0dbe2941dbc4","655cb8a9b9f82033bea7aeb7","1521","
            
        <div style=""text-align: center; position: fixed; top: 5vh; left: 40vw;"">
            <div style=""margin:0 auto; width: 20vw; top: 8vh; font-size: 2vw""> 
            <font color=""green""> Bonus : $10 </font>
            </div>
        </div>
    
            <div> Please press any key to continue to the next image.</div>
        ","arrowright","ITI","","","","","","",""
"","","","","","html-keyboard-response","46","81245","0.0-5.0-1.8","60f01d9692d019017760b69a","655cb802637e0dbe2941dbc4","655cb8a9b9f82033bea7aeb7","null","
        
        <div style=""text-align: center; position: fixed; top: 5vh; left: 40vw;"">
            <div style=""margin:0 auto; width: 20vw; top: 8vh; font-size: 2vw""> 
            <font color=""green""> Bonus : $10 </font>
            </div>
        </div>
    
        <img class=""stim"" src=./stimuli//pack_shapes_diff/cat_1/diff_1/ex_1_1_10.png></img>
    ","null","stimulus","","","","","","",""
"","","","","","html-keyboard-response","47","82246","0.0-5.0-2.8","60f01d9692d019017760b69a","655cb802637e0dbe2941dbc4","655cb8a9b9f82033bea7aeb7","null","
        <div style=""text-align: center; position: fixed; top: 5vh; left: 40vw;"">
            <div style=""margin:0 auto; width: 20vw; top: 8vh; font-size: 2vw""> 
            <font color=""green""> Bonus : $10 </font>
            </div>
        </div>
    ","null","","","","","","","",""
"","","","","","html-keyboard-response","48","82504","0.0-5.0-3.8","60f01d9692d019017760b69a","655cb802637e0dbe2941dbc4","655cb8a9b9f82033bea7aeb7","258","./stimuli//pack_shapes_diff/cat_1/diff_1/ex_1_1_10.png","arrowleft","response","ArrowLeft","10","1","1","train","true",""
"","","","","","html-keyboard-response","49","84009","0.0-5.0-4.8","60f01d9692d019017760b69a","655cb802637e0dbe2941dbc4","655cb8a9b9f82033bea7aeb7","null","<p> <font color=""green"" size=""5vw""> Correct category! </font> </p>","null","feedback","","","","","","","10"
"","","","","","html-keyboard-response","50","85206","0.0-5.0-0.9","60f01d9692d019017760b69a","655cb802637e0dbe2941dbc4","655cb8a9b9f82033bea7aeb7","1197","
            
        <div style=""text-align: center; position: fixed; top: 5vh; left: 40vw;"">
            <div style=""margin:0 auto; width: 20vw; top: 8vh; font-size: 2vw""> 
            <font color=""green""> Bonus : $10 </font>
            </div>
        </div>
    
            <div> Please press any key to continue to the next image.</div>
        ","arrowright","ITI","","","","","","",""
"","","","","","html-keyboard-response","51","85821","0.0-5.0-1.9","60f01d9692d019017760b69a","655cb802637e0dbe2941dbc4","655cb8a9b9f82033bea7aeb7","null","
        
        <div style=""text-align: center; position: fixed; top: 5vh; left: 40vw;"">
            <div style=""margin:0 auto; width: 20vw; top: 8vh; font-size: 2vw""> 
            <font color=""green""> Bonus : $10 </font>
            </div>
        </div>
    
        <img class=""stim"" src=./stimuli//pack_shapes_diff/cat_1/diff_2/ex_1_2_17.png></img>
    ","null","stimulus","","","","","","",""
"","","","","","html-keyboard-response","52","86831","0.0-5.0-2.9","60f01d9692d019017760b69a","655cb802637e0dbe2941dbc4","655cb8a9b9f82033bea7aeb7","null","
        <div style=""text-align: center; position: fixed; top: 5vh; left: 40vw;"">
            <div style=""margin:0 auto; width: 20vw; top: 8vh; font-size: 2vw""> 
            <font color=""green""> Bonus : $10 </font>
            </div>
        </div>
    ","null","","","","","","","",""
"","","","","","html-keyboard-response","53","87111","0.0-5.0-3.9","60f01d9692d019017760b69a","655cb802637e0dbe2941dbc4","655cb8a9b9f82033bea7aeb7","279","./stimuli//pack_shapes_diff/cat_1/diff_2/ex_1_2_17.png","arrowleft","response","ArrowLeft","17","1","2","train","true",""
"","","","","","html-keyboard-response","54","88615","0.0-5.0-4.9","60f01d9692d019017760b69a","655cb802637e0dbe2941dbc4","655cb8a9b9f82033bea7aeb7","null","<p> <font color=""green"" size=""5vw""> Correct category! </font> </p>","null","feedback","","","","","","","10"
"","","","","","html-keyboard-response","55","95651","0.0-6.0","60f01d9692d019017760b69a","655cb802637e0dbe2941dbc4","655cb8a9b9f82033bea7aeb7","7036","
            <b> <p> The practice round has finished.</p>
            <b> For the rest of the experiment if you guess incorrectly $0.05 will be subtracted from your bonus!</b>
            <p> Press any key to begin the test. </p>
            ","arrowright","intermission","","","","","","",""
"","","","","","html-keyboard-response","56","97064","0.0-7.0-0.0","60f01d9692d019017760b69a","655cb802637e0dbe2941dbc4","655cb8a9b9f82033bea7aeb7","1413","
            
        <div style=""text-align: center; position: fixed; top: 5vh; left: 40vw;"">
            <div style=""margin:0 auto; width: 20vw; top: 8vh; font-size: 2vw""> 
            <font color=""green""> Bonus : $10 </font>
            </div>
        </div>
    
            <div> Please press any key to continue to the next image.</div>
        ","arrowright","ITI","","","","","","",""
"","","","","","html-keyboard-response","57","97666","0.0-7.0-1.0","60f01d9692d019017760b69a","655cb802637e0dbe2941dbc4","655cb8a9b9f82033bea7aeb7","null","
        
        <div style=""text-align: center; position: fixed; top: 5vh; left: 40vw;"">
            <div style=""margin:0 auto; width: 20vw; top: 8vh; font-size: 2vw""> 
            <font color=""green""> Bonus : $10 </font>
            </div>
        </div>
    
        <img class=""stim"" src=./stimuli//pack_shapes_diff/cat_2/diff_1/ex_2_1_17.png></img>
    ","null","stimulus","","","","","","",""
"","","","","","html-keyboard-response","58","98670","0.0-7.0-2.0","60f01d9692d019017760b69a","655cb802637e0dbe2941dbc4","655cb8a9b9f82033bea7aeb7","null","
        <div style=""text-align: center; position: fixed; top: 5vh; left: 40vw;"">
            <div style=""margin:0 auto; width: 20vw; top: 8vh; font-size: 2vw""> 
            <font color=""green""> Bonus : $10 </font>
            </div>
        </div>
    ","null","","","","","","","",""
"","","","","","html-keyboard-response","59","99061","0.0-7.0-3.0","60f01d9692d019017760b69a","655cb802637e0dbe2941dbc4","655cb8a9b9f82033bea7aeb7","391","./stimuli//pack_shapes_diff/cat_2/diff_1/ex_2_1_17.png","arrowright","response","ArrowRight","17","2","1","test","true",""
"","","","","","html-keyboard-response","60","100572","0.0-7.0-4.0","60f01d9692d019017760b69a","655cb802637e0dbe2941dbc4","655cb8a9b9f82033bea7aeb7","null","<p> <font color=""green"" size=""5vw""> Correct category! </font></p>","null","feedback","","","","","","","10"
"","","","","","html-keyboard-response","61","101231","0.0-7.1-0.1","60f01d9692d019017760b69a","655cb802637e0dbe2941dbc4","655cb8a9b9f82033bea7aeb7","658","
            
        <div style=""text-align: center; position: fixed; top: 5vh; left: 40vw;"">
            <div style=""margin:0 auto; width: 20vw; top: 8vh; font-size: 2vw""> 
            <font color=""green""> Bonus : $10 </font>
            </div>
        </div>
    
            <div> Please press any key to continue to the next image.</div>
        ","arrowright","ITI","","","","","","",""
"","","","","","html-keyboard-response","62","101834","0.0-7.1-1.1","60f01d9692d019017760b69a","655cb802637e0dbe2941dbc4","655cb8a9b9f82033bea7aeb7","null","
        
        <div style=""text-align: center; position: fixed; top: 5vh; left: 40vw;"">
            <div style=""margin:0 auto; width: 20vw; top: 8vh; font-size: 2vw""> 
            <font color=""green""> Bonus : $10 </font>
            </div>
        </div>
    
        <img class=""stim"" src=./stimuli//pack_shapes_diff/cat_1/diff_1/ex_1_1_6.png></img>
    ","null","stimulus","","","","","","",""
"","","","","","html-keyboard-response","63","102847","0.0-7.1-2.1","60f01d9692d019017760b69a","655cb802637e0dbe2941dbc4","655cb8a9b9f82033bea7aeb7","null","
        <div style=""text-align: center; position: fixed; top: 5vh; left: 40vw;"">
            <div style=""margin:0 auto; width: 20vw; top: 8vh; font-size: 2vw""> 
            <font color=""green""> Bonus : $10 </font>
            </div>
        </div>
    ","null","","","","","","","",""
"","","","","","html-keyboard-response","64","103099","0.0-7.1-3.1","60f01d9692d019017760b69a","655cb802637e0dbe2941dbc4","655cb8a9b9f82033bea7aeb7","252","./stimuli//pack_shapes_diff/cat_1/diff_1/ex_1_1_6.png","arrowleft","response","ArrowLeft","6","1","1","test","true",""
"","","","","","html-keyboard-response","65","104609","0.0-7.1-4.1","60f01d9692d019017760b69a","655cb802637e0dbe2941dbc4","655cb8a9b9f82033bea7aeb7","null","<p> <font color=""green"" size=""5vw""> Correct category! </font></p>","null","feedback","","","","","","","10"
"","","","","","html-keyboard-response","66","105122","0.0-7.2-0.2","60f01d9692d019017760b69a","655cb802637e0dbe2941dbc4","655cb8a9b9f82033bea7aeb7","512","
            
        <div style=""text-align: center; position: fixed; top: 5vh; left: 40vw;"">
            <div style=""margin:0 auto; width: 20vw; top: 8vh; font-size: 2vw""> 
            <font color=""green""> Bonus : $10 </font>
            </div>
        </div>
    
            <div> Please press any key to continue to the next image.</div>
        ","arrowright","ITI","","","","","","",""
"","","","","","html-keyboard-response","67","105732","0.0-7.2-1.2","60f01d9692d019017760b69a","655cb802637e0dbe2941dbc4","655cb8a9b9f82033bea7aeb7","null","
        
        <div style=""text-align: center; position: fixed; top: 5vh; left: 40vw;"">
            <div style=""margin:0 auto; width: 20vw; top: 8vh; font-size: 2vw""> 
            <font color=""green""> Bonus : $10 </font>
            </div>
        </div>
    
        <img class=""stim"" src=./stimuli//pack_shapes_diff/cat_2/diff_1/ex_2_1_10.png></img>
    ","null","stimulus","","","","","","",""
"","","","","","html-keyboard-response","68","106743","0.0-7.2-2.2","60f01d9692d019017760b69a","655cb802637e0dbe2941dbc4","655cb8a9b9f82033bea7aeb7","null","
        <div style=""text-align: center; position: fixed; top: 5vh; left: 40vw;"">
            <div style=""margin:0 auto; width: 20vw; top: 8vh; font-size: 2vw""> 
            <font color=""green""> Bonus : $10 </font>
            </div>
        </div>
    ","null","","","","","","","",""
"","","","","","html-keyboard-response","69","107005","0.0-7.2-3.2","60f01d9692d019017760b69a","655cb802637e0dbe2941dbc4","655cb8a9b9f82033bea7aeb7","262","./stimuli//pack_shapes_diff/cat_2/diff_1/ex_2_1_10.png","arrowright","response","ArrowRight","10","2","1","test","true",""
"","","","","","html-keyboard-response","70","108515","0.0-7.2-4.2","60f01d9692d019017760b69a","655cb802637e0dbe2941dbc4","655cb8a9b9f82033bea7aeb7","null","<p> <font color=""green"" size=""5vw""> Correct category! </font></p>","null","feedback","","","","","","","10"
"","","","","","html-keyboard-response","71","108893","0.0-7.3-0.3","60f01d9692d019017760b69a","655cb802637e0dbe2941dbc4","655cb8a9b9f82033bea7aeb7","377","
            
        <div style=""text-align: center; position: fixed; top: 5vh; left: 40vw;"">
            <div style=""margin:0 auto; width: 20vw; top: 8vh; font-size: 2vw""> 
            <font color=""green""> Bonus : $10 </font>
            </div>
        </div>
    
            <div> Please press any key to continue to the next image.</div>
        ","arrowright","ITI","","","","","","",""
"","","","","","html-keyboard-response","72","109508","0.0-7.3-1.3","60f01d9692d019017760b69a","655cb802637e0dbe2941dbc4","655cb8a9b9f82033bea7aeb7","null","
        
        <div style=""text-align: center; position: fixed; top: 5vh; left: 40vw;"">
            <div style=""margin:0 auto; width: 20vw; top: 8vh; font-size: 2vw""> 
            <font color=""green""> Bonus : $10 </font>
            </div>
        </div>
    
        <img class=""stim"" src=./stimuli//pack_shapes_diff/cat_1/diff_1/ex_1_1_1.png></img>
    ","null","stimulus","","","","","","",""
"","","","","","html-keyboard-response","73","110514","0.0-7.3-2.3","60f01d9692d019017760b69a","655cb802637e0dbe2941dbc4","655cb8a9b9f82033bea7aeb7","null","
        <div style=""text-align: center; position: fixed; top: 5vh; left: 40vw;"">
            <div style=""margin:0 auto; width: 20vw; top: 8vh; font-size: 2vw""> 
            <font color=""green""> Bonus : $10 </font>
            </div>
        </div>
    ","null","","","","","","","",""
"","","","","","html-keyboard-response","74","110759","0.0-7.3-3.3","60f01d9692d019017760b69a","655cb802637e0dbe2941dbc4","655cb8a9b9f82033bea7aeb7","244","./stimuli//pack_shapes_diff/cat_1/diff_1/ex_1_1_1.png","arrowleft","response","ArrowLeft","1","1","1","test","true",""
"","","","","","html-keyboard-response","75","112266","0.0-7.3-4.3","60f01d9692d019017760b69a","655cb802637e0dbe2941dbc4","655cb8a9b9f82033bea7aeb7","null","<p> <font color=""green"" size=""5vw""> Correct category! </font></p>","null","feedback","","","","","","","10"
"","","","","","html-keyboard-response","76","112637","0.0-7.4-0.4","60f01d9692d019017760b69a","655cb802637e0dbe2941dbc4","655cb8a9b9f82033bea7aeb7","370","
            
        <div style=""text-align: center; position: fixed; top: 5vh; left: 40vw;"">
            <div style=""margin:0 auto; width: 20vw; top: 8vh; font-size: 2vw""> 
            <font color=""green""> Bonus : $10 </font>
            </div>
        </div>
    
            <div> Please press any key to continue to the next image.</div>
        ","arrowright","ITI","","","","","","",""
"","","","","","html-keyboard-response","77","113239","0.0-7.4-1.4","60f01d9692d019017760b69a","655cb802637e0dbe2941dbc4","655cb8a9b9f82033bea7aeb7","null","
        
        <div style=""text-align: center; position: fixed; top: 5vh; left: 40vw;"">
            <div style=""margin:0 auto; width: 20vw; top: 8vh; font-size: 2vw""> 
            <font color=""green""> Bonus : $10 </font>
            </div>
        </div>
    
        <img class=""stim"" src=./stimuli//pack_shapes_diff/cat_2/diff_1/ex_2_1_7.png></img>
    ","null","stimulus","","","","","","",""
"","","","","","html-keyboard-response","78","114250","0.0-7.4-2.4","60f01d9692d019017760b69a","655cb802637e0dbe2941dbc4","655cb8a9b9f82033bea7aeb7","null","
        <div style=""text-align: center; position: fixed; top: 5vh; left: 40vw;"">
            <div style=""margin:0 auto; width: 20vw; top: 8vh; font-size: 2vw""> 
            <font color=""green""> Bonus : $10 </font>
            </div>
        </div>
    ","null","","","","","","","",""
"","","","","","html-keyboard-response","79","114527","0.0-7.4-3.4","60f01d9692d019017760b69a","655cb802637e0dbe2941dbc4","655cb8a9b9f82033bea7aeb7","277","./stimuli//pack_shapes_diff/cat_2/diff_1/ex_2_1_7.png","arrowright","response","ArrowRight","7","2","1","test","true",""
"","","","","","html-keyboard-response","80","116042","0.0-7.4-4.4","60f01d9692d019017760b69a","655cb802637e0dbe2941dbc4","655cb8a9b9f82033bea7aeb7","null","<p> <font color=""green"" size=""5vw""> Correct category! </font></p>","null","feedback","","","","","","","10"
"","","","","","html-keyboard-response","81","116389","0.0-7.5-0.5","60f01d9692d019017760b69a","655cb802637e0dbe2941dbc4","655cb8a9b9f82033bea7aeb7","347","
            
        <div style=""text-align: center; position: fixed; top: 5vh; left: 40vw;"">
            <div style=""margin:0 auto; width: 20vw; top: 8vh; font-size: 2vw""> 
            <font color=""green""> Bonus : $10 </font>
            </div>
        </div>
    
            <div> Please press any key to continue to the next image.</div>
        ","arrowright","ITI","","","","","","",""
"","","","","","html-keyboard-response","82","116995","0.0-7.5-1.5","60f01d9692d019017760b69a","655cb802637e0dbe2941dbc4","655cb8a9b9f82033bea7aeb7","null","
        
        <div style=""text-align: center; position: fixed; top: 5vh; left: 40vw;"">
            <div style=""margin:0 auto; width: 20vw; top: 8vh; font-size: 2vw""> 
            <font color=""green""> Bonus : $10 </font>
            </div>
        </div>
    
        <img class=""stim"" src=./stimuli//pack_shapes_diff/cat_2/diff_2/ex_2_2_8.png></img>
    ","null","stimulus","","","","","","",""
"","","","","","html-keyboard-response","83","118007","0.0-7.5-2.5","60f01d9692d019017760b69a","655cb802637e0dbe2941dbc4","655cb8a9b9f82033bea7aeb7","null","
        <div style=""text-align: center; position: fixed; top: 5vh; left: 40vw;"">
            <div style=""margin:0 auto; width: 20vw; top: 8vh; font-size: 2vw""> 
            <font color=""green""> Bonus : $10 </font>
            </div>
        </div>
    ","null","","","","","","","",""
"","","","","","html-keyboard-response","84","118272","0.0-7.5-3.5","60f01d9692d019017760b69a","655cb802637e0dbe2941dbc4","655cb8a9b9f82033bea7aeb7","265","./stimuli//pack_shapes_diff/cat_2/diff_2/ex_2_2_8.png","arrowright","response","ArrowRight","8","2","2","test","true",""
"","","","","","html-keyboard-response","85","119784","0.0-7.5-4.5","60f01d9692d019017760b69a","655cb802637e0dbe2941dbc4","655cb8a9b9f82033bea7aeb7","null","<p> <font color=""green"" size=""5vw""> Correct category! </font></p>","null","feedback","","","","","","","10"
"","","","","","html-keyboard-response","86","120190","0.0-7.6-0.6","60f01d9692d019017760b69a","655cb802637e0dbe2941dbc4","655cb8a9b9f82033bea7aeb7","405","
            
        <div style=""text-align: center; position: fixed; top: 5vh; left: 40vw;"">
            <div style=""margin:0 auto; width: 20vw; top: 8vh; font-size: 2vw""> 
            <font color=""green""> Bonus : $10 </font>
            </div>
        </div>
    
            <div> Please press any key to continue to the next image.</div>
        ","arrowright","ITI","","","","","","",""
"","","","","","html-keyboard-response","87","120805","0.0-7.6-1.6","60f01d9692d019017760b69a","655cb802637e0dbe2941dbc4","655cb8a9b9f82033bea7aeb7","null","
        
        <div style=""text-align: center; position: fixed; top: 5vh; left: 40vw;"">
            <div style=""margin:0 auto; width: 20vw; top: 8vh; font-size: 2vw""> 
            <font color=""green""> Bonus : $10 </font>
            </div>
        </div>
    
        <img class=""stim"" src=./stimuli//pack_shapes_diff/cat_1/diff_2/ex_1_2_9.png></img>
    ","null","stimulus","","","","","","",""
"","","","","","html-keyboard-response","88","121808","0.0-7.6-2.6","60f01d9692d019017760b69a","655cb802637e0dbe2941dbc4","655cb8a9b9f82033bea7aeb7","null","
        <div style=""text-align: center; position: fixed; top: 5vh; left: 40vw;"">
            <div style=""margin:0 auto; width: 20vw; top: 8vh; font-size: 2vw""> 
            <font color=""green""> Bonus : $10 </font>
            </div>
        </div>
    ","null","","","","","","","",""
"","","","","","html-keyboard-response","89","122076","0.0-7.6-3.6","60f01d9692d019017760b69a","655cb802637e0dbe2941dbc4","655cb8a9b9f82033bea7aeb7","268","./stimuli//pack_shapes_diff/cat_1/diff_2/ex_1_2_9.png","arrowleft","response","ArrowLeft","9","1","2","test","true",""
"","","","","","html-keyboard-response","90","123584","0.0-7.6-4.6","60f01d9692d019017760b69a","655cb802637e0dbe2941dbc4","655cb8a9b9f82033bea7aeb7","null","<p> <font color=""green"" size=""5vw""> Correct category! </font></p>","null","feedback","","","","","","","10"
"","","","","","html-keyboard-response","91","123867","0.0-7.7-0.7","60f01d9692d019017760b69a","655cb802637e0dbe2941dbc4","655cb8a9b9f82033bea7aeb7","283","
            
        <div style=""text-align: center; position: fixed; top: 5vh; left: 40vw;"">
            <div style=""margin:0 auto; width: 20vw; top: 8vh; font-size: 2vw""> 
            <font color=""green""> Bonus : $10 </font>
            </div>
        </div>
    
            <div> Please press any key to continue to the next image.</div>
        ","arrowright","ITI","","","","","","",""
"","","","","","html-keyboard-response","92","124477","0.0-7.7-1.7","60f01d9692d019017760b69a","655cb802637e0dbe2941dbc4","655cb8a9b9f82033bea7aeb7","null","
        
        <div style=""text-align: center; position: fixed; top: 5vh; left: 40vw;"">
            <div style=""margin:0 auto; width: 20vw; top: 8vh; font-size: 2vw""> 
            <font color=""green""> Bonus : $10 </font>
            </div>
        </div>
    
        <img class=""stim"" src=./stimuli//pack_shapes_diff/cat_2/diff_2/ex_2_2_6.png></img>
    ","null","stimulus","","","","","","",""
"","","","","","html-keyboard-response","93","125486","0.0-7.7-2.7","60f01d9692d019017760b69a","655cb802637e0dbe2941dbc4","655cb8a9b9f82033bea7aeb7","null","
        <div style=""text-align: center; position: fixed; top: 5vh; left: 40vw;"">
            <div style=""margin:0 auto; width: 20vw; top: 8vh; font-size: 2vw""> 
            <font color=""green""> Bonus : $10 </font>
            </div>
        </div>
    ","null","","","","","","","",""
"","","","","","html-keyboard-response","94","125741","0.0-7.7-3.7","60f01d9692d019017760b69a","655cb802637e0dbe2941dbc4","655cb8a9b9f82033bea7aeb7","255","./stimuli//pack_shapes_diff/cat_2/diff_2/ex_2_2_6.png","arrowright","response","ArrowRight","6","2","2","test","true",""
"","","","","","html-keyboard-response","95","127251","0.0-7.7-4.7","60f01d9692d019017760b69a","655cb802637e0dbe2941dbc4","655cb8a9b9f82033bea7aeb7","null","<p> <font color=""green"" size=""5vw""> Correct category! </font></p>","null","feedback","","","","","","","10"
"","","","","","html-keyboard-response","96","127672","0.0-7.8-0.8","60f01d9692d019017760b69a","655cb802637e0dbe2941dbc4","655cb8a9b9f82033bea7aeb7","419","
            
        <div style=""text-align: center; position: fixed; top: 5vh; left: 40vw;"">
            <div style=""margin:0 auto; width: 20vw; top: 8vh; font-size: 2vw""> 
            <font color=""green""> Bonus : $10 </font>
            </div>
        </div>
    
            <div> Please press any key to continue to the next image.</div>
        ","arrowright","ITI","","","","","","",""
"","","","","","html-keyboard-response","97","128279","0.0-7.8-1.8","60f01d9692d019017760b69a","655cb802637e0dbe2941dbc4","655cb8a9b9f82033bea7aeb7","null","
        
        <div style=""text-align: center; position: fixed; top: 5vh; left: 40vw;"">
            <div style=""margin:0 auto; width: 20vw; top: 8vh; font-size: 2vw""> 
            <font color=""green""> Bonus : $10 </font>
            </div>
        </div>
    
        <img class=""stim"" src=./stimuli//pack_shapes_diff/cat_1/diff_2/ex_1_2_16.png></img>
    ","null","stimulus","","","","","","",""
"","","","","","html-keyboard-response","98","129280","0.0-7.8-2.8","60f01d9692d019017760b69a","655cb802637e0dbe2941dbc4","655cb8a9b9f82033bea7aeb7","null","
        <div style=""text-align: center; position: fixed; top: 5vh; left: 40vw;"">
            <div style=""margin:0 auto; width: 20vw; top: 8vh; font-size: 2vw""> 
            <font color=""green""> Bonus : $10 </font>
            </div>
        </div>
    ","null","","","","","","","",""
"","","","","","html-keyboard-response","99","129518","0.0-7.8-3.8","60f01d9692d019017760b69a","655cb802637e0dbe2941dbc4","655cb8a9b9f82033bea7aeb7","237","./stimuli//pack_shapes_diff/cat_1/diff_2/ex_1_2_16.png","arrowleft","response","ArrowLeft","16","1","2","test","true",""
"","","","","","html-keyboard-response","100","131019","0.0-7.8-4.8","60f01d9692d019017760b69a","655cb802637e0dbe2941dbc4","655cb8a9b9f82033bea7aeb7","null","<p> <font color=""green"" size=""5vw""> Correct category! </font></p>","null","feedback","","","","","","","10"
"","","","","","html-keyboard-response","101","131387","0.0-7.9-0.9","60f01d9692d019017760b69a","655cb802637e0dbe2941dbc4","655cb8a9b9f82033bea7aeb7","368","
            
        <div style=""text-align: center; position: fixed; top: 5vh; left: 40vw;"">
            <div style=""margin:0 auto; width: 20vw; top: 8vh; font-size: 2vw""> 
            <font color=""green""> Bonus : $10 </font>
            </div>
        </div>
    
            <div> Please press any key to continue to the next image.</div>
        ","arrowright","ITI","","","","","","",""
"","","","","","html-keyboard-response","102","131991","0.0-7.9-1.9","60f01d9692d019017760b69a","655cb802637e0dbe2941dbc4","655cb8a9b9f82033bea7aeb7","null","
        
        <div style=""text-align: center; position: fixed; top: 5vh; left: 40vw;"">
            <div style=""margin:0 auto; width: 20vw; top: 8vh; font-size: 2vw""> 
            <font color=""green""> Bonus : $10 </font>
            </div>
        </div>
    
        <img class=""stim"" src=./stimuli//pack_shapes_diff/cat_1/diff_2/ex_1_2_16.png></img>
    ","null","stimulus","","","","","","",""
"","","","","","html-keyboard-response","103","133000","0.0-7.9-2.9","60f01d9692d019017760b69a","655cb802637e0dbe2941dbc4","655cb8a9b9f82033bea7aeb7","null","
        <div style=""text-align: center; position: fixed; top: 5vh; left: 40vw;"">
            <div style=""margin:0 auto; width: 20vw; top: 8vh; font-size: 2vw""> 
            <font color=""green""> Bonus : $10 </font>
            </div>
        </div>
    ","null","","","","","","","",""
"","","","","","html-keyboard-response","104","133213","0.0-7.9-3.9","60f01d9692d019017760b69a","655cb802637e0dbe2941dbc4","655cb8a9b9f82033bea7aeb7","213","./stimuli//pack_shapes_diff/cat_1/diff_2/ex_1_2_16.png","arrowleft","response","ArrowLeft","16","1","2","test","true",""
"","","","","","html-keyboard-response","105","134722","0.0-7.9-4.9","60f01d9692d019017760b69a","655cb802637e0dbe2941dbc4","655cb8a9b9f82033bea7aeb7","null","<p> <font color=""green"" size=""5vw""> Correct category! </font></p>","null","feedback","","","","","","","10"
"","","","","","html-keyboard-response","106","135180","0.0-7.10-0.10","60f01d9692d019017760b69a","655cb802637e0dbe2941dbc4","655cb8a9b9f82033bea7aeb7","457","
            
        <div style=""text-align: center; position: fixed; top: 5vh; left: 40vw;"">
            <div style=""margin:0 auto; width: 20vw; top: 8vh; font-size: 2vw""> 
            <font color=""green""> Bonus : $10 </font>
            </div>
        </div>
    
            <div> Please press any key to continue to the next image.</div>
        ","arrowright","ITI","","","","","","",""
"","","","","","html-keyboard-response","107","135790","0.0-7.10-1.10","60f01d9692d019017760b69a","655cb802637e0dbe2941dbc4","655cb8a9b9f82033bea7aeb7","null","
        
        <div style=""text-align: center; position: fixed; top: 5vh; left: 40vw;"">
            <div style=""margin:0 auto; width: 20vw; top: 8vh; font-size: 2vw""> 
            <font color=""green""> Bonus : $10 </font>
            </div>
        </div>
    
        <img class=""stim"" src=./stimuli//pack_shapes_diff/cat_1/diff_3/ex_1_3_9.png></img>
    ","null","stimulus","","","","","","",""
"","","","","","html-keyboard-response","108","136796","0.0-7.10-2.10","60f01d9692d019017760b69a","655cb802637e0dbe2941dbc4","655cb8a9b9f82033bea7aeb7","null","
        <div style=""text-align: center; position: fixed; top: 5vh; left: 40vw;"">
            <div style=""margin:0 auto; width: 20vw; top: 8vh; font-size: 2vw""> 
            <font color=""green""> Bonus : $10 </font>
            </div>
        </div>
    ","null","","","","","","","",""
"","","","","","html-keyboard-response","109","137041","0.0-7.10-3.10","60f01d9692d019017760b69a","655cb802637e0dbe2941dbc4","655cb8a9b9f82033bea7aeb7","244","./stimuli//pack_shapes_diff/cat_1/diff_3/ex_1_3_9.png","arrowleft","response","ArrowLeft","9","1","3","test","true",""
"","","","","","html-keyboard-response","110","138556","0.0-7.10-4.10","60f01d9692d019017760b69a","655cb802637e0dbe2941dbc4","655cb8a9b9f82033bea7aeb7","null","<p> <font color=""green"" size=""5vw""> Correct category! </font></p>","null","feedback","","","","","","","10"
"","","","","","html-keyboard-response","111","138939","0.0-7.11-0.11","60f01d9692d019017760b69a","655cb802637e0dbe2941dbc4","655cb8a9b9f82033bea7aeb7","382","
            
        <div style=""text-align: center; position: fixed; top: 5vh; left: 40vw;"">
            <div style=""margin:0 auto; width: 20vw; top: 8vh; font-size: 2vw""> 
            <font color=""green""> Bonus : $10 </font>
            </div>
        </div>
    
            <div> Please press any key to continue to the next image.</div>
        ","arrowright","ITI","","","","","","",""
"","","","","","html-keyboard-response","112","139548","0.0-7.11-1.11","60f01d9692d019017760b69a","655cb802637e0dbe2941dbc4","655cb8a9b9f82033bea7aeb7","null","
        
        <div style=""text-align: center; position: fixed; top: 5vh; left: 40vw;"">
            <div style=""margin:0 auto; width: 20vw; top: 8vh; font-size: 2vw""> 
            <font color=""green""> Bonus : $10 </font>
            </div>
        </div>
    
        <img class=""stim"" src=./stimuli//pack_shapes_diff/cat_2/diff_3/ex_2_3_2.png></img>
    ","null","stimulus","","","","","","",""
"","","","","","html-keyboard-response","113","140561","0.0-7.11-2.11","60f01d9692d019017760b69a","655cb802637e0dbe2941dbc4","655cb8a9b9f82033bea7aeb7","null","
        <div style=""text-align: center; position: fixed; top: 5vh; left: 40vw;"">
            <div style=""margin:0 auto; width: 20vw; top: 8vh; font-size: 2vw""> 
            <font color=""green""> Bonus : $10 </font>
            </div>
        </div>
    ","null","","","","","","","",""
"","","","","","html-keyboard-response","114","140784","0.0-7.11-3.11","60f01d9692d019017760b69a","655cb802637e0dbe2941dbc4","655cb8a9b9f82033bea7aeb7","223","./stimuli//pack_shapes_diff/cat_2/diff_3/ex_2_3_2.png","arrowright","response","ArrowRight","2","2","3","test","true",""
"","","","","","html-keyboard-response","115","142296","0.0-7.11-4.11","60f01d9692d019017760b69a","655cb802637e0dbe2941dbc4","655cb8a9b9f82033bea7aeb7","null","<p> <font color=""green"" size=""5vw""> Correct category! </font></p>","null","feedback","","","","","","","10"
"","","","","","html-keyboard-response","116","143046","0.0-7.12-0.12","60f01d9692d019017760b69a","655cb802637e0dbe2941dbc4","655cb8a9b9f82033bea7aeb7","749","
            
        <div style=""text-align: center; position: fixed; top: 5vh; left: 40vw;"">
            <div style=""margin:0 auto; width: 20vw; top: 8vh; font-size: 2vw""> 
            <font color=""green""> Bonus : $10 </font>
            </div>
        </div>
    
            <div> Please press any key to continue to the next image.</div>
        ","arrowright","ITI","","","","","","",""
"","","","","","html-keyboard-response","117","143650","0.0-7.12-1.12","60f01d9692d019017760b69a","655cb802637e0dbe2941dbc4","655cb8a9b9f82033bea7aeb7","null","
        
        <div style=""text-align: center; position: fixed; top: 5vh; left: 40vw;"">
            <div style=""margin:0 auto; width: 20vw; top: 8vh; font-size: 2vw""> 
            <font color=""green""> Bonus : $10 </font>
            </div>
        </div>
    
        <img class=""stim"" src=./stimuli//pack_shapes_diff/cat_2/diff_3/ex_2_3_2.png></img>
    ","null","stimulus","","","","","","",""
"","","","","","html-keyboard-response","118","144654","0.0-7.12-2.12","60f01d9692d019017760b69a","655cb802637e0dbe2941dbc4","655cb8a9b9f82033bea7aeb7","null","
        <div style=""text-align: center; position: fixed; top: 5vh; left: 40vw;"">
            <div style=""margin:0 auto; width: 20vw; top: 8vh; font-size: 2vw""> 
            <font color=""green""> Bonus : $10 </font>
            </div>
        </div>
    ","null","","","","","","","",""
"","","","","","html-keyboard-response","119","144906","0.0-7.12-3.12","60f01d9692d019017760b69a","655cb802637e0dbe2941dbc4","655cb8a9b9f82033bea7aeb7","251","./stimuli//pack_shapes_diff/cat_2/diff_3/ex_2_3_2.png","arrowright","response","ArrowRight","2","2","3","test","true",""
"","","","","","html-keyboard-response","120","146418","0.0-7.12-4.12","60f01d9692d019017760b69a","655cb802637e0dbe2941dbc4","655cb8a9b9f82033bea7aeb7","null","<p> <font color=""green"" size=""5vw""> Correct category! </font></p>","null","feedback","","","","","","","10"
"","","","","","html-keyboard-response","121","146735","0.0-7.13-0.13","60f01d9692d019017760b69a","655cb802637e0dbe2941dbc4","655cb8a9b9f82033bea7aeb7","316","
            
        <div style=""text-align: center; position: fixed; top: 5vh; left: 40vw;"">
            <div style=""margin:0 auto; width: 20vw; top: 8vh; font-size: 2vw""> 
            <font color=""green""> Bonus : $10 </font>
            </div>
        </div>
    
            <div> Please press any key to continue to the next image.</div>
        ","arrowright","ITI","","","","","","",""
"","","","","","html-keyboard-response","122","147349","0.0-7.13-1.13","60f01d9692d019017760b69a","655cb802637e0dbe2941dbc4","655cb8a9b9f82033bea7aeb7","null","
        
        <div style=""text-align: center; position: fixed; top: 5vh; left: 40vw;"">
            <div style=""margin:0 auto; width: 20vw; top: 8vh; font-size: 2vw""> 
            <font color=""green""> Bonus : $10 </font>
            </div>
        </div>
    
        <img class=""stim"" src=./stimuli//pack_shapes_diff/cat_1/diff_3/ex_1_3_8.png></img>
    ","null","stimulus","","","","","","",""
"","","","","","html-keyboard-response","123","148359","0.0-7.13-2.13","60f01d9692d019017760b69a","655cb802637e0dbe2941dbc4","655cb8a9b9f82033bea7aeb7","null","
        <div style=""text-align: center; position: fixed; top: 5vh; left: 40vw;"">
            <div style=""margin:0 auto; width: 20vw; top: 8vh; font-size: 2vw""> 
            <font color=""green""> Bonus : $10 </font>
            </div>
        </div>
    ","null","","","","","","","",""
"","","","","","html-keyboard-response","124","148635","0.0-7.13-3.13","60f01d9692d019017760b69a","655cb802637e0dbe2941dbc4","655cb8a9b9f82033bea7aeb7","275","./stimuli//pack_shapes_diff/cat_1/diff_3/ex_1_3_8.png","arrowleft","response","ArrowLeft","8","1","3","test","true",""
"","","","","","html-keyboard-response","125","150136","0.0-7.13-4.13","60f01d9692d019017760b69a","655cb802637e0dbe2941dbc4","655cb8a9b9f82033bea7aeb7","null","<p> <font color=""green"" size=""5vw""> Correct category! </font></p>","null","feedback","","","","","","","10"
"","","","","","html-keyboard-response","126","150436","0.0-7.14-0.14","60f01d9692d019017760b69a","655cb802637e0dbe2941dbc4","655cb8a9b9f82033bea7aeb7","300","
            
        <div style=""text-align: center; position: fixed; top: 5vh; left: 40vw;"">
            <div style=""margin:0 auto; width: 20vw; top: 8vh; font-size: 2vw""> 
            <font color=""green""> Bonus : $10 </font>
            </div>
        </div>
    
            <div> Please press any key to continue to the next image.</div>
        ","arrowright","ITI","","","","","","",""
"","","","","","html-keyboard-response","127","151052","0.0-7.14-1.14","60f01d9692d019017760b69a","655cb802637e0dbe2941dbc4","655cb8a9b9f82033bea7aeb7","null","
        
        <div style=""text-align: center; position: fixed; top: 5vh; left: 40vw;"">
            <div style=""margin:0 auto; width: 20vw; top: 8vh; font-size: 2vw""> 
            <font color=""green""> Bonus : $10 </font>
            </div>
        </div>
    
        <img class=""stim"" src=./stimuli//pack_shapes_diff/cat_1/diff_3/ex_1_3_6.png></img>
    ","null","stimulus","","","","","","",""
"","","","","","html-keyboard-response","128","152066","0.0-7.14-2.14","60f01d9692d019017760b69a","655cb802637e0dbe2941dbc4","655cb8a9b9f82033bea7aeb7","null","
        <div style=""text-align: center; position: fixed; top: 5vh; left: 40vw;"">
            <div style=""margin:0 auto; width: 20vw; top: 8vh; font-size: 2vw""> 
            <font color=""green""> Bonus : $10 </font>
            </div>
        </div>
    ","null","","","","","","","",""
"","","","","","html-keyboard-response","129","152294","0.0-7.14-3.14","60f01d9692d019017760b69a","655cb802637e0dbe2941dbc4","655cb8a9b9f82033bea7aeb7","228","./stimuli//pack_shapes_diff/cat_1/diff_3/ex_1_3_6.png","arrowleft","response","ArrowLeft","6","1","3","test","true",""
"","","","","","html-keyboard-response","130","153796","0.0-7.14-4.14","60f01d9692d019017760b69a","655cb802637e0dbe2941dbc4","655cb8a9b9f82033bea7aeb7","null","<p> <font color=""green"" size=""5vw""> Correct category! </font></p>","null","feedback","","","","","","","10"
"","","","","","html-keyboard-response","131","154240","0.0-7.15-0.15","60f01d9692d019017760b69a","655cb802637e0dbe2941dbc4","655cb8a9b9f82033bea7aeb7","444","
            
        <div style=""text-align: center; position: fixed; top: 5vh; left: 40vw;"">
            <div style=""margin:0 auto; width: 20vw; top: 8vh; font-size: 2vw""> 
            <font color=""green""> Bonus : $10 </font>
            </div>
        </div>
    
            <div> Please press any key to continue to the next image.</div>
        ","arrowright","ITI","","","","","","",""
"","","","","","html-keyboard-response","132","154851","0.0-7.15-1.15","60f01d9692d019017760b69a","655cb802637e0dbe2941dbc4","655cb8a9b9f82033bea7aeb7","null","
        
        <div style=""text-align: center; position: fixed; top: 5vh; left: 40vw;"">
            <div style=""margin:0 auto; width: 20vw; top: 8vh; font-size: 2vw""> 
            <font color=""green""> Bonus : $10 </font>
            </div>
        </div>
    
        <img class=""stim"" src=./stimuli//pack_shapes_diff/cat_2/diff_4/ex_2_4_4.png></img>
    ","null","stimulus","","","","","","",""
"","","","","","html-keyboard-response","133","155859","0.0-7.15-2.15","60f01d9692d019017760b69a","655cb802637e0dbe2941dbc4","655cb8a9b9f82033bea7aeb7","null","
        <div style=""text-align: center; position: fixed; top: 5vh; left: 40vw;"">
            <div style=""margin:0 auto; width: 20vw; top: 8vh; font-size: 2vw""> 
            <font color=""green""> Bonus : $10 </font>
            </div>
        </div>
    ","null","","","","","","","",""
"","","","","","html-keyboard-response","134","156094","0.0-7.15-3.15","60f01d9692d019017760b69a","655cb802637e0dbe2941dbc4","655cb8a9b9f82033bea7aeb7","235","./stimuli//pack_shapes_diff/cat_2/diff_4/ex_2_4_4.png","arrowright","response","ArrowRight","4","2","4","test","true",""
"","","","","","html-keyboard-response","135","157610","0.0-7.15-4.15","60f01d9692d019017760b69a","655cb802637e0dbe2941dbc4","655cb8a9b9f82033bea7aeb7","null","<p> <font color=""green"" size=""5vw""> Correct category! </font></p>","null","feedback","","","","","","","10"
"","","","","","html-keyboard-response","136","158060","0.0-7.16-0.16","60f01d9692d019017760b69a","655cb802637e0dbe2941dbc4","655cb8a9b9f82033bea7aeb7","449","
            
        <div style=""text-align: center; position: fixed; top: 5vh; left: 40vw;"">
            <div style=""margin:0 auto; width: 20vw; top: 8vh; font-size: 2vw""> 
            <font color=""green""> Bonus : $10 </font>
            </div>
        </div>
    
            <div> Please press any key to continue to the next image.</div>
        ","arrowright","ITI","","","","","","",""
"","","","","","html-keyboard-response","137","158666","0.0-7.16-1.16","60f01d9692d019017760b69a","655cb802637e0dbe2941dbc4","655cb8a9b9f82033bea7aeb7","null","
        
        <div style=""text-align: center; position: fixed; top: 5vh; left: 40vw;"">
            <div style=""margin:0 auto; width: 20vw; top: 8vh; font-size: 2vw""> 
            <font color=""green""> Bonus : $10 </font>
            </div>
        </div>
    
        <img class=""stim"" src=./stimuli//pack_shapes_diff/cat_1/diff_4/ex_1_4_3.png></img>
    ","null","stimulus","","","","","","",""
"","","","","","html-keyboard-response","138","159680","0.0-7.16-2.16","60f01d9692d019017760b69a","655cb802637e0dbe2941dbc4","655cb8a9b9f82033bea7aeb7","null","
        <div style=""text-align: center; position: fixed; top: 5vh; left: 40vw;"">
            <div style=""margin:0 auto; width: 20vw; top: 8vh; font-size: 2vw""> 
            <font color=""green""> Bonus : $10 </font>
            </div>
        </div>
    ","null","","","","","","","",""
"","","","","","html-keyboard-response","139","159917","0.0-7.16-3.16","60f01d9692d019017760b69a","655cb802637e0dbe2941dbc4","655cb8a9b9f82033bea7aeb7","237","./stimuli//pack_shapes_diff/cat_1/diff_4/ex_1_4_3.png","arrowleft","response","ArrowLeft","3","1","4","test","true",""
"","","","","","html-keyboard-response","140","161419","0.0-7.16-4.16","60f01d9692d019017760b69a","655cb802637e0dbe2941dbc4","655cb8a9b9f82033bea7aeb7","null","<p> <font color=""green"" size=""5vw""> Correct category! </font></p>","null","feedback","","","","","","","10"
"","","","","","html-keyboard-response","141","161691","0.0-7.17-0.17","60f01d9692d019017760b69a","655cb802637e0dbe2941dbc4","655cb8a9b9f82033bea7aeb7","272","
            
        <div style=""text-align: center; position: fixed; top: 5vh; left: 40vw;"">
            <div style=""margin:0 auto; width: 20vw; top: 8vh; font-size: 2vw""> 
            <font color=""green""> Bonus : $10 </font>
            </div>
        </div>
    
            <div> Please press any key to continue to the next image.</div>
        ","arrowright","ITI","","","","","","",""
"","","","","","html-keyboard-response","142","162304","0.0-7.17-1.17","60f01d9692d019017760b69a","655cb802637e0dbe2941dbc4","655cb8a9b9f82033bea7aeb7","null","
        
        <div style=""text-align: center; position: fixed; top: 5vh; left: 40vw;"">
            <div style=""margin:0 auto; width: 20vw; top: 8vh; font-size: 2vw""> 
            <font color=""green""> Bonus : $10 </font>
            </div>
        </div>
    
        <img class=""stim"" src=./stimuli//pack_shapes_diff/cat_1/diff_4/ex_1_4_14.png></img>
    ","null","stimulus","","","","","","",""
"","","","","","html-keyboard-response","143","163316","0.0-7.17-2.17","60f01d9692d019017760b69a","655cb802637e0dbe2941dbc4","655cb8a9b9f82033bea7aeb7","null","
        <div style=""text-align: center; position: fixed; top: 5vh; left: 40vw;"">
            <div style=""margin:0 auto; width: 20vw; top: 8vh; font-size: 2vw""> 
            <font color=""green""> Bonus : $10 </font>
            </div>
        </div>
    ","null","","","","","","","",""
"","","","","","html-keyboard-response","144","163561","0.0-7.17-3.17","60f01d9692d019017760b69a","655cb802637e0dbe2941dbc4","655cb8a9b9f82033bea7aeb7","245","./stimuli//pack_shapes_diff/cat_1/diff_4/ex_1_4_14.png","arrowleft","response","ArrowLeft","14","1","4","test","true",""
"","","","","","html-keyboard-response","145","165070","0.0-7.17-4.17","60f01d9692d019017760b69a","655cb802637e0dbe2941dbc4","655cb8a9b9f82033bea7aeb7","null","<p> <font color=""green"" size=""5vw""> Correct category! </font></p>","null","feedback","","","","","","","10"
"","","","","","html-keyboard-response","146","165566","0.0-7.18-0.18","60f01d9692d019017760b69a","655cb802637e0dbe2941dbc4","655cb8a9b9f82033bea7aeb7","496","
            
        <div style=""text-align: center; position: fixed; top: 5vh; left: 40vw;"">
            <div style=""margin:0 auto; width: 20vw; top: 8vh; font-size: 2vw""> 
            <font color=""green""> Bonus : $10 </font>
            </div>
        </div>
    
            <div> Please press any key to continue to the next image.</div>
        ","arrowright","ITI","","","","","","",""
"","","","","","html-keyboard-response","147","166170","0.0-7.18-1.18","60f01d9692d019017760b69a","655cb802637e0dbe2941dbc4","655cb8a9b9f82033bea7aeb7","null","
        
        <div style=""text-align: center; position: fixed; top: 5vh; left: 40vw;"">
            <div style=""margin:0 auto; width: 20vw; top: 8vh; font-size: 2vw""> 
            <font color=""green""> Bonus : $10 </font>
            </div>
        </div>
    
        <img class=""stim"" src=./stimuli//pack_shapes_diff/cat_1/diff_4/ex_1_4_5.png></img>
    ","null","stimulus","","","","","","",""
"","","","","","html-keyboard-response","148","167177","0.0-7.18-2.18","60f01d9692d019017760b69a","655cb802637e0dbe2941dbc4","655cb8a9b9f82033bea7aeb7","null","
        <div style=""text-align: center; position: fixed; top: 5vh; left: 40vw;"">
            <div style=""margin:0 auto; width: 20vw; top: 8vh; font-size: 2vw""> 
            <font color=""green""> Bonus : $10 </font>
            </div>
        </div>
    ","null","","","","","","","",""
"","","","","","html-keyboard-response","149","167452","0.0-7.18-3.18","60f01d9692d019017760b69a","655cb802637e0dbe2941dbc4","655cb8a9b9f82033bea7aeb7","275","./stimuli//pack_shapes_diff/cat_1/diff_4/ex_1_4_5.png","arrowleft","response","ArrowLeft","5","1","4","test","true",""
"","","","","","html-keyboard-response","150","168967","0.0-7.18-4.18","60f01d9692d019017760b69a","655cb802637e0dbe2941dbc4","655cb8a9b9f82033bea7aeb7","null","<p> <font color=""green"" size=""5vw""> Correct category! </font></p>","null","feedback","","","","","","","10"
"","","","","","html-keyboard-response","151","169642","0.0-7.19-0.19","60f01d9692d019017760b69a","655cb802637e0dbe2941dbc4","655cb8a9b9f82033bea7aeb7","675","
            
        <div style=""text-align: center; position: fixed; top: 5vh; left: 40vw;"">
            <div style=""margin:0 auto; width: 20vw; top: 8vh; font-size: 2vw""> 
            <font color=""green""> Bonus : $10 </font>
            </div>
        </div>
    
            <div> Please press any key to continue to the next image.</div>
        ","arrowright","ITI","","","","","","",""
"","","","","","html-keyboard-response","152","170246","0.0-7.19-1.19","60f01d9692d019017760b69a","655cb802637e0dbe2941dbc4","655cb8a9b9f82033bea7aeb7","null","
        
        <div style=""text-align: center; position: fixed; top: 5vh; left: 40vw;"">
            <div style=""margin:0 auto; width: 20vw; top: 8vh; font-size: 2vw""> 
            <font color=""green""> Bonus : $10 </font>
            </div>
        </div>
    
        <img class=""stim"" src=./stimuli//pack_shapes_diff/cat_2/diff_4/ex_2_4_16.png></img>
    ","null","stimulus","","","","","","",""
"","","","","","html-keyboard-response","153","171258","0.0-7.19-2.19","60f01d9692d019017760b69a","655cb802637e0dbe2941dbc4","655cb8a9b9f82033bea7aeb7","null","
        <div style=""text-align: center; position: fixed; top: 5vh; left: 40vw;"">
            <div style=""margin:0 auto; width: 20vw; top: 8vh; font-size: 2vw""> 
            <font color=""green""> Bonus : $10 </font>
            </div>
        </div>
    ","null","","","","","","","",""
"","","","","","html-keyboard-response","154","171543","0.0-7.19-3.19","60f01d9692d019017760b69a","655cb802637e0dbe2941dbc4","655cb8a9b9f82033bea7aeb7","284","./stimuli//pack_shapes_diff/cat_2/diff_4/ex_2_4_16.png","arrowleft","response","ArrowRight","16","2","4","test","false",""
"","","","","","html-keyboard-response","155","173046","0.0-7.19-4.19","60f01d9692d019017760b69a","655cb802637e0dbe2941dbc4","655cb8a9b9f82033bea7aeb7","null","<p> <font size=""4vw""> Wrong category! </font> <br> <br> <font color=""red"" size=""7vw""> - $0.05 points </font> </p>","null","feedback","","","","","","","9.95"
"","","","","","html-keyboard-response","156","174127","0.0-7.20-0.20","60f01d9692d019017760b69a","655cb802637e0dbe2941dbc4","655cb8a9b9f82033bea7aeb7","1081","
            
        <div style=""text-align: center; position: fixed; top: 5vh; left: 40vw;"">
            <div style=""margin:0 auto; width: 20vw; top: 8vh; font-size: 2vw""> 
            <font color=""green""> Bonus : $9.95 </font>
            </div>
        </div>
    
            <div> Please press any key to continue to the next image.</div>
        ","arrowright","ITI","","","","","","",""
"","","","","","html-keyboard-response","157","174733","0.0-7.20-1.20","60f01d9692d019017760b69a","655cb802637e0dbe2941dbc4","655cb8a9b9f82033bea7aeb7","null","
        
        <div style=""text-align: center; position: fixed; top: 5vh; left: 40vw;"">
            <div style=""margin:0 auto; width: 20vw; top: 8vh; font-size: 2vw""> 
            <font color=""green""> Bonus : $9.95 </font>
            </div>
        </div>
    
        <img class=""stim"" src=./stimuli//pack_shapes_diff/cat_2/diff_5/ex_2_5_15.png></img>
    ","null","stimulus","","","","","","",""
"","","","","","html-keyboard-response","158","175742","0.0-7.20-2.20","60f01d9692d019017760b69a","655cb802637e0dbe2941dbc4","655cb8a9b9f82033bea7aeb7","null","
        <div style=""text-align: center; position: fixed; top: 5vh; left: 40vw;"">
            <div style=""margin:0 auto; width: 20vw; top: 8vh; font-size: 2vw""> 
            <font color=""green""> Bonus : $9.95 </font>
            </div>
        </div>
    ","null","","","","","","","",""
"","","","","","html-keyboard-response","159","176002","0.0-7.20-3.20","60f01d9692d019017760b69a","655cb802637e0dbe2941dbc4","655cb8a9b9f82033bea7aeb7","259","./stimuli//pack_shapes_diff/cat_2/diff_5/ex_2_5_15.png","arrowright","response","ArrowRight","15","2","5","test","true",""
"","","","","","html-keyboard-response","160","177503","0.0-7.20-4.20","60f01d9692d019017760b69a","655cb802637e0dbe2941dbc4","655cb8a9b9f82033bea7aeb7","null","<p> <font color=""green"" size=""5vw""> Correct category! </font></p>","null","feedback","","","","","","","9.95"
"","","","","","html-keyboard-response","161","177953","0.0-7.21-0.21","60f01d9692d019017760b69a","655cb802637e0dbe2941dbc4","655cb8a9b9f82033bea7aeb7","449","
            
        <div style=""text-align: center; position: fixed; top: 5vh; left: 40vw;"">
            <div style=""margin:0 auto; width: 20vw; top: 8vh; font-size: 2vw""> 
            <font color=""green""> Bonus : $9.95 </font>
            </div>
        </div>
    
            <div> Please press any key to continue to the next image.</div>
        ","arrowright","ITI","","","","","","",""
"","","","","","html-keyboard-response","162","178567","0.0-7.21-1.21","60f01d9692d019017760b69a","655cb802637e0dbe2941dbc4","655cb8a9b9f82033bea7aeb7","null","
        
        <div style=""text-align: center; position: fixed; top: 5vh; left: 40vw;"">
            <div style=""margin:0 auto; width: 20vw; top: 8vh; font-size: 2vw""> 
            <font color=""green""> Bonus : $9.95 </font>
            </div>
        </div>
    
        <img class=""stim"" src=./stimuli//pack_shapes_diff/cat_2/diff_5/ex_2_5_8.png></img>
    ","null","stimulus","","","","","","",""
"","","","","","html-keyboard-response","163","179582","0.0-7.21-2.21","60f01d9692d019017760b69a","655cb802637e0dbe2941dbc4","655cb8a9b9f82033bea7aeb7","null","
        <div style=""text-align: center; position: fixed; top: 5vh; left: 40vw;"">
            <div style=""margin:0 auto; width: 20vw; top: 8vh; font-size: 2vw""> 
            <font color=""green""> Bonus : $9.95 </font>
            </div>
        </div>
    ","null","","","","","","","",""
"","","","","","html-keyboard-response","164","179997","0.0-7.21-3.21","60f01d9692d019017760b69a","655cb802637e0dbe2941dbc4","655cb8a9b9f82033bea7aeb7","413","./stimuli//pack_shapes_diff/cat_2/diff_5/ex_2_5_8.png","arrowright","response","ArrowRight","8","2","5","test","true",""
"","","","","","html-keyboard-response","165","181509","0.0-7.21-4.21","60f01d9692d019017760b69a","655cb802637e0dbe2941dbc4","655cb8a9b9f82033bea7aeb7","null","<p> <font color=""green"" size=""5vw""> Correct category! </font></p>","null","feedback","","","","","","","9.95"
"","","","","","html-keyboard-response","166","181852","0.0-7.22-0.22","60f01d9692d019017760b69a","655cb802637e0dbe2941dbc4","655cb8a9b9f82033bea7aeb7","342","
            
        <div style=""text-align: center; position: fixed; top: 5vh; left: 40vw;"">
            <div style=""margin:0 auto; width: 20vw; top: 8vh; font-size: 2vw""> 
            <font color=""green""> Bonus : $9.95 </font>
            </div>
        </div>
    
            <div> Please press any key to continue to the next image.</div>
        ","arrowright","ITI","","","","","","",""
"","","","","","html-keyboard-response","167","182459","0.0-7.22-1.22","60f01d9692d019017760b69a","655cb802637e0dbe2941dbc4","655cb8a9b9f82033bea7aeb7","null","
        
        <div style=""text-align: center; position: fixed; top: 5vh; left: 40vw;"">
            <div style=""margin:0 auto; width: 20vw; top: 8vh; font-size: 2vw""> 
            <font color=""green""> Bonus : $9.95 </font>
            </div>
        </div>
    
        <img class=""stim"" src=./stimuli//pack_shapes_diff/cat_2/diff_5/ex_2_5_2.png></img>
    ","null","stimulus","","","","","","",""
"","","","","","html-keyboard-response","168","183471","0.0-7.22-2.22","60f01d9692d019017760b69a","655cb802637e0dbe2941dbc4","655cb8a9b9f82033bea7aeb7","null","
        <div style=""text-align: center; position: fixed; top: 5vh; left: 40vw;"">
            <div style=""margin:0 auto; width: 20vw; top: 8vh; font-size: 2vw""> 
            <font color=""green""> Bonus : $9.95 </font>
            </div>
        </div>
    ","null","","","","","","","",""
"","","","","","html-keyboard-response","169","184030","0.0-7.22-3.22","60f01d9692d019017760b69a","655cb802637e0dbe2941dbc4","655cb8a9b9f82033bea7aeb7","559","./stimuli//pack_shapes_diff/cat_2/diff_5/ex_2_5_2.png","arrowright","response","ArrowRight","2","2","5","test","true",""
"","","","","","html-keyboard-response","170","185543","0.0-7.22-4.22","60f01d9692d019017760b69a","655cb802637e0dbe2941dbc4","655cb8a9b9f82033bea7aeb7","null","<p> <font color=""green"" size=""5vw""> Correct category! </font></p>","null","feedback","","","","","","","9.95"
"","","","","","html-keyboard-response","171","185866","0.0-7.23-0.23","60f01d9692d019017760b69a","655cb802637e0dbe2941dbc4","655cb8a9b9f82033bea7aeb7","323","
            
        <div style=""text-align: center; position: fixed; top: 5vh; left: 40vw;"">
            <div style=""margin:0 auto; width: 20vw; top: 8vh; font-size: 2vw""> 
            <font color=""green""> Bonus : $9.95 </font>
            </div>
        </div>
    
            <div> Please press any key to continue to the next image.</div>
        ","arrowright","ITI","","","","","","",""
"","","","","","html-keyboard-response","172","186480","0.0-7.23-1.23","60f01d9692d019017760b69a","655cb802637e0dbe2941dbc4","655cb8a9b9f82033bea7aeb7","null","
        
        <div style=""text-align: center; position: fixed; top: 5vh; left: 40vw;"">
            <div style=""margin:0 auto; width: 20vw; top: 8vh; font-size: 2vw""> 
            <font color=""green""> Bonus : $9.95 </font>
            </div>
        </div>
    
        <img class=""stim"" src=./stimuli//pack_shapes_diff/cat_2/diff_5/ex_2_5_13.png></img>
    ","null","stimulus","","","","","","",""
"","","","","","html-keyboard-response","173","187494","0.0-7.23-2.23","60f01d9692d019017760b69a","655cb802637e0dbe2941dbc4","655cb8a9b9f82033bea7aeb7","null","
        <div style=""text-align: center; position: fixed; top: 5vh; left: 40vw;"">
            <div style=""margin:0 auto; width: 20vw; top: 8vh; font-size: 2vw""> 
            <font color=""green""> Bonus : $9.95 </font>
            </div>
        </div>
    ","null","","","","","","","",""
"","","","","","html-keyboard-response","174","187732","0.0-7.23-3.23","60f01d9692d019017760b69a","655cb802637e0dbe2941dbc4","655cb8a9b9f82033bea7aeb7","237","./stimuli//pack_shapes_diff/cat_2/diff_5/ex_2_5_13.png","arrowright","response","ArrowRight","13","2","5","test","true",""
"","","","","","html-keyboard-response","175","189243","0.0-7.23-4.23","60f01d9692d019017760b69a","655cb802637e0dbe2941dbc4","655cb8a9b9f82033bea7aeb7","null","<p> <font color=""green"" size=""5vw""> Correct category! </font></p>","null","feedback","","","","","","","9.95"
"","","","","","html-keyboard-response","176","189529","0.0-7.24-0.24","60f01d9692d019017760b69a","655cb802637e0dbe2941dbc4","655cb8a9b9f82033bea7aeb7","285","
            
        <div style=""text-align: center; position: fixed; top: 5vh; left: 40vw;"">
            <div style=""margin:0 auto; width: 20vw; top: 8vh; font-size: 2vw""> 
            <font color=""green""> Bonus : $9.95 </font>
            </div>
        </div>
    
            <div> Please press any key to continue to the next image.</div>
        ","arrowright","ITI","","","","","","",""
"","","","","","html-keyboard-response","177","190145","0.0-7.24-1.24","60f01d9692d019017760b69a","655cb802637e0dbe2941dbc4","655cb8a9b9f82033bea7aeb7","null","
        
        <div style=""text-align: center; position: fixed; top: 5vh; left: 40vw;"">
            <div style=""margin:0 auto; width: 20vw; top: 8vh; font-size: 2vw""> 
            <font color=""green""> Bonus : $9.95 </font>
            </div>
        </div>
    
        <img class=""stim"" src=./stimuli//pack_shapes_diff/cat_1/diff_5/ex_1_5_6.png></img>
    ","null","stimulus","","","","","","",""
"","","","","","html-keyboard-response","178","191157","0.0-7.24-2.24","60f01d9692d019017760b69a","655cb802637e0dbe2941dbc4","655cb8a9b9f82033bea7aeb7","null","
        <div style=""text-align: center; position: fixed; top: 5vh; left: 40vw;"">
            <div style=""margin:0 auto; width: 20vw; top: 8vh; font-size: 2vw""> 
            <font color=""green""> Bonus : $9.95 </font>
            </div>
        </div>
    ","null","","","","","","","",""
"","","","","","html-keyboard-response","179","191419","0.0-7.24-3.24","60f01d9692d019017760b69a","655cb802637e0dbe2941dbc4","655cb8a9b9f82033bea7aeb7","262","./stimuli//pack_shapes_diff/cat_1/diff_5/ex_1_5_6.png","arrowright","response","ArrowLeft","6","1","5","test","false",""
"","","","","","html-keyboard-response","180","192921","0.0-7.24-4.24","60f01d9692d019017760b69a","655cb802637e0dbe2941dbc4","655cb8a9b9f82033bea7aeb7","null","<p> <font size=""4vw""> Wrong category! </font> <br> <br> <font color=""red"" size=""7vw""> - $0.05 points </font> </p>","null","feedback","","","","","","","9.9"
"","","","","","html-keyboard-response","181","193179","0.0-7.25-0.25","60f01d9692d019017760b69a","655cb802637e0dbe2941dbc4","655cb8a9b9f82033bea7aeb7","257","
            
        <div style=""text-align: center; position: fixed; top: 5vh; left: 40vw;"">
            <div style=""margin:0 auto; width: 20vw; top: 8vh; font-size: 2vw""> 
            <font color=""green""> Bonus : $9.9 </font>
            </div>
        </div>
    
            <div> Please press any key to continue to the next image.</div>
        ","arrowright","ITI","","","","","","",""
"","","","","","html-keyboard-response","182","193795","0.0-7.25-1.25","60f01d9692d019017760b69a","655cb802637e0dbe2941dbc4","655cb8a9b9f82033bea7aeb7","null","
        
        <div style=""text-align: center; position: fixed; top: 5vh; left: 40vw;"">
            <div style=""margin:0 auto; width: 20vw; top: 8vh; font-size: 2vw""> 
            <font color=""green""> Bonus : $9.9 </font>
            </div>
        </div>
    
        <img class=""stim"" src=./stimuli//pack_shapes_diff/cat_1/diff_5/ex_1_5_2.png></img>
    ","null","stimulus","","","","","","",""
"","","","","","html-keyboard-response","183","194810","0.0-7.25-2.25","60f01d9692d019017760b69a","655cb802637e0dbe2941dbc4","655cb8a9b9f82033bea7aeb7","null","
        <div style=""text-align: center; position: fixed; top: 5vh; left: 40vw;"">
            <div style=""margin:0 auto; width: 20vw; top: 8vh; font-size: 2vw""> 
            <font color=""green""> Bonus : $9.9 </font>
            </div>
        </div>
    ","null","","","","","","","",""
"","","","","","html-keyboard-response","184","195047","0.0-7.25-3.25","60f01d9692d019017760b69a","655cb802637e0dbe2941dbc4","655cb8a9b9f82033bea7aeb7","236","./stimuli//pack_shapes_diff/cat_1/diff_5/ex_1_5_2.png","arrowleft","response","ArrowLeft","2","1","5","test","true",""
"","","","","","html-keyboard-response","185","196555","0.0-7.25-4.25","60f01d9692d019017760b69a","655cb802637e0dbe2941dbc4","655cb8a9b9f82033bea7aeb7","null","<p> <font color=""green"" size=""5vw""> Correct category! </font></p>","null","feedback","","","","","","","9.9"
"","","","","","html-keyboard-response","186","196850","0.0-7.26-0.26","60f01d9692d019017760b69a","655cb802637e0dbe2941dbc4","655cb8a9b9f82033bea7aeb7","293","
            
        <div style=""text-align: center; position: fixed; top: 5vh; left: 40vw;"">
            <div style=""margin:0 auto; width: 20vw; top: 8vh; font-size: 2vw""> 
            <font color=""green""> Bonus : $9.9 </font>
            </div>
        </div>
    
            <div> Please press any key to continue to the next image.</div>
        ","arrowright","ITI","","","","","","",""
"","","","","","html-keyboard-response","187","197459","0.0-7.26-1.26","60f01d9692d019017760b69a","655cb802637e0dbe2941dbc4","655cb8a9b9f82033bea7aeb7","null","
        
        <div style=""text-align: center; position: fixed; top: 5vh; left: 40vw;"">
            <div style=""margin:0 auto; width: 20vw; top: 8vh; font-size: 2vw""> 
            <font color=""green""> Bonus : $9.9 </font>
            </div>
        </div>
    
        <img class=""stim"" src=./stimuli//pack_shapes_diff/cat_1/diff_5/ex_1_5_17.png></img>
    ","null","stimulus","","","","","","",""
"","","","","","html-keyboard-response","188","198470","0.0-7.26-2.26","60f01d9692d019017760b69a","655cb802637e0dbe2941dbc4","655cb8a9b9f82033bea7aeb7","null","
        <div style=""text-align: center; position: fixed; top: 5vh; left: 40vw;"">
            <div style=""margin:0 auto; width: 20vw; top: 8vh; font-size: 2vw""> 
            <font color=""green""> Bonus : $9.9 </font>
            </div>
        </div>
    ","null","","","","","","","",""
"","","","","","html-keyboard-response","189","199005","0.0-7.26-3.26","60f01d9692d019017760b69a","655cb802637e0dbe2941dbc4","655cb8a9b9f82033bea7aeb7","534","./stimuli//pack_shapes_diff/cat_1/diff_5/ex_1_5_17.png","arrowleft","response","ArrowLeft","17","1","5","test","true",""
"","","","","","html-keyboard-response","190","200513","0.0-7.26-4.26","60f01d9692d019017760b69a","655cb802637e0dbe2941dbc4","655cb8a9b9f82033bea7aeb7","null","<p> <font color=""green"" size=""5vw""> Correct category! </font></p>","null","feedback","","","","","","","9.9"
"","","","","","html-keyboard-response","191","200781","0.0-7.27-0.27","60f01d9692d019017760b69a","655cb802637e0dbe2941dbc4","655cb8a9b9f82033bea7aeb7","266","
            
        <div style=""text-align: center; position: fixed; top: 5vh; left: 40vw;"">
            <div style=""margin:0 auto; width: 20vw; top: 8vh; font-size: 2vw""> 
            <font color=""green""> Bonus : $9.9 </font>
            </div>
        </div>
    
            <div> Please press any key to continue to the next image.</div>
        ","arrowright","ITI","","","","","","",""
"","","","","","html-keyboard-response","192","201390","0.0-7.27-1.27","60f01d9692d019017760b69a","655cb802637e0dbe2941dbc4","655cb8a9b9f82033bea7aeb7","null","
        
        <div style=""text-align: center; position: fixed; top: 5vh; left: 40vw;"">
            <div style=""margin:0 auto; width: 20vw; top: 8vh; font-size: 2vw""> 
            <font color=""green""> Bonus : $9.9 </font>
            </div>
        </div>
    
        <img class=""stim"" src=./stimuli//pack_shapes_diff/cat_2/diff_5/ex_2_5_13.png></img>
    ","null","stimulus","","","","","","",""
"","","","","","html-keyboard-response","193","202403","0.0-7.27-2.27","60f01d9692d019017760b69a","655cb802637e0dbe2941dbc4","655cb8a9b9f82033bea7aeb7","null","
        <div style=""text-align: center; position: fixed; top: 5vh; left: 40vw;"">
            <div style=""margin:0 auto; width: 20vw; top: 8vh; font-size: 2vw""> 
            <font color=""green""> Bonus : $9.9 </font>
            </div>
        </div>
    ","null","","","","","","","",""
"","","","","","html-keyboard-response","194","203040","0.0-7.27-3.27","60f01d9692d019017760b69a","655cb802637e0dbe2941dbc4","655cb8a9b9f82033bea7aeb7","636","./stimuli//pack_shapes_diff/cat_2/diff_5/ex_2_5_13.png","arrowright","response","ArrowRight","13","2","5","test","true",""
"","","","","","html-keyboard-response","195","204552","0.0-7.27-4.27","60f01d9692d019017760b69a","655cb802637e0dbe2941dbc4","655cb8a9b9f82033bea7aeb7","null","<p> <font color=""green"" size=""5vw""> Correct category! </font></p>","null","feedback","","","","","","","9.9"
"","","","","","html-keyboard-response","196","204868","0.0-7.28-0.28","60f01d9692d019017760b69a","655cb802637e0dbe2941dbc4","655cb8a9b9f82033bea7aeb7","315","
            
        <div style=""text-align: center; position: fixed; top: 5vh; left: 40vw;"">
            <div style=""margin:0 auto; width: 20vw; top: 8vh; font-size: 2vw""> 
            <font color=""green""> Bonus : $9.9 </font>
            </div>
        </div>
    
            <div> Please press any key to continue to the next image.</div>
        ","arrowright","ITI","","","","","","",""
"","","","","","html-keyboard-response","197","205476","0.0-7.28-1.28","60f01d9692d019017760b69a","655cb802637e0dbe2941dbc4","655cb8a9b9f82033bea7aeb7","null","
        
        <div style=""text-align: center; position: fixed; top: 5vh; left: 40vw;"">
            <div style=""margin:0 auto; width: 20vw; top: 8vh; font-size: 2vw""> 
            <font color=""green""> Bonus : $9.9 </font>
            </div>
        </div>
    
        <img class=""stim"" src=./stimuli//pack_shapes_diff/cat_1/diff_5/ex_1_5_16.png></img>
    ","null","stimulus","","","","","","",""
"","","","","","html-keyboard-response","198","206486","0.0-7.28-2.28","60f01d9692d019017760b69a","655cb802637e0dbe2941dbc4","655cb8a9b9f82033bea7aeb7","null","
        <div style=""text-align: center; position: fixed; top: 5vh; left: 40vw;"">
            <div style=""margin:0 auto; width: 20vw; top: 8vh; font-size: 2vw""> 
            <font color=""green""> Bonus : $9.9 </font>
            </div>
        </div>
    ","null","","","","","","","",""
"","","","","","html-keyboard-response","199","206710","0.0-7.28-3.28","60f01d9692d019017760b69a","655cb802637e0dbe2941dbc4","655cb8a9b9f82033bea7aeb7","223","./stimuli//pack_shapes_diff/cat_1/diff_5/ex_1_5_16.png","arrowleft","response","ArrowLeft","16","1","5","test","true",""
"","","","","","html-keyboard-response","200","208221","0.0-7.28-4.28","60f01d9692d019017760b69a","655cb802637e0dbe2941dbc4","655cb8a9b9f82033bea7aeb7","null","<p> <font color=""green"" size=""5vw""> Correct category! </font></p>","null","feedback","","","","","","","9.9"
"","","","","","html-keyboard-response","201","208537","0.0-7.29-0.29","60f01d9692d019017760b69a","655cb802637e0dbe2941dbc4","655cb8a9b9f82033bea7aeb7","314","
            
        <div style=""text-align: center; position: fixed; top: 5vh; left: 40vw;"">
            <div style=""margin:0 auto; width: 20vw; top: 8vh; font-size: 2vw""> 
            <font color=""green""> Bonus : $9.9 </font>
            </div>
        </div>
    
            <div> Please press any key to continue to the next image.</div>
        ","arrowright","ITI","","","","","","",""
"","","","","","html-keyboard-response","202","209143","0.0-7.29-1.29","60f01d9692d019017760b69a","655cb802637e0dbe2941dbc4","655cb8a9b9f82033bea7aeb7","null","
        
        <div style=""text-align: center; position: fixed; top: 5vh; left: 40vw;"">
            <div style=""margin:0 auto; width: 20vw; top: 8vh; font-size: 2vw""> 
            <font color=""green""> Bonus : $9.9 </font>
            </div>
        </div>
    
        <img class=""stim"" src=./stimuli//pack_shapes_diff/cat_1/diff_5/ex_1_5_8.png></img>
    ","null","stimulus","","","","","","",""
"","","","","","html-keyboard-response","203","210151","0.0-7.29-2.29","60f01d9692d019017760b69a","655cb802637e0dbe2941dbc4","655cb8a9b9f82033bea7aeb7","null","
        <div style=""text-align: center; position: fixed; top: 5vh; left: 40vw;"">
            <div style=""margin:0 auto; width: 20vw; top: 8vh; font-size: 2vw""> 
            <font color=""green""> Bonus : $9.9 </font>
            </div>
        </div>
    ","null","","","","","","","",""
"","","","","","html-keyboard-response","204","210513","0.0-7.29-3.29","60f01d9692d019017760b69a","655cb802637e0dbe2941dbc4","655cb8a9b9f82033bea7aeb7","362","./stimuli//pack_shapes_diff/cat_1/diff_5/ex_1_5_8.png","arrowleft","response","ArrowLeft","8","1","5","test","true",""
"","","","","","html-keyboard-response","205","212018","0.0-7.29-4.29","60f01d9692d019017760b69a","655cb802637e0dbe2941dbc4","655cb8a9b9f82033bea7aeb7","null","<p> <font color=""green"" size=""5vw""> Correct category! </font></p>","null","feedback","","","","","","","9.9"
"","","","","","html-keyboard-response","206","212305","0.0-7.30-0.30","60f01d9692d019017760b69a","655cb802637e0dbe2941dbc4","655cb8a9b9f82033bea7aeb7","287","
            
        <div style=""text-align: center; position: fixed; top: 5vh; left: 40vw;"">
            <div style=""margin:0 auto; width: 20vw; top: 8vh; font-size: 2vw""> 
            <font color=""green""> Bonus : $9.9 </font>
            </div>
        </div>
    
            <div> Please press any key to continue to the next image.</div>
        ","arrowright","ITI","","","","","","",""
"","","","","","html-keyboard-response","207","212907","0.0-7.30-1.30","60f01d9692d019017760b69a","655cb802637e0dbe2941dbc4","655cb8a9b9f82033bea7aeb7","null","
        
        <div style=""text-align: center; position: fixed; top: 5vh; left: 40vw;"">
            <div style=""margin:0 auto; width: 20vw; top: 8vh; font-size: 2vw""> 
            <font color=""green""> Bonus : $9.9 </font>
            </div>
        </div>
    
        <img class=""stim"" src=./stimuli//pack_shapes_diff/cat_1/diff_5/ex_1_5_10.png></img>
    ","null","stimulus","","","","","","",""
"","","","","","html-keyboard-response","208","213917","0.0-7.30-2.30","60f01d9692d019017760b69a","655cb802637e0dbe2941dbc4","655cb8a9b9f82033bea7aeb7","null","
        <div style=""text-align: center; position: fixed; top: 5vh; left: 40vw;"">
            <div style=""margin:0 auto; width: 20vw; top: 8vh; font-size: 2vw""> 
            <font color=""green""> Bonus : $9.9 </font>
            </div>
        </div>
    ","null","","","","","","","",""
"","","","","","html-keyboard-response","209","213963","0.0-7.30-3.30","60f01d9692d019017760b69a","655cb802637e0dbe2941dbc4","655cb8a9b9f82033bea7aeb7","44","./stimuli//pack_shapes_diff/cat_1/diff_5/ex_1_5_10.png","arrowright","response","ArrowLeft","10","1","5","test","false",""
"","","","","","html-keyboard-response","210","214913","0.0-7.30-4.30","60f01d9692d019017760b69a","655cb802637e0dbe2941dbc4","655cb8a9b9f82033bea7aeb7","949","<p> <font size=""4vw""> Wrong category! </font> <br> <br> <font color=""red"" size=""7vw""> - $0.05 points </font> </p>","arrowright","feedback","","","","","","","9.85"
"","","","","","html-keyboard-response","211","215323","0.0-7.31-0.31","60f01d9692d019017760b69a","655cb802637e0dbe2941dbc4","655cb8a9b9f82033bea7aeb7","410","
            
        <div style=""text-align: center; position: fixed; top: 5vh; left: 40vw;"">
            <div style=""margin:0 auto; width: 20vw; top: 8vh; font-size: 2vw""> 
            <font color=""green""> Bonus : $9.85 </font>
            </div>
        </div>
    
            <div> Please press any key to continue to the next image.</div>
        ","arrowright","ITI","","","","","","",""
"","","","","","html-keyboard-response","212","215936","0.0-7.31-1.31","60f01d9692d019017760b69a","655cb802637e0dbe2941dbc4","655cb8a9b9f82033bea7aeb7","null","
        
        <div style=""text-align: center; position: fixed; top: 5vh; left: 40vw;"">
            <div style=""margin:0 auto; width: 20vw; top: 8vh; font-size: 2vw""> 
            <font color=""green""> Bonus : $9.85 </font>
            </div>
        </div>
    
        <img class=""stim"" src=./stimuli//pack_shapes_diff/cat_1/diff_5/ex_1_5_5.png></img>
    ","null","stimulus","","","","","","",""
"","","","","","html-keyboard-response","213","216946","0.0-7.31-2.31","60f01d9692d019017760b69a","655cb802637e0dbe2941dbc4","655cb8a9b9f82033bea7aeb7","null","
        <div style=""text-align: center; position: fixed; top: 5vh; left: 40vw;"">
            <div style=""margin:0 auto; width: 20vw; top: 8vh; font-size: 2vw""> 
            <font color=""green""> Bonus : $9.85 </font>
            </div>
        </div>
    ","null","","","","","","","",""
"","","","","","html-keyboard-response","214","217511","0.0-7.31-3.31","60f01d9692d019017760b69a","655cb802637e0dbe2941dbc4","655cb8a9b9f82033bea7aeb7","564","./stimuli//pack_shapes_diff/cat_1/diff_5/ex_1_5_5.png","arrowright","response","ArrowLeft","5","1","5","test","false",""
"","","","","","html-keyboard-response","215","219022","0.0-7.31-4.31","60f01d9692d019017760b69a","655cb802637e0dbe2941dbc4","655cb8a9b9f82033bea7aeb7","null","<p> <font size=""4vw""> Wrong category! </font> <br> <br> <font color=""red"" size=""7vw""> - $0.05 points </font> </p>","null","feedback","","","","","","","9.8"
"","","","","","html-keyboard-response","216","219345","0.0-7.32-0.32","60f01d9692d019017760b69a","655cb802637e0dbe2941dbc4","655cb8a9b9f82033bea7aeb7","322","
            
        <div style=""text-align: center; position: fixed; top: 5vh; left: 40vw;"">
            <div style=""margin:0 auto; width: 20vw; top: 8vh; font-size: 2vw""> 
            <font color=""green""> Bonus : $9.8 </font>
            </div>
        </div>
    
            <div> Please press any key to continue to the next image.</div>
        ","arrowright","ITI","","","","","","",""
"","","","","","html-keyboard-response","217","219958","0.0-7.32-1.32","60f01d9692d019017760b69a","655cb802637e0dbe2941dbc4","655cb8a9b9f82033bea7aeb7","null","
        
        <div style=""text-align: center; position: fixed; top: 5vh; left: 40vw;"">
            <div style=""margin:0 auto; width: 20vw; top: 8vh; font-size: 2vw""> 
            <font color=""green""> Bonus : $9.8 </font>
            </div>
        </div>
    
        <img class=""stim"" src=./stimuli//pack_shapes_diff/cat_1/diff_4/ex_1_4_10.png></img>
    ","null","stimulus","","","","","","",""
"","","","","","html-keyboard-response","218","220969","0.0-7.32-2.32","60f01d9692d019017760b69a","655cb802637e0dbe2941dbc4","655cb8a9b9f82033bea7aeb7","null","
        <div style=""text-align: center; position: fixed; top: 5vh; left: 40vw;"">
            <div style=""margin:0 auto; width: 20vw; top: 8vh; font-size: 2vw""> 
            <font color=""green""> Bonus : $9.8 </font>
            </div>
        </div>
    ","null","","","","","","","",""
"","","","","","html-keyboard-response","219","221496","0.0-7.32-3.32","60f01d9692d019017760b69a","655cb802637e0dbe2941dbc4","655cb8a9b9f82033bea7aeb7","526","./stimuli//pack_shapes_diff/cat_1/diff_4/ex_1_4_10.png","arrowleft","response","ArrowLeft","10","1","4","test","true",""
"","","","","","html-keyboard-response","220","223010","0.0-7.32-4.32","60f01d9692d019017760b69a","655cb802637e0dbe2941dbc4","655cb8a9b9f82033bea7aeb7","null","<p> <font color=""green"" size=""5vw""> Correct category! </font></p>","null","feedback","","","","","","","9.8"
"","","","","","html-keyboard-response","221","223316","0.0-7.33-0.33","60f01d9692d019017760b69a","655cb802637e0dbe2941dbc4","655cb8a9b9f82033bea7aeb7","305","
            
        <div style=""text-align: center; position: fixed; top: 5vh; left: 40vw;"">
            <div style=""margin:0 auto; width: 20vw; top: 8vh; font-size: 2vw""> 
            <font color=""green""> Bonus : $9.8 </font>
            </div>
        </div>
    
            <div> Please press any key to continue to the next image.</div>
        ","arrowright","ITI","","","","","","",""
"","","","","","html-keyboard-response","222","223930","0.0-7.33-1.33","60f01d9692d019017760b69a","655cb802637e0dbe2941dbc4","655cb8a9b9f82033bea7aeb7","null","
        
        <div style=""text-align: center; position: fixed; top: 5vh; left: 40vw;"">
            <div style=""margin:0 auto; width: 20vw; top: 8vh; font-size: 2vw""> 
            <font color=""green""> Bonus : $9.8 </font>
            </div>
        </div>
    
        <img class=""stim"" src=./stimuli//pack_shapes_diff/cat_1/diff_4/ex_1_4_10.png></img>
    ","null","stimulus","","","","","","",""
"","","","","","html-keyboard-response","223","224945","0.0-7.33-2.33","60f01d9692d019017760b69a","655cb802637e0dbe2941dbc4","655cb8a9b9f82033bea7aeb7","null","
        <div style=""text-align: center; position: fixed; top: 5vh; left: 40vw;"">
            <div style=""margin:0 auto; width: 20vw; top: 8vh; font-size: 2vw""> 
            <font color=""green""> Bonus : $9.8 </font>
            </div>
        </div>
    ","null","","","","","","","",""
"","","","","","html-keyboard-response","224","225181","0.0-7.33-3.33","60f01d9692d019017760b69a","655cb802637e0dbe2941dbc4","655cb8a9b9f82033bea7aeb7","235","./stimuli//pack_shapes_diff/cat_1/diff_4/ex_1_4_10.png","arrowleft","response","ArrowLeft","10","1","4","test","true",""
"","","","","","html-keyboard-response","225","226692","0.0-7.33-4.33","60f01d9692d019017760b69a","655cb802637e0dbe2941dbc4","655cb8a9b9f82033bea7aeb7","null","<p> <font color=""green"" size=""5vw""> Correct category! </font></p>","null","feedback","","","","","","","9.8"
"","","","","","html-keyboard-response","226","226966","0.0-7.34-0.34","60f01d9692d019017760b69a","655cb802637e0dbe2941dbc4","655cb8a9b9f82033bea7aeb7","274","
            
        <div style=""text-align: center; position: fixed; top: 5vh; left: 40vw;"">
            <div style=""margin:0 auto; width: 20vw; top: 8vh; font-size: 2vw""> 
            <font color=""green""> Bonus : $9.8 </font>
            </div>
        </div>
    
            <div> Please press any key to continue to the next image.</div>
        ","arrowright","ITI","","","","","","",""
"","","","","","html-keyboard-response","227","227582","0.0-7.34-1.34","60f01d9692d019017760b69a","655cb802637e0dbe2941dbc4","655cb8a9b9f82033bea7aeb7","null","
        
        <div style=""text-align: center; position: fixed; top: 5vh; left: 40vw;"">
            <div style=""margin:0 auto; width: 20vw; top: 8vh; font-size: 2vw""> 
            <font color=""green""> Bonus : $9.8 </font>
            </div>
        </div>
    
        <img class=""stim"" src=./stimuli//pack_shapes_diff/cat_2/diff_4/ex_2_4_14.png></img>
    ","null","stimulus","","","","","","",""
"","","","","","html-keyboard-response","228","228588","0.0-7.34-2.34","60f01d9692d019017760b69a","655cb802637e0dbe2941dbc4","655cb8a9b9f82033bea7aeb7","null","
        <div style=""text-align: center; position: fixed; top: 5vh; left: 40vw;"">
            <div style=""margin:0 auto; width: 20vw; top: 8vh; font-size: 2vw""> 
            <font color=""green""> Bonus : $9.8 </font>
            </div>
        </div>
    ","null","","","","","","","",""
"","","","","","html-keyboard-response","229","228980","0.0-7.34-3.34","60f01d9692d019017760b69a","655cb802637e0dbe2941dbc4","655cb8a9b9f82033bea7aeb7","391","./stimuli//pack_shapes_diff/cat_2/diff_4/ex_2_4_14.png","arrowright","response","ArrowRight","14","2","4","test","true",""
"","","","","","html-keyboard-response","230","230494","0.0-7.34-4.34","60f01d9692d019017760b69a","655cb802637e0dbe2941dbc4","655cb8a9b9f82033bea7aeb7","null","<p> <font color=""green"" size=""5vw""> Correct category! </font></p>","null","feedback","","","","","","","9.8"
"","","","","","html-keyboard-response","231","231021","0.0-7.35-0.35","60f01d9692d019017760b69a","655cb802637e0dbe2941dbc4","655cb8a9b9f82033bea7aeb7","527","
            
        <div style=""text-align: center; position: fixed; top: 5vh; left: 40vw;"">
            <div style=""margin:0 auto; width: 20vw; top: 8vh; font-size: 2vw""> 
            <font color=""green""> Bonus : $9.8 </font>
            </div>
        </div>
    
            <div> Please press any key to continue to the next image.</div>
        ","arrowright","ITI","","","","","","",""
"","","","","","html-keyboard-response","232","231633","0.0-7.35-1.35","60f01d9692d019017760b69a","655cb802637e0dbe2941dbc4","655cb8a9b9f82033bea7aeb7","null","
        
        <div style=""text-align: center; position: fixed; top: 5vh; left: 40vw;"">
            <div style=""margin:0 auto; width: 20vw; top: 8vh; font-size: 2vw""> 
            <font color=""green""> Bonus : $9.8 </font>
            </div>
        </div>
    
        <img class=""stim"" src=./stimuli//pack_shapes_diff/cat_1/diff_4/ex_1_4_5.png></img>
    ","null","stimulus","","","","","","",""
