"success","timeout","failed_images","failed_audio","failed_video","trial_type","trial_index","time_elapsed","internal_node_id","subject_id","study_id","session_id","rt","stimulus","response","task","correct_response","exemplar_ID","category","correct","bonus"
"true","false","[]","[]","[]","preload","0","1","0.0-0.0","5f917101b9db9f060223e507","6554bfa13ac4b6a0ab00b03a","6554bfdceab6317e403b4d73","","","","","","","","",""
"","","","","","html-keyboard-response","1","4703","0.0-1.0","5f917101b9db9f060223e507","6554bfa13ac4b6a0ab00b03a","6554bfdceab6317e403b4d73","4701","Welcome to the Category Learning experiment! Press any key to continue.","enter","welcome","","","","",""
"","","","","","html-keyboard-response","2","14078","0.0-2.0","5f917101b9db9f060223e507","6554bfa13ac4b6a0ab00b03a","6554bfdceab6317e403b4d73","9374","
            <p>You will be shown images of black shapes.  Some are category A, some are category B.
            <br>You will not know in advance which category a specific shape belongs to.</p>
            <p>After you see an image, you will be asked to guess its category <b>(left arrow for category A, right arrow for category B)</b></p>
            <p>After you choose, the screen will show you whether you were correct or not.</p>
            <p><b>You will receive a bonus payment of $0.05 for each correct answer!</b></p>
            <p> So you can increase your bonus by guessing correctly, and by guessing as quickly as possible so you move on to the next image sooner.</p>
            <p>Press any key to continue.</p>
            ","enter","introduction_1","","","","",""
"","","","","","html-keyboard-response","3","18790","0.0-3.0","5f917101b9db9f060223e507","6554bfa13ac4b6a0ab00b03a","6554bfdceab6317e403b4d73","4712","
            <p> <b>The first 10 trials are a practice round that will not count towards your bonus payment.</b></p>
            <p> You will be notified when practice finishes and the test begins. </p>
            <p> Press any key to begin the practice round.</p>
            ","enter","introduction_2","","","","",""
"","","","","","html-keyboard-response","4","20493","0.0-4.0-0.0","5f917101b9db9f060223e507","6554bfa13ac4b6a0ab00b03a","6554bfdceab6317e403b4d73","1703","
            
        <div style=""text-align: center; position: fixed; top: 5vh; left: 40vw;"">
            <div style=""margin:0 auto; width: 20vw; top: 8vh; font-size: 1vw""> 
            <font color=""green""> Bonus : $0 </font>
            </div>
        </div>
    
            <div> Please press any button to continue to the next trial.</div>
        ","enter","ITI","","","","",""
"","","","","","html-keyboard-response","5","21103","0.0-4.0-1.0","5f917101b9db9f060223e507","6554bfa13ac4b6a0ab00b03a","6554bfdceab6317e403b4d73","null","
        
        <div style=""text-align: center; position: fixed; top: 5vh; left: 40vw;"">
            <div style=""margin:0 auto; width: 20vw; top: 8vh; font-size: 1vw""> 
            <font color=""green""> Bonus : $0 </font>
            </div>
        </div>
    
        <img class=""stim"" src=./stimuli//pack_shapes/cat_1/ex_1_3.png></img>
    ","null","stimulus","","","","",""
"","","","","","html-keyboard-response","6","22110","0.0-4.0-2.0","5f917101b9db9f060223e507","6554bfa13ac4b6a0ab00b03a","6554bfdceab6317e403b4d73","null","
        <div style=""text-align: center; position: fixed; top: 5vh; left: 40vw;"">
            <div style=""margin:0 auto; width: 20vw; top: 8vh; font-size: 1vw""> 
            <font color=""green""> Bonus : $0 </font>
            </div>
        </div>
    ","null","","","","","",""
"","","","","","html-keyboard-response","7","23193","0.0-4.0-3.0","5f917101b9db9f060223e507","6554bfa13ac4b6a0ab00b03a","6554bfdceab6317e403b4d73","1083","./stimuli//pack_shapes/cat_1/ex_1_3.png","arrowleft","response","ArrowLeft","3","1","true",""
"","","","","","html-keyboard-response","8","24702","0.0-4.0-4.0","5f917101b9db9f060223e507","6554bfa13ac4b6a0ab00b03a","6554bfdceab6317e403b4d73","null","<p> <font color=""green"" size=""4vw""> Correct category! </font> </p>","null","feedback","","","","","0"
"","","","","","html-keyboard-response","9","25839","0.0-4.0-0.1","5f917101b9db9f060223e507","6554bfa13ac4b6a0ab00b03a","6554bfdceab6317e403b4d73","1136","
            
        <div style=""text-align: center; position: fixed; top: 5vh; left: 40vw;"">
            <div style=""margin:0 auto; width: 20vw; top: 8vh; font-size: 1vw""> 
            <font color=""green""> Bonus : $0 </font>
            </div>
        </div>
    
            <div> Please press any button to continue to the next trial.</div>
        ","enter","ITI","","","","",""
"","","","","","html-keyboard-response","10","26442","0.0-4.0-1.1","5f917101b9db9f060223e507","6554bfa13ac4b6a0ab00b03a","6554bfdceab6317e403b4d73","null","
        
        <div style=""text-align: center; position: fixed; top: 5vh; left: 40vw;"">
            <div style=""margin:0 auto; width: 20vw; top: 8vh; font-size: 1vw""> 
            <font color=""green""> Bonus : $0 </font>
            </div>
        </div>
    
        <img class=""stim"" src=./stimuli//pack_shapes/cat_1/ex_1_39.png></img>
    ","null","stimulus","","","","",""
"","","","","","html-keyboard-response","11","27454","0.0-4.0-2.1","5f917101b9db9f060223e507","6554bfa13ac4b6a0ab00b03a","6554bfdceab6317e403b4d73","null","
        <div style=""text-align: center; position: fixed; top: 5vh; left: 40vw;"">
            <div style=""margin:0 auto; width: 20vw; top: 8vh; font-size: 1vw""> 
            <font color=""green""> Bonus : $0 </font>
            </div>
        </div>
    ","null","","","","","",""
"","","","","","html-keyboard-response","12","27471","0.0-4.0-3.1","5f917101b9db9f060223e507","6554bfa13ac4b6a0ab00b03a","6554bfdceab6317e403b4d73","17","./stimuli//pack_shapes/cat_1/ex_1_39.png","arrowleft","response","ArrowLeft","39","1","true",""
"","","","","","html-keyboard-response","13","28986","0.0-4.0-4.1","5f917101b9db9f060223e507","6554bfa13ac4b6a0ab00b03a","6554bfdceab6317e403b4d73","null","<p> <font color=""green"" size=""4vw""> Correct category! </font> </p>","null","feedback","","","","","0"
"","","","","","html-keyboard-response","14","29577","0.0-4.0-0.2","5f917101b9db9f060223e507","6554bfa13ac4b6a0ab00b03a","6554bfdceab6317e403b4d73","591","
            
        <div style=""text-align: center; position: fixed; top: 5vh; left: 40vw;"">
            <div style=""margin:0 auto; width: 20vw; top: 8vh; font-size: 1vw""> 
            <font color=""green""> Bonus : $0 </font>
            </div>
        </div>
    
            <div> Please press any button to continue to the next trial.</div>
        ","enter","ITI","","","","",""
"","","","","","html-keyboard-response","15","30193","0.0-4.0-1.2","5f917101b9db9f060223e507","6554bfa13ac4b6a0ab00b03a","6554bfdceab6317e403b4d73","null","
        
        <div style=""text-align: center; position: fixed; top: 5vh; left: 40vw;"">
            <div style=""margin:0 auto; width: 20vw; top: 8vh; font-size: 1vw""> 
            <font color=""green""> Bonus : $0 </font>
            </div>
        </div>
    
        <img class=""stim"" src=./stimuli//pack_shapes/cat_1/ex_1_49.png></img>
    ","null","stimulus","","","","",""
"","","","","","html-keyboard-response","16","31199","0.0-4.0-2.2","5f917101b9db9f060223e507","6554bfa13ac4b6a0ab00b03a","6554bfdceab6317e403b4d73","null","
        <div style=""text-align: center; position: fixed; top: 5vh; left: 40vw;"">
            <div style=""margin:0 auto; width: 20vw; top: 8vh; font-size: 1vw""> 
            <font color=""green""> Bonus : $0 </font>
            </div>
        </div>
    ","null","","","","","",""
"","","","","","html-keyboard-response","17","31599","0.0-4.0-3.2","5f917101b9db9f060223e507","6554bfa13ac4b6a0ab00b03a","6554bfdceab6317e403b4d73","399","./stimuli//pack_shapes/cat_1/ex_1_49.png","arrowleft","response","ArrowLeft","49","1","true",""
"","","","","","html-keyboard-response","18","33112","0.0-4.0-4.2","5f917101b9db9f060223e507","6554bfa13ac4b6a0ab00b03a","6554bfdceab6317e403b4d73","null","<p> <font color=""green"" size=""4vw""> Correct category! </font> </p>","null","feedback","","","","","0"
"","","","","","html-keyboard-response","19","33552","0.0-4.0-0.3","5f917101b9db9f060223e507","6554bfa13ac4b6a0ab00b03a","6554bfdceab6317e403b4d73","439","
            
        <div style=""text-align: center; position: fixed; top: 5vh; left: 40vw;"">
            <div style=""margin:0 auto; width: 20vw; top: 8vh; font-size: 1vw""> 
            <font color=""green""> Bonus : $0 </font>
            </div>
        </div>
    
            <div> Please press any button to continue to the next trial.</div>
        ","enter","ITI","","","","",""
"","","","","","html-keyboard-response","20","34153","0.0-4.0-1.3","5f917101b9db9f060223e507","6554bfa13ac4b6a0ab00b03a","6554bfdceab6317e403b4d73","null","
        
        <div style=""text-align: center; position: fixed; top: 5vh; left: 40vw;"">
            <div style=""margin:0 auto; width: 20vw; top: 8vh; font-size: 1vw""> 
            <font color=""green""> Bonus : $0 </font>
            </div>
        </div>
    
        <img class=""stim"" src=./stimuli//pack_shapes/cat_2/ex_2_8.png></img>
    ","null","stimulus","","","","",""
"","","","","","html-keyboard-response","21","35160","0.0-4.0-2.3","5f917101b9db9f060223e507","6554bfa13ac4b6a0ab00b03a","6554bfdceab6317e403b4d73","null","
        <div style=""text-align: center; position: fixed; top: 5vh; left: 40vw;"">
            <div style=""margin:0 auto; width: 20vw; top: 8vh; font-size: 1vw""> 
            <font color=""green""> Bonus : $0 </font>
            </div>
        </div>
    ","null","","","","","",""
"","","","","","html-keyboard-response","22","35397","0.0-4.0-3.3","5f917101b9db9f060223e507","6554bfa13ac4b6a0ab00b03a","6554bfdceab6317e403b4d73","237","./stimuli//pack_shapes/cat_2/ex_2_8.png","arrowright","response","ArrowRight","8","2","true",""
"","","","","","html-keyboard-response","23","36898","0.0-4.0-4.3","5f917101b9db9f060223e507","6554bfa13ac4b6a0ab00b03a","6554bfdceab6317e403b4d73","null","<p> <font color=""green"" size=""4vw""> Correct category! </font> </p>","null","feedback","","","","","0"
"","","","","","html-keyboard-response","24","37663","0.0-4.0-0.4","5f917101b9db9f060223e507","6554bfa13ac4b6a0ab00b03a","6554bfdceab6317e403b4d73","765","
            
        <div style=""text-align: center; position: fixed; top: 5vh; left: 40vw;"">
            <div style=""margin:0 auto; width: 20vw; top: 8vh; font-size: 1vw""> 
            <font color=""green""> Bonus : $0 </font>
            </div>
        </div>
    
            <div> Please press any button to continue to the next trial.</div>
        ","enter","ITI","","","","",""
"","","","","","html-keyboard-response","25","38265","0.0-4.0-1.4","5f917101b9db9f060223e507","6554bfa13ac4b6a0ab00b03a","6554bfdceab6317e403b4d73","null","
        
        <div style=""text-align: center; position: fixed; top: 5vh; left: 40vw;"">
            <div style=""margin:0 auto; width: 20vw; top: 8vh; font-size: 1vw""> 
            <font color=""green""> Bonus : $0 </font>
            </div>
        </div>
    
        <img class=""stim"" src=./stimuli//pack_shapes/cat_1/ex_1_75.png></img>
    ","null","stimulus","","","","",""
"","","","","","html-keyboard-response","26","39274","0.0-4.0-2.4","5f917101b9db9f060223e507","6554bfa13ac4b6a0ab00b03a","6554bfdceab6317e403b4d73","null","
        <div style=""text-align: center; position: fixed; top: 5vh; left: 40vw;"">
            <div style=""margin:0 auto; width: 20vw; top: 8vh; font-size: 1vw""> 
            <font color=""green""> Bonus : $0 </font>
            </div>
        </div>
    ","null","","","","","",""
"","","","","","html-keyboard-response","27","39592","0.0-4.0-3.4","5f917101b9db9f060223e507","6554bfa13ac4b6a0ab00b03a","6554bfdceab6317e403b4d73","318","./stimuli//pack_shapes/cat_1/ex_1_75.png","arrowright","response","ArrowLeft","75","1","false",""
"","","","","","html-keyboard-response","28","41094","0.0-4.0-4.4","5f917101b9db9f060223e507","6554bfa13ac4b6a0ab00b03a","6554bfdceab6317e403b4d73","null","<p> <font color=""red"" size=""4vw""> Wrong category! </font> </p>","null","feedback","","","","","0"
"","","","","","html-keyboard-response","29","41477","0.0-4.0-0.5","5f917101b9db9f060223e507","6554bfa13ac4b6a0ab00b03a","6554bfdceab6317e403b4d73","383","
            
        <div style=""text-align: center; position: fixed; top: 5vh; left: 40vw;"">
            <div style=""margin:0 auto; width: 20vw; top: 8vh; font-size: 1vw""> 
            <font color=""green""> Bonus : $0 </font>
            </div>
        </div>
    
            <div> Please press any button to continue to the next trial.</div>
        ","enter","ITI","","","","",""
"","","","","","html-keyboard-response","30","42088","0.0-4.0-1.5","5f917101b9db9f060223e507","6554bfa13ac4b6a0ab00b03a","6554bfdceab6317e403b4d73","null","
        
        <div style=""text-align: center; position: fixed; top: 5vh; left: 40vw;"">
            <div style=""margin:0 auto; width: 20vw; top: 8vh; font-size: 1vw""> 
            <font color=""green""> Bonus : $0 </font>
            </div>
        </div>
    
        <img class=""stim"" src=./stimuli//pack_shapes/cat_2/ex_2_39.png></img>
    ","null","stimulus","","","","",""
"","","","","","html-keyboard-response","31","43094","0.0-4.0-2.5","5f917101b9db9f060223e507","6554bfa13ac4b6a0ab00b03a","6554bfdceab6317e403b4d73","null","
        <div style=""text-align: center; position: fixed; top: 5vh; left: 40vw;"">
            <div style=""margin:0 auto; width: 20vw; top: 8vh; font-size: 1vw""> 
            <font color=""green""> Bonus : $0 </font>
            </div>
        </div>
    ","null","","","","","",""
"","","","","","html-keyboard-response","32","43367","0.0-4.0-3.5","5f917101b9db9f060223e507","6554bfa13ac4b6a0ab00b03a","6554bfdceab6317e403b4d73","272","./stimuli//pack_shapes/cat_2/ex_2_39.png","arrowleft","response","ArrowRight","39","2","false",""
"","","","","","html-keyboard-response","33","44877","0.0-4.0-4.5","5f917101b9db9f060223e507","6554bfa13ac4b6a0ab00b03a","6554bfdceab6317e403b4d73","null","<p> <font color=""red"" size=""4vw""> Wrong category! </font> </p>","null","feedback","","","","","0"
"","","","","","html-keyboard-response","34","45276","0.0-4.0-0.6","5f917101b9db9f060223e507","6554bfa13ac4b6a0ab00b03a","6554bfdceab6317e403b4d73","399","
            
        <div style=""text-align: center; position: fixed; top: 5vh; left: 40vw;"">
            <div style=""margin:0 auto; width: 20vw; top: 8vh; font-size: 1vw""> 
            <font color=""green""> Bonus : $0 </font>
            </div>
        </div>
    
            <div> Please press any button to continue to the next trial.</div>
        ","enter","ITI","","","","",""
"","","","","","html-keyboard-response","35","45882","0.0-4.0-1.6","5f917101b9db9f060223e507","6554bfa13ac4b6a0ab00b03a","6554bfdceab6317e403b4d73","null","
        
        <div style=""text-align: center; position: fixed; top: 5vh; left: 40vw;"">
            <div style=""margin:0 auto; width: 20vw; top: 8vh; font-size: 1vw""> 
            <font color=""green""> Bonus : $0 </font>
            </div>
        </div>
    
        <img class=""stim"" src=./stimuli//pack_shapes/cat_2/ex_2_49.png></img>
    ","null","stimulus","","","","",""
"","","","","","html-keyboard-response","36","46892","0.0-4.0-2.6","5f917101b9db9f060223e507","6554bfa13ac4b6a0ab00b03a","6554bfdceab6317e403b4d73","null","
        <div style=""text-align: center; position: fixed; top: 5vh; left: 40vw;"">
            <div style=""margin:0 auto; width: 20vw; top: 8vh; font-size: 1vw""> 
            <font color=""green""> Bonus : $0 </font>
            </div>
        </div>
    ","null","","","","","",""
"","","","","","html-keyboard-response","37","47211","0.0-4.0-3.6","5f917101b9db9f060223e507","6554bfa13ac4b6a0ab00b03a","6554bfdceab6317e403b4d73","319","./stimuli//pack_shapes/cat_2/ex_2_49.png","arrowright","response","ArrowRight","49","2","true",""
"","","","","","html-keyboard-response","38","48722","0.0-4.0-4.6","5f917101b9db9f060223e507","6554bfa13ac4b6a0ab00b03a","6554bfdceab6317e403b4d73","null","<p> <font color=""green"" size=""4vw""> Correct category! </font> </p>","null","feedback","","","","","0"
"","","","","","html-keyboard-response","39","49105","0.0-4.0-0.7","5f917101b9db9f060223e507","6554bfa13ac4b6a0ab00b03a","6554bfdceab6317e403b4d73","382","
            
        <div style=""text-align: center; position: fixed; top: 5vh; left: 40vw;"">
            <div style=""margin:0 auto; width: 20vw; top: 8vh; font-size: 1vw""> 
            <font color=""green""> Bonus : $0 </font>
            </div>
        </div>
    
            <div> Please press any button to continue to the next trial.</div>
        ","enter","ITI","","","","",""
"","","","","","html-keyboard-response","40","49715","0.0-4.0-1.7","5f917101b9db9f060223e507","6554bfa13ac4b6a0ab00b03a","6554bfdceab6317e403b4d73","null","
        
        <div style=""text-align: center; position: fixed; top: 5vh; left: 40vw;"">
            <div style=""margin:0 auto; width: 20vw; top: 8vh; font-size: 1vw""> 
            <font color=""green""> Bonus : $0 </font>
            </div>
        </div>
    
        <img class=""stim"" src=./stimuli//pack_shapes/cat_2/ex_2_29.png></img>
    ","null","stimulus","","","","",""
"","","","","","html-keyboard-response","41","50726","0.0-4.0-2.7","5f917101b9db9f060223e507","6554bfa13ac4b6a0ab00b03a","6554bfdceab6317e403b4d73","null","
        <div style=""text-align: center; position: fixed; top: 5vh; left: 40vw;"">
            <div style=""margin:0 auto; width: 20vw; top: 8vh; font-size: 1vw""> 
            <font color=""green""> Bonus : $0 </font>
            </div>
        </div>
    ","null","","","","","",""
"","","","","","html-keyboard-response","42","51040","0.0-4.0-3.7","5f917101b9db9f060223e507","6554bfa13ac4b6a0ab00b03a","6554bfdceab6317e403b4d73","314","./stimuli//pack_shapes/cat_2/ex_2_29.png","arrowright","response","ArrowRight","29","2","true",""
"","","","","","html-keyboard-response","43","52543","0.0-4.0-4.7","5f917101b9db9f060223e507","6554bfa13ac4b6a0ab00b03a","6554bfdceab6317e403b4d73","null","<p> <font color=""green"" size=""4vw""> Correct category! </font> </p>","null","feedback","","","","","0"
"","","","","","html-keyboard-response","44","53341","0.0-4.0-0.8","5f917101b9db9f060223e507","6554bfa13ac4b6a0ab00b03a","6554bfdceab6317e403b4d73","798","
            
        <div style=""text-align: center; position: fixed; top: 5vh; left: 40vw;"">
            <div style=""margin:0 auto; width: 20vw; top: 8vh; font-size: 1vw""> 
            <font color=""green""> Bonus : $0 </font>
            </div>
        </div>
    
            <div> Please press any button to continue to the next trial.</div>
        ","enter","ITI","","","","",""
"","","","","","html-keyboard-response","45","53954","0.0-4.0-1.8","5f917101b9db9f060223e507","6554bfa13ac4b6a0ab00b03a","6554bfdceab6317e403b4d73","null","
        
        <div style=""text-align: center; position: fixed; top: 5vh; left: 40vw;"">
            <div style=""margin:0 auto; width: 20vw; top: 8vh; font-size: 1vw""> 
            <font color=""green""> Bonus : $0 </font>
            </div>
        </div>
    
        <img class=""stim"" src=./stimuli//pack_shapes/cat_1/ex_1_29.png></img>
    ","null","stimulus","","","","",""
"","","","","","html-keyboard-response","46","54966","0.0-4.0-2.8","5f917101b9db9f060223e507","6554bfa13ac4b6a0ab00b03a","6554bfdceab6317e403b4d73","null","
        <div style=""text-align: center; position: fixed; top: 5vh; left: 40vw;"">
            <div style=""margin:0 auto; width: 20vw; top: 8vh; font-size: 1vw""> 
            <font color=""green""> Bonus : $0 </font>
            </div>
        </div>
    ","null","","","","","",""
"","","","","","html-keyboard-response","47","55298","0.0-4.0-3.8","5f917101b9db9f060223e507","6554bfa13ac4b6a0ab00b03a","6554bfdceab6317e403b4d73","332","./stimuli//pack_shapes/cat_1/ex_1_29.png","arrowleft","response","ArrowLeft","29","1","true",""
"","","","","","html-keyboard-response","48","56812","0.0-4.0-4.8","5f917101b9db9f060223e507","6554bfa13ac4b6a0ab00b03a","6554bfdceab6317e403b4d73","null","<p> <font color=""green"" size=""4vw""> Correct category! </font> </p>","null","feedback","","","","","0"
"","","","","","html-keyboard-response","49","57359","0.0-4.0-0.9","5f917101b9db9f060223e507","6554bfa13ac4b6a0ab00b03a","6554bfdceab6317e403b4d73","547","
            
        <div style=""text-align: center; position: fixed; top: 5vh; left: 40vw;"">
            <div style=""margin:0 auto; width: 20vw; top: 8vh; font-size: 1vw""> 
            <font color=""green""> Bonus : $0 </font>
            </div>
        </div>
    
            <div> Please press any button to continue to the next trial.</div>
        ","enter","ITI","","","","",""
"","","","","","html-keyboard-response","50","57964","0.0-4.0-1.9","5f917101b9db9f060223e507","6554bfa13ac4b6a0ab00b03a","6554bfdceab6317e403b4d73","null","
        
        <div style=""text-align: center; position: fixed; top: 5vh; left: 40vw;"">
            <div style=""margin:0 auto; width: 20vw; top: 8vh; font-size: 1vw""> 
            <font color=""green""> Bonus : $0 </font>
            </div>
        </div>
    
        <img class=""stim"" src=./stimuli//pack_shapes/cat_2/ex_2_80.png></img>
    ","null","stimulus","","","","",""
"","","","","","html-keyboard-response","51","58971","0.0-4.0-2.9","5f917101b9db9f060223e507","6554bfa13ac4b6a0ab00b03a","6554bfdceab6317e403b4d73","null","
        <div style=""text-align: center; position: fixed; top: 5vh; left: 40vw;"">
            <div style=""margin:0 auto; width: 20vw; top: 8vh; font-size: 1vw""> 
            <font color=""green""> Bonus : $0 </font>
            </div>
        </div>
    ","null","","","","","",""
"","","","","","html-keyboard-response","52","59269","0.0-4.0-3.9","5f917101b9db9f060223e507","6554bfa13ac4b6a0ab00b03a","6554bfdceab6317e403b4d73","297","./stimuli//pack_shapes/cat_2/ex_2_80.png","arrowright","response","ArrowRight","80","2","true",""
"","","","","","html-keyboard-response","53","60773","0.0-4.0-4.9","5f917101b9db9f060223e507","6554bfa13ac4b6a0ab00b03a","6554bfdceab6317e403b4d73","null","<p> <font color=""green"" size=""4vw""> Correct category! </font> </p>","null","feedback","","","","","0"
"","","","","","html-keyboard-response","54","63806","0.0-5.0","5f917101b9db9f060223e507","6554bfa13ac4b6a0ab00b03a","6554bfdceab6317e403b4d73","3032","
            <b> <p> The practice round has finished.</p>
            <b> For the rest of the experiment you will receive a $0.05 bonus for each correct answer!</b>
            <p> Press any key to begin the test. </p>
            ","enter","intermission","","","","",""
"","","","","","html-keyboard-response","55","65770","0.0-6.0-0.0","5f917101b9db9f060223e507","6554bfa13ac4b6a0ab00b03a","6554bfdceab6317e403b4d73","1964","
            
        <div style=""text-align: center; position: fixed; top: 5vh; left: 40vw;"">
            <div style=""margin:0 auto; width: 20vw; top: 8vh; font-size: 1vw""> 
            <font color=""green""> Bonus : $0 </font>
            </div>
        </div>
    
            <div> Please press any button to continue to the next trial.</div>
        ","enter","ITI","","","","",""
"","","","","","html-keyboard-response","56","66377","0.0-6.0-1.0","5f917101b9db9f060223e507","6554bfa13ac4b6a0ab00b03a","6554bfdceab6317e403b4d73","null","
        
        <div style=""text-align: center; position: fixed; top: 5vh; left: 40vw;"">
            <div style=""margin:0 auto; width: 20vw; top: 8vh; font-size: 1vw""> 
            <font color=""green""> Bonus : $0 </font>
            </div>
        </div>
    
        <img class=""stim"" src=./stimuli//pack_shapes/cat_2/ex_2_57.png></img>
    ","null","stimulus","","","","",""
"","","","","","html-keyboard-response","57","67390","0.0-6.0-2.0","5f917101b9db9f060223e507","6554bfa13ac4b6a0ab00b03a","6554bfdceab6317e403b4d73","null","
        <div style=""text-align: center; position: fixed; top: 5vh; left: 40vw;"">
            <div style=""margin:0 auto; width: 20vw; top: 8vh; font-size: 1vw""> 
            <font color=""green""> Bonus : $0 </font>
            </div>
        </div>
    ","null","","","","","",""
"","","","","","html-keyboard-response","58","67782","0.0-6.0-3.0","5f917101b9db9f060223e507","6554bfa13ac4b6a0ab00b03a","6554bfdceab6317e403b4d73","391","./stimuli//pack_shapes/cat_2/ex_2_57.png","arrowleft","response","ArrowRight","57","2","false",""
"","","","","","html-keyboard-response","59","69296","0.0-6.0-4.0","5f917101b9db9f060223e507","6554bfa13ac4b6a0ab00b03a","6554bfdceab6317e403b4d73","null","<p> <font color=""red"" size=""4vw""> Wrong category! </font> </p>","null","feedback","","","","","0"
"","","","","","html-keyboard-response","60","70559","0.0-6.0-0.1","5f917101b9db9f060223e507","6554bfa13ac4b6a0ab00b03a","6554bfdceab6317e403b4d73","1263","
            
        <div style=""text-align: center; position: fixed; top: 5vh; left: 40vw;"">
            <div style=""margin:0 auto; width: 20vw; top: 8vh; font-size: 1vw""> 
            <font color=""green""> Bonus : $0 </font>
            </div>
        </div>
    
            <div> Please press any button to continue to the next trial.</div>
        ","enter","ITI","","","","",""
"","","","","","html-keyboard-response","61","71172","0.0-6.0-1.1","5f917101b9db9f060223e507","6554bfa13ac4b6a0ab00b03a","6554bfdceab6317e403b4d73","null","
        
        <div style=""text-align: center; position: fixed; top: 5vh; left: 40vw;"">
            <div style=""margin:0 auto; width: 20vw; top: 8vh; font-size: 1vw""> 
            <font color=""green""> Bonus : $0 </font>
            </div>
        </div>
    
        <img class=""stim"" src=./stimuli//pack_shapes/cat_1/ex_1_58.png></img>
    ","null","stimulus","","","","",""
"","","","","","html-keyboard-response","62","72178","0.0-6.0-2.1","5f917101b9db9f060223e507","6554bfa13ac4b6a0ab00b03a","6554bfdceab6317e403b4d73","null","
        <div style=""text-align: center; position: fixed; top: 5vh; left: 40vw;"">
            <div style=""margin:0 auto; width: 20vw; top: 8vh; font-size: 1vw""> 
            <font color=""green""> Bonus : $0 </font>
            </div>
        </div>
    ","null","","","","","",""
"","","","","","html-keyboard-response","63","72314","0.0-6.0-3.1","5f917101b9db9f060223e507","6554bfa13ac4b6a0ab00b03a","6554bfdceab6317e403b4d73","136","./stimuli//pack_shapes/cat_1/ex_1_58.png","arrowleft","response","ArrowLeft","58","1","true",""
"","","","","","html-keyboard-response","64","73824","0.0-6.0-4.1","5f917101b9db9f060223e507","6554bfa13ac4b6a0ab00b03a","6554bfdceab6317e403b4d73","null","<p> <font color=""green"" size=""4vw""> Correct category! </font> <br> <br> <font color=""green"" size=""7vw""> + $0.05 </font> </p>","null","feedback","","","","","0.05"
"","","","","","html-keyboard-response","65","74491","0.0-6.0-0.2","5f917101b9db9f060223e507","6554bfa13ac4b6a0ab00b03a","6554bfdceab6317e403b4d73","667","
            
        <div style=""text-align: center; position: fixed; top: 5vh; left: 40vw;"">
            <div style=""margin:0 auto; width: 20vw; top: 8vh; font-size: 1vw""> 
            <font color=""green""> Bonus : $0.05 </font>
            </div>
        </div>
    
            <div> Please press any button to continue to the next trial.</div>
        ","enter","ITI","","","","",""
"","","","","","html-keyboard-response","66","75097","0.0-6.0-1.2","5f917101b9db9f060223e507","6554bfa13ac4b6a0ab00b03a","6554bfdceab6317e403b4d73","null","
        
        <div style=""text-align: center; position: fixed; top: 5vh; left: 40vw;"">
            <div style=""margin:0 auto; width: 20vw; top: 8vh; font-size: 1vw""> 
            <font color=""green""> Bonus : $0.05 </font>
            </div>
        </div>
    
        <img class=""stim"" src=./stimuli//pack_shapes/cat_2/ex_2_61.png></img>
    ","null","stimulus","","","","",""
"","","","","","html-keyboard-response","67","76106","0.0-6.0-2.2","5f917101b9db9f060223e507","6554bfa13ac4b6a0ab00b03a","6554bfdceab6317e403b4d73","null","
        <div style=""text-align: center; position: fixed; top: 5vh; left: 40vw;"">
            <div style=""margin:0 auto; width: 20vw; top: 8vh; font-size: 1vw""> 
            <font color=""green""> Bonus : $0.05 </font>
            </div>
        </div>
    ","null","","","","","",""
"","","","","","html-keyboard-response","68","76916","0.0-6.0-3.2","5f917101b9db9f060223e507","6554bfa13ac4b6a0ab00b03a","6554bfdceab6317e403b4d73","810","./stimuli//pack_shapes/cat_2/ex_2_61.png","arrowright","response","ArrowRight","61","2","true",""
"","","","","","html-keyboard-response","69","78423","0.0-6.0-4.2","5f917101b9db9f060223e507","6554bfa13ac4b6a0ab00b03a","6554bfdceab6317e403b4d73","null","<p> <font color=""green"" size=""4vw""> Correct category! </font> <br> <br> <font color=""green"" size=""7vw""> + $0.05 </font> </p>","null","feedback","","","","","0.1"
"","","","","","html-keyboard-response","70","79029","0.0-6.0-0.3","5f917101b9db9f060223e507","6554bfa13ac4b6a0ab00b03a","6554bfdceab6317e403b4d73","605","
            
        <div style=""text-align: center; position: fixed; top: 5vh; left: 40vw;"">
            <div style=""margin:0 auto; width: 20vw; top: 8vh; font-size: 1vw""> 
            <font color=""green""> Bonus : $0.1 </font>
            </div>
        </div>
    
            <div> Please press any button to continue to the next trial.</div>
        ","enter","ITI","","","","",""
"","","","","","html-keyboard-response","71","79635","0.0-6.0-1.3","5f917101b9db9f060223e507","6554bfa13ac4b6a0ab00b03a","6554bfdceab6317e403b4d73","null","
        
        <div style=""text-align: center; position: fixed; top: 5vh; left: 40vw;"">
            <div style=""margin:0 auto; width: 20vw; top: 8vh; font-size: 1vw""> 
            <font color=""green""> Bonus : $0.1 </font>
            </div>
        </div>
    
        <img class=""stim"" src=./stimuli//pack_shapes/cat_1/ex_1_23.png></img>
    ","null","stimulus","","","","",""
"","","","","","html-keyboard-response","72","80643","0.0-6.0-2.3","5f917101b9db9f060223e507","6554bfa13ac4b6a0ab00b03a","6554bfdceab6317e403b4d73","null","
        <div style=""text-align: center; position: fixed; top: 5vh; left: 40vw;"">
            <div style=""margin:0 auto; width: 20vw; top: 8vh; font-size: 1vw""> 
            <font color=""green""> Bonus : $0.1 </font>
            </div>
        </div>
    ","null","","","","","",""
"","","","","","html-keyboard-response","73","80955","0.0-6.0-3.3","5f917101b9db9f060223e507","6554bfa13ac4b6a0ab00b03a","6554bfdceab6317e403b4d73","312","./stimuli//pack_shapes/cat_1/ex_1_23.png","arrowleft","response","ArrowLeft","23","1","true",""
"","","","","","html-keyboard-response","74","82461","0.0-6.0-4.3","5f917101b9db9f060223e507","6554bfa13ac4b6a0ab00b03a","6554bfdceab6317e403b4d73","null","<p> <font color=""green"" size=""4vw""> Correct category! </font> <br> <br> <font color=""green"" size=""7vw""> + $0.05 </font> </p>","null","feedback","","","","","0.15"
"","","","","","html-keyboard-response","75","83112","0.0-6.0-0.4","5f917101b9db9f060223e507","6554bfa13ac4b6a0ab00b03a","6554bfdceab6317e403b4d73","651","
            
        <div style=""text-align: center; position: fixed; top: 5vh; left: 40vw;"">
            <div style=""margin:0 auto; width: 20vw; top: 8vh; font-size: 1vw""> 
            <font color=""green""> Bonus : $0.15 </font>
            </div>
        </div>
    
            <div> Please press any button to continue to the next trial.</div>
        ","enter","ITI","","","","",""
"","","","","","html-keyboard-response","76","83718","0.0-6.0-1.4","5f917101b9db9f060223e507","6554bfa13ac4b6a0ab00b03a","6554bfdceab6317e403b4d73","null","
        
        <div style=""text-align: center; position: fixed; top: 5vh; left: 40vw;"">
            <div style=""margin:0 auto; width: 20vw; top: 8vh; font-size: 1vw""> 
            <font color=""green""> Bonus : $0.15 </font>
            </div>
        </div>
    
        <img class=""stim"" src=./stimuli//pack_shapes/cat_2/ex_2_70.png></img>
    ","null","stimulus","","","","",""
"","","","","","html-keyboard-response","77","84729","0.0-6.0-2.4","5f917101b9db9f060223e507","6554bfa13ac4b6a0ab00b03a","6554bfdceab6317e403b4d73","null","
        <div style=""text-align: center; position: fixed; top: 5vh; left: 40vw;"">
            <div style=""margin:0 auto; width: 20vw; top: 8vh; font-size: 1vw""> 
            <font color=""green""> Bonus : $0.15 </font>
            </div>
        </div>
    ","null","","","","","",""
"","","","","","html-keyboard-response","78","85044","0.0-6.0-3.4","5f917101b9db9f060223e507","6554bfa13ac4b6a0ab00b03a","6554bfdceab6317e403b4d73","315","./stimuli//pack_shapes/cat_2/ex_2_70.png","arrowright","response","ArrowRight","70","2","true",""
"","","","","","html-keyboard-response","79","86547","0.0-6.0-4.4","5f917101b9db9f060223e507","6554bfa13ac4b6a0ab00b03a","6554bfdceab6317e403b4d73","null","<p> <font color=""green"" size=""4vw""> Correct category! </font> <br> <br> <font color=""green"" size=""7vw""> + $0.05 </font> </p>","null","feedback","","","","","0.2"
"","","","","","html-keyboard-response","80","87403","0.0-6.0-0.5","5f917101b9db9f060223e507","6554bfa13ac4b6a0ab00b03a","6554bfdceab6317e403b4d73","855","
            
        <div style=""text-align: center; position: fixed; top: 5vh; left: 40vw;"">
            <div style=""margin:0 auto; width: 20vw; top: 8vh; font-size: 1vw""> 
            <font color=""green""> Bonus : $0.2 </font>
            </div>
        </div>
    
            <div> Please press any button to continue to the next trial.</div>
        ","enter","ITI","","","","",""
"","","","","","html-keyboard-response","81","88006","0.0-6.0-1.5","5f917101b9db9f060223e507","6554bfa13ac4b6a0ab00b03a","6554bfdceab6317e403b4d73","null","
        
        <div style=""text-align: center; position: fixed; top: 5vh; left: 40vw;"">
            <div style=""margin:0 auto; width: 20vw; top: 8vh; font-size: 1vw""> 
            <font color=""green""> Bonus : $0.2 </font>
            </div>
        </div>
    
        <img class=""stim"" src=./stimuli//pack_shapes/cat_2/ex_2_77.png></img>
    ","null","stimulus","","","","",""
"","","","","","html-keyboard-response","82","89015","0.0-6.0-2.5","5f917101b9db9f060223e507","6554bfa13ac4b6a0ab00b03a","6554bfdceab6317e403b4d73","null","
        <div style=""text-align: center; position: fixed; top: 5vh; left: 40vw;"">
            <div style=""margin:0 auto; width: 20vw; top: 8vh; font-size: 1vw""> 
            <font color=""green""> Bonus : $0.2 </font>
            </div>
        </div>
    ","null","","","","","",""
"","","","","","html-keyboard-response","83","89321","0.0-6.0-3.5","5f917101b9db9f060223e507","6554bfa13ac4b6a0ab00b03a","6554bfdceab6317e403b4d73","306","./stimuli//pack_shapes/cat_2/ex_2_77.png","arrowright","response","ArrowRight","77","2","true",""
"","","","","","html-keyboard-response","84","90834","0.0-6.0-4.5","5f917101b9db9f060223e507","6554bfa13ac4b6a0ab00b03a","6554bfdceab6317e403b4d73","null","<p> <font color=""green"" size=""4vw""> Correct category! </font> <br> <br> <font color=""green"" size=""7vw""> + $0.05 </font> </p>","null","feedback","","","","","0.25"
"","","","","","html-keyboard-response","85","91548","0.0-6.0-0.6","5f917101b9db9f060223e507","6554bfa13ac4b6a0ab00b03a","6554bfdceab6317e403b4d73","714","
            
        <div style=""text-align: center; position: fixed; top: 5vh; left: 40vw;"">
            <div style=""margin:0 auto; width: 20vw; top: 8vh; font-size: 1vw""> 
            <font color=""green""> Bonus : $0.25 </font>
            </div>
        </div>
    
            <div> Please press any button to continue to the next trial.</div>
        ","enter","ITI","","","","",""
"","","","","","html-keyboard-response","86","92155","0.0-6.0-1.6","5f917101b9db9f060223e507","6554bfa13ac4b6a0ab00b03a","6554bfdceab6317e403b4d73","null","
        
        <div style=""text-align: center; position: fixed; top: 5vh; left: 40vw;"">
            <div style=""margin:0 auto; width: 20vw; top: 8vh; font-size: 1vw""> 
            <font color=""green""> Bonus : $0.25 </font>
            </div>
        </div>
    
        <img class=""stim"" src=./stimuli//pack_shapes/cat_1/ex_1_61.png></img>
    ","null","stimulus","","","","",""
"","","","","","html-keyboard-response","87","93163","0.0-6.0-2.6","5f917101b9db9f060223e507","6554bfa13ac4b6a0ab00b03a","6554bfdceab6317e403b4d73","null","
        <div style=""text-align: center; position: fixed; top: 5vh; left: 40vw;"">
            <div style=""margin:0 auto; width: 20vw; top: 8vh; font-size: 1vw""> 
            <font color=""green""> Bonus : $0.25 </font>
            </div>
        </div>
    ","null","","","","","",""
"","","","","","html-keyboard-response","88","93345","0.0-6.0-3.6","5f917101b9db9f060223e507","6554bfa13ac4b6a0ab00b03a","6554bfdceab6317e403b4d73","182","./stimuli//pack_shapes/cat_1/ex_1_61.png","arrowleft","response","ArrowLeft","61","1","true",""
"","","","","","html-keyboard-response","89","94854","0.0-6.0-4.6","5f917101b9db9f060223e507","6554bfa13ac4b6a0ab00b03a","6554bfdceab6317e403b4d73","null","<p> <font color=""green"" size=""4vw""> Correct category! </font> <br> <br> <font color=""green"" size=""7vw""> + $0.05 </font> </p>","null","feedback","","","","","0.3"
"","","","","","html-keyboard-response","90","95303","0.0-6.0-0.7","5f917101b9db9f060223e507","6554bfa13ac4b6a0ab00b03a","6554bfdceab6317e403b4d73","449","
            
        <div style=""text-align: center; position: fixed; top: 5vh; left: 40vw;"">
            <div style=""margin:0 auto; width: 20vw; top: 8vh; font-size: 1vw""> 
            <font color=""green""> Bonus : $0.3 </font>
            </div>
        </div>
    
            <div> Please press any button to continue to the next trial.</div>
        ","enter","ITI","","","","",""
"","","","","","html-keyboard-response","91","95914","0.0-6.0-1.7","5f917101b9db9f060223e507","6554bfa13ac4b6a0ab00b03a","6554bfdceab6317e403b4d73","null","
        
        <div style=""text-align: center; position: fixed; top: 5vh; left: 40vw;"">
            <div style=""margin:0 auto; width: 20vw; top: 8vh; font-size: 1vw""> 
            <font color=""green""> Bonus : $0.3 </font>
            </div>
        </div>
    
        <img class=""stim"" src=./stimuli//pack_shapes/cat_2/ex_2_62.png></img>
    ","null","stimulus","","","","",""
"","","","","","html-keyboard-response","92","96925","0.0-6.0-2.7","5f917101b9db9f060223e507","6554bfa13ac4b6a0ab00b03a","6554bfdceab6317e403b4d73","null","
        <div style=""text-align: center; position: fixed; top: 5vh; left: 40vw;"">
            <div style=""margin:0 auto; width: 20vw; top: 8vh; font-size: 1vw""> 
            <font color=""green""> Bonus : $0.3 </font>
            </div>
        </div>
    ","null","","","","","",""
"","","","","","html-keyboard-response","93","97257","0.0-6.0-3.7","5f917101b9db9f060223e507","6554bfa13ac4b6a0ab00b03a","6554bfdceab6317e403b4d73","331","./stimuli//pack_shapes/cat_2/ex_2_62.png","arrowright","response","ArrowRight","62","2","true",""
"","","","","","html-keyboard-response","94","98770","0.0-6.0-4.7","5f917101b9db9f060223e507","6554bfa13ac4b6a0ab00b03a","6554bfdceab6317e403b4d73","null","<p> <font color=""green"" size=""4vw""> Correct category! </font> <br> <br> <font color=""green"" size=""7vw""> + $0.05 </font> </p>","null","feedback","","","","","0.35"
"","","","","","html-keyboard-response","95","99890","0.0-6.0-0.8","5f917101b9db9f060223e507","6554bfa13ac4b6a0ab00b03a","6554bfdceab6317e403b4d73","1120","
            
        <div style=""text-align: center; position: fixed; top: 5vh; left: 40vw;"">
            <div style=""margin:0 auto; width: 20vw; top: 8vh; font-size: 1vw""> 
            <font color=""green""> Bonus : $0.35 </font>
            </div>
        </div>
    
            <div> Please press any button to continue to the next trial.</div>
        ","enter","ITI","","","","",""
"","","","","","html-keyboard-response","96","100504","0.0-6.0-1.8","5f917101b9db9f060223e507","6554bfa13ac4b6a0ab00b03a","6554bfdceab6317e403b4d73","null","
        
        <div style=""text-align: center; position: fixed; top: 5vh; left: 40vw;"">
            <div style=""margin:0 auto; width: 20vw; top: 8vh; font-size: 1vw""> 
            <font color=""green""> Bonus : $0.35 </font>
            </div>
        </div>
    
        <img class=""stim"" src=./stimuli//pack_shapes/cat_1/ex_1_53.png></img>
    ","null","stimulus","","","","",""
"","","","","","html-keyboard-response","97","101513","0.0-6.0-2.8","5f917101b9db9f060223e507","6554bfa13ac4b6a0ab00b03a","6554bfdceab6317e403b4d73","null","
        <div style=""text-align: center; position: fixed; top: 5vh; left: 40vw;"">
            <div style=""margin:0 auto; width: 20vw; top: 8vh; font-size: 1vw""> 
            <font color=""green""> Bonus : $0.35 </font>
            </div>
        </div>
    ","null","","","","","",""
"","","","","","html-keyboard-response","98","101847","0.0-6.0-3.8","5f917101b9db9f060223e507","6554bfa13ac4b6a0ab00b03a","6554bfdceab6317e403b4d73","334","./stimuli//pack_shapes/cat_1/ex_1_53.png","arrowleft","response","ArrowLeft","53","1","true",""
"","","","","","html-keyboard-response","99","103358","0.0-6.0-4.8","5f917101b9db9f060223e507","6554bfa13ac4b6a0ab00b03a","6554bfdceab6317e403b4d73","null","<p> <font color=""green"" size=""4vw""> Correct category! </font> <br> <br> <font color=""green"" size=""7vw""> + $0.05 </font> </p>","null","feedback","","","","","0.4"
"","","","","","html-keyboard-response","100","104231","0.0-6.0-0.9","5f917101b9db9f060223e507","6554bfa13ac4b6a0ab00b03a","6554bfdceab6317e403b4d73","873","
            
        <div style=""text-align: center; position: fixed; top: 5vh; left: 40vw;"">
            <div style=""margin:0 auto; width: 20vw; top: 8vh; font-size: 1vw""> 
            <font color=""green""> Bonus : $0.4 </font>
            </div>
        </div>
    
            <div> Please press any button to continue to the next trial.</div>
        ","enter","ITI","","","","",""
"","","","","","html-keyboard-response","101","104842","0.0-6.0-1.9","5f917101b9db9f060223e507","6554bfa13ac4b6a0ab00b03a","6554bfdceab6317e403b4d73","null","
        
        <div style=""text-align: center; position: fixed; top: 5vh; left: 40vw;"">
            <div style=""margin:0 auto; width: 20vw; top: 8vh; font-size: 1vw""> 
            <font color=""green""> Bonus : $0.4 </font>
            </div>
        </div>
    
        <img class=""stim"" src=./stimuli//pack_shapes/cat_1/ex_1_69.png></img>
    ","null","stimulus","","","","",""
"","","","","","html-keyboard-response","102","105846","0.0-6.0-2.9","5f917101b9db9f060223e507","6554bfa13ac4b6a0ab00b03a","6554bfdceab6317e403b4d73","null","
        <div style=""text-align: center; position: fixed; top: 5vh; left: 40vw;"">
            <div style=""margin:0 auto; width: 20vw; top: 8vh; font-size: 1vw""> 
            <font color=""green""> Bonus : $0.4 </font>
            </div>
        </div>
    ","null","","","","","",""
"","","","","","html-keyboard-response","103","106179","0.0-6.0-3.9","5f917101b9db9f060223e507","6554bfa13ac4b6a0ab00b03a","6554bfdceab6317e403b4d73","333","./stimuli//pack_shapes/cat_1/ex_1_69.png","arrowleft","response","ArrowLeft","69","1","true",""
"","","","","","html-keyboard-response","104","107690","0.0-6.0-4.9","5f917101b9db9f060223e507","6554bfa13ac4b6a0ab00b03a","6554bfdceab6317e403b4d73","null","<p> <font color=""green"" size=""4vw""> Correct category! </font> <br> <br> <font color=""green"" size=""7vw""> + $0.05 </font> </p>","null","feedback","","","","","0.45"
"","","","","","html-keyboard-response","105","108273","0.0-6.0-0.10","5f917101b9db9f060223e507","6554bfa13ac4b6a0ab00b03a","6554bfdceab6317e403b4d73","583","
            
        <div style=""text-align: center; position: fixed; top: 5vh; left: 40vw;"">
            <div style=""margin:0 auto; width: 20vw; top: 8vh; font-size: 1vw""> 
            <font color=""green""> Bonus : $0.45 </font>
            </div>
        </div>
    
            <div> Please press any button to continue to the next trial.</div>
        ","enter","ITI","","","","",""
"","","","","","html-keyboard-response","106","108884","0.0-6.0-1.10","5f917101b9db9f060223e507","6554bfa13ac4b6a0ab00b03a","6554bfdceab6317e403b4d73","null","
        
        <div style=""text-align: center; position: fixed; top: 5vh; left: 40vw;"">
            <div style=""margin:0 auto; width: 20vw; top: 8vh; font-size: 1vw""> 
            <font color=""green""> Bonus : $0.45 </font>
            </div>
        </div>
    
        <img class=""stim"" src=./stimuli//pack_shapes/cat_1/ex_1_59.png></img>
    ","null","stimulus","","","","",""
"","","","","","html-keyboard-response","107","109895","0.0-6.0-2.10","5f917101b9db9f060223e507","6554bfa13ac4b6a0ab00b03a","6554bfdceab6317e403b4d73","null","
        <div style=""text-align: center; position: fixed; top: 5vh; left: 40vw;"">
            <div style=""margin:0 auto; width: 20vw; top: 8vh; font-size: 1vw""> 
            <font color=""green""> Bonus : $0.45 </font>
            </div>
        </div>
    ","null","","","","","",""
"","","","","","html-keyboard-response","108","110137","0.0-6.0-3.10","5f917101b9db9f060223e507","6554bfa13ac4b6a0ab00b03a","6554bfdceab6317e403b4d73","242","./stimuli//pack_shapes/cat_1/ex_1_59.png","arrowleft","response","ArrowLeft","59","1","true",""
"","","","","","html-keyboard-response","109","111652","0.0-6.0-4.10","5f917101b9db9f060223e507","6554bfa13ac4b6a0ab00b03a","6554bfdceab6317e403b4d73","null","<p> <font color=""green"" size=""4vw""> Correct category! </font> <br> <br> <font color=""green"" size=""7vw""> + $0.05 </font> </p>","null","feedback","","","","","0.5"
"","","","","","html-keyboard-response","110","112115","0.0-6.0-0.11","5f917101b9db9f060223e507","6554bfa13ac4b6a0ab00b03a","6554bfdceab6317e403b4d73","463","
            
        <div style=""text-align: center; position: fixed; top: 5vh; left: 40vw;"">
            <div style=""margin:0 auto; width: 20vw; top: 8vh; font-size: 1vw""> 
            <font color=""green""> Bonus : $0.5 </font>
            </div>
        </div>
    
            <div> Please press any button to continue to the next trial.</div>
        ","enter","ITI","","","","",""
"","","","","","html-keyboard-response","111","112723","0.0-6.0-1.11","5f917101b9db9f060223e507","6554bfa13ac4b6a0ab00b03a","6554bfdceab6317e403b4d73","null","
        
        <div style=""text-align: center; position: fixed; top: 5vh; left: 40vw;"">
            <div style=""margin:0 auto; width: 20vw; top: 8vh; font-size: 1vw""> 
            <font color=""green""> Bonus : $0.5 </font>
            </div>
        </div>
    
        <img class=""stim"" src=./stimuli//pack_shapes/cat_1/ex_1_31.png></img>
    ","null","stimulus","","","","",""
"","","","","","html-keyboard-response","112","113733","0.0-6.0-2.11","5f917101b9db9f060223e507","6554bfa13ac4b6a0ab00b03a","6554bfdceab6317e403b4d73","null","
        <div style=""text-align: center; position: fixed; top: 5vh; left: 40vw;"">
            <div style=""margin:0 auto; width: 20vw; top: 8vh; font-size: 1vw""> 
            <font color=""green""> Bonus : $0.5 </font>
            </div>
        </div>
    ","null","","","","","",""
"","","","","","html-keyboard-response","113","113952","0.0-6.0-3.11","5f917101b9db9f060223e507","6554bfa13ac4b6a0ab00b03a","6554bfdceab6317e403b4d73","219","./stimuli//pack_shapes/cat_1/ex_1_31.png","arrowleft","response","ArrowLeft","31","1","true",""
"","","","","","html-keyboard-response","114","115468","0.0-6.0-4.11","5f917101b9db9f060223e507","6554bfa13ac4b6a0ab00b03a","6554bfdceab6317e403b4d73","null","<p> <font color=""green"" size=""4vw""> Correct category! </font> <br> <br> <font color=""green"" size=""7vw""> + $0.05 </font> </p>","null","feedback","","","","","0.55"
"","","","","","html-keyboard-response","115","116156","0.0-6.0-0.12","5f917101b9db9f060223e507","6554bfa13ac4b6a0ab00b03a","6554bfdceab6317e403b4d73","688","
            
        <div style=""text-align: center; position: fixed; top: 5vh; left: 40vw;"">
            <div style=""margin:0 auto; width: 20vw; top: 8vh; font-size: 1vw""> 
            <font color=""green""> Bonus : $0.55 </font>
            </div>
        </div>
    
            <div> Please press any button to continue to the next trial.</div>
        ","enter","ITI","","","","",""
"","","","","","html-keyboard-response","116","116771","0.0-6.0-1.12","5f917101b9db9f060223e507","6554bfa13ac4b6a0ab00b03a","6554bfdceab6317e403b4d73","null","
        
        <div style=""text-align: center; position: fixed; top: 5vh; left: 40vw;"">
            <div style=""margin:0 auto; width: 20vw; top: 8vh; font-size: 1vw""> 
            <font color=""green""> Bonus : $0.55 </font>
            </div>
        </div>
    
        <img class=""stim"" src=./stimuli//pack_shapes/cat_1/ex_1_7.png></img>
    ","null","stimulus","","","","",""
"","","","","","html-keyboard-response","117","117777","0.0-6.0-2.12","5f917101b9db9f060223e507","6554bfa13ac4b6a0ab00b03a","6554bfdceab6317e403b4d73","null","
        <div style=""text-align: center; position: fixed; top: 5vh; left: 40vw;"">
            <div style=""margin:0 auto; width: 20vw; top: 8vh; font-size: 1vw""> 
            <font color=""green""> Bonus : $0.55 </font>
            </div>
        </div>
    ","null","","","","","",""
"","","","","","html-keyboard-response","118","117955","0.0-6.0-3.12","5f917101b9db9f060223e507","6554bfa13ac4b6a0ab00b03a","6554bfdceab6317e403b4d73","178","./stimuli//pack_shapes/cat_1/ex_1_7.png","arrowleft","response","ArrowLeft","7","1","true",""
"","","","","","html-keyboard-response","119","119471","0.0-6.0-4.12","5f917101b9db9f060223e507","6554bfa13ac4b6a0ab00b03a","6554bfdceab6317e403b4d73","null","<p> <font color=""green"" size=""4vw""> Correct category! </font> <br> <br> <font color=""green"" size=""7vw""> + $0.05 </font> </p>","null","feedback","","","","","0.6"
"","","","","","html-keyboard-response","120","119927","0.0-6.0-0.13","5f917101b9db9f060223e507","6554bfa13ac4b6a0ab00b03a","6554bfdceab6317e403b4d73","456","
            
        <div style=""text-align: center; position: fixed; top: 5vh; left: 40vw;"">
            <div style=""margin:0 auto; width: 20vw; top: 8vh; font-size: 1vw""> 
            <font color=""green""> Bonus : $0.6 </font>
            </div>
        </div>
    
            <div> Please press any button to continue to the next trial.</div>
        ","enter","ITI","","","","",""
"","","","","","html-keyboard-response","121","120541","0.0-6.0-1.13","5f917101b9db9f060223e507","6554bfa13ac4b6a0ab00b03a","6554bfdceab6317e403b4d73","null","
        
        <div style=""text-align: center; position: fixed; top: 5vh; left: 40vw;"">
            <div style=""margin:0 auto; width: 20vw; top: 8vh; font-size: 1vw""> 
            <font color=""green""> Bonus : $0.6 </font>
            </div>
        </div>
    
        <img class=""stim"" src=./stimuli//pack_shapes/cat_2/ex_2_51.png></img>
    ","null","stimulus","","","","",""
"","","","","","html-keyboard-response","122","121550","0.0-6.0-2.13","5f917101b9db9f060223e507","6554bfa13ac4b6a0ab00b03a","6554bfdceab6317e403b4d73","null","
        <div style=""text-align: center; position: fixed; top: 5vh; left: 40vw;"">
            <div style=""margin:0 auto; width: 20vw; top: 8vh; font-size: 1vw""> 
            <font color=""green""> Bonus : $0.6 </font>
            </div>
        </div>
    ","null","","","","","",""
"","","","","","html-keyboard-response","123","121765","0.0-6.0-3.13","5f917101b9db9f060223e507","6554bfa13ac4b6a0ab00b03a","6554bfdceab6317e403b4d73","215","./stimuli//pack_shapes/cat_2/ex_2_51.png","arrowright","response","ArrowRight","51","2","true",""
"","","","","","html-keyboard-response","124","123271","0.0-6.0-4.13","5f917101b9db9f060223e507","6554bfa13ac4b6a0ab00b03a","6554bfdceab6317e403b4d73","null","<p> <font color=""green"" size=""4vw""> Correct category! </font> <br> <br> <font color=""green"" size=""7vw""> + $0.05 </font> </p>","null","feedback","","","","","0.65"
"","","","","","html-keyboard-response","125","123692","0.0-6.0-0.14","5f917101b9db9f060223e507","6554bfa13ac4b6a0ab00b03a","6554bfdceab6317e403b4d73","421","
            
        <div style=""text-align: center; position: fixed; top: 5vh; left: 40vw;"">
            <div style=""margin:0 auto; width: 20vw; top: 8vh; font-size: 1vw""> 
            <font color=""green""> Bonus : $0.65 </font>
            </div>
        </div>
    
            <div> Please press any button to continue to the next trial.</div>
        ","enter","ITI","","","","",""
"","","","","","html-keyboard-response","126","124297","0.0-6.0-1.14","5f917101b9db9f060223e507","6554bfa13ac4b6a0ab00b03a","6554bfdceab6317e403b4d73","null","
        
        <div style=""text-align: center; position: fixed; top: 5vh; left: 40vw;"">
            <div style=""margin:0 auto; width: 20vw; top: 8vh; font-size: 1vw""> 
            <font color=""green""> Bonus : $0.65 </font>
            </div>
        </div>
    
        <img class=""stim"" src=./stimuli//pack_shapes/cat_2/ex_2_16.png></img>
    ","null","stimulus","","","","",""
"","","","","","html-keyboard-response","127","125308","0.0-6.0-2.14","5f917101b9db9f060223e507","6554bfa13ac4b6a0ab00b03a","6554bfdceab6317e403b4d73","null","
        <div style=""text-align: center; position: fixed; top: 5vh; left: 40vw;"">
            <div style=""margin:0 auto; width: 20vw; top: 8vh; font-size: 1vw""> 
            <font color=""green""> Bonus : $0.65 </font>
            </div>
        </div>
    ","null","","","","","",""
"","","","","","html-keyboard-response","128","125541","0.0-6.0-3.14","5f917101b9db9f060223e507","6554bfa13ac4b6a0ab00b03a","6554bfdceab6317e403b4d73","232","./stimuli//pack_shapes/cat_2/ex_2_16.png","arrowright","response","ArrowRight","16","2","true",""
"","","","","","html-keyboard-response","129","127045","0.0-6.0-4.14","5f917101b9db9f060223e507","6554bfa13ac4b6a0ab00b03a","6554bfdceab6317e403b4d73","null","<p> <font color=""green"" size=""4vw""> Correct category! </font> <br> <br> <font color=""green"" size=""7vw""> + $0.05 </font> </p>","null","feedback","","","","","0.7"
"","","","","","html-keyboard-response","130","127556","0.0-6.0-0.15","5f917101b9db9f060223e507","6554bfa13ac4b6a0ab00b03a","6554bfdceab6317e403b4d73","511","
            
        <div style=""text-align: center; position: fixed; top: 5vh; left: 40vw;"">
            <div style=""margin:0 auto; width: 20vw; top: 8vh; font-size: 1vw""> 
            <font color=""green""> Bonus : $0.7 </font>
            </div>
        </div>
    
            <div> Please press any button to continue to the next trial.</div>
        ","enter","ITI","","","","",""
"","","","","","html-keyboard-response","131","128156","0.0-6.0-1.15","5f917101b9db9f060223e507","6554bfa13ac4b6a0ab00b03a","6554bfdceab6317e403b4d73","null","
        
        <div style=""text-align: center; position: fixed; top: 5vh; left: 40vw;"">
            <div style=""margin:0 auto; width: 20vw; top: 8vh; font-size: 1vw""> 
            <font color=""green""> Bonus : $0.7 </font>
            </div>
        </div>
    
        <img class=""stim"" src=./stimuli//pack_shapes/cat_2/ex_2_59.png></img>
    ","null","stimulus","","","","",""
"","","","","","html-keyboard-response","132","129164","0.0-6.0-2.15","5f917101b9db9f060223e507","6554bfa13ac4b6a0ab00b03a","6554bfdceab6317e403b4d73","null","
        <div style=""text-align: center; position: fixed; top: 5vh; left: 40vw;"">
            <div style=""margin:0 auto; width: 20vw; top: 8vh; font-size: 1vw""> 
            <font color=""green""> Bonus : $0.7 </font>
            </div>
        </div>
    ","null","","","","","",""
"","","","","","html-keyboard-response","133","129352","0.0-6.0-3.15","5f917101b9db9f060223e507","6554bfa13ac4b6a0ab00b03a","6554bfdceab6317e403b4d73","187","./stimuli//pack_shapes/cat_2/ex_2_59.png","arrowright","response","ArrowRight","59","2","true",""
"","","","","","html-keyboard-response","134","130867","0.0-6.0-4.15","5f917101b9db9f060223e507","6554bfa13ac4b6a0ab00b03a","6554bfdceab6317e403b4d73","null","<p> <font color=""green"" size=""4vw""> Correct category! </font> <br> <br> <font color=""green"" size=""7vw""> + $0.05 </font> </p>","null","feedback","","","","","0.75"
"","","","","","html-keyboard-response","135","131331","0.0-6.0-0.16","5f917101b9db9f060223e507","6554bfa13ac4b6a0ab00b03a","6554bfdceab6317e403b4d73","464","
            
        <div style=""text-align: center; position: fixed; top: 5vh; left: 40vw;"">
            <div style=""margin:0 auto; width: 20vw; top: 8vh; font-size: 1vw""> 
            <font color=""green""> Bonus : $0.75 </font>
            </div>
        </div>
    
            <div> Please press any button to continue to the next trial.</div>
        ","enter","ITI","","","","",""
"","","","","","html-keyboard-response","136","131936","0.0-6.0-1.16","5f917101b9db9f060223e507","6554bfa13ac4b6a0ab00b03a","6554bfdceab6317e403b4d73","null","
        
        <div style=""text-align: center; position: fixed; top: 5vh; left: 40vw;"">
            <div style=""margin:0 auto; width: 20vw; top: 8vh; font-size: 1vw""> 
            <font color=""green""> Bonus : $0.75 </font>
            </div>
        </div>
    
        <img class=""stim"" src=./stimuli//pack_shapes/cat_2/ex_2_19.png></img>
    ","null","stimulus","","","","",""
"","","","","","html-keyboard-response","137","132942","0.0-6.0-2.16","5f917101b9db9f060223e507","6554bfa13ac4b6a0ab00b03a","6554bfdceab6317e403b4d73","null","
        <div style=""text-align: center; position: fixed; top: 5vh; left: 40vw;"">
            <div style=""margin:0 auto; width: 20vw; top: 8vh; font-size: 1vw""> 
            <font color=""green""> Bonus : $0.75 </font>
            </div>
        </div>
    ","null","","","","","",""
"","","","","","html-keyboard-response","138","133223","0.0-6.0-3.16","5f917101b9db9f060223e507","6554bfa13ac4b6a0ab00b03a","6554bfdceab6317e403b4d73","281","./stimuli//pack_shapes/cat_2/ex_2_19.png","arrowright","response","ArrowRight","19","2","true",""
"","","","","","html-keyboard-response","139","134729","0.0-6.0-4.16","5f917101b9db9f060223e507","6554bfa13ac4b6a0ab00b03a","6554bfdceab6317e403b4d73","null","<p> <font color=""green"" size=""4vw""> Correct category! </font> <br> <br> <font color=""green"" size=""7vw""> + $0.05 </font> </p>","null","feedback","","","","","0.8"
"","","","","","html-keyboard-response","140","135142","0.0-6.0-0.17","5f917101b9db9f060223e507","6554bfa13ac4b6a0ab00b03a","6554bfdceab6317e403b4d73","413","
            
        <div style=""text-align: center; position: fixed; top: 5vh; left: 40vw;"">
            <div style=""margin:0 auto; width: 20vw; top: 8vh; font-size: 1vw""> 
            <font color=""green""> Bonus : $0.8 </font>
            </div>
        </div>
    
            <div> Please press any button to continue to the next trial.</div>
        ","enter","ITI","","","","",""
"","","","","","html-keyboard-response","141","135756","0.0-6.0-1.17","5f917101b9db9f060223e507","6554bfa13ac4b6a0ab00b03a","6554bfdceab6317e403b4d73","null","
        
        <div style=""text-align: center; position: fixed; top: 5vh; left: 40vw;"">
            <div style=""margin:0 auto; width: 20vw; top: 8vh; font-size: 1vw""> 
            <font color=""green""> Bonus : $0.8 </font>
            </div>
        </div>
    
        <img class=""stim"" src=./stimuli//pack_shapes/cat_1/ex_1_72.png></img>
    ","null","stimulus","","","","",""
"","","","","","html-keyboard-response","142","136765","0.0-6.0-2.17","5f917101b9db9f060223e507","6554bfa13ac4b6a0ab00b03a","6554bfdceab6317e403b4d73","null","
        <div style=""text-align: center; position: fixed; top: 5vh; left: 40vw;"">
            <div style=""margin:0 auto; width: 20vw; top: 8vh; font-size: 1vw""> 
            <font color=""green""> Bonus : $0.8 </font>
            </div>
        </div>
    ","null","","","","","",""
"","","","","","html-keyboard-response","143","136990","0.0-6.0-3.17","5f917101b9db9f060223e507","6554bfa13ac4b6a0ab00b03a","6554bfdceab6317e403b4d73","225","./stimuli//pack_shapes/cat_1/ex_1_72.png","arrowleft","response","ArrowLeft","72","1","true",""
"","","","","","html-keyboard-response","144","138504","0.0-6.0-4.17","5f917101b9db9f060223e507","6554bfa13ac4b6a0ab00b03a","6554bfdceab6317e403b4d73","null","<p> <font color=""green"" size=""4vw""> Correct category! </font> <br> <br> <font color=""green"" size=""7vw""> + $0.05 </font> </p>","null","feedback","","","","","0.85"
"","","","","","html-keyboard-response","145","138971","0.0-6.0-0.18","5f917101b9db9f060223e507","6554bfa13ac4b6a0ab00b03a","6554bfdceab6317e403b4d73","467","
            
        <div style=""text-align: center; position: fixed; top: 5vh; left: 40vw;"">
            <div style=""margin:0 auto; width: 20vw; top: 8vh; font-size: 1vw""> 
            <font color=""green""> Bonus : $0.85 </font>
            </div>
        </div>
    
            <div> Please press any button to continue to the next trial.</div>
        ","enter","ITI","","","","",""
"","","","","","html-keyboard-response","146","139575","0.0-6.0-1.18","5f917101b9db9f060223e507","6554bfa13ac4b6a0ab00b03a","6554bfdceab6317e403b4d73","null","
        
        <div style=""text-align: center; position: fixed; top: 5vh; left: 40vw;"">
            <div style=""margin:0 auto; width: 20vw; top: 8vh; font-size: 1vw""> 
            <font color=""green""> Bonus : $0.85 </font>
            </div>
        </div>
    
        <img class=""stim"" src=./stimuli//pack_shapes/cat_2/ex_2_67.png></img>
    ","null","stimulus","","","","",""
"","","","","","html-keyboard-response","147","140584","0.0-6.0-2.18","5f917101b9db9f060223e507","6554bfa13ac4b6a0ab00b03a","6554bfdceab6317e403b4d73","null","
        <div style=""text-align: center; position: fixed; top: 5vh; left: 40vw;"">
            <div style=""margin:0 auto; width: 20vw; top: 8vh; font-size: 1vw""> 
            <font color=""green""> Bonus : $0.85 </font>
            </div>
        </div>
    ","null","","","","","",""
"","","","","","html-keyboard-response","148","140842","0.0-6.0-3.18","5f917101b9db9f060223e507","6554bfa13ac4b6a0ab00b03a","6554bfdceab6317e403b4d73","258","./stimuli//pack_shapes/cat_2/ex_2_67.png","arrowleft","response","ArrowRight","67","2","false",""
"","","","","","html-keyboard-response","149","142353","0.0-6.0-4.18","5f917101b9db9f060223e507","6554bfa13ac4b6a0ab00b03a","6554bfdceab6317e403b4d73","null","<p> <font color=""red"" size=""4vw""> Wrong category! </font> </p>","null","feedback","","","","","0.85"
"","","","","","html-keyboard-response","150","142702","0.0-6.0-0.19","5f917101b9db9f060223e507","6554bfa13ac4b6a0ab00b03a","6554bfdceab6317e403b4d73","349","
            
        <div style=""text-align: center; position: fixed; top: 5vh; left: 40vw;"">
            <div style=""margin:0 auto; width: 20vw; top: 8vh; font-size: 1vw""> 
            <font color=""green""> Bonus : $0.85 </font>
            </div>
        </div>
    
            <div> Please press any button to continue to the next trial.</div>
        ","enter","ITI","","","","",""
"","","","","","html-keyboard-response","151","143317","0.0-6.0-1.19","5f917101b9db9f060223e507","6554bfa13ac4b6a0ab00b03a","6554bfdceab6317e403b4d73","null","
        
        <div style=""text-align: center; position: fixed; top: 5vh; left: 40vw;"">
            <div style=""margin:0 auto; width: 20vw; top: 8vh; font-size: 1vw""> 
            <font color=""green""> Bonus : $0.85 </font>
            </div>
        </div>
    
        <img class=""stim"" src=./stimuli//pack_shapes/cat_1/ex_1_47.png></img>
    ","null","stimulus","","","","",""
"","","","","","html-keyboard-response","152","144328","0.0-6.0-2.19","5f917101b9db9f060223e507","6554bfa13ac4b6a0ab00b03a","6554bfdceab6317e403b4d73","null","
        <div style=""text-align: center; position: fixed; top: 5vh; left: 40vw;"">
            <div style=""margin:0 auto; width: 20vw; top: 8vh; font-size: 1vw""> 
            <font color=""green""> Bonus : $0.85 </font>
            </div>
        </div>
    ","null","","","","","",""
"","","","","","html-keyboard-response","153","144520","0.0-6.0-3.19","5f917101b9db9f060223e507","6554bfa13ac4b6a0ab00b03a","6554bfdceab6317e403b4d73","192","./stimuli//pack_shapes/cat_1/ex_1_47.png","arrowleft","response","ArrowLeft","47","1","true",""
"","","","","","html-keyboard-response","154","146033","0.0-6.0-4.19","5f917101b9db9f060223e507","6554bfa13ac4b6a0ab00b03a","6554bfdceab6317e403b4d73","null","<p> <font color=""green"" size=""4vw""> Correct category! </font> <br> <br> <font color=""green"" size=""7vw""> + $0.05 </font> </p>","null","feedback","","","","","0.9"
"","","","","","html-keyboard-response","155","146462","0.0-6.0-0.20","5f917101b9db9f060223e507","6554bfa13ac4b6a0ab00b03a","6554bfdceab6317e403b4d73","429","
            
        <div style=""text-align: center; position: fixed; top: 5vh; left: 40vw;"">
            <div style=""margin:0 auto; width: 20vw; top: 8vh; font-size: 1vw""> 
            <font color=""green""> Bonus : $0.9 </font>
            </div>
        </div>
    
            <div> Please press any button to continue to the next trial.</div>
        ","enter","ITI","","","","",""
"","","","","","html-keyboard-response","156","147070","0.0-6.0-1.20","5f917101b9db9f060223e507","6554bfa13ac4b6a0ab00b03a","6554bfdceab6317e403b4d73","null","
        
        <div style=""text-align: center; position: fixed; top: 5vh; left: 40vw;"">
            <div style=""margin:0 auto; width: 20vw; top: 8vh; font-size: 1vw""> 
            <font color=""green""> Bonus : $0.9 </font>
            </div>
        </div>
    
        <img class=""stim"" src=./stimuli//pack_shapes/cat_1/ex_1_68.png></img>
    ","null","stimulus","","","","",""
"","","","","","html-keyboard-response","157","148076","0.0-6.0-2.20","5f917101b9db9f060223e507","6554bfa13ac4b6a0ab00b03a","6554bfdceab6317e403b4d73","null","
        <div style=""text-align: center; position: fixed; top: 5vh; left: 40vw;"">
            <div style=""margin:0 auto; width: 20vw; top: 8vh; font-size: 1vw""> 
            <font color=""green""> Bonus : $0.9 </font>
            </div>
        </div>
    ","null","","","","","",""
"","","","","","html-keyboard-response","158","148250","0.0-6.0-3.20","5f917101b9db9f060223e507","6554bfa13ac4b6a0ab00b03a","6554bfdceab6317e403b4d73","173","./stimuli//pack_shapes/cat_1/ex_1_68.png","arrowleft","response","ArrowLeft","68","1","true",""
"","","","","","html-keyboard-response","159","149753","0.0-6.0-4.20","5f917101b9db9f060223e507","6554bfa13ac4b6a0ab00b03a","6554bfdceab6317e403b4d73","null","<p> <font color=""green"" size=""4vw""> Correct category! </font> <br> <br> <font color=""green"" size=""7vw""> + $0.05 </font> </p>","null","feedback","","","","","0.95"
"","","","","","html-keyboard-response","160","150464","0.0-6.0-0.21","5f917101b9db9f060223e507","6554bfa13ac4b6a0ab00b03a","6554bfdceab6317e403b4d73","711","
            
        <div style=""text-align: center; position: fixed; top: 5vh; left: 40vw;"">
            <div style=""margin:0 auto; width: 20vw; top: 8vh; font-size: 1vw""> 
            <font color=""green""> Bonus : $0.95 </font>
            </div>
        </div>
    
            <div> Please press any button to continue to the next trial.</div>
        ","enter","ITI","","","","",""
"","","","","","html-keyboard-response","161","151072","0.0-6.0-1.21","5f917101b9db9f060223e507","6554bfa13ac4b6a0ab00b03a","6554bfdceab6317e403b4d73","null","
        
        <div style=""text-align: center; position: fixed; top: 5vh; left: 40vw;"">
            <div style=""margin:0 auto; width: 20vw; top: 8vh; font-size: 1vw""> 
            <font color=""green""> Bonus : $0.95 </font>
            </div>
        </div>
    
        <img class=""stim"" src=./stimuli//pack_shapes/cat_2/ex_2_11.png></img>
    ","null","stimulus","","","","",""
"","","","","","html-keyboard-response","162","152081","0.0-6.0-2.21","5f917101b9db9f060223e507","6554bfa13ac4b6a0ab00b03a","6554bfdceab6317e403b4d73","null","
        <div style=""text-align: center; position: fixed; top: 5vh; left: 40vw;"">
            <div style=""margin:0 auto; width: 20vw; top: 8vh; font-size: 1vw""> 
            <font color=""green""> Bonus : $0.95 </font>
            </div>
        </div>
    ","null","","","","","",""
"","","","","","html-keyboard-response","163","152292","0.0-6.0-3.21","5f917101b9db9f060223e507","6554bfa13ac4b6a0ab00b03a","6554bfdceab6317e403b4d73","210","./stimuli//pack_shapes/cat_2/ex_2_11.png","arrowright","response","ArrowRight","11","2","true",""
"","","","","","html-keyboard-response","164","153803","0.0-6.0-4.21","5f917101b9db9f060223e507","6554bfa13ac4b6a0ab00b03a","6554bfdceab6317e403b4d73","null","<p> <font color=""green"" size=""4vw""> Correct category! </font> <br> <br> <font color=""green"" size=""7vw""> + $0.05 </font> </p>","null","feedback","","","","","1"
"","","","","","html-keyboard-response","165","154457","0.0-6.0-0.22","5f917101b9db9f060223e507","6554bfa13ac4b6a0ab00b03a","6554bfdceab6317e403b4d73","654","
            
        <div style=""text-align: center; position: fixed; top: 5vh; left: 40vw;"">
            <div style=""margin:0 auto; width: 20vw; top: 8vh; font-size: 1vw""> 
            <font color=""green""> Bonus : $1 </font>
            </div>
        </div>
    
            <div> Please press any button to continue to the next trial.</div>
        ","enter","ITI","","","","",""
"","","","","","html-keyboard-response","166","155064","0.0-6.0-1.22","5f917101b9db9f060223e507","6554bfa13ac4b6a0ab00b03a","6554bfdceab6317e403b4d73","null","
        
        <div style=""text-align: center; position: fixed; top: 5vh; left: 40vw;"">
            <div style=""margin:0 auto; width: 20vw; top: 8vh; font-size: 1vw""> 
            <font color=""green""> Bonus : $1 </font>
            </div>
        </div>
    
        <img class=""stim"" src=./stimuli//pack_shapes/cat_2/ex_2_81.png></img>
    ","null","stimulus","","","","",""
"","","","","","html-keyboard-response","167","156071","0.0-6.0-2.22","5f917101b9db9f060223e507","6554bfa13ac4b6a0ab00b03a","6554bfdceab6317e403b4d73","null","
        <div style=""text-align: center; position: fixed; top: 5vh; left: 40vw;"">
            <div style=""margin:0 auto; width: 20vw; top: 8vh; font-size: 1vw""> 
            <font color=""green""> Bonus : $1 </font>
            </div>
        </div>
    ","null","","","","","",""
"","","","","","html-keyboard-response","168","156254","0.0-6.0-3.22","5f917101b9db9f060223e507","6554bfa13ac4b6a0ab00b03a","6554bfdceab6317e403b4d73","183","./stimuli//pack_shapes/cat_2/ex_2_81.png","arrowright","response","ArrowRight","81","2","true",""
"","","","","","html-keyboard-response","169","157765","0.0-6.0-4.22","5f917101b9db9f060223e507","6554bfa13ac4b6a0ab00b03a","6554bfdceab6317e403b4d73","null","<p> <font color=""green"" size=""4vw""> Correct category! </font> <br> <br> <font color=""green"" size=""7vw""> + $0.05 </font> </p>","null","feedback","","","","","1.05"
"","","","","","html-keyboard-response","170","158117","0.0-6.0-0.23","5f917101b9db9f060223e507","6554bfa13ac4b6a0ab00b03a","6554bfdceab6317e403b4d73","352","
            
        <div style=""text-align: center; position: fixed; top: 5vh; left: 40vw;"">
            <div style=""margin:0 auto; width: 20vw; top: 8vh; font-size: 1vw""> 
            <font color=""green""> Bonus : $1.05 </font>
            </div>
        </div>
    
            <div> Please press any button to continue to the next trial.</div>
        ","enter","ITI","","","","",""
"","","","","","html-keyboard-response","171","158723","0.0-6.0-1.23","5f917101b9db9f060223e507","6554bfa13ac4b6a0ab00b03a","6554bfdceab6317e403b4d73","null","
        
        <div style=""text-align: center; position: fixed; top: 5vh; left: 40vw;"">
            <div style=""margin:0 auto; width: 20vw; top: 8vh; font-size: 1vw""> 
            <font color=""green""> Bonus : $1.05 </font>
            </div>
        </div>
    
        <img class=""stim"" src=./stimuli//pack_shapes/cat_1/ex_1_34.png></img>
    ","null","stimulus","","","","",""
"","","","","","html-keyboard-response","172","159734","0.0-6.0-2.23","5f917101b9db9f060223e507","6554bfa13ac4b6a0ab00b03a","6554bfdceab6317e403b4d73","null","
        <div style=""text-align: center; position: fixed; top: 5vh; left: 40vw;"">
            <div style=""margin:0 auto; width: 20vw; top: 8vh; font-size: 1vw""> 
            <font color=""green""> Bonus : $1.05 </font>
            </div>
        </div>
    ","null","","","","","",""
"","","","","","html-keyboard-response","173","159890","0.0-6.0-3.23","5f917101b9db9f060223e507","6554bfa13ac4b6a0ab00b03a","6554bfdceab6317e403b4d73","155","./stimuli//pack_shapes/cat_1/ex_1_34.png","arrowleft","response","ArrowLeft","34","1","true",""
"","","","","","html-keyboard-response","174","161396","0.0-6.0-4.23","5f917101b9db9f060223e507","6554bfa13ac4b6a0ab00b03a","6554bfdceab6317e403b4d73","null","<p> <font color=""green"" size=""4vw""> Correct category! </font> <br> <br> <font color=""green"" size=""7vw""> + $0.05 </font> </p>","null","feedback","","","","","1.1"
"","","","","","html-keyboard-response","175","161873","0.0-6.0-0.24","5f917101b9db9f060223e507","6554bfa13ac4b6a0ab00b03a","6554bfdceab6317e403b4d73","477","
            
        <div style=""text-align: center; position: fixed; top: 5vh; left: 40vw;"">
            <div style=""margin:0 auto; width: 20vw; top: 8vh; font-size: 1vw""> 
            <font color=""green""> Bonus : $1.1 </font>
            </div>
        </div>
    
            <div> Please press any button to continue to the next trial.</div>
        ","enter","ITI","","","","",""
"","","","","","html-keyboard-response","176","162484","0.0-6.0-1.24","5f917101b9db9f060223e507","6554bfa13ac4b6a0ab00b03a","6554bfdceab6317e403b4d73","null","
        
        <div style=""text-align: center; position: fixed; top: 5vh; left: 40vw;"">
            <div style=""margin:0 auto; width: 20vw; top: 8vh; font-size: 1vw""> 
            <font color=""green""> Bonus : $1.1 </font>
            </div>
        </div>
    
        <img class=""stim"" src=./stimuli//pack_shapes/cat_1/ex_1_9.png></img>
    ","null","stimulus","","","","",""
"","","","","","html-keyboard-response","177","163493","0.0-6.0-2.24","5f917101b9db9f060223e507","6554bfa13ac4b6a0ab00b03a","6554bfdceab6317e403b4d73","null","
        <div style=""text-align: center; position: fixed; top: 5vh; left: 40vw;"">
            <div style=""margin:0 auto; width: 20vw; top: 8vh; font-size: 1vw""> 
            <font color=""green""> Bonus : $1.1 </font>
            </div>
        </div>
    ","null","","","","","",""
"","","","","","html-keyboard-response","178","163801","0.0-6.0-3.24","5f917101b9db9f060223e507","6554bfa13ac4b6a0ab00b03a","6554bfdceab6317e403b4d73","308","./stimuli//pack_shapes/cat_1/ex_1_9.png","arrowleft","response","ArrowLeft","9","1","true",""
"","","","","","html-keyboard-response","179","165308","0.0-6.0-4.24","5f917101b9db9f060223e507","6554bfa13ac4b6a0ab00b03a","6554bfdceab6317e403b4d73","null","<p> <font color=""green"" size=""4vw""> Correct category! </font> <br> <br> <font color=""green"" size=""7vw""> + $0.05 </font> </p>","null","feedback","","","","","1.15"
"","","","","","html-keyboard-response","180","166057","0.0-6.0-0.25","5f917101b9db9f060223e507","6554bfa13ac4b6a0ab00b03a","6554bfdceab6317e403b4d73","749","
            
        <div style=""text-align: center; position: fixed; top: 5vh; left: 40vw;"">
            <div style=""margin:0 auto; width: 20vw; top: 8vh; font-size: 1vw""> 
            <font color=""green""> Bonus : $1.15 </font>
            </div>
        </div>
    
            <div> Please press any button to continue to the next trial.</div>
        ","enter","ITI","","","","",""
"","","","","","html-keyboard-response","181","166660","0.0-6.0-1.25","5f917101b9db9f060223e507","6554bfa13ac4b6a0ab00b03a","6554bfdceab6317e403b4d73","null","
        
        <div style=""text-align: center; position: fixed; top: 5vh; left: 40vw;"">
            <div style=""margin:0 auto; width: 20vw; top: 8vh; font-size: 1vw""> 
            <font color=""green""> Bonus : $1.15 </font>
            </div>
        </div>
    
        <img class=""stim"" src=./stimuli//pack_shapes/cat_1/ex_1_21.png></img>
    ","null","stimulus","","","","",""
"","","","","","html-keyboard-response","182","167671","0.0-6.0-2.25","5f917101b9db9f060223e507","6554bfa13ac4b6a0ab00b03a","6554bfdceab6317e403b4d73","null","
        <div style=""text-align: center; position: fixed; top: 5vh; left: 40vw;"">
            <div style=""margin:0 auto; width: 20vw; top: 8vh; font-size: 1vw""> 
            <font color=""green""> Bonus : $1.15 </font>
            </div>
        </div>
    ","null","","","","","",""
"","","","","","html-keyboard-response","183","167927","0.0-6.0-3.25","5f917101b9db9f060223e507","6554bfa13ac4b6a0ab00b03a","6554bfdceab6317e403b4d73","255","./stimuli//pack_shapes/cat_1/ex_1_21.png","arrowleft","response","ArrowLeft","21","1","true",""
"","","","","","html-keyboard-response","184","169441","0.0-6.0-4.25","5f917101b9db9f060223e507","6554bfa13ac4b6a0ab00b03a","6554bfdceab6317e403b4d73","null","<p> <font color=""green"" size=""4vw""> Correct category! </font> <br> <br> <font color=""green"" size=""7vw""> + $0.05 </font> </p>","null","feedback","","","","","1.2"
"","","","","","html-keyboard-response","185","170172","0.0-6.0-0.26","5f917101b9db9f060223e507","6554bfa13ac4b6a0ab00b03a","6554bfdceab6317e403b4d73","731","
            
        <div style=""text-align: center; position: fixed; top: 5vh; left: 40vw;"">
            <div style=""margin:0 auto; width: 20vw; top: 8vh; font-size: 1vw""> 
            <font color=""green""> Bonus : $1.2 </font>
            </div>
        </div>
    
            <div> Please press any button to continue to the next trial.</div>
        ","enter","ITI","","","","",""
"","","","","","html-keyboard-response","186","170781","0.0-6.0-1.26","5f917101b9db9f060223e507","6554bfa13ac4b6a0ab00b03a","6554bfdceab6317e403b4d73","null","
        
        <div style=""text-align: center; position: fixed; top: 5vh; left: 40vw;"">
            <div style=""margin:0 auto; width: 20vw; top: 8vh; font-size: 1vw""> 
            <font color=""green""> Bonus : $1.2 </font>
            </div>
        </div>
    
        <img class=""stim"" src=./stimuli//pack_shapes/cat_2/ex_2_17.png></img>
    ","null","stimulus","","","","",""
"","","","","","html-keyboard-response","187","171789","0.0-6.0-2.26","5f917101b9db9f060223e507","6554bfa13ac4b6a0ab00b03a","6554bfdceab6317e403b4d73","null","
        <div style=""text-align: center; position: fixed; top: 5vh; left: 40vw;"">
            <div style=""margin:0 auto; width: 20vw; top: 8vh; font-size: 1vw""> 
            <font color=""green""> Bonus : $1.2 </font>
            </div>
        </div>
    ","null","","","","","",""
"","","","","","html-keyboard-response","188","172017","0.0-6.0-3.26","5f917101b9db9f060223e507","6554bfa13ac4b6a0ab00b03a","6554bfdceab6317e403b4d73","227","./stimuli//pack_shapes/cat_2/ex_2_17.png","arrowright","response","ArrowRight","17","2","true",""
"","","","","","html-keyboard-response","189","173523","0.0-6.0-4.26","5f917101b9db9f060223e507","6554bfa13ac4b6a0ab00b03a","6554bfdceab6317e403b4d73","null","<p> <font color=""green"" size=""4vw""> Correct category! </font> <br> <br> <font color=""green"" size=""7vw""> + $0.05 </font> </p>","null","feedback","","","","","1.25"
"","","","","","html-keyboard-response","190","173992","0.0-6.0-0.27","5f917101b9db9f060223e507","6554bfa13ac4b6a0ab00b03a","6554bfdceab6317e403b4d73","468","
            
        <div style=""text-align: center; position: fixed; top: 5vh; left: 40vw;"">
            <div style=""margin:0 auto; width: 20vw; top: 8vh; font-size: 1vw""> 
            <font color=""green""> Bonus : $1.25 </font>
            </div>
        </div>
    
            <div> Please press any button to continue to the next trial.</div>
        ","enter","ITI","","","","",""
"","","","","","html-keyboard-response","191","174594","0.0-6.0-1.27","5f917101b9db9f060223e507","6554bfa13ac4b6a0ab00b03a","6554bfdceab6317e403b4d73","null","
        
        <div style=""text-align: center; position: fixed; top: 5vh; left: 40vw;"">
            <div style=""margin:0 auto; width: 20vw; top: 8vh; font-size: 1vw""> 
            <font color=""green""> Bonus : $1.25 </font>
            </div>
        </div>
    
        <img class=""stim"" src=./stimuli//pack_shapes/cat_2/ex_2_55.png></img>
    ","null","stimulus","","","","",""
"","","","","","html-keyboard-response","192","175604","0.0-6.0-2.27","5f917101b9db9f060223e507","6554bfa13ac4b6a0ab00b03a","6554bfdceab6317e403b4d73","null","
        <div style=""text-align: center; position: fixed; top: 5vh; left: 40vw;"">
            <div style=""margin:0 auto; width: 20vw; top: 8vh; font-size: 1vw""> 
            <font color=""green""> Bonus : $1.25 </font>
            </div>
        </div>
    ","null","","","","","",""
"","","","","","html-keyboard-response","193","176483","0.0-6.0-3.27","5f917101b9db9f060223e507","6554bfa13ac4b6a0ab00b03a","6554bfdceab6317e403b4d73","879","./stimuli//pack_shapes/cat_2/ex_2_55.png","arrowright","response","ArrowRight","55","2","true",""
"","","","","","html-keyboard-response","194","177996","0.0-6.0-4.27","5f917101b9db9f060223e507","6554bfa13ac4b6a0ab00b03a","6554bfdceab6317e403b4d73","null","<p> <font color=""green"" size=""4vw""> Correct category! </font> <br> <br> <font color=""green"" size=""7vw""> + $0.05 </font> </p>","null","feedback","","","","","1.3"
"","","","","","html-keyboard-response","195","179328","0.0-6.0-0.28","5f917101b9db9f060223e507","6554bfa13ac4b6a0ab00b03a","6554bfdceab6317e403b4d73","1332","
            
        <div style=""text-align: center; position: fixed; top: 5vh; left: 40vw;"">
            <div style=""margin:0 auto; width: 20vw; top: 8vh; font-size: 1vw""> 
            <font color=""green""> Bonus : $1.3 </font>
            </div>
        </div>
    
            <div> Please press any button to continue to the next trial.</div>
        "," ","ITI","","","","",""
"","","","","","html-keyboard-response","196","179937","0.0-6.0-1.28","5f917101b9db9f060223e507","6554bfa13ac4b6a0ab00b03a","6554bfdceab6317e403b4d73","null","
        
        <div style=""text-align: center; position: fixed; top: 5vh; left: 40vw;"">
            <div style=""margin:0 auto; width: 20vw; top: 8vh; font-size: 1vw""> 
            <font color=""green""> Bonus : $1.3 </font>
            </div>
        </div>
    
        <img class=""stim"" src=./stimuli//pack_shapes/cat_2/ex_2_37.png></img>
    ","null","stimulus","","","","",""
"","","","","","html-keyboard-response","197","180947","0.0-6.0-2.28","5f917101b9db9f060223e507","6554bfa13ac4b6a0ab00b03a","6554bfdceab6317e403b4d73","null","
        <div style=""text-align: center; position: fixed; top: 5vh; left: 40vw;"">
            <div style=""margin:0 auto; width: 20vw; top: 8vh; font-size: 1vw""> 
            <font color=""green""> Bonus : $1.3 </font>
            </div>
        </div>
    ","null","","","","","",""
"","","","","","html-keyboard-response","198","181116","0.0-6.0-3.28","5f917101b9db9f060223e507","6554bfa13ac4b6a0ab00b03a","6554bfdceab6317e403b4d73","168","./stimuli//pack_shapes/cat_2/ex_2_37.png","arrowright","response","ArrowRight","37","2","true",""
"","","","","","html-keyboard-response","199","182628","0.0-6.0-4.28","5f917101b9db9f060223e507","6554bfa13ac4b6a0ab00b03a","6554bfdceab6317e403b4d73","null","<p> <font color=""green"" size=""4vw""> Correct category! </font> <br> <br> <font color=""green"" size=""7vw""> + $0.05 </font> </p>","null","feedback","","","","","1.35"
"","","","","","html-keyboard-response","200","182983","0.0-6.0-0.29","5f917101b9db9f060223e507","6554bfa13ac4b6a0ab00b03a","6554bfdceab6317e403b4d73","354","
            
        <div style=""text-align: center; position: fixed; top: 5vh; left: 40vw;"">
            <div style=""margin:0 auto; width: 20vw; top: 8vh; font-size: 1vw""> 
            <font color=""green""> Bonus : $1.35 </font>
            </div>
        </div>
    
            <div> Please press any button to continue to the next trial.</div>
        "," ","ITI","","","","",""
"","","","","","html-keyboard-response","201","183593","0.0-6.0-1.29","5f917101b9db9f060223e507","6554bfa13ac4b6a0ab00b03a","6554bfdceab6317e403b4d73","null","
        
        <div style=""text-align: center; position: fixed; top: 5vh; left: 40vw;"">
            <div style=""margin:0 auto; width: 20vw; top: 8vh; font-size: 1vw""> 
            <font color=""green""> Bonus : $1.35 </font>
            </div>
        </div>
    
        <img class=""stim"" src=./stimuli//pack_shapes/cat_1/ex_1_1.png></img>
    ","null","stimulus","","","","",""
"","","","","","html-keyboard-response","202","184600","0.0-6.0-2.29","5f917101b9db9f060223e507","6554bfa13ac4b6a0ab00b03a","6554bfdceab6317e403b4d73","null","
        <div style=""text-align: center; position: fixed; top: 5vh; left: 40vw;"">
            <div style=""margin:0 auto; width: 20vw; top: 8vh; font-size: 1vw""> 
            <font color=""green""> Bonus : $1.35 </font>
            </div>
        </div>
    ","null","","","","","",""
"","","","","","html-keyboard-response","203","184818","0.0-6.0-3.29","5f917101b9db9f060223e507","6554bfa13ac4b6a0ab00b03a","6554bfdceab6317e403b4d73","218","./stimuli//pack_shapes/cat_1/ex_1_1.png","arrowleft","response","ArrowLeft","1","1","true",""
"","","","","","html-keyboard-response","204","186321","0.0-6.0-4.29","5f917101b9db9f060223e507","6554bfa13ac4b6a0ab00b03a","6554bfdceab6317e403b4d73","null","<p> <font color=""green"" size=""4vw""> Correct category! </font> <br> <br> <font color=""green"" size=""7vw""> + $0.05 </font> </p>","null","feedback","","","","","1.4"
"","","","","","html-keyboard-response","205","186698","0.0-6.0-0.30","5f917101b9db9f060223e507","6554bfa13ac4b6a0ab00b03a","6554bfdceab6317e403b4d73","376","
            
        <div style=""text-align: center; position: fixed; top: 5vh; left: 40vw;"">
            <div style=""margin:0 auto; width: 20vw; top: 8vh; font-size: 1vw""> 
            <font color=""green""> Bonus : $1.4 </font>
            </div>
        </div>
    
            <div> Please press any button to continue to the next trial.</div>
        "," ","ITI","","","","",""
"","","","","","html-keyboard-response","206","187313","0.0-6.0-1.30","5f917101b9db9f060223e507","6554bfa13ac4b6a0ab00b03a","6554bfdceab6317e403b4d73","null","
        
        <div style=""text-align: center; position: fixed; top: 5vh; left: 40vw;"">
            <div style=""margin:0 auto; width: 20vw; top: 8vh; font-size: 1vw""> 
            <font color=""green""> Bonus : $1.4 </font>
            </div>
        </div>
    
        <img class=""stim"" src=./stimuli//pack_shapes/cat_2/ex_2_23.png></img>
    ","null","stimulus","","","","",""
"","","","","","html-keyboard-response","207","188322","0.0-6.0-2.30","5f917101b9db9f060223e507","6554bfa13ac4b6a0ab00b03a","6554bfdceab6317e403b4d73","null","
        <div style=""text-align: center; position: fixed; top: 5vh; left: 40vw;"">
            <div style=""margin:0 auto; width: 20vw; top: 8vh; font-size: 1vw""> 
            <font color=""green""> Bonus : $1.4 </font>
            </div>
        </div>
    ","null","","","","","",""
"","","","","","html-keyboard-response","208","188552","0.0-6.0-3.30","5f917101b9db9f060223e507","6554bfa13ac4b6a0ab00b03a","6554bfdceab6317e403b4d73","230","./stimuli//pack_shapes/cat_2/ex_2_23.png","arrowright","response","ArrowRight","23","2","true",""
"","","","","","html-keyboard-response","209","190060","0.0-6.0-4.30","5f917101b9db9f060223e507","6554bfa13ac4b6a0ab00b03a","6554bfdceab6317e403b4d73","null","<p> <font color=""green"" size=""4vw""> Correct category! </font> <br> <br> <font color=""green"" size=""7vw""> + $0.05 </font> </p>","null","feedback","","","","","1.45"
"","","","","","html-keyboard-response","210","190519","0.0-6.0-0.31","5f917101b9db9f060223e507","6554bfa13ac4b6a0ab00b03a","6554bfdceab6317e403b4d73","459","
            
        <div style=""text-align: center; position: fixed; top: 5vh; left: 40vw;"">
            <div style=""margin:0 auto; width: 20vw; top: 8vh; font-size: 1vw""> 
            <font color=""green""> Bonus : $1.45 </font>
            </div>
        </div>
    
            <div> Please press any button to continue to the next trial.</div>
        "," ","ITI","","","","",""
"","","","","","html-keyboard-response","211","191132","0.0-6.0-1.31","5f917101b9db9f060223e507","6554bfa13ac4b6a0ab00b03a","6554bfdceab6317e403b4d73","null","
        
        <div style=""text-align: center; position: fixed; top: 5vh; left: 40vw;"">
            <div style=""margin:0 auto; width: 20vw; top: 8vh; font-size: 1vw""> 
            <font color=""green""> Bonus : $1.45 </font>
            </div>
        </div>
    
        <img class=""stim"" src=./stimuli//pack_shapes/cat_2/ex_2_73.png></img>
    ","null","stimulus","","","","",""
"","","","","","html-keyboard-response","212","192139","0.0-6.0-2.31","5f917101b9db9f060223e507","6554bfa13ac4b6a0ab00b03a","6554bfdceab6317e403b4d73","null","
        <div style=""text-align: center; position: fixed; top: 5vh; left: 40vw;"">
            <div style=""margin:0 auto; width: 20vw; top: 8vh; font-size: 1vw""> 
            <font color=""green""> Bonus : $1.45 </font>
            </div>
        </div>
    ","null","","","","","",""
"","","","","","html-keyboard-response","213","192312","0.0-6.0-3.31","5f917101b9db9f060223e507","6554bfa13ac4b6a0ab00b03a","6554bfdceab6317e403b4d73","173","./stimuli//pack_shapes/cat_2/ex_2_73.png","arrowright","response","ArrowRight","73","2","true",""
"","","","","","html-keyboard-response","214","193828","0.0-6.0-4.31","5f917101b9db9f060223e507","6554bfa13ac4b6a0ab00b03a","6554bfdceab6317e403b4d73","null","<p> <font color=""green"" size=""4vw""> Correct category! </font> <br> <br> <font color=""green"" size=""7vw""> + $0.05 </font> </p>","null","feedback","","","","","1.5"
"","","","","","html-keyboard-response","215","194190","0.0-6.0-0.32","5f917101b9db9f060223e507","6554bfa13ac4b6a0ab00b03a","6554bfdceab6317e403b4d73","362","
            
        <div style=""text-align: center; position: fixed; top: 5vh; left: 40vw;"">
            <div style=""margin:0 auto; width: 20vw; top: 8vh; font-size: 1vw""> 
            <font color=""green""> Bonus : $1.5 </font>
            </div>
        </div>
    
            <div> Please press any button to continue to the next trial.</div>
        "," ","ITI","","","","",""
"","","","","","html-keyboard-response","216","194791","0.0-6.0-1.32","5f917101b9db9f060223e507","6554bfa13ac4b6a0ab00b03a","6554bfdceab6317e403b4d73","null","
        
        <div style=""text-align: center; position: fixed; top: 5vh; left: 40vw;"">
            <div style=""margin:0 auto; width: 20vw; top: 8vh; font-size: 1vw""> 
            <font color=""green""> Bonus : $1.5 </font>
            </div>
        </div>
    
        <img class=""stim"" src=./stimuli//pack_shapes/cat_1/ex_1_64.png></img>
    ","null","stimulus","","","","",""
"","","","","","html-keyboard-response","217","195801","0.0-6.0-2.32","5f917101b9db9f060223e507","6554bfa13ac4b6a0ab00b03a","6554bfdceab6317e403b4d73","null","
        <div style=""text-align: center; position: fixed; top: 5vh; left: 40vw;"">
            <div style=""margin:0 auto; width: 20vw; top: 8vh; font-size: 1vw""> 
            <font color=""green""> Bonus : $1.5 </font>
            </div>
        </div>
    ","null","","","","","",""
"","","","","","html-keyboard-response","218","195998","0.0-6.0-3.32","5f917101b9db9f060223e507","6554bfa13ac4b6a0ab00b03a","6554bfdceab6317e403b4d73","196","./stimuli//pack_shapes/cat_1/ex_1_64.png","arrowleft","response","ArrowLeft","64","1","true",""
"","","","","","html-keyboard-response","219","197503","0.0-6.0-4.32","5f917101b9db9f060223e507","6554bfa13ac4b6a0ab00b03a","6554bfdceab6317e403b4d73","null","<p> <font color=""green"" size=""4vw""> Correct category! </font> <br> <br> <font color=""green"" size=""7vw""> + $0.05 </font> </p>","null","feedback","","","","","1.55"
"","","","","","html-keyboard-response","220","197907","0.0-6.0-0.33","5f917101b9db9f060223e507","6554bfa13ac4b6a0ab00b03a","6554bfdceab6317e403b4d73","404","
            
        <div style=""text-align: center; position: fixed; top: 5vh; left: 40vw;"">
            <div style=""margin:0 auto; width: 20vw; top: 8vh; font-size: 1vw""> 
            <font color=""green""> Bonus : $1.55 </font>
            </div>
        </div>
    
            <div> Please press any button to continue to the next trial.</div>
        "," ","ITI","","","","",""
"","","","","","html-keyboard-response","221","198511","0.0-6.0-1.33","5f917101b9db9f060223e507","6554bfa13ac4b6a0ab00b03a","6554bfdceab6317e403b4d73","null","
        
        <div style=""text-align: center; position: fixed; top: 5vh; left: 40vw;"">
            <div style=""margin:0 auto; width: 20vw; top: 8vh; font-size: 1vw""> 
            <font color=""green""> Bonus : $1.55 </font>
            </div>
        </div>
    
        <img class=""stim"" src=./stimuli//pack_shapes/cat_2/ex_2_71.png></img>
    ","null","stimulus","","","","",""
"","","","","","html-keyboard-response","222","199517","0.0-6.0-2.33","5f917101b9db9f060223e507","6554bfa13ac4b6a0ab00b03a","6554bfdceab6317e403b4d73","null","
        <div style=""text-align: center; position: fixed; top: 5vh; left: 40vw;"">
            <div style=""margin:0 auto; width: 20vw; top: 8vh; font-size: 1vw""> 
            <font color=""green""> Bonus : $1.55 </font>
            </div>
        </div>
    ","null","","","","","",""
"","","","","","html-keyboard-response","223","199570","0.0-6.0-3.33","5f917101b9db9f060223e507","6554bfa13ac4b6a0ab00b03a","6554bfdceab6317e403b4d73","52","./stimuli//pack_shapes/cat_2/ex_2_71.png","arrowright","response","ArrowRight","71","2","true",""
"","","","","","html-keyboard-response","224","201071","0.0-6.0-4.33","5f917101b9db9f060223e507","6554bfa13ac4b6a0ab00b03a","6554bfdceab6317e403b4d73","null","<p> <font color=""green"" size=""4vw""> Correct category! </font> <br> <br> <font color=""green"" size=""7vw""> + $0.05 </font> </p>","null","feedback","","","","","1.6"
"","","","","","html-keyboard-response","225","201388","0.0-6.0-0.34","5f917101b9db9f060223e507","6554bfa13ac4b6a0ab00b03a","6554bfdceab6317e403b4d73","317","
            
        <div style=""text-align: center; position: fixed; top: 5vh; left: 40vw;"">
            <div style=""margin:0 auto; width: 20vw; top: 8vh; font-size: 1vw""> 
            <font color=""green""> Bonus : $1.6 </font>
            </div>
        </div>
    
            <div> Please press any button to continue to the next trial.</div>
        "," ","ITI","","","","",""
"","","","","","html-keyboard-response","226","201998","0.0-6.0-1.34","5f917101b9db9f060223e507","6554bfa13ac4b6a0ab00b03a","6554bfdceab6317e403b4d73","null","
        
        <div style=""text-align: center; position: fixed; top: 5vh; left: 40vw;"">
            <div style=""margin:0 auto; width: 20vw; top: 8vh; font-size: 1vw""> 
            <font color=""green""> Bonus : $1.6 </font>
            </div>
        </div>
    
        <img class=""stim"" src=./stimuli//pack_shapes/cat_1/ex_1_25.png></img>
    ","null","stimulus","","","","",""
"","","","","","html-keyboard-response","227","203003","0.0-6.0-2.34","5f917101b9db9f060223e507","6554bfa13ac4b6a0ab00b03a","6554bfdceab6317e403b4d73","null","
        <div style=""text-align: center; position: fixed; top: 5vh; left: 40vw;"">
            <div style=""margin:0 auto; width: 20vw; top: 8vh; font-size: 1vw""> 
            <font color=""green""> Bonus : $1.6 </font>
            </div>
        </div>
    ","null","","","","","",""
"","","","","","html-keyboard-response","228","203207","0.0-6.0-3.34","5f917101b9db9f060223e507","6554bfa13ac4b6a0ab00b03a","6554bfdceab6317e403b4d73","203","./stimuli//pack_shapes/cat_1/ex_1_25.png","arrowleft","response","ArrowLeft","25","1","true",""
"","","","","","html-keyboard-response","229","204710","0.0-6.0-4.34","5f917101b9db9f060223e507","6554bfa13ac4b6a0ab00b03a","6554bfdceab6317e403b4d73","null","<p> <font color=""green"" size=""4vw""> Correct category! </font> <br> <br> <font color=""green"" size=""7vw""> + $0.05 </font> </p>","null","feedback","","","","","1.65"
"","","","","","html-keyboard-response","230","205240","0.0-6.0-0.35","5f917101b9db9f060223e507","6554bfa13ac4b6a0ab00b03a","6554bfdceab6317e403b4d73","529","
            
        <div style=""text-align: center; position: fixed; top: 5vh; left: 40vw;"">
            <div style=""margin:0 auto; width: 20vw; top: 8vh; font-size: 1vw""> 
            <font color=""green""> Bonus : $1.65 </font>
            </div>
        </div>
    
            <div> Please press any button to continue to the next trial.</div>
        "," ","ITI","","","","",""
"","","","","","html-keyboard-response","231","205845","0.0-6.0-1.35","5f917101b9db9f060223e507","6554bfa13ac4b6a0ab00b03a","6554bfdceab6317e403b4d73","null","
        
        <div style=""text-align: center; position: fixed; top: 5vh; left: 40vw;"">
            <div style=""margin:0 auto; width: 20vw; top: 8vh; font-size: 1vw""> 
            <font color=""green""> Bonus : $1.65 </font>
            </div>
        </div>
    
        <img class=""stim"" src=./stimuli//pack_shapes/cat_1/ex_1_41.png></img>
    ","null","stimulus","","","","",""
"","","","","","html-keyboard-response","232","206853","0.0-6.0-2.35","5f917101b9db9f060223e507","6554bfa13ac4b6a0ab00b03a","6554bfdceab6317e403b4d73","null","
        <div style=""text-align: center; position: fixed; top: 5vh; left: 40vw;"">
            <div style=""margin:0 auto; width: 20vw; top: 8vh; font-size: 1vw""> 
            <font color=""green""> Bonus : $1.65 </font>
            </div>
        </div>
    ","null","","","","","",""
"","","","","","html-keyboard-response","233","207055","0.0-6.0-3.35","5f917101b9db9f060223e507","6554bfa13ac4b6a0ab00b03a","6554bfdceab6317e403b4d73","202","./stimuli//pack_shapes/cat_1/ex_1_41.png","arrowleft","response","ArrowLeft","41","1","true",""
"","","","","","html-keyboard-response","234","208565","0.0-6.0-4.35","5f917101b9db9f060223e507","6554bfa13ac4b6a0ab00b03a","6554bfdceab6317e403b4d73","null","<p> <font color=""green"" size=""4vw""> Correct category! </font> <br> <br> <font color=""green"" size=""7vw""> + $0.05 </font> </p>","null","feedback","","","","","1.7"
"","","","","","html-keyboard-response","235","209024","0.0-6.0-0.36","5f917101b9db9f060223e507","6554bfa13ac4b6a0ab00b03a","6554bfdceab6317e403b4d73","460","
            
        <div style=""text-align: center; position: fixed; top: 5vh; left: 40vw;"">
            <div style=""margin:0 auto; width: 20vw; top: 8vh; font-size: 1vw""> 
            <font color=""green""> Bonus : $1.7 </font>
            </div>
        </div>
    
            <div> Please press any button to continue to the next trial.</div>
        "," ","ITI","","","","",""
"","","","","","html-keyboard-response","236","209639","0.0-6.0-1.36","5f917101b9db9f060223e507","6554bfa13ac4b6a0ab00b03a","6554bfdceab6317e403b4d73","null","
        
