"success","timeout","failed_images","failed_audio","failed_video","trial_type","trial_index","time_elapsed","internal_node_id","subject_id","study_id","session_id","rt","stimulus","response","task","correct_response","exemplar_ID","category","correct","bonus"
"true","false","[]","[]","[]","preload","0","8","0.0-0.0","5f4f9140758a9c05039eb874","6554bfa13ac4b6a0ab00b03a","6554bffa6e289678f630cf16","","","","","","","","",""
"","","","","","html-keyboard-response","1","11546","0.0-1.0","5f4f9140758a9c05039eb874","6554bfa13ac4b6a0ab00b03a","6554bffa6e289678f630cf16","11537","Welcome to the Category Learning experiment! Press any key to continue."," ","welcome","","","","",""
"","","","","","html-keyboard-response","2","32146","0.0-2.0","5f4f9140758a9c05039eb874","6554bfa13ac4b6a0ab00b03a","6554bffa6e289678f630cf16","20599","
            <p>You will be shown images of black shapes.  Some are category A, some are category B.
            <br>You will not know in advance which category a specific shape belongs to.</p>
            <p>After you see an image, you will be asked to guess its category <b>(left arrow for category A, right arrow for category B)</b></p>
            <p>After you choose, the screen will show you whether you were correct or not.</p>
            <p><b>You will receive a bonus payment of $0.05 for each correct answer!</b></p>
            <p> So you can increase your bonus by guessing correctly, and by guessing as quickly as possible so you move on to the next image sooner.</p>
            <p>Press any key to continue.</p>
            "," ","introduction_1","","","","",""
"","","","","","html-keyboard-response","3","36250","0.0-3.0","5f4f9140758a9c05039eb874","6554bfa13ac4b6a0ab00b03a","6554bffa6e289678f630cf16","4102","
            <p> <b>The first 10 trials are a practice round that will not count towards your bonus payment.</b></p>
            <p> You will be notified when practice finishes and the test begins. </p>
            <p> Press any key to begin the practice round.</p>
            "," ","introduction_2","","","","",""
"","","","","","html-keyboard-response","4","37834","0.0-4.0-0.0","5f4f9140758a9c05039eb874","6554bfa13ac4b6a0ab00b03a","6554bffa6e289678f630cf16","1582","
            
        <div style=""text-align: center; position: fixed; top: 5vh; left: 40vw;"">
            <div style=""margin:0 auto; width: 20vw; top: 8vh; font-size: 1vw""> 
            <font color=""green""> Bonus : $0 </font>
            </div>
        </div>
    
            <div> Please press any button to continue to the next trial.</div>
        "," ","ITI","","","","",""
"","","","","","html-keyboard-response","5","38446","0.0-4.0-1.0","5f4f9140758a9c05039eb874","6554bfa13ac4b6a0ab00b03a","6554bffa6e289678f630cf16","null","
        
        <div style=""text-align: center; position: fixed; top: 5vh; left: 40vw;"">
            <div style=""margin:0 auto; width: 20vw; top: 8vh; font-size: 1vw""> 
            <font color=""green""> Bonus : $0 </font>
            </div>
        </div>
    
        <img class=""stim"" src=./stimuli//pack_shapes/cat_1/ex_1_29.png></img>
    ","null","stimulus","","","","",""
"","","","","","html-keyboard-response","6","39449","0.0-4.0-2.0","5f4f9140758a9c05039eb874","6554bfa13ac4b6a0ab00b03a","6554bffa6e289678f630cf16","null","
        <div style=""text-align: center; position: fixed; top: 5vh; left: 40vw;"">
            <div style=""margin:0 auto; width: 20vw; top: 8vh; font-size: 1vw""> 
            <font color=""green""> Bonus : $0 </font>
            </div>
        </div>
    ","null","","","","","",""
"","","","","","html-keyboard-response","7","42105","0.0-4.0-3.0","5f4f9140758a9c05039eb874","6554bfa13ac4b6a0ab00b03a","6554bffa6e289678f630cf16","2653","./stimuli//pack_shapes/cat_1/ex_1_29.png","arrowleft","response","ArrowLeft","29","1","true",""
"","","","","","html-keyboard-response","8","43614","0.0-4.0-4.0","5f4f9140758a9c05039eb874","6554bfa13ac4b6a0ab00b03a","6554bffa6e289678f630cf16","null","<p> <font color=""green"" size=""4vw""> Correct category! </font> </p>","null","feedback","","","","","0"
"","","","","","html-keyboard-response","9","44802","0.0-4.0-0.1","5f4f9140758a9c05039eb874","6554bfa13ac4b6a0ab00b03a","6554bffa6e289678f630cf16","1186","
            
        <div style=""text-align: center; position: fixed; top: 5vh; left: 40vw;"">
            <div style=""margin:0 auto; width: 20vw; top: 8vh; font-size: 1vw""> 
            <font color=""green""> Bonus : $0 </font>
            </div>
        </div>
    
            <div> Please press any button to continue to the next trial.</div>
        "," ","ITI","","","","",""
"","","","","","html-keyboard-response","10","45410","0.0-4.0-1.1","5f4f9140758a9c05039eb874","6554bfa13ac4b6a0ab00b03a","6554bffa6e289678f630cf16","null","
        
        <div style=""text-align: center; position: fixed; top: 5vh; left: 40vw;"">
            <div style=""margin:0 auto; width: 20vw; top: 8vh; font-size: 1vw""> 
            <font color=""green""> Bonus : $0 </font>
            </div>
        </div>
    
        <img class=""stim"" src=./stimuli//pack_shapes/cat_2/ex_2_49.png></img>
    ","null","stimulus","","","","",""
"","","","","","html-keyboard-response","11","46423","0.0-4.0-2.1","5f4f9140758a9c05039eb874","6554bfa13ac4b6a0ab00b03a","6554bffa6e289678f630cf16","null","
        <div style=""text-align: center; position: fixed; top: 5vh; left: 40vw;"">
            <div style=""margin:0 auto; width: 20vw; top: 8vh; font-size: 1vw""> 
            <font color=""green""> Bonus : $0 </font>
            </div>
        </div>
    ","null","","","","","",""
"","","","","","html-keyboard-response","12","46729","0.0-4.0-3.1","5f4f9140758a9c05039eb874","6554bfa13ac4b6a0ab00b03a","6554bffa6e289678f630cf16","304","./stimuli//pack_shapes/cat_2/ex_2_49.png","arrowright","response","ArrowRight","49","2","true",""
"","","","","","html-keyboard-response","13","48236","0.0-4.0-4.1","5f4f9140758a9c05039eb874","6554bfa13ac4b6a0ab00b03a","6554bffa6e289678f630cf16","null","<p> <font color=""green"" size=""4vw""> Correct category! </font> </p>","null","feedback","","","","","0"
"","","","","","html-keyboard-response","14","59974","0.0-4.0-0.2","5f4f9140758a9c05039eb874","6554bfa13ac4b6a0ab00b03a","6554bffa6e289678f630cf16","11736","
            
        <div style=""text-align: center; position: fixed; top: 5vh; left: 40vw;"">
            <div style=""margin:0 auto; width: 20vw; top: 8vh; font-size: 1vw""> 
            <font color=""green""> Bonus : $0 </font>
            </div>
        </div>
    
            <div> Please press any button to continue to the next trial.</div>
        "," ","ITI","","","","",""
"","","","","","html-keyboard-response","15","60584","0.0-4.0-1.2","5f4f9140758a9c05039eb874","6554bfa13ac4b6a0ab00b03a","6554bffa6e289678f630cf16","null","
        
        <div style=""text-align: center; position: fixed; top: 5vh; left: 40vw;"">
            <div style=""margin:0 auto; width: 20vw; top: 8vh; font-size: 1vw""> 
            <font color=""green""> Bonus : $0 </font>
            </div>
        </div>
    
        <img class=""stim"" src=./stimuli//pack_shapes/cat_2/ex_2_8.png></img>
    ","null","stimulus","","","","",""
"","","","","","html-keyboard-response","16","61591","0.0-4.0-2.2","5f4f9140758a9c05039eb874","6554bfa13ac4b6a0ab00b03a","6554bffa6e289678f630cf16","null","
        <div style=""text-align: center; position: fixed; top: 5vh; left: 40vw;"">
            <div style=""margin:0 auto; width: 20vw; top: 8vh; font-size: 1vw""> 
            <font color=""green""> Bonus : $0 </font>
            </div>
        </div>
    ","null","","","","","",""
"","","","","","html-keyboard-response","17","61846","0.0-4.0-3.2","5f4f9140758a9c05039eb874","6554bfa13ac4b6a0ab00b03a","6554bffa6e289678f630cf16","252","./stimuli//pack_shapes/cat_2/ex_2_8.png","arrowright","response","ArrowRight","8","2","true",""
"","","","","","html-keyboard-response","18","63359","0.0-4.0-4.2","5f4f9140758a9c05039eb874","6554bfa13ac4b6a0ab00b03a","6554bffa6e289678f630cf16","null","<p> <font color=""green"" size=""4vw""> Correct category! </font> </p>","null","feedback","","","","","0"
"","","","","","html-keyboard-response","19","63798","0.0-4.0-0.3","5f4f9140758a9c05039eb874","6554bfa13ac4b6a0ab00b03a","6554bffa6e289678f630cf16","438","
            
        <div style=""text-align: center; position: fixed; top: 5vh; left: 40vw;"">
            <div style=""margin:0 auto; width: 20vw; top: 8vh; font-size: 1vw""> 
            <font color=""green""> Bonus : $0 </font>
            </div>
        </div>
    
            <div> Please press any button to continue to the next trial.</div>
        "," ","ITI","","","","",""
"","","","","","html-keyboard-response","20","64413","0.0-4.0-1.3","5f4f9140758a9c05039eb874","6554bfa13ac4b6a0ab00b03a","6554bffa6e289678f630cf16","null","
        
        <div style=""text-align: center; position: fixed; top: 5vh; left: 40vw;"">
            <div style=""margin:0 auto; width: 20vw; top: 8vh; font-size: 1vw""> 
            <font color=""green""> Bonus : $0 </font>
            </div>
        </div>
    
        <img class=""stim"" src=./stimuli//pack_shapes/cat_1/ex_1_3.png></img>
    ","null","stimulus","","","","",""
"","","","","","html-keyboard-response","21","65416","0.0-4.0-2.3","5f4f9140758a9c05039eb874","6554bfa13ac4b6a0ab00b03a","6554bffa6e289678f630cf16","null","
        <div style=""text-align: center; position: fixed; top: 5vh; left: 40vw;"">
            <div style=""margin:0 auto; width: 20vw; top: 8vh; font-size: 1vw""> 
            <font color=""green""> Bonus : $0 </font>
            </div>
        </div>
    ","null","","","","","",""
"","","","","","html-keyboard-response","22","65663","0.0-4.0-3.3","5f4f9140758a9c05039eb874","6554bfa13ac4b6a0ab00b03a","6554bffa6e289678f630cf16","244","./stimuli//pack_shapes/cat_1/ex_1_3.png","arrowleft","response","ArrowLeft","3","1","true",""
"","","","","","html-keyboard-response","23","67178","0.0-4.0-4.3","5f4f9140758a9c05039eb874","6554bfa13ac4b6a0ab00b03a","6554bffa6e289678f630cf16","null","<p> <font color=""green"" size=""4vw""> Correct category! </font> </p>","null","feedback","","","","","0"
"","","","","","html-keyboard-response","24","67551","0.0-4.0-0.4","5f4f9140758a9c05039eb874","6554bfa13ac4b6a0ab00b03a","6554bffa6e289678f630cf16","371","
            
        <div style=""text-align: center; position: fixed; top: 5vh; left: 40vw;"">
            <div style=""margin:0 auto; width: 20vw; top: 8vh; font-size: 1vw""> 
            <font color=""green""> Bonus : $0 </font>
            </div>
        </div>
    
            <div> Please press any button to continue to the next trial.</div>
        "," ","ITI","","","","",""
"","","","","","html-keyboard-response","25","68163","0.0-4.0-1.4","5f4f9140758a9c05039eb874","6554bfa13ac4b6a0ab00b03a","6554bffa6e289678f630cf16","null","
        
        <div style=""text-align: center; position: fixed; top: 5vh; left: 40vw;"">
            <div style=""margin:0 auto; width: 20vw; top: 8vh; font-size: 1vw""> 
            <font color=""green""> Bonus : $0 </font>
            </div>
        </div>
    
        <img class=""stim"" src=./stimuli//pack_shapes/cat_1/ex_1_39.png></img>
    ","null","stimulus","","","","",""
"","","","","","html-keyboard-response","26","69185","0.0-4.0-2.4","5f4f9140758a9c05039eb874","6554bfa13ac4b6a0ab00b03a","6554bffa6e289678f630cf16","null","
        <div style=""text-align: center; position: fixed; top: 5vh; left: 40vw;"">
            <div style=""margin:0 auto; width: 20vw; top: 8vh; font-size: 1vw""> 
            <font color=""green""> Bonus : $0 </font>
            </div>
        </div>
    ","null","","","","","",""
"","","","","","html-keyboard-response","27","69558","0.0-4.0-3.4","5f4f9140758a9c05039eb874","6554bfa13ac4b6a0ab00b03a","6554bffa6e289678f630cf16","370","./stimuli//pack_shapes/cat_1/ex_1_39.png","arrowleft","response","ArrowLeft","39","1","true",""
"","","","","","html-keyboard-response","28","71068","0.0-4.0-4.4","5f4f9140758a9c05039eb874","6554bfa13ac4b6a0ab00b03a","6554bffa6e289678f630cf16","null","<p> <font color=""green"" size=""4vw""> Correct category! </font> </p>","null","feedback","","","","","0"
"","","","","","html-keyboard-response","29","71407","0.0-4.0-0.5","5f4f9140758a9c05039eb874","6554bfa13ac4b6a0ab00b03a","6554bffa6e289678f630cf16","337","
            
        <div style=""text-align: center; position: fixed; top: 5vh; left: 40vw;"">
            <div style=""margin:0 auto; width: 20vw; top: 8vh; font-size: 1vw""> 
            <font color=""green""> Bonus : $0 </font>
            </div>
        </div>
    
            <div> Please press any button to continue to the next trial.</div>
        "," ","ITI","","","","",""
"","","","","","html-keyboard-response","30","72029","0.0-4.0-1.5","5f4f9140758a9c05039eb874","6554bfa13ac4b6a0ab00b03a","6554bffa6e289678f630cf16","null","
        
        <div style=""text-align: center; position: fixed; top: 5vh; left: 40vw;"">
            <div style=""margin:0 auto; width: 20vw; top: 8vh; font-size: 1vw""> 
            <font color=""green""> Bonus : $0 </font>
            </div>
        </div>
    
        <img class=""stim"" src=./stimuli//pack_shapes/cat_1/ex_1_75.png></img>
    ","null","stimulus","","","","",""
"","","","","","html-keyboard-response","31","73041","0.0-4.0-2.5","5f4f9140758a9c05039eb874","6554bfa13ac4b6a0ab00b03a","6554bffa6e289678f630cf16","null","
        <div style=""text-align: center; position: fixed; top: 5vh; left: 40vw;"">
            <div style=""margin:0 auto; width: 20vw; top: 8vh; font-size: 1vw""> 
            <font color=""green""> Bonus : $0 </font>
            </div>
        </div>
    ","null","","","","","",""
"","","","","","html-keyboard-response","32","73310","0.0-4.0-3.5","5f4f9140758a9c05039eb874","6554bfa13ac4b6a0ab00b03a","6554bffa6e289678f630cf16","266","./stimuli//pack_shapes/cat_1/ex_1_75.png","arrowleft","response","ArrowLeft","75","1","true",""
"","","","","","html-keyboard-response","33","74817","0.0-4.0-4.5","5f4f9140758a9c05039eb874","6554bfa13ac4b6a0ab00b03a","6554bffa6e289678f630cf16","null","<p> <font color=""green"" size=""4vw""> Correct category! </font> </p>","null","feedback","","","","","0"
"","","","","","html-keyboard-response","34","75150","0.0-4.0-0.6","5f4f9140758a9c05039eb874","6554bfa13ac4b6a0ab00b03a","6554bffa6e289678f630cf16","331","
            
        <div style=""text-align: center; position: fixed; top: 5vh; left: 40vw;"">
            <div style=""margin:0 auto; width: 20vw; top: 8vh; font-size: 1vw""> 
            <font color=""green""> Bonus : $0 </font>
            </div>
        </div>
    
            <div> Please press any button to continue to the next trial.</div>
        "," ","ITI","","","","",""
"","","","","","html-keyboard-response","35","75766","0.0-4.0-1.6","5f4f9140758a9c05039eb874","6554bfa13ac4b6a0ab00b03a","6554bffa6e289678f630cf16","null","
        
        <div style=""text-align: center; position: fixed; top: 5vh; left: 40vw;"">
            <div style=""margin:0 auto; width: 20vw; top: 8vh; font-size: 1vw""> 
            <font color=""green""> Bonus : $0 </font>
            </div>
        </div>
    
        <img class=""stim"" src=./stimuli//pack_shapes/cat_1/ex_1_49.png></img>
    ","null","stimulus","","","","",""
"","","","","","html-keyboard-response","36","76768","0.0-4.0-2.6","5f4f9140758a9c05039eb874","6554bfa13ac4b6a0ab00b03a","6554bffa6e289678f630cf16","null","
        <div style=""text-align: center; position: fixed; top: 5vh; left: 40vw;"">
            <div style=""margin:0 auto; width: 20vw; top: 8vh; font-size: 1vw""> 
            <font color=""green""> Bonus : $0 </font>
            </div>
        </div>
    ","null","","","","","",""
"","","","","","html-keyboard-response","37","77126","0.0-4.0-3.6","5f4f9140758a9c05039eb874","6554bfa13ac4b6a0ab00b03a","6554bffa6e289678f630cf16","356","./stimuli//pack_shapes/cat_1/ex_1_49.png","arrowright","response","ArrowLeft","49","1","false",""
"","","","","","html-keyboard-response","38","78642","0.0-4.0-4.6","5f4f9140758a9c05039eb874","6554bfa13ac4b6a0ab00b03a","6554bffa6e289678f630cf16","null","<p> <font color=""red"" size=""4vw""> Wrong category! </font> </p>","null","feedback","","","","","0"
"","","","","","html-keyboard-response","39","79071","0.0-4.0-0.7","5f4f9140758a9c05039eb874","6554bfa13ac4b6a0ab00b03a","6554bffa6e289678f630cf16","427","
            
        <div style=""text-align: center; position: fixed; top: 5vh; left: 40vw;"">
            <div style=""margin:0 auto; width: 20vw; top: 8vh; font-size: 1vw""> 
            <font color=""green""> Bonus : $0 </font>
            </div>
        </div>
    
            <div> Please press any button to continue to the next trial.</div>
        "," ","ITI","","","","",""
"","","","","","html-keyboard-response","40","79681","0.0-4.0-1.7","5f4f9140758a9c05039eb874","6554bfa13ac4b6a0ab00b03a","6554bffa6e289678f630cf16","null","
        
        <div style=""text-align: center; position: fixed; top: 5vh; left: 40vw;"">
            <div style=""margin:0 auto; width: 20vw; top: 8vh; font-size: 1vw""> 
            <font color=""green""> Bonus : $0 </font>
            </div>
        </div>
    
        <img class=""stim"" src=./stimuli//pack_shapes/cat_2/ex_2_39.png></img>
    ","null","stimulus","","","","",""
"","","","","","html-keyboard-response","41","80683","0.0-4.0-2.7","5f4f9140758a9c05039eb874","6554bfa13ac4b6a0ab00b03a","6554bffa6e289678f630cf16","null","
        <div style=""text-align: center; position: fixed; top: 5vh; left: 40vw;"">
            <div style=""margin:0 auto; width: 20vw; top: 8vh; font-size: 1vw""> 
            <font color=""green""> Bonus : $0 </font>
            </div>
        </div>
    ","null","","","","","",""
"","","","","","html-keyboard-response","42","80918","0.0-4.0-3.7","5f4f9140758a9c05039eb874","6554bfa13ac4b6a0ab00b03a","6554bffa6e289678f630cf16","232","./stimuli//pack_shapes/cat_2/ex_2_39.png","arrowleft","response","ArrowRight","39","2","false",""
"","","","","","html-keyboard-response","43","82434","0.0-4.0-4.7","5f4f9140758a9c05039eb874","6554bfa13ac4b6a0ab00b03a","6554bffa6e289678f630cf16","null","<p> <font color=""red"" size=""4vw""> Wrong category! </font> </p>","null","feedback","","","","","0"
"","","","","","html-keyboard-response","44","83238","0.0-4.0-0.8","5f4f9140758a9c05039eb874","6554bfa13ac4b6a0ab00b03a","6554bffa6e289678f630cf16","803","
            
        <div style=""text-align: center; position: fixed; top: 5vh; left: 40vw;"">
            <div style=""margin:0 auto; width: 20vw; top: 8vh; font-size: 1vw""> 
            <font color=""green""> Bonus : $0 </font>
            </div>
        </div>
    
            <div> Please press any button to continue to the next trial.</div>
        "," ","ITI","","","","",""
"","","","","","html-keyboard-response","45","83856","0.0-4.0-1.8","5f4f9140758a9c05039eb874","6554bfa13ac4b6a0ab00b03a","6554bffa6e289678f630cf16","null","
        
        <div style=""text-align: center; position: fixed; top: 5vh; left: 40vw;"">
            <div style=""margin:0 auto; width: 20vw; top: 8vh; font-size: 1vw""> 
            <font color=""green""> Bonus : $0 </font>
            </div>
        </div>
    
        <img class=""stim"" src=./stimuli//pack_shapes/cat_2/ex_2_80.png></img>
    ","null","stimulus","","","","",""
"","","","","","html-keyboard-response","46","84867","0.0-4.0-2.8","5f4f9140758a9c05039eb874","6554bfa13ac4b6a0ab00b03a","6554bffa6e289678f630cf16","null","
        <div style=""text-align: center; position: fixed; top: 5vh; left: 40vw;"">
            <div style=""margin:0 auto; width: 20vw; top: 8vh; font-size: 1vw""> 
            <font color=""green""> Bonus : $0 </font>
            </div>
        </div>
    ","null","","","","","",""
"","","","","","html-keyboard-response","47","85070","0.0-4.0-3.8","5f4f9140758a9c05039eb874","6554bfa13ac4b6a0ab00b03a","6554bffa6e289678f630cf16","200","./stimuli//pack_shapes/cat_2/ex_2_80.png","arrowleft","response","ArrowRight","80","2","false",""
"","","","","","html-keyboard-response","48","86582","0.0-4.0-4.8","5f4f9140758a9c05039eb874","6554bfa13ac4b6a0ab00b03a","6554bffa6e289678f630cf16","null","<p> <font color=""red"" size=""4vw""> Wrong category! </font> </p>","null","feedback","","","","","0"
"","","","","","html-keyboard-response","49","87414","0.0-4.0-0.9","5f4f9140758a9c05039eb874","6554bfa13ac4b6a0ab00b03a","6554bffa6e289678f630cf16","830","
            
        <div style=""text-align: center; position: fixed; top: 5vh; left: 40vw;"">
            <div style=""margin:0 auto; width: 20vw; top: 8vh; font-size: 1vw""> 
            <font color=""green""> Bonus : $0 </font>
            </div>
        </div>
    
            <div> Please press any button to continue to the next trial.</div>
        "," ","ITI","","","","",""
"","","","","","html-keyboard-response","50","88030","0.0-4.0-1.9","5f4f9140758a9c05039eb874","6554bfa13ac4b6a0ab00b03a","6554bffa6e289678f630cf16","null","
        
        <div style=""text-align: center; position: fixed; top: 5vh; left: 40vw;"">
            <div style=""margin:0 auto; width: 20vw; top: 8vh; font-size: 1vw""> 
            <font color=""green""> Bonus : $0 </font>
            </div>
        </div>
    
        <img class=""stim"" src=./stimuli//pack_shapes/cat_2/ex_2_29.png></img>
    ","null","stimulus","","","","",""
"","","","","","html-keyboard-response","51","89042","0.0-4.0-2.9","5f4f9140758a9c05039eb874","6554bfa13ac4b6a0ab00b03a","6554bffa6e289678f630cf16","null","
        <div style=""text-align: center; position: fixed; top: 5vh; left: 40vw;"">
            <div style=""margin:0 auto; width: 20vw; top: 8vh; font-size: 1vw""> 
            <font color=""green""> Bonus : $0 </font>
            </div>
        </div>
    ","null","","","","","",""
"","","","","","html-keyboard-response","52","89430","0.0-4.0-3.9","5f4f9140758a9c05039eb874","6554bfa13ac4b6a0ab00b03a","6554bffa6e289678f630cf16","385","./stimuli//pack_shapes/cat_2/ex_2_29.png","arrowleft","response","ArrowRight","29","2","false",""
"","","","","","html-keyboard-response","53","90939","0.0-4.0-4.9","5f4f9140758a9c05039eb874","6554bfa13ac4b6a0ab00b03a","6554bffa6e289678f630cf16","null","<p> <font color=""red"" size=""4vw""> Wrong category! </font> </p>","null","feedback","","","","","0"
"","","","","","html-keyboard-response","54","91222","0.0-5.0","5f4f9140758a9c05039eb874","6554bfa13ac4b6a0ab00b03a","6554bffa6e289678f630cf16","282","
            <b> <p> The practice round has finished.</p>
            <b> For the rest of the experiment you will receive a $0.05 bonus for each correct answer!</b>
            <p> Press any key to begin the test. </p>
            "," ","intermission","","","","",""
"","","","","","html-keyboard-response","55","92886","0.0-6.0-0.0","5f4f9140758a9c05039eb874","6554bfa13ac4b6a0ab00b03a","6554bffa6e289678f630cf16","1662","
            
        <div style=""text-align: center; position: fixed; top: 5vh; left: 40vw;"">
            <div style=""margin:0 auto; width: 20vw; top: 8vh; font-size: 1vw""> 
            <font color=""green""> Bonus : $0 </font>
            </div>
        </div>
    
            <div> Please press any button to continue to the next trial.</div>
        "," ","ITI","","","","",""
"","","","","","html-keyboard-response","56","93497","0.0-6.0-1.0","5f4f9140758a9c05039eb874","6554bfa13ac4b6a0ab00b03a","6554bffa6e289678f630cf16","null","
        
        <div style=""text-align: center; position: fixed; top: 5vh; left: 40vw;"">
            <div style=""margin:0 auto; width: 20vw; top: 8vh; font-size: 1vw""> 
            <font color=""green""> Bonus : $0 </font>
            </div>
        </div>
    
        <img class=""stim"" src=./stimuli//pack_shapes/cat_1/ex_1_76.png></img>
    ","null","stimulus","","","","",""
"","","","","","html-keyboard-response","57","94500","0.0-6.0-2.0","5f4f9140758a9c05039eb874","6554bfa13ac4b6a0ab00b03a","6554bffa6e289678f630cf16","null","
        <div style=""text-align: center; position: fixed; top: 5vh; left: 40vw;"">
            <div style=""margin:0 auto; width: 20vw; top: 8vh; font-size: 1vw""> 
            <font color=""green""> Bonus : $0 </font>
            </div>
        </div>
    ","null","","","","","",""
"","","","","","html-keyboard-response","58","94750","0.0-6.0-3.0","5f4f9140758a9c05039eb874","6554bfa13ac4b6a0ab00b03a","6554bffa6e289678f630cf16","248","./stimuli//pack_shapes/cat_1/ex_1_76.png","arrowright","response","ArrowLeft","76","1","false",""
"","","","","","html-keyboard-response","59","96267","0.0-6.0-4.0","5f4f9140758a9c05039eb874","6554bfa13ac4b6a0ab00b03a","6554bffa6e289678f630cf16","null","<p> <font color=""red"" size=""4vw""> Wrong category! </font> </p>","null","feedback","","","","","0"
"","","","","","html-keyboard-response","60","97030","0.0-6.0-0.1","5f4f9140758a9c05039eb874","6554bfa13ac4b6a0ab00b03a","6554bffa6e289678f630cf16","761","
            
        <div style=""text-align: center; position: fixed; top: 5vh; left: 40vw;"">
            <div style=""margin:0 auto; width: 20vw; top: 8vh; font-size: 1vw""> 
            <font color=""green""> Bonus : $0 </font>
            </div>
        </div>
    
            <div> Please press any button to continue to the next trial.</div>
        "," ","ITI","","","","",""
"","","","","","html-keyboard-response","61","97647","0.0-6.0-1.1","5f4f9140758a9c05039eb874","6554bfa13ac4b6a0ab00b03a","6554bffa6e289678f630cf16","null","
        
        <div style=""text-align: center; position: fixed; top: 5vh; left: 40vw;"">
            <div style=""margin:0 auto; width: 20vw; top: 8vh; font-size: 1vw""> 
            <font color=""green""> Bonus : $0 </font>
            </div>
        </div>
    
        <img class=""stim"" src=./stimuli//pack_shapes/cat_2/ex_2_59.png></img>
    ","null","stimulus","","","","",""
"","","","","","html-keyboard-response","62","98652","0.0-6.0-2.1","5f4f9140758a9c05039eb874","6554bfa13ac4b6a0ab00b03a","6554bffa6e289678f630cf16","null","
        <div style=""text-align: center; position: fixed; top: 5vh; left: 40vw;"">
            <div style=""margin:0 auto; width: 20vw; top: 8vh; font-size: 1vw""> 
            <font color=""green""> Bonus : $0 </font>
            </div>
        </div>
    ","null","","","","","",""
"","","","","","html-keyboard-response","63","98926","0.0-6.0-3.1","5f4f9140758a9c05039eb874","6554bfa13ac4b6a0ab00b03a","6554bffa6e289678f630cf16","272","./stimuli//pack_shapes/cat_2/ex_2_59.png","arrowright","response","ArrowRight","59","2","true",""
"","","","","","html-keyboard-response","64","100436","0.0-6.0-4.1","5f4f9140758a9c05039eb874","6554bfa13ac4b6a0ab00b03a","6554bffa6e289678f630cf16","null","<p> <font color=""green"" size=""4vw""> Correct category! </font> <br> <br> <font color=""green"" size=""7vw""> + $0.05 </font> </p>","null","feedback","","","","","0.05"
"","","","","","html-keyboard-response","65","100806","0.0-6.0-0.2","5f4f9140758a9c05039eb874","6554bfa13ac4b6a0ab00b03a","6554bffa6e289678f630cf16","369","
            
        <div style=""text-align: center; position: fixed; top: 5vh; left: 40vw;"">
            <div style=""margin:0 auto; width: 20vw; top: 8vh; font-size: 1vw""> 
            <font color=""green""> Bonus : $0.05 </font>
            </div>
        </div>
    
            <div> Please press any button to continue to the next trial.</div>
        "," ","ITI","","","","",""
"","","","","","html-keyboard-response","66","101423","0.0-6.0-1.2","5f4f9140758a9c05039eb874","6554bfa13ac4b6a0ab00b03a","6554bffa6e289678f630cf16","null","
        
        <div style=""text-align: center; position: fixed; top: 5vh; left: 40vw;"">
            <div style=""margin:0 auto; width: 20vw; top: 8vh; font-size: 1vw""> 
            <font color=""green""> Bonus : $0.05 </font>
            </div>
        </div>
    
        <img class=""stim"" src=./stimuli//pack_shapes/cat_2/ex_2_12.png></img>
    ","null","stimulus","","","","",""
"","","","","","html-keyboard-response","67","102440","0.0-6.0-2.2","5f4f9140758a9c05039eb874","6554bfa13ac4b6a0ab00b03a","6554bffa6e289678f630cf16","null","
        <div style=""text-align: center; position: fixed; top: 5vh; left: 40vw;"">
            <div style=""margin:0 auto; width: 20vw; top: 8vh; font-size: 1vw""> 
            <font color=""green""> Bonus : $0.05 </font>
            </div>
        </div>
    ","null","","","","","",""
"","","","","","html-keyboard-response","68","102456","0.0-6.0-3.2","5f4f9140758a9c05039eb874","6554bfa13ac4b6a0ab00b03a","6554bffa6e289678f630cf16","14","./stimuli//pack_shapes/cat_2/ex_2_12.png","arrowright","response","ArrowRight","12","2","true",""
"","","","","","html-keyboard-response","69","103962","0.0-6.0-4.2","5f4f9140758a9c05039eb874","6554bfa13ac4b6a0ab00b03a","6554bffa6e289678f630cf16","null","<p> <font color=""green"" size=""4vw""> Correct category! </font> <br> <br> <font color=""green"" size=""7vw""> + $0.05 </font> </p>","null","feedback","","","","","0.1"
"","","","","","html-keyboard-response","70","104303","0.0-6.0-0.3","5f4f9140758a9c05039eb874","6554bfa13ac4b6a0ab00b03a","6554bffa6e289678f630cf16","340","
            
        <div style=""text-align: center; position: fixed; top: 5vh; left: 40vw;"">
            <div style=""margin:0 auto; width: 20vw; top: 8vh; font-size: 1vw""> 
            <font color=""green""> Bonus : $0.1 </font>
            </div>
        </div>
    
            <div> Please press any button to continue to the next trial.</div>
        "," ","ITI","","","","",""
"","","","","","html-keyboard-response","71","104915","0.0-6.0-1.3","5f4f9140758a9c05039eb874","6554bfa13ac4b6a0ab00b03a","6554bffa6e289678f630cf16","null","
        
        <div style=""text-align: center; position: fixed; top: 5vh; left: 40vw;"">
            <div style=""margin:0 auto; width: 20vw; top: 8vh; font-size: 1vw""> 
            <font color=""green""> Bonus : $0.1 </font>
            </div>
        </div>
    
        <img class=""stim"" src=./stimuli//pack_shapes/cat_2/ex_2_82.png></img>
    ","null","stimulus","","","","",""
"","","","","","html-keyboard-response","72","105930","0.0-6.0-2.3","5f4f9140758a9c05039eb874","6554bfa13ac4b6a0ab00b03a","6554bffa6e289678f630cf16","null","
        <div style=""text-align: center; position: fixed; top: 5vh; left: 40vw;"">
            <div style=""margin:0 auto; width: 20vw; top: 8vh; font-size: 1vw""> 
            <font color=""green""> Bonus : $0.1 </font>
            </div>
        </div>
    ","null","","","","","",""
"","","","","","html-keyboard-response","73","106103","0.0-6.0-3.3","5f4f9140758a9c05039eb874","6554bfa13ac4b6a0ab00b03a","6554bffa6e289678f630cf16","171","./stimuli//pack_shapes/cat_2/ex_2_82.png","arrowleft","response","ArrowRight","82","2","false",""
"","","","","","html-keyboard-response","74","107616","0.0-6.0-4.3","5f4f9140758a9c05039eb874","6554bfa13ac4b6a0ab00b03a","6554bffa6e289678f630cf16","null","<p> <font color=""red"" size=""4vw""> Wrong category! </font> </p>","null","feedback","","","","","0.1"
"","","","","","html-keyboard-response","75","107902","0.0-6.0-0.4","5f4f9140758a9c05039eb874","6554bfa13ac4b6a0ab00b03a","6554bffa6e289678f630cf16","285","
            
        <div style=""text-align: center; position: fixed; top: 5vh; left: 40vw;"">
            <div style=""margin:0 auto; width: 20vw; top: 8vh; font-size: 1vw""> 
            <font color=""green""> Bonus : $0.1 </font>
            </div>
        </div>
    
            <div> Please press any button to continue to the next trial.</div>
        "," ","ITI","","","","",""
"","","","","","html-keyboard-response","76","108507","0.0-6.0-1.4","5f4f9140758a9c05039eb874","6554bfa13ac4b6a0ab00b03a","6554bffa6e289678f630cf16","null","
        
        <div style=""text-align: center; position: fixed; top: 5vh; left: 40vw;"">
            <div style=""margin:0 auto; width: 20vw; top: 8vh; font-size: 1vw""> 
            <font color=""green""> Bonus : $0.1 </font>
            </div>
        </div>
    
        <img class=""stim"" src=./stimuli//pack_shapes/cat_1/ex_1_55.png></img>
    ","null","stimulus","","","","",""
"","","","","","html-keyboard-response","77","109520","0.0-6.0-2.4","5f4f9140758a9c05039eb874","6554bfa13ac4b6a0ab00b03a","6554bffa6e289678f630cf16","null","
        <div style=""text-align: center; position: fixed; top: 5vh; left: 40vw;"">
            <div style=""margin:0 auto; width: 20vw; top: 8vh; font-size: 1vw""> 
            <font color=""green""> Bonus : $0.1 </font>
            </div>
        </div>
    ","null","","","","","",""
"","","","","","html-keyboard-response","78","110110","0.0-6.0-3.4","5f4f9140758a9c05039eb874","6554bfa13ac4b6a0ab00b03a","6554bffa6e289678f630cf16","588","./stimuli//pack_shapes/cat_1/ex_1_55.png","arrowleft","response","ArrowLeft","55","1","true",""
"","","","","","html-keyboard-response","79","111615","0.0-6.0-4.4","5f4f9140758a9c05039eb874","6554bfa13ac4b6a0ab00b03a","6554bffa6e289678f630cf16","null","<p> <font color=""green"" size=""4vw""> Correct category! </font> <br> <br> <font color=""green"" size=""7vw""> + $0.05 </font> </p>","null","feedback","","","","","0.15"
"","","","","","html-keyboard-response","80","111974","0.0-6.0-0.5","5f4f9140758a9c05039eb874","6554bfa13ac4b6a0ab00b03a","6554bffa6e289678f630cf16","358","
            
        <div style=""text-align: center; position: fixed; top: 5vh; left: 40vw;"">
            <div style=""margin:0 auto; width: 20vw; top: 8vh; font-size: 1vw""> 
            <font color=""green""> Bonus : $0.15 </font>
            </div>
        </div>
    
            <div> Please press any button to continue to the next trial.</div>
        "," ","ITI","","","","",""
"","","","","","html-keyboard-response","81","112591","0.0-6.0-1.5","5f4f9140758a9c05039eb874","6554bfa13ac4b6a0ab00b03a","6554bffa6e289678f630cf16","null","
        
        <div style=""text-align: center; position: fixed; top: 5vh; left: 40vw;"">
            <div style=""margin:0 auto; width: 20vw; top: 8vh; font-size: 1vw""> 
            <font color=""green""> Bonus : $0.15 </font>
            </div>
        </div>
    
        <img class=""stim"" src=./stimuli//pack_shapes/cat_2/ex_2_33.png></img>
    ","null","stimulus","","","","",""
"","","","","","html-keyboard-response","82","113604","0.0-6.0-2.5","5f4f9140758a9c05039eb874","6554bfa13ac4b6a0ab00b03a","6554bffa6e289678f630cf16","null","
        <div style=""text-align: center; position: fixed; top: 5vh; left: 40vw;"">
            <div style=""margin:0 auto; width: 20vw; top: 8vh; font-size: 1vw""> 
            <font color=""green""> Bonus : $0.15 </font>
            </div>
        </div>
    ","null","","","","","",""
"","","","","","html-keyboard-response","83","113870","0.0-6.0-3.5","5f4f9140758a9c05039eb874","6554bfa13ac4b6a0ab00b03a","6554bffa6e289678f630cf16","264","./stimuli//pack_shapes/cat_2/ex_2_33.png","arrowright","response","ArrowRight","33","2","true",""
"","","","","","html-keyboard-response","84","115372","0.0-6.0-4.5","5f4f9140758a9c05039eb874","6554bfa13ac4b6a0ab00b03a","6554bffa6e289678f630cf16","null","<p> <font color=""green"" size=""4vw""> Correct category! </font> <br> <br> <font color=""green"" size=""7vw""> + $0.05 </font> </p>","null","feedback","","","","","0.2"
"","","","","","html-keyboard-response","85","115687","0.0-6.0-0.6","5f4f9140758a9c05039eb874","6554bfa13ac4b6a0ab00b03a","6554bffa6e289678f630cf16","312","
            
        <div style=""text-align: center; position: fixed; top: 5vh; left: 40vw;"">
            <div style=""margin:0 auto; width: 20vw; top: 8vh; font-size: 1vw""> 
            <font color=""green""> Bonus : $0.2 </font>
            </div>
        </div>
    
            <div> Please press any button to continue to the next trial.</div>
        "," ","ITI","","","","",""
"","","","","","html-keyboard-response","86","116298","0.0-6.0-1.6","5f4f9140758a9c05039eb874","6554bfa13ac4b6a0ab00b03a","6554bffa6e289678f630cf16","null","
        
        <div style=""text-align: center; position: fixed; top: 5vh; left: 40vw;"">
            <div style=""margin:0 auto; width: 20vw; top: 8vh; font-size: 1vw""> 
            <font color=""green""> Bonus : $0.2 </font>
            </div>
        </div>
    
        <img class=""stim"" src=./stimuli//pack_shapes/cat_1/ex_1_36.png></img>
    ","null","stimulus","","","","",""
"","","","","","html-keyboard-response","87","117314","0.0-6.0-2.6","5f4f9140758a9c05039eb874","6554bfa13ac4b6a0ab00b03a","6554bffa6e289678f630cf16","null","
        <div style=""text-align: center; position: fixed; top: 5vh; left: 40vw;"">
            <div style=""margin:0 auto; width: 20vw; top: 8vh; font-size: 1vw""> 
            <font color=""green""> Bonus : $0.2 </font>
            </div>
        </div>
    ","null","","","","","",""
"","","","","","html-keyboard-response","88","117638","0.0-6.0-3.6","5f4f9140758a9c05039eb874","6554bfa13ac4b6a0ab00b03a","6554bffa6e289678f630cf16","321","./stimuli//pack_shapes/cat_1/ex_1_36.png","arrowright","response","ArrowLeft","36","1","false",""
"","","","","","html-keyboard-response","89","119146","0.0-6.0-4.6","5f4f9140758a9c05039eb874","6554bfa13ac4b6a0ab00b03a","6554bffa6e289678f630cf16","null","<p> <font color=""red"" size=""4vw""> Wrong category! </font> </p>","null","feedback","","","","","0.2"
"","","","","","html-keyboard-response","90","119398","0.0-6.0-0.7","5f4f9140758a9c05039eb874","6554bfa13ac4b6a0ab00b03a","6554bffa6e289678f630cf16","251","
            
        <div style=""text-align: center; position: fixed; top: 5vh; left: 40vw;"">
            <div style=""margin:0 auto; width: 20vw; top: 8vh; font-size: 1vw""> 
            <font color=""green""> Bonus : $0.2 </font>
            </div>
        </div>
    
            <div> Please press any button to continue to the next trial.</div>
        "," ","ITI","","","","",""
"","","","","","html-keyboard-response","91","120002","0.0-6.0-1.7","5f4f9140758a9c05039eb874","6554bfa13ac4b6a0ab00b03a","6554bffa6e289678f630cf16","null","
        
        <div style=""text-align: center; position: fixed; top: 5vh; left: 40vw;"">
            <div style=""margin:0 auto; width: 20vw; top: 8vh; font-size: 1vw""> 
            <font color=""green""> Bonus : $0.2 </font>
            </div>
        </div>
    
        <img class=""stim"" src=./stimuli//pack_shapes/cat_2/ex_2_45.png></img>
    ","null","stimulus","","","","",""
"","","","","","html-keyboard-response","92","121005","0.0-6.0-2.7","5f4f9140758a9c05039eb874","6554bfa13ac4b6a0ab00b03a","6554bffa6e289678f630cf16","null","
        <div style=""text-align: center; position: fixed; top: 5vh; left: 40vw;"">
            <div style=""margin:0 auto; width: 20vw; top: 8vh; font-size: 1vw""> 
            <font color=""green""> Bonus : $0.2 </font>
            </div>
        </div>
    ","null","","","","","",""
"","","","","","html-keyboard-response","93","121158","0.0-6.0-3.7","5f4f9140758a9c05039eb874","6554bfa13ac4b6a0ab00b03a","6554bffa6e289678f630cf16","149","./stimuli//pack_shapes/cat_2/ex_2_45.png","arrowright","response","ArrowRight","45","2","true",""
"","","","","","html-keyboard-response","94","122662","0.0-6.0-4.7","5f4f9140758a9c05039eb874","6554bfa13ac4b6a0ab00b03a","6554bffa6e289678f630cf16","null","<p> <font color=""green"" size=""4vw""> Correct category! </font> <br> <br> <font color=""green"" size=""7vw""> + $0.05 </font> </p>","null","feedback","","","","","0.25"
"","","","","","html-keyboard-response","95","124326","0.0-6.0-0.8","5f4f9140758a9c05039eb874","6554bfa13ac4b6a0ab00b03a","6554bffa6e289678f630cf16","1662","
            
        <div style=""text-align: center; position: fixed; top: 5vh; left: 40vw;"">
            <div style=""margin:0 auto; width: 20vw; top: 8vh; font-size: 1vw""> 
            <font color=""green""> Bonus : $0.25 </font>
            </div>
        </div>
    
            <div> Please press any button to continue to the next trial.</div>
        "," ","ITI","","","","",""
"","","","","","html-keyboard-response","96","124935","0.0-6.0-1.8","5f4f9140758a9c05039eb874","6554bfa13ac4b6a0ab00b03a","6554bffa6e289678f630cf16","null","
        
        <div style=""text-align: center; position: fixed; top: 5vh; left: 40vw;"">
            <div style=""margin:0 auto; width: 20vw; top: 8vh; font-size: 1vw""> 
            <font color=""green""> Bonus : $0.25 </font>
            </div>
        </div>
    
        <img class=""stim"" src=./stimuli//pack_shapes/cat_2/ex_2_51.png></img>
    ","null","stimulus","","","","",""
"","","","","","html-keyboard-response","97","125947","0.0-6.0-2.8","5f4f9140758a9c05039eb874","6554bfa13ac4b6a0ab00b03a","6554bffa6e289678f630cf16","null","
        <div style=""text-align: center; position: fixed; top: 5vh; left: 40vw;"">
            <div style=""margin:0 auto; width: 20vw; top: 8vh; font-size: 1vw""> 
            <font color=""green""> Bonus : $0.25 </font>
            </div>
        </div>
    ","null","","","","","",""
"","","","","","html-keyboard-response","98","126278","0.0-6.0-3.8","5f4f9140758a9c05039eb874","6554bfa13ac4b6a0ab00b03a","6554bffa6e289678f630cf16","329","./stimuli//pack_shapes/cat_2/ex_2_51.png","arrowleft","response","ArrowRight","51","2","false",""
"","","","","","html-keyboard-response","99","127787","0.0-6.0-4.8","5f4f9140758a9c05039eb874","6554bfa13ac4b6a0ab00b03a","6554bffa6e289678f630cf16","null","<p> <font color=""red"" size=""4vw""> Wrong category! </font> </p>","null","feedback","","","","","0.25"
"","","","","","html-keyboard-response","100","128078","0.0-6.0-0.9","5f4f9140758a9c05039eb874","6554bfa13ac4b6a0ab00b03a","6554bffa6e289678f630cf16","290","
            
        <div style=""text-align: center; position: fixed; top: 5vh; left: 40vw;"">
            <div style=""margin:0 auto; width: 20vw; top: 8vh; font-size: 1vw""> 
            <font color=""green""> Bonus : $0.25 </font>
            </div>
        </div>
    
            <div> Please press any button to continue to the next trial.</div>
        "," ","ITI","","","","",""
"","","","","","html-keyboard-response","101","128691","0.0-6.0-1.9","5f4f9140758a9c05039eb874","6554bfa13ac4b6a0ab00b03a","6554bffa6e289678f630cf16","null","
        
        <div style=""text-align: center; position: fixed; top: 5vh; left: 40vw;"">
            <div style=""margin:0 auto; width: 20vw; top: 8vh; font-size: 1vw""> 
            <font color=""green""> Bonus : $0.25 </font>
            </div>
        </div>
    
        <img class=""stim"" src=./stimuli//pack_shapes/cat_2/ex_2_63.png></img>
    ","null","stimulus","","","","",""
"","","","","","html-keyboard-response","102","129700","0.0-6.0-2.9","5f4f9140758a9c05039eb874","6554bfa13ac4b6a0ab00b03a","6554bffa6e289678f630cf16","null","
        <div style=""text-align: center; position: fixed; top: 5vh; left: 40vw;"">
            <div style=""margin:0 auto; width: 20vw; top: 8vh; font-size: 1vw""> 
            <font color=""green""> Bonus : $0.25 </font>
            </div>
        </div>
    ","null","","","","","",""
"","","","","","html-keyboard-response","103","129925","0.0-6.0-3.9","5f4f9140758a9c05039eb874","6554bfa13ac4b6a0ab00b03a","6554bffa6e289678f630cf16","223","./stimuli//pack_shapes/cat_2/ex_2_63.png","arrowleft","response","ArrowRight","63","2","false",""
"","","","","","html-keyboard-response","104","131437","0.0-6.0-4.9","5f4f9140758a9c05039eb874","6554bfa13ac4b6a0ab00b03a","6554bffa6e289678f630cf16","null","<p> <font color=""red"" size=""4vw""> Wrong category! </font> </p>","null","feedback","","","","","0.25"
"","","","","","html-keyboard-response","105","131990","0.0-6.0-0.10","5f4f9140758a9c05039eb874","6554bfa13ac4b6a0ab00b03a","6554bffa6e289678f630cf16","551","
            
        <div style=""text-align: center; position: fixed; top: 5vh; left: 40vw;"">
            <div style=""margin:0 auto; width: 20vw; top: 8vh; font-size: 1vw""> 
            <font color=""green""> Bonus : $0.25 </font>
            </div>
        </div>
    
            <div> Please press any button to continue to the next trial.</div>
        "," ","ITI","","","","",""
"","","","","","html-keyboard-response","106","132607","0.0-6.0-1.10","5f4f9140758a9c05039eb874","6554bfa13ac4b6a0ab00b03a","6554bffa6e289678f630cf16","null","
        
        <div style=""text-align: center; position: fixed; top: 5vh; left: 40vw;"">
            <div style=""margin:0 auto; width: 20vw; top: 8vh; font-size: 1vw""> 
            <font color=""green""> Bonus : $0.25 </font>
            </div>
        </div>
    
        <img class=""stim"" src=./stimuli//pack_shapes/cat_2/ex_2_71.png></img>
    ","null","stimulus","","","","",""
"","","","","","html-keyboard-response","107","133620","0.0-6.0-2.10","5f4f9140758a9c05039eb874","6554bfa13ac4b6a0ab00b03a","6554bffa6e289678f630cf16","null","
        <div style=""text-align: center; position: fixed; top: 5vh; left: 40vw;"">
            <div style=""margin:0 auto; width: 20vw; top: 8vh; font-size: 1vw""> 
            <font color=""green""> Bonus : $0.25 </font>
            </div>
        </div>
    ","null","","","","","",""
"","","","","","html-keyboard-response","108","133726","0.0-6.0-3.10","5f4f9140758a9c05039eb874","6554bfa13ac4b6a0ab00b03a","6554bffa6e289678f630cf16","103","./stimuli//pack_shapes/cat_2/ex_2_71.png","arrowleft","response","ArrowRight","71","2","false",""
"","","","","","html-keyboard-response","109","135232","0.0-6.0-4.10","5f4f9140758a9c05039eb874","6554bfa13ac4b6a0ab00b03a","6554bffa6e289678f630cf16","null","<p> <font color=""red"" size=""4vw""> Wrong category! </font> </p>","null","feedback","","","","","0.25"
"","","","","","html-keyboard-response","110","135574","0.0-6.0-0.11","5f4f9140758a9c05039eb874","6554bfa13ac4b6a0ab00b03a","6554bffa6e289678f630cf16","340","
            
        <div style=""text-align: center; position: fixed; top: 5vh; left: 40vw;"">
            <div style=""margin:0 auto; width: 20vw; top: 8vh; font-size: 1vw""> 
            <font color=""green""> Bonus : $0.25 </font>
            </div>
        </div>
    
            <div> Please press any button to continue to the next trial.</div>
        "," ","ITI","","","","",""
"","","","","","html-keyboard-response","111","136186","0.0-6.0-1.11","5f4f9140758a9c05039eb874","6554bfa13ac4b6a0ab00b03a","6554bffa6e289678f630cf16","null","
        
        <div style=""text-align: center; position: fixed; top: 5vh; left: 40vw;"">
            <div style=""margin:0 auto; width: 20vw; top: 8vh; font-size: 1vw""> 
            <font color=""green""> Bonus : $0.25 </font>
            </div>
        </div>
    
        <img class=""stim"" src=./stimuli//pack_shapes/cat_2/ex_2_23.png></img>
    ","null","stimulus","","","","",""
"","","","","","html-keyboard-response","112","137193","0.0-6.0-2.11","5f4f9140758a9c05039eb874","6554bfa13ac4b6a0ab00b03a","6554bffa6e289678f630cf16","null","
        <div style=""text-align: center; position: fixed; top: 5vh; left: 40vw;"">
            <div style=""margin:0 auto; width: 20vw; top: 8vh; font-size: 1vw""> 
            <font color=""green""> Bonus : $0.25 </font>
            </div>
        </div>
    ","null","","","","","",""
"","","","","","html-keyboard-response","113","137293","0.0-6.0-3.11","5f4f9140758a9c05039eb874","6554bfa13ac4b6a0ab00b03a","6554bffa6e289678f630cf16","98","./stimuli//pack_shapes/cat_2/ex_2_23.png","arrowright","response","ArrowRight","23","2","true",""
"","","","","","html-keyboard-response","114","138809","0.0-6.0-4.11","5f4f9140758a9c05039eb874","6554bfa13ac4b6a0ab00b03a","6554bffa6e289678f630cf16","null","<p> <font color=""green"" size=""4vw""> Correct category! </font> <br> <br> <font color=""green"" size=""7vw""> + $0.05 </font> </p>","null","feedback","","","","","0.3"
"","","","","","html-keyboard-response","115","139126","0.0-6.0-0.12","5f4f9140758a9c05039eb874","6554bfa13ac4b6a0ab00b03a","6554bffa6e289678f630cf16","315","
            
        <div style=""text-align: center; position: fixed; top: 5vh; left: 40vw;"">
            <div style=""margin:0 auto; width: 20vw; top: 8vh; font-size: 1vw""> 
            <font color=""green""> Bonus : $0.3 </font>
            </div>
        </div>
    
            <div> Please press any button to continue to the next trial.</div>
        "," ","ITI","","","","",""
"","","","","","html-keyboard-response","116","139736","0.0-6.0-1.12","5f4f9140758a9c05039eb874","6554bfa13ac4b6a0ab00b03a","6554bffa6e289678f630cf16","null","
        
        <div style=""text-align: center; position: fixed; top: 5vh; left: 40vw;"">
            <div style=""margin:0 auto; width: 20vw; top: 8vh; font-size: 1vw""> 
            <font color=""green""> Bonus : $0.3 </font>
            </div>
        </div>
    
        <img class=""stim"" src=./stimuli//pack_shapes/cat_1/ex_1_44.png></img>
    ","null","stimulus","","","","",""
"","","","","","html-keyboard-response","117","140740","0.0-6.0-2.12","5f4f9140758a9c05039eb874","6554bfa13ac4b6a0ab00b03a","6554bffa6e289678f630cf16","null","
        <div style=""text-align: center; position: fixed; top: 5vh; left: 40vw;"">
            <div style=""margin:0 auto; width: 20vw; top: 8vh; font-size: 1vw""> 
            <font color=""green""> Bonus : $0.3 </font>
            </div>
        </div>
    ","null","","","","","",""
"","","","","","html-keyboard-response","118","141094","0.0-6.0-3.12","5f4f9140758a9c05039eb874","6554bfa13ac4b6a0ab00b03a","6554bffa6e289678f630cf16","351","./stimuli//pack_shapes/cat_1/ex_1_44.png","arrowright","response","ArrowLeft","44","1","false",""
"","","","","","html-keyboard-response","119","142599","0.0-6.0-4.12","5f4f9140758a9c05039eb874","6554bfa13ac4b6a0ab00b03a","6554bffa6e289678f630cf16","null","<p> <font color=""red"" size=""4vw""> Wrong category! </font> </p>","null","feedback","","","","","0.3"
"","","","","","html-keyboard-response","120","142653","0.0-6.0-0.13","5f4f9140758a9c05039eb874","6554bfa13ac4b6a0ab00b03a","6554bffa6e289678f630cf16","53","
            
        <div style=""text-align: center; position: fixed; top: 5vh; left: 40vw;"">
            <div style=""margin:0 auto; width: 20vw; top: 8vh; font-size: 1vw""> 
            <font color=""green""> Bonus : $0.3 </font>
            </div>
        </div>
    
            <div> Please press any button to continue to the next trial.</div>
        "," ","ITI","","","","",""
"","","","","","html-keyboard-response","121","143264","0.0-6.0-1.13","5f4f9140758a9c05039eb874","6554bfa13ac4b6a0ab00b03a","6554bffa6e289678f630cf16","null","
        
        <div style=""text-align: center; position: fixed; top: 5vh; left: 40vw;"">
            <div style=""margin:0 auto; width: 20vw; top: 8vh; font-size: 1vw""> 
            <font color=""green""> Bonus : $0.3 </font>
            </div>
        </div>
    
        <img class=""stim"" src=./stimuli//pack_shapes/cat_2/ex_2_32.png></img>
    ","null","stimulus","","","","",""
"","","","","","html-keyboard-response","122","144272","0.0-6.0-2.13","5f4f9140758a9c05039eb874","6554bfa13ac4b6a0ab00b03a","6554bffa6e289678f630cf16","null","
        <div style=""text-align: center; position: fixed; top: 5vh; left: 40vw;"">
            <div style=""margin:0 auto; width: 20vw; top: 8vh; font-size: 1vw""> 
            <font color=""green""> Bonus : $0.3 </font>
            </div>
        </div>
    ","null","","","","","",""
"","","","","","html-keyboard-response","123","144318","0.0-6.0-3.13","5f4f9140758a9c05039eb874","6554bfa13ac4b6a0ab00b03a","6554bffa6e289678f630cf16","44","./stimuli//pack_shapes/cat_2/ex_2_32.png","arrowright","response","ArrowRight","32","2","true",""
"","","","","","html-keyboard-response","124","145832","0.0-6.0-4.13","5f4f9140758a9c05039eb874","6554bfa13ac4b6a0ab00b03a","6554bffa6e289678f630cf16","null","<p> <font color=""green"" size=""4vw""> Correct category! </font> <br> <br> <font color=""green"" size=""7vw""> + $0.05 </font> </p>","null","feedback","","","","","0.35"
"","","","","","html-keyboard-response","125","146118","0.0-6.0-0.14","5f4f9140758a9c05039eb874","6554bfa13ac4b6a0ab00b03a","6554bffa6e289678f630cf16","284","
            
        <div style=""text-align: center; position: fixed; top: 5vh; left: 40vw;"">
            <div style=""margin:0 auto; width: 20vw; top: 8vh; font-size: 1vw""> 
            <font color=""green""> Bonus : $0.35 </font>
            </div>
        </div>
    
            <div> Please press any button to continue to the next trial.</div>
        "," ","ITI","","","","",""
"","","","","","html-keyboard-response","126","146736","0.0-6.0-1.14","5f4f9140758a9c05039eb874","6554bfa13ac4b6a0ab00b03a","6554bffa6e289678f630cf16","null","
        
        <div style=""text-align: center; position: fixed; top: 5vh; left: 40vw;"">
            <div style=""margin:0 auto; width: 20vw; top: 8vh; font-size: 1vw""> 
            <font color=""green""> Bonus : $0.35 </font>
            </div>
        </div>
    
        <img class=""stim"" src=./stimuli//pack_shapes/cat_2/ex_2_16.png></img>
    ","null","stimulus","","","","",""
"","","","","","html-keyboard-response","127","147749","0.0-6.0-2.14","5f4f9140758a9c05039eb874","6554bfa13ac4b6a0ab00b03a","6554bffa6e289678f630cf16","null","
        <div style=""text-align: center; position: fixed; top: 5vh; left: 40vw;"">
            <div style=""margin:0 auto; width: 20vw; top: 8vh; font-size: 1vw""> 
            <font color=""green""> Bonus : $0.35 </font>
            </div>
        </div>
    ","null","","","","","",""
"","","","","","html-keyboard-response","128","148198","0.0-6.0-3.14","5f4f9140758a9c05039eb874","6554bfa13ac4b6a0ab00b03a","6554bffa6e289678f630cf16","445","./stimuli//pack_shapes/cat_2/ex_2_16.png","arrowleft","response","ArrowRight","16","2","false",""
"","","","","","html-keyboard-response","129","149707","0.0-6.0-4.14","5f4f9140758a9c05039eb874","6554bfa13ac4b6a0ab00b03a","6554bffa6e289678f630cf16","null","<p> <font color=""red"" size=""4vw""> Wrong category! </font> </p>","null","feedback","","","","","0.35"
"","","","","","html-keyboard-response","130","150119","0.0-6.0-0.15","5f4f9140758a9c05039eb874","6554bfa13ac4b6a0ab00b03a","6554bffa6e289678f630cf16","410","
            
        <div style=""text-align: center; position: fixed; top: 5vh; left: 40vw;"">
            <div style=""margin:0 auto; width: 20vw; top: 8vh; font-size: 1vw""> 
            <font color=""green""> Bonus : $0.35 </font>
            </div>
        </div>
    
            <div> Please press any button to continue to the next trial.</div>
        "," ","ITI","","","","",""
"","","","","","html-keyboard-response","131","150730","0.0-6.0-1.15","5f4f9140758a9c05039eb874","6554bfa13ac4b6a0ab00b03a","6554bffa6e289678f630cf16","null","
        
        <div style=""text-align: center; position: fixed; top: 5vh; left: 40vw;"">
            <div style=""margin:0 auto; width: 20vw; top: 8vh; font-size: 1vw""> 
            <font color=""green""> Bonus : $0.35 </font>
            </div>
        </div>
    
        <img class=""stim"" src=./stimuli//pack_shapes/cat_1/ex_1_43.png></img>
    ","null","stimulus","","","","",""
"","","","","","html-keyboard-response","132","151735","0.0-6.0-2.15","5f4f9140758a9c05039eb874","6554bfa13ac4b6a0ab00b03a","6554bffa6e289678f630cf16","null","
        <div style=""text-align: center; position: fixed; top: 5vh; left: 40vw;"">
            <div style=""margin:0 auto; width: 20vw; top: 8vh; font-size: 1vw""> 
            <font color=""green""> Bonus : $0.35 </font>
            </div>
        </div>
    ","null","","","","","",""
"","","","","","html-keyboard-response","133","151997","0.0-6.0-3.15","5f4f9140758a9c05039eb874","6554bfa13ac4b6a0ab00b03a","6554bffa6e289678f630cf16","260","./stimuli//pack_shapes/cat_1/ex_1_43.png","arrowright","response","ArrowLeft","43","1","false",""
"","","","","","html-keyboard-response","134","153506","0.0-6.0-4.15","5f4f9140758a9c05039eb874","6554bfa13ac4b6a0ab00b03a","6554bffa6e289678f630cf16","null","<p> <font color=""red"" size=""4vw""> Wrong category! </font> </p>","null","feedback","","","","","0.35"
"","","","","","html-keyboard-response","135","153781","0.0-6.0-0.16","5f4f9140758a9c05039eb874","6554bfa13ac4b6a0ab00b03a","6554bffa6e289678f630cf16","274","
            
        <div style=""text-align: center; position: fixed; top: 5vh; left: 40vw;"">
            <div style=""margin:0 auto; width: 20vw; top: 8vh; font-size: 1vw""> 
            <font color=""green""> Bonus : $0.35 </font>
            </div>
        </div>
    
            <div> Please press any button to continue to the next trial.</div>
        "," ","ITI","","","","",""
"","","","","","html-keyboard-response","136","154390","0.0-6.0-1.16","5f4f9140758a9c05039eb874","6554bfa13ac4b6a0ab00b03a","6554bffa6e289678f630cf16","null","
        
        <div style=""text-align: center; position: fixed; top: 5vh; left: 40vw;"">
            <div style=""margin:0 auto; width: 20vw; top: 8vh; font-size: 1vw""> 
            <font color=""green""> Bonus : $0.35 </font>
            </div>
        </div>
    
        <img class=""stim"" src=./stimuli//pack_shapes/cat_1/ex_1_63.png></img>
    ","null","stimulus","","","","",""
"","","","","","html-keyboard-response","137","155395","0.0-6.0-2.16","5f4f9140758a9c05039eb874","6554bfa13ac4b6a0ab00b03a","6554bffa6e289678f630cf16","null","
        <div style=""text-align: center; position: fixed; top: 5vh; left: 40vw;"">
            <div style=""margin:0 auto; width: 20vw; top: 8vh; font-size: 1vw""> 
            <font color=""green""> Bonus : $0.35 </font>
            </div>
        </div>
    ","null","","","","","",""
"","","","","","html-keyboard-response","138","155830","0.0-6.0-3.16","5f4f9140758a9c05039eb874","6554bfa13ac4b6a0ab00b03a","6554bffa6e289678f630cf16","433","./stimuli//pack_shapes/cat_1/ex_1_63.png","arrowleft","response","ArrowLeft","63","1","true",""
"","","","","","html-keyboard-response","139","157343","0.0-6.0-4.16","5f4f9140758a9c05039eb874","6554bfa13ac4b6a0ab00b03a","6554bffa6e289678f630cf16","null","<p> <font color=""green"" size=""4vw""> Correct category! </font> <br> <br> <font color=""green"" size=""7vw""> + $0.05 </font> </p>","null","feedback","","","","","0.4"
"","","","","","html-keyboard-response","140","157645","0.0-6.0-0.17","5f4f9140758a9c05039eb874","6554bfa13ac4b6a0ab00b03a","6554bffa6e289678f630cf16","301","
            
        <div style=""text-align: center; position: fixed; top: 5vh; left: 40vw;"">
            <div style=""margin:0 auto; width: 20vw; top: 8vh; font-size: 1vw""> 
            <font color=""green""> Bonus : $0.4 </font>
            </div>
        </div>
    
            <div> Please press any button to continue to the next trial.</div>
        "," ","ITI","","","","",""
"","","","","","html-keyboard-response","141","158254","0.0-6.0-1.17","5f4f9140758a9c05039eb874","6554bfa13ac4b6a0ab00b03a","6554bffa6e289678f630cf16","null","
        
        <div style=""text-align: center; position: fixed; top: 5vh; left: 40vw;"">
            <div style=""margin:0 auto; width: 20vw; top: 8vh; font-size: 1vw""> 
            <font color=""green""> Bonus : $0.4 </font>
            </div>
        </div>
    
        <img class=""stim"" src=./stimuli//pack_shapes/cat_1/ex_1_28.png></img>
    ","null","stimulus","","","","",""
"","","","","","html-keyboard-response","142","159263","0.0-6.0-2.17","5f4f9140758a9c05039eb874","6554bfa13ac4b6a0ab00b03a","6554bffa6e289678f630cf16","null","
        <div style=""text-align: center; position: fixed; top: 5vh; left: 40vw;"">
            <div style=""margin:0 auto; width: 20vw; top: 8vh; font-size: 1vw""> 
            <font color=""green""> Bonus : $0.4 </font>
            </div>
        </div>
    ","null","","","","","",""
"","","","","","html-keyboard-response","143","159510","0.0-6.0-3.17","5f4f9140758a9c05039eb874","6554bfa13ac4b6a0ab00b03a","6554bffa6e289678f630cf16","244","./stimuli//pack_shapes/cat_1/ex_1_28.png","arrowleft","response","ArrowLeft","28","1","true",""
"","","","","","html-keyboard-response","144","161026","0.0-6.0-4.17","5f4f9140758a9c05039eb874","6554bfa13ac4b6a0ab00b03a","6554bffa6e289678f630cf16","null","<p> <font color=""green"" size=""4vw""> Correct category! </font> <br> <br> <font color=""green"" size=""7vw""> + $0.05 </font> </p>","null","feedback","","","","","0.45"
"","","","","","html-keyboard-response","145","161382","0.0-6.0-0.18","5f4f9140758a9c05039eb874","6554bfa13ac4b6a0ab00b03a","6554bffa6e289678f630cf16","354","
            
        <div style=""text-align: center; position: fixed; top: 5vh; left: 40vw;"">
            <div style=""margin:0 auto; width: 20vw; top: 8vh; font-size: 1vw""> 
            <font color=""green""> Bonus : $0.45 </font>
            </div>
        </div>
    
            <div> Please press any button to continue to the next trial.</div>
        ","arrowleft","ITI","","","","",""
"","","","","","html-keyboard-response","146","162000","0.0-6.0-1.18","5f4f9140758a9c05039eb874","6554bfa13ac4b6a0ab00b03a","6554bffa6e289678f630cf16","null","
        
        <div style=""text-align: center; position: fixed; top: 5vh; left: 40vw;"">
            <div style=""margin:0 auto; width: 20vw; top: 8vh; font-size: 1vw""> 
            <font color=""green""> Bonus : $0.45 </font>
            </div>
        </div>
    
        <img class=""stim"" src=./stimuli//pack_shapes/cat_2/ex_2_53.png></img>
    ","null","stimulus","","","","",""
"","","","","","html-keyboard-response","147","163015","0.0-6.0-2.18","5f4f9140758a9c05039eb874","6554bfa13ac4b6a0ab00b03a","6554bffa6e289678f630cf16","null","
        <div style=""text-align: center; position: fixed; top: 5vh; left: 40vw;"">
            <div style=""margin:0 auto; width: 20vw; top: 8vh; font-size: 1vw""> 
            <font color=""green""> Bonus : $0.45 </font>
            </div>
        </div>
    ","null","","","","","",""
"","","","","","html-keyboard-response","148","164885","0.0-6.0-3.18","5f4f9140758a9c05039eb874","6554bfa13ac4b6a0ab00b03a","6554bffa6e289678f630cf16","1867","./stimuli//pack_shapes/cat_2/ex_2_53.png","arrowright","response","ArrowRight","53","2","true",""
"","","","","","html-keyboard-response","149","166388","0.0-6.0-4.18","5f4f9140758a9c05039eb874","6554bfa13ac4b6a0ab00b03a","6554bffa6e289678f630cf16","null","<p> <font color=""green"" size=""4vw""> Correct category! </font> <br> <br> <font color=""green"" size=""7vw""> + $0.05 </font> </p>","null","feedback","","","","","0.5"
"","","","","","html-keyboard-response","150","166693","0.0-6.0-0.19","5f4f9140758a9c05039eb874","6554bfa13ac4b6a0ab00b03a","6554bffa6e289678f630cf16","303","
            
        <div style=""text-align: center; position: fixed; top: 5vh; left: 40vw;"">
            <div style=""margin:0 auto; width: 20vw; top: 8vh; font-size: 1vw""> 
            <font color=""green""> Bonus : $0.5 </font>
            </div>
        </div>
    
            <div> Please press any button to continue to the next trial.</div>
        ","arrowleft","ITI","","","","",""
"","","","","","html-keyboard-response","151","167303","0.0-6.0-1.19","5f4f9140758a9c05039eb874","6554bfa13ac4b6a0ab00b03a","6554bffa6e289678f630cf16","null","
        
        <div style=""text-align: center; position: fixed; top: 5vh; left: 40vw;"">
            <div style=""margin:0 auto; width: 20vw; top: 8vh; font-size: 1vw""> 
            <font color=""green""> Bonus : $0.5 </font>
            </div>
        </div>
    
        <img class=""stim"" src=./stimuli//pack_shapes/cat_1/ex_1_15.png></img>
    ","null","stimulus","","","","",""
"","","","","","html-keyboard-response","152","168309","0.0-6.0-2.19","5f4f9140758a9c05039eb874","6554bfa13ac4b6a0ab00b03a","6554bffa6e289678f630cf16","null","
        <div style=""text-align: center; position: fixed; top: 5vh; left: 40vw;"">
            <div style=""margin:0 auto; width: 20vw; top: 8vh; font-size: 1vw""> 
            <font color=""green""> Bonus : $0.5 </font>
            </div>
        </div>
    ","null","","","","","",""
"","","","","","html-keyboard-response","153","168710","0.0-6.0-3.19","5f4f9140758a9c05039eb874","6554bfa13ac4b6a0ab00b03a","6554bffa6e289678f630cf16","399","./stimuli//pack_shapes/cat_1/ex_1_15.png","arrowleft","response","ArrowLeft","15","1","true",""
"","","","","","html-keyboard-response","154","170225","0.0-6.0-4.19","5f4f9140758a9c05039eb874","6554bfa13ac4b6a0ab00b03a","6554bffa6e289678f630cf16","null","<p> <font color=""green"" size=""4vw""> Correct category! </font> <br> <br> <font color=""green"" size=""7vw""> + $0.05 </font> </p>","null","feedback","","","","","0.55"
"","","","","","html-keyboard-response","155","170558","0.0-6.0-0.20","5f4f9140758a9c05039eb874","6554bfa13ac4b6a0ab00b03a","6554bffa6e289678f630cf16","331","
            
        <div style=""text-align: center; position: fixed; top: 5vh; left: 40vw;"">
            <div style=""margin:0 auto; width: 20vw; top: 8vh; font-size: 1vw""> 
            <font color=""green""> Bonus : $0.55 </font>
            </div>
        </div>
    
            <div> Please press any button to continue to the next trial.</div>
        ","arrowleft","ITI","","","","",""
"","","","","","html-keyboard-response","156","171176","0.0-6.0-1.20","5f4f9140758a9c05039eb874","6554bfa13ac4b6a0ab00b03a","6554bffa6e289678f630cf16","null","
        
        <div style=""text-align: center; position: fixed; top: 5vh; left: 40vw;"">
            <div style=""margin:0 auto; width: 20vw; top: 8vh; font-size: 1vw""> 
            <font color=""green""> Bonus : $0.55 </font>
            </div>
        </div>
    
        <img class=""stim"" src=./stimuli//pack_shapes/cat_2/ex_2_54.png></img>
    ","null","stimulus","","","","",""
"","","","","","html-keyboard-response","157","172186","0.0-6.0-2.20","5f4f9140758a9c05039eb874","6554bfa13ac4b6a0ab00b03a","6554bffa6e289678f630cf16","null","
        <div style=""text-align: center; position: fixed; top: 5vh; left: 40vw;"">
            <div style=""margin:0 auto; width: 20vw; top: 8vh; font-size: 1vw""> 
            <font color=""green""> Bonus : $0.55 </font>
            </div>
        </div>
    ","null","","","","","",""
"","","","","","html-keyboard-response","158","172470","0.0-6.0-3.20","5f4f9140758a9c05039eb874","6554bfa13ac4b6a0ab00b03a","6554bffa6e289678f630cf16","282","./stimuli//pack_shapes/cat_2/ex_2_54.png","arrowright","response","ArrowRight","54","2","true",""
"","","","","","html-keyboard-response","159","173976","0.0-6.0-4.20","5f4f9140758a9c05039eb874","6554bfa13ac4b6a0ab00b03a","6554bffa6e289678f630cf16","null","<p> <font color=""green"" size=""4vw""> Correct category! </font> <br> <br> <font color=""green"" size=""7vw""> + $0.05 </font> </p>","null","feedback","","","","","0.6"
"","","","","","html-keyboard-response","160","175221","0.0-6.0-0.21","5f4f9140758a9c05039eb874","6554bfa13ac4b6a0ab00b03a","6554bffa6e289678f630cf16","1244","
            
        <div style=""text-align: center; position: fixed; top: 5vh; left: 40vw;"">
            <div style=""margin:0 auto; width: 20vw; top: 8vh; font-size: 1vw""> 
            <font color=""green""> Bonus : $0.6 </font>
            </div>
        </div>
    
            <div> Please press any button to continue to the next trial.</div>
        ","arrowleft","ITI","","","","",""
"","","","","","html-keyboard-response","161","175824","0.0-6.0-1.21","5f4f9140758a9c05039eb874","6554bfa13ac4b6a0ab00b03a","6554bffa6e289678f630cf16","null","
        
        <div style=""text-align: center; position: fixed; top: 5vh; left: 40vw;"">
            <div style=""margin:0 auto; width: 20vw; top: 8vh; font-size: 1vw""> 
            <font color=""green""> Bonus : $0.6 </font>
            </div>
        </div>
    
        <img class=""stim"" src=./stimuli//pack_shapes/cat_2/ex_2_21.png></img>
    ","null","stimulus","","","","",""
"","","","","","html-keyboard-response","162","176836","0.0-6.0-2.21","5f4f9140758a9c05039eb874","6554bfa13ac4b6a0ab00b03a","6554bffa6e289678f630cf16","null","
        <div style=""text-align: center; position: fixed; top: 5vh; left: 40vw;"">
            <div style=""margin:0 auto; width: 20vw; top: 8vh; font-size: 1vw""> 
            <font color=""green""> Bonus : $0.6 </font>
            </div>
        </div>
    ","null","","","","","",""
"","","","","","html-keyboard-response","163","177086","0.0-6.0-3.21","5f4f9140758a9c05039eb874","6554bfa13ac4b6a0ab00b03a","6554bffa6e289678f630cf16","247","./stimuli//pack_shapes/cat_2/ex_2_21.png","arrowright","response","ArrowRight","21","2","true",""
"","","","","","html-keyboard-response","164","178601","0.0-6.0-4.21","5f4f9140758a9c05039eb874","6554bfa13ac4b6a0ab00b03a","6554bffa6e289678f630cf16","null","<p> <font color=""green"" size=""4vw""> Correct category! </font> <br> <br> <font color=""green"" size=""7vw""> + $0.05 </font> </p>","null","feedback","","","","","0.65"
"","","","","","html-keyboard-response","165","178917","0.0-6.0-0.22","5f4f9140758a9c05039eb874","6554bfa13ac4b6a0ab00b03a","6554bffa6e289678f630cf16","315","
            
        <div style=""text-align: center; position: fixed; top: 5vh; left: 40vw;"">
            <div style=""margin:0 auto; width: 20vw; top: 8vh; font-size: 1vw""> 
            <font color=""green""> Bonus : $0.65 </font>
            </div>
        </div>
    
            <div> Please press any button to continue to the next trial.</div>
        ","arrowleft","ITI","","","","",""
"","","","","","html-keyboard-response","166","179534","0.0-6.0-1.22","5f4f9140758a9c05039eb874","6554bfa13ac4b6a0ab00b03a","6554bffa6e289678f630cf16","null","
        
        <div style=""text-align: center; position: fixed; top: 5vh; left: 40vw;"">
            <div style=""margin:0 auto; width: 20vw; top: 8vh; font-size: 1vw""> 
            <font color=""green""> Bonus : $0.65 </font>
            </div>
        </div>
    
        <img class=""stim"" src=./stimuli//pack_shapes/cat_1/ex_1_53.png></img>
    ","null","stimulus","","","","",""
"","","","","","html-keyboard-response","167","180544","0.0-6.0-2.22","5f4f9140758a9c05039eb874","6554bfa13ac4b6a0ab00b03a","6554bffa6e289678f630cf16","null","
        <div style=""text-align: center; position: fixed; top: 5vh; left: 40vw;"">
            <div style=""margin:0 auto; width: 20vw; top: 8vh; font-size: 1vw""> 
            <font color=""green""> Bonus : $0.65 </font>
            </div>
        </div>
    ","null","","","","","",""
"","","","","","html-keyboard-response","168","180942","0.0-6.0-3.22","5f4f9140758a9c05039eb874","6554bfa13ac4b6a0ab00b03a","6554bffa6e289678f630cf16","395","./stimuli//pack_shapes/cat_1/ex_1_53.png","arrowleft","response","ArrowLeft","53","1","true",""
"","","","","","html-keyboard-response","169","182452","0.0-6.0-4.22","5f4f9140758a9c05039eb874","6554bfa13ac4b6a0ab00b03a","6554bffa6e289678f630cf16","null","<p> <font color=""green"" size=""4vw""> Correct category! </font> <br> <br> <font color=""green"" size=""7vw""> + $0.05 </font> </p>","null","feedback","","","","","0.7"
"","","","","","html-keyboard-response","170","183150","0.0-6.0-0.23","5f4f9140758a9c05039eb874","6554bfa13ac4b6a0ab00b03a","6554bffa6e289678f630cf16","697","
            
        <div style=""text-align: center; position: fixed; top: 5vh; left: 40vw;"">
            <div style=""margin:0 auto; width: 20vw; top: 8vh; font-size: 1vw""> 
            <font color=""green""> Bonus : $0.7 </font>
            </div>
        </div>
    
            <div> Please press any button to continue to the next trial.</div>
        ","arrowleft","ITI","","","","",""
"","","","","","html-keyboard-response","171","183752","0.0-6.0-1.23","5f4f9140758a9c05039eb874","6554bfa13ac4b6a0ab00b03a","6554bffa6e289678f630cf16","null","
        
        <div style=""text-align: center; position: fixed; top: 5vh; left: 40vw;"">
            <div style=""margin:0 auto; width: 20vw; top: 8vh; font-size: 1vw""> 
            <font color=""green""> Bonus : $0.7 </font>
            </div>
        </div>
    
        <img class=""stim"" src=./stimuli//pack_shapes/cat_1/ex_1_77.png></img>
    ","null","stimulus","","","","",""
"","","","","","html-keyboard-response","172","184755","0.0-6.0-2.23","5f4f9140758a9c05039eb874","6554bfa13ac4b6a0ab00b03a","6554bffa6e289678f630cf16","null","
        <div style=""text-align: center; position: fixed; top: 5vh; left: 40vw;"">
            <div style=""margin:0 auto; width: 20vw; top: 8vh; font-size: 1vw""> 
            <font color=""green""> Bonus : $0.7 </font>
            </div>
        </div>
    ","null","","","","","",""
"","","","","","html-keyboard-response","173","185038","0.0-6.0-3.23","5f4f9140758a9c05039eb874","6554bfa13ac4b6a0ab00b03a","6554bffa6e289678f630cf16","280","./stimuli//pack_shapes/cat_1/ex_1_77.png","arrowleft","response","ArrowLeft","77","1","true",""
"","","","","","html-keyboard-response","174","186553","0.0-6.0-4.23","5f4f9140758a9c05039eb874","6554bfa13ac4b6a0ab00b03a","6554bffa6e289678f630cf16","null","<p> <font color=""green"" size=""4vw""> Correct category! </font> <br> <br> <font color=""green"" size=""7vw""> + $0.05 </font> </p>","null","feedback","","","","","0.75"
"","","","","","html-keyboard-response","175","186894","0.0-6.0-0.24","5f4f9140758a9c05039eb874","6554bfa13ac4b6a0ab00b03a","6554bffa6e289678f630cf16","340","
            
        <div style=""text-align: center; position: fixed; top: 5vh; left: 40vw;"">
            <div style=""margin:0 auto; width: 20vw; top: 8vh; font-size: 1vw""> 
            <font color=""green""> Bonus : $0.75 </font>
            </div>
        </div>
    
            <div> Please press any button to continue to the next trial.</div>
        ","arrowleft","ITI","","","","",""
"","","","","","html-keyboard-response","176","187507","0.0-6.0-1.24","5f4f9140758a9c05039eb874","6554bfa13ac4b6a0ab00b03a","6554bffa6e289678f630cf16","null","
        
        <div style=""text-align: center; position: fixed; top: 5vh; left: 40vw;"">
            <div style=""margin:0 auto; width: 20vw; top: 8vh; font-size: 1vw""> 
            <font color=""green""> Bonus : $0.75 </font>
            </div>
        </div>
    
        <img class=""stim"" src=./stimuli//pack_shapes/cat_2/ex_2_79.png></img>
    ","null","stimulus","","","","",""
"","","","","","html-keyboard-response","177","188521","0.0-6.0-2.24","5f4f9140758a9c05039eb874","6554bfa13ac4b6a0ab00b03a","6554bffa6e289678f630cf16","null","
        <div style=""text-align: center; position: fixed; top: 5vh; left: 40vw;"">
            <div style=""margin:0 auto; width: 20vw; top: 8vh; font-size: 1vw""> 
            <font color=""green""> Bonus : $0.75 </font>
            </div>
        </div>
    ","null","","","","","",""
"","","","","","html-keyboard-response","178","188782","0.0-6.0-3.24","5f4f9140758a9c05039eb874","6554bfa13ac4b6a0ab00b03a","6554bffa6e289678f630cf16","258","./stimuli//pack_shapes/cat_2/ex_2_79.png","arrowright","response","ArrowRight","79","2","true",""
"","","","","","html-keyboard-response","179","190292","0.0-6.0-4.24","5f4f9140758a9c05039eb874","6554bfa13ac4b6a0ab00b03a","6554bffa6e289678f630cf16","null","<p> <font color=""green"" size=""4vw""> Correct category! </font> <br> <br> <font color=""green"" size=""7vw""> + $0.05 </font> </p>","null","feedback","","","","","0.8"
"","","","","","html-keyboard-response","180","190566","0.0-6.0-0.25","5f4f9140758a9c05039eb874","6554bfa13ac4b6a0ab00b03a","6554bffa6e289678f630cf16","272","
            
        <div style=""text-align: center; position: fixed; top: 5vh; left: 40vw;"">
            <div style=""margin:0 auto; width: 20vw; top: 8vh; font-size: 1vw""> 
            <font color=""green""> Bonus : $0.8 </font>
            </div>
        </div>
    
            <div> Please press any button to continue to the next trial.</div>
        ","arrowleft","ITI","","","","",""
"","","","","","html-keyboard-response","181","191171","0.0-6.0-1.25","5f4f9140758a9c05039eb874","6554bfa13ac4b6a0ab00b03a","6554bffa6e289678f630cf16","null","
        
        <div style=""text-align: center; position: fixed; top: 5vh; left: 40vw;"">
            <div style=""margin:0 auto; width: 20vw; top: 8vh; font-size: 1vw""> 
            <font color=""green""> Bonus : $0.8 </font>
            </div>
        </div>
    
        <img class=""stim"" src=./stimuli//pack_shapes/cat_2/ex_2_19.png></img>
    ","null","stimulus","","","","",""
"","","","","","html-keyboard-response","182","192175","0.0-6.0-2.25","5f4f9140758a9c05039eb874","6554bfa13ac4b6a0ab00b03a","6554bffa6e289678f630cf16","null","
        <div style=""text-align: center; position: fixed; top: 5vh; left: 40vw;"">
            <div style=""margin:0 auto; width: 20vw; top: 8vh; font-size: 1vw""> 
            <font color=""green""> Bonus : $0.8 </font>
            </div>
        </div>
    ","null","","","","","",""
"","","","","","html-keyboard-response","183","192638","0.0-6.0-3.25","5f4f9140758a9c05039eb874","6554bfa13ac4b6a0ab00b03a","6554bffa6e289678f630cf16","460","./stimuli//pack_shapes/cat_2/ex_2_19.png","arrowright","response","ArrowRight","19","2","true",""
"","","","","","html-keyboard-response","184","194142","0.0-6.0-4.25","5f4f9140758a9c05039eb874","6554bfa13ac4b6a0ab00b03a","6554bffa6e289678f630cf16","null","<p> <font color=""green"" size=""4vw""> Correct category! </font> <br> <br> <font color=""green"" size=""7vw""> + $0.05 </font> </p>","null","feedback","","","","","0.85"
"","","","","","html-keyboard-response","185","194870","0.0-6.0-0.26","5f4f9140758a9c05039eb874","6554bfa13ac4b6a0ab00b03a","6554bffa6e289678f630cf16","727","
            
        <div style=""text-align: center; position: fixed; top: 5vh; left: 40vw;"">
            <div style=""margin:0 auto; width: 20vw; top: 8vh; font-size: 1vw""> 
            <font color=""green""> Bonus : $0.85 </font>
            </div>
        </div>
    
            <div> Please press any button to continue to the next trial.</div>
        ","arrowleft","ITI","","","","",""
"","","","","","html-keyboard-response","186","195486","0.0-6.0-1.26","5f4f9140758a9c05039eb874","6554bfa13ac4b6a0ab00b03a","6554bffa6e289678f630cf16","null","
        
        <div style=""text-align: center; position: fixed; top: 5vh; left: 40vw;"">
            <div style=""margin:0 auto; width: 20vw; top: 8vh; font-size: 1vw""> 
            <font color=""green""> Bonus : $0.85 </font>
            </div>
        </div>
    
        <img class=""stim"" src=./stimuli//pack_shapes/cat_1/ex_1_21.png></img>
    ","null","stimulus","","","","",""
"","","","","","html-keyboard-response","187","196489","0.0-6.0-2.26","5f4f9140758a9c05039eb874","6554bfa13ac4b6a0ab00b03a","6554bffa6e289678f630cf16","null","
        <div style=""text-align: center; position: fixed; top: 5vh; left: 40vw;"">
            <div style=""margin:0 auto; width: 20vw; top: 8vh; font-size: 1vw""> 
            <font color=""green""> Bonus : $0.85 </font>
            </div>
        </div>
    ","null","","","","","",""
"","","","","","html-keyboard-response","188","197022","0.0-6.0-3.26","5f4f9140758a9c05039eb874","6554bfa13ac4b6a0ab00b03a","6554bffa6e289678f630cf16","530","./stimuli//pack_shapes/cat_1/ex_1_21.png","arrowleft","response","ArrowLeft","21","1","true",""
"","","","","","html-keyboard-response","189","198538","0.0-6.0-4.26","5f4f9140758a9c05039eb874","6554bfa13ac4b6a0ab00b03a","6554bffa6e289678f630cf16","null","<p> <font color=""green"" size=""4vw""> Correct category! </font> <br> <br> <font color=""green"" size=""7vw""> + $0.05 </font> </p>","null","feedback","","","","","0.9"
"","","","","","html-keyboard-response","190","198990","0.0-6.0-0.27","5f4f9140758a9c05039eb874","6554bfa13ac4b6a0ab00b03a","6554bffa6e289678f630cf16","451","
            
        <div style=""text-align: center; position: fixed; top: 5vh; left: 40vw;"">
            <div style=""margin:0 auto; width: 20vw; top: 8vh; font-size: 1vw""> 
            <font color=""green""> Bonus : $0.9 </font>
            </div>
        </div>
    
            <div> Please press any button to continue to the next trial.</div>
        ","arrowleft","ITI","","","","",""
"","","","","","html-keyboard-response","191","199596","0.0-6.0-1.27","5f4f9140758a9c05039eb874","6554bfa13ac4b6a0ab00b03a","6554bffa6e289678f630cf16","null","
        
        <div style=""text-align: center; position: fixed; top: 5vh; left: 40vw;"">
            <div style=""margin:0 auto; width: 20vw; top: 8vh; font-size: 1vw""> 
            <font color=""green""> Bonus : $0.9 </font>
            </div>
        </div>
    
        <img class=""stim"" src=./stimuli//pack_shapes/cat_2/ex_2_37.png></img>
    ","null","stimulus","","","","",""
"","","","","","html-keyboard-response","192","200611","0.0-6.0-2.27","5f4f9140758a9c05039eb874","6554bfa13ac4b6a0ab00b03a","6554bffa6e289678f630cf16","null","
        <div style=""text-align: center; position: fixed; top: 5vh; left: 40vw;"">
            <div style=""margin:0 auto; width: 20vw; top: 8vh; font-size: 1vw""> 
            <font color=""green""> Bonus : $0.9 </font>
            </div>
        </div>
    ","null","","","","","",""
"","","","","","html-keyboard-response","193","200878","0.0-6.0-3.27","5f4f9140758a9c05039eb874","6554bfa13ac4b6a0ab00b03a","6554bffa6e289678f630cf16","264","./stimuli//pack_shapes/cat_2/ex_2_37.png","arrowright","response","ArrowRight","37","2","true",""
"","","","","","html-keyboard-response","194","202384","0.0-6.0-4.27","5f4f9140758a9c05039eb874","6554bfa13ac4b6a0ab00b03a","6554bffa6e289678f630cf16","null","<p> <font color=""green"" size=""4vw""> Correct category! </font> <br> <br> <font color=""green"" size=""7vw""> + $0.05 </font> </p>","null","feedback","","","","","0.95"
"","","","","","html-keyboard-response","195","202735","0.0-6.0-0.28","5f4f9140758a9c05039eb874","6554bfa13ac4b6a0ab00b03a","6554bffa6e289678f630cf16","349","
            
        <div style=""text-align: center; position: fixed; top: 5vh; left: 40vw;"">
            <div style=""margin:0 auto; width: 20vw; top: 8vh; font-size: 1vw""> 
            <font color=""green""> Bonus : $0.95 </font>
            </div>
        </div>
    
            <div> Please press any button to continue to the next trial.</div>
        ","arrowleft","ITI","","","","",""
"","","","","","html-keyboard-response","196","203355","0.0-6.0-1.28","5f4f9140758a9c05039eb874","6554bfa13ac4b6a0ab00b03a","6554bffa6e289678f630cf16","null","
        
        <div style=""text-align: center; position: fixed; top: 5vh; left: 40vw;"">
            <div style=""margin:0 auto; width: 20vw; top: 8vh; font-size: 1vw""> 
            <font color=""green""> Bonus : $0.95 </font>
            </div>
        </div>
    
        <img class=""stim"" src=./stimuli//pack_shapes/cat_2/ex_2_67.png></img>
    ","null","stimulus","","","","",""
"","","","","","html-keyboard-response","197","204372","0.0-6.0-2.28","5f4f9140758a9c05039eb874","6554bfa13ac4b6a0ab00b03a","6554bffa6e289678f630cf16","null","
        <div style=""text-align: center; position: fixed; top: 5vh; left: 40vw;"">
            <div style=""margin:0 auto; width: 20vw; top: 8vh; font-size: 1vw""> 
            <font color=""green""> Bonus : $0.95 </font>
            </div>
        </div>
    ","null","","","","","",""
"","","","","","html-keyboard-response","198","204646","0.0-6.0-3.28","5f4f9140758a9c05039eb874","6554bfa13ac4b6a0ab00b03a","6554bffa6e289678f630cf16","272","./stimuli//pack_shapes/cat_2/ex_2_67.png","arrowright","response","ArrowRight","67","2","true",""
"","","","","","html-keyboard-response","199","206158","0.0-6.0-4.28","5f4f9140758a9c05039eb874","6554bfa13ac4b6a0ab00b03a","6554bffa6e289678f630cf16","null","<p> <font color=""green"" size=""4vw""> Correct category! </font> <br> <br> <font color=""green"" size=""7vw""> + $0.05 </font> </p>","null","feedback","","","","","1"
"","","","","","html-keyboard-response","200","208246","0.0-6.0-0.29","5f4f9140758a9c05039eb874","6554bfa13ac4b6a0ab00b03a","6554bffa6e289678f630cf16","2086","
            
        <div style=""text-align: center; position: fixed; top: 5vh; left: 40vw;"">
            <div style=""margin:0 auto; width: 20vw; top: 8vh; font-size: 1vw""> 
            <font color=""green""> Bonus : $1 </font>
            </div>
        </div>
    
            <div> Please press any button to continue to the next trial.</div>
        ","arrowright","ITI","","","","",""
"","","","","","html-keyboard-response","201","208855","0.0-6.0-1.29","5f4f9140758a9c05039eb874","6554bfa13ac4b6a0ab00b03a","6554bffa6e289678f630cf16","null","
        
        <div style=""text-align: center; position: fixed; top: 5vh; left: 40vw;"">
            <div style=""margin:0 auto; width: 20vw; top: 8vh; font-size: 1vw""> 
            <font color=""green""> Bonus : $1 </font>
            </div>
        </div>
    
        <img class=""stim"" src=./stimuli//pack_shapes/cat_1/ex_1_73.png></img>
    ","null","stimulus","","","","",""
"","","","","","html-keyboard-response","202","209864","0.0-6.0-2.29","5f4f9140758a9c05039eb874","6554bfa13ac4b6a0ab00b03a","6554bffa6e289678f630cf16","null","
        <div style=""text-align: center; position: fixed; top: 5vh; left: 40vw;"">
            <div style=""margin:0 auto; width: 20vw; top: 8vh; font-size: 1vw""> 
            <font color=""green""> Bonus : $1 </font>
            </div>
        </div>
    ","null","","","","","",""
"","","","","","html-keyboard-response","203","210246","0.0-6.0-3.29","5f4f9140758a9c05039eb874","6554bfa13ac4b6a0ab00b03a","6554bffa6e289678f630cf16","380","./stimuli//pack_shapes/cat_1/ex_1_73.png","arrowright","response","ArrowLeft","73","1","false",""
"","","","","","html-keyboard-response","204","211759","0.0-6.0-4.29","5f4f9140758a9c05039eb874","6554bfa13ac4b6a0ab00b03a","6554bffa6e289678f630cf16","null","<p> <font color=""red"" size=""4vw""> Wrong category! </font> </p>","null","feedback","","","","","1"
"","","","","","html-keyboard-response","205","212261","0.0-6.0-0.30","5f4f9140758a9c05039eb874","6554bfa13ac4b6a0ab00b03a","6554bffa6e289678f630cf16","501","
            
        <div style=""text-align: center; position: fixed; top: 5vh; left: 40vw;"">
            <div style=""margin:0 auto; width: 20vw; top: 8vh; font-size: 1vw""> 
            <font color=""green""> Bonus : $1 </font>
            </div>
        </div>
    
            <div> Please press any button to continue to the next trial.</div>
        ","arrowright","ITI","","","","",""
"","","","","","html-keyboard-response","206","212877","0.0-6.0-1.30","5f4f9140758a9c05039eb874","6554bfa13ac4b6a0ab00b03a","6554bffa6e289678f630cf16","null","
        
        <div style=""text-align: center; position: fixed; top: 5vh; left: 40vw;"">
            <div style=""margin:0 auto; width: 20vw; top: 8vh; font-size: 1vw""> 
            <font color=""green""> Bonus : $1 </font>
            </div>
        </div>
    
        <img class=""stim"" src=./stimuli//pack_shapes/cat_1/ex_1_66.png></img>
    ","null","stimulus","","","","",""
"","","","","","html-keyboard-response","207","213889","0.0-6.0-2.30","5f4f9140758a9c05039eb874","6554bfa13ac4b6a0ab00b03a","6554bffa6e289678f630cf16","null","
        <div style=""text-align: center; position: fixed; top: 5vh; left: 40vw;"">
            <div style=""margin:0 auto; width: 20vw; top: 8vh; font-size: 1vw""> 
            <font color=""green""> Bonus : $1 </font>
            </div>
        </div>
    ","null","","","","","",""
"","","","","","html-keyboard-response","208","214118","0.0-6.0-3.30","5f4f9140758a9c05039eb874","6554bfa13ac4b6a0ab00b03a","6554bffa6e289678f630cf16","226","./stimuli//pack_shapes/cat_1/ex_1_66.png","arrowleft","response","ArrowLeft","66","1","true",""
"","","","","","html-keyboard-response","209","215639","0.0-6.0-4.30","5f4f9140758a9c05039eb874","6554bfa13ac4b6a0ab00b03a","6554bffa6e289678f630cf16","null","<p> <font color=""green"" size=""4vw""> Correct category! </font> <br> <br> <font color=""green"" size=""7vw""> + $0.05 </font> </p>","null","feedback","","","","","1.05"
"","","","","","html-keyboard-response","210","216006","0.0-6.0-0.31","5f4f9140758a9c05039eb874","6554bfa13ac4b6a0ab00b03a","6554bffa6e289678f630cf16","365","
            
        <div style=""text-align: center; position: fixed; top: 5vh; left: 40vw;"">
            <div style=""margin:0 auto; width: 20vw; top: 8vh; font-size: 1vw""> 
            <font color=""green""> Bonus : $1.05 </font>
            </div>
        </div>
    
            <div> Please press any button to continue to the next trial.</div>
        ","arrowleft","ITI","","","","",""
"","","","","","html-keyboard-response","211","216622","0.0-6.0-1.31","5f4f9140758a9c05039eb874","6554bfa13ac4b6a0ab00b03a","6554bffa6e289678f630cf16","null","
        
        <div style=""text-align: center; position: fixed; top: 5vh; left: 40vw;"">
            <div style=""margin:0 auto; width: 20vw; top: 8vh; font-size: 1vw""> 
            <font color=""green""> Bonus : $1.05 </font>
            </div>
        </div>
    
        <img class=""stim"" src=./stimuli//pack_shapes/cat_1/ex_1_25.png></img>
    ","null","stimulus","","","","",""
"","","","","","html-keyboard-response","212","217624","0.0-6.0-2.31","5f4f9140758a9c05039eb874","6554bfa13ac4b6a0ab00b03a","6554bffa6e289678f630cf16","null","
        <div style=""text-align: center; position: fixed; top: 5vh; left: 40vw;"">
            <div style=""margin:0 auto; width: 20vw; top: 8vh; font-size: 1vw""> 
            <font color=""green""> Bonus : $1.05 </font>
            </div>
        </div>
    ","null","","","","","",""
"","","","","","html-keyboard-response","213","217870","0.0-6.0-3.31","5f4f9140758a9c05039eb874","6554bfa13ac4b6a0ab00b03a","6554bffa6e289678f630cf16","244","./stimuli//pack_shapes/cat_1/ex_1_25.png","arrowleft","response","ArrowLeft","25","1","true",""
"","","","","","html-keyboard-response","214","219375","0.0-6.0-4.31","5f4f9140758a9c05039eb874","6554bfa13ac4b6a0ab00b03a","6554bffa6e289678f630cf16","null","<p> <font color=""green"" size=""4vw""> Correct category! </font> <br> <br> <font color=""green"" size=""7vw""> + $0.05 </font> </p>","null","feedback","","","","","1.1"
"","","","","","html-keyboard-response","215","219918","0.0-6.0-0.32","5f4f9140758a9c05039eb874","6554bfa13ac4b6a0ab00b03a","6554bffa6e289678f630cf16","541","
            
        <div style=""text-align: center; position: fixed; top: 5vh; left: 40vw;"">
            <div style=""margin:0 auto; width: 20vw; top: 8vh; font-size: 1vw""> 
            <font color=""green""> Bonus : $1.1 </font>
            </div>
        </div>
    
            <div> Please press any button to continue to the next trial.</div>
        ","arrowleft","ITI","","","","",""
"","","","","","html-keyboard-response","216","220533","0.0-6.0-1.32","5f4f9140758a9c05039eb874","6554bfa13ac4b6a0ab00b03a","6554bffa6e289678f630cf16","null","
        
        <div style=""text-align: center; position: fixed; top: 5vh; left: 40vw;"">
            <div style=""margin:0 auto; width: 20vw; top: 8vh; font-size: 1vw""> 
            <font color=""green""> Bonus : $1.1 </font>
            </div>
        </div>
    
        <img class=""stim"" src=./stimuli//pack_shapes/cat_2/ex_2_42.png></img>
    ","null","stimulus","","","","",""
"","","","","","html-keyboard-response","217","221546","0.0-6.0-2.32","5f4f9140758a9c05039eb874","6554bfa13ac4b6a0ab00b03a","6554bffa6e289678f630cf16","null","
        <div style=""text-align: center; position: fixed; top: 5vh; left: 40vw;"">
            <div style=""margin:0 auto; width: 20vw; top: 8vh; font-size: 1vw""> 
            <font color=""green""> Bonus : $1.1 </font>
            </div>
        </div>
    ","null","","","","","",""
"","","","","","html-keyboard-response","218","221798","0.0-6.0-3.32","5f4f9140758a9c05039eb874","6554bfa13ac4b6a0ab00b03a","6554bffa6e289678f630cf16","249","./stimuli//pack_shapes/cat_2/ex_2_42.png","arrowright","response","ArrowRight","42","2","true",""
"","","","","","html-keyboard-response","219","223301","0.0-6.0-4.32","5f4f9140758a9c05039eb874","6554bfa13ac4b6a0ab00b03a","6554bffa6e289678f630cf16","null","<p> <font color=""green"" size=""4vw""> Correct category! </font> <br> <br> <font color=""green"" size=""7vw""> + $0.05 </font> </p>","null","feedback","","","","","1.15"
"","","","","","html-keyboard-response","220","223774","0.0-6.0-0.33","5f4f9140758a9c05039eb874","6554bfa13ac4b6a0ab00b03a","6554bffa6e289678f630cf16","471","
            
        <div style=""text-align: center; position: fixed; top: 5vh; left: 40vw;"">
            <div style=""margin:0 auto; width: 20vw; top: 8vh; font-size: 1vw""> 
            <font color=""green""> Bonus : $1.15 </font>
            </div>
        </div>
    
            <div> Please press any button to continue to the next trial.</div>
        ","arrowright","ITI","","","","",""
"","","","","","html-keyboard-response","221","224389","0.0-6.0-1.33","5f4f9140758a9c05039eb874","6554bfa13ac4b6a0ab00b03a","6554bffa6e289678f630cf16","null","
        
        <div style=""text-align: center; position: fixed; top: 5vh; left: 40vw;"">
            <div style=""margin:0 auto; width: 20vw; top: 8vh; font-size: 1vw""> 
            <font color=""green""> Bonus : $1.15 </font>
            </div>
        </div>
    
        <img class=""stim"" src=./stimuli//pack_shapes/cat_2/ex_2_50.png></img>
    ","null","stimulus","","","","",""
"","","","","","html-keyboard-response","222","225391","0.0-6.0-2.33","5f4f9140758a9c05039eb874","6554bfa13ac4b6a0ab00b03a","6554bffa6e289678f630cf16","null","
        <div style=""text-align: center; position: fixed; top: 5vh; left: 40vw;"">
            <div style=""margin:0 auto; width: 20vw; top: 8vh; font-size: 1vw""> 
            <font color=""green""> Bonus : $1.15 </font>
            </div>
        </div>
    ","null","","","","","",""
"","","","","","html-keyboard-response","223","225662","0.0-6.0-3.33","5f4f9140758a9c05039eb874","6554bfa13ac4b6a0ab00b03a","6554bffa6e289678f630cf16","268","./stimuli//pack_shapes/cat_2/ex_2_50.png","arrowright","response","ArrowRight","50","2","true",""
"","","","","","html-keyboard-response","224","227167","0.0-6.0-4.33","5f4f9140758a9c05039eb874","6554bfa13ac4b6a0ab00b03a","6554bffa6e289678f630cf16","null","<p> <font color=""green"" size=""4vw""> Correct category! </font> <br> <br> <font color=""green"" size=""7vw""> + $0.05 </font> </p>","null","feedback","","","","","1.2"
"","","","","","html-keyboard-response","225","227694","0.0-6.0-0.34","5f4f9140758a9c05039eb874","6554bfa13ac4b6a0ab00b03a","6554bffa6e289678f630cf16","525","
            
        <div style=""text-align: center; position: fixed; top: 5vh; left: 40vw;"">
            <div style=""margin:0 auto; width: 20vw; top: 8vh; font-size: 1vw""> 
            <font color=""green""> Bonus : $1.2 </font>
            </div>
        </div>
    
            <div> Please press any button to continue to the next trial.</div>
        ","arrowright","ITI","","","","",""
"","","","","","html-keyboard-response","226","228299","0.0-6.0-1.34","5f4f9140758a9c05039eb874","6554bfa13ac4b6a0ab00b03a","6554bffa6e289678f630cf16","null","
        
        <div style=""text-align: center; position: fixed; top: 5vh; left: 40vw;"">
            <div style=""margin:0 auto; width: 20vw; top: 8vh; font-size: 1vw""> 
            <font color=""green""> Bonus : $1.2 </font>
            </div>
        </div>
    
        <img class=""stim"" src=./stimuli//pack_shapes/cat_1/ex_1_6.png></img>
    ","null","stimulus","","","","",""
"","","","","","html-keyboard-response","227","229327","0.0-6.0-2.34","5f4f9140758a9c05039eb874","6554bfa13ac4b6a0ab00b03a","6554bffa6e289678f630cf16","null","
        <div style=""text-align: center; position: fixed; top: 5vh; left: 40vw;"">
            <div style=""margin:0 auto; width: 20vw; top: 8vh; font-size: 1vw""> 
            <font color=""green""> Bonus : $1.2 </font>
            </div>
        </div>
    ","null","","","","","",""
"","","","","","html-keyboard-response","228","229590","0.0-6.0-3.34","5f4f9140758a9c05039eb874","6554bfa13ac4b6a0ab00b03a","6554bffa6e289678f630cf16","260","./stimuli//pack_shapes/cat_1/ex_1_6.png","arrowleft","response","ArrowLeft","6","1","true",""
"","","","","","html-keyboard-response","229","231095","0.0-6.0-4.34","5f4f9140758a9c05039eb874","6554bfa13ac4b6a0ab00b03a","6554bffa6e289678f630cf16","null","<p> <font color=""green"" size=""4vw""> Correct category! </font> <br> <br> <font color=""green"" size=""7vw""> + $0.05 </font> </p>","null","feedback","","","","","1.25"
"","","","","","html-keyboard-response","230","231806","0.0-6.0-0.35","5f4f9140758a9c05039eb874","6554bfa13ac4b6a0ab00b03a","6554bffa6e289678f630cf16","709","
            
        <div style=""text-align: center; position: fixed; top: 5vh; left: 40vw;"">
            <div style=""margin:0 auto; width: 20vw; top: 8vh; font-size: 1vw""> 
            <font color=""green""> Bonus : $1.25 </font>
            </div>
        </div>
    
            <div> Please press any button to continue to the next trial.</div>
        ","arrowleft","ITI","","","","",""
"","","","","","html-keyboard-response","231","232423","0.0-6.0-1.35","5f4f9140758a9c05039eb874","6554bfa13ac4b6a0ab00b03a","6554bffa6e289678f630cf16","null","
        
        <div style=""text-align: center; position: fixed; top: 5vh; left: 40vw;"">
            <div style=""margin:0 auto; width: 20vw; top: 8vh; font-size: 1vw""> 
            <font color=""green""> Bonus : $1.25 </font>
            </div>
        </div>
    
        <img class=""stim"" src=./stimuli//pack_shapes/cat_1/ex_1_42.png></img>
    ","null","stimulus","","","","",""
"","","","","","html-keyboard-response","232","233439","0.0-6.0-2.35","5f4f9140758a9c05039eb874","6554bfa13ac4b6a0ab00b03a","6554bffa6e289678f630cf16","null","
        <div style=""text-align: center; position: fixed; top: 5vh; left: 40vw;"">
            <div style=""margin:0 auto; width: 20vw; top: 8vh; font-size: 1vw""> 
            <font color=""green""> Bonus : $1.25 </font>
            </div>
        </div>
    ","null","","","","","",""
"","","","","","html-keyboard-response","233","233694","0.0-6.0-3.35","5f4f9140758a9c05039eb874","6554bfa13ac4b6a0ab00b03a","6554bffa6e289678f630cf16","253","./stimuli//pack_shapes/cat_1/ex_1_42.png","arrowright","response","ArrowLeft","42","1","false",""
"","","","","","html-keyboard-response","234","235208","0.0-6.0-4.35","5f4f9140758a9c05039eb874","6554bfa13ac4b6a0ab00b03a","6554bffa6e289678f630cf16","null","<p> <font color=""red"" size=""4vw""> Wrong category! </font> </p>","null","feedback","","","","","1.25"
"","","","","","html-keyboard-response","235","235685","0.0-6.0-0.36","5f4f9140758a9c05039eb874","6554bfa13ac4b6a0ab00b03a","6554bffa6e289678f630cf16","476","
            
        <div style=""text-align: center; position: fixed; top: 5vh; left: 40vw;"">
            <div style=""margin:0 auto; width: 20vw; top: 8vh; font-size: 1vw""> 
            <font color=""green""> Bonus : $1.25 </font>
            </div>
        </div>
    
            <div> Please press any button to continue to the next trial.</div>
        ","arrowleft","ITI","","","","",""
"","","","","","html-keyboard-response","236","236299","0.0-6.0-1.36","5f4f9140758a9c05039eb874","6554bfa13ac4b6a0ab00b03a","6554bffa6e289678f630cf16","null","
        
        <div style=""text-align: center; position: fixed; top: 5vh; left: 40vw;"">
            <div style=""margin:0 auto; width: 20vw; top: 8vh; font-size: 1vw""> 
            <font color=""green""> Bonus : $1.25 </font>
            </div>
        </div>
    
        <img class=""stim"" src=./stimuli//pack_shapes/cat_2/ex_2_30.png></img>
    ","null","stimulus","","","","",""
"","","","","","html-keyboard-response","237","237317","0.0-6.0-2.36","5f4f9140758a9c05039eb874","6554bfa13ac4b6a0ab00b03a","6554bffa6e289678f630cf16","null","
