"success","timeout","failed_images","failed_audio","failed_video","trial_type","trial_index","time_elapsed","internal_node_id","subject_id","study_id","session_id","rt","stimulus","response","task","correct_response","exemplar_ID","category","correct","bonus"
"true","false","[]","[]","[]","preload","0","1","0.0-0.0","654fcfd6bfd6b2be99cd197a","6554bfa13ac4b6a0ab00b03a","6554bfef653d216f6f27a3dc","","","","","","","","",""
"","","","","","html-keyboard-response","1","11063","0.0-1.0","654fcfd6bfd6b2be99cd197a","6554bfa13ac4b6a0ab00b03a","6554bfef653d216f6f27a3dc","11061","Welcome to the Category Learning experiment! Press any key to continue.","f","welcome","","","","",""
"","","","","","html-keyboard-response","2","28798","0.0-2.0","654fcfd6bfd6b2be99cd197a","6554bfa13ac4b6a0ab00b03a","6554bfef653d216f6f27a3dc","17734","
            <p>You will be shown images of black shapes.  Some are category A, some are category B.
            <br>You will not know in advance which category a specific shape belongs to.</p>
            <p>After you see an image, you will be asked to guess its category <b>(left arrow for category A, right arrow for category B)</b></p>
            <p>After you choose, the screen will show you whether you were correct or not.</p>
            <p><b>You will receive a bonus payment of $0.05 for each correct answer!</b></p>
            <p> So you can increase your bonus by guessing correctly, and by guessing as quickly as possible so you move on to the next image sooner.</p>
            <p>Press any key to continue.</p>
            ","f","introduction_1","","","","",""
"","","","","","html-keyboard-response","3","33599","0.0-3.0","654fcfd6bfd6b2be99cd197a","6554bfa13ac4b6a0ab00b03a","6554bfef653d216f6f27a3dc","4801","
            <p> <b>The first 10 trials are a practice round that will not count towards your bonus payment.</b></p>
            <p> You will be notified when practice finishes and the test begins. </p>
            <p> Press any key to begin the practice round.</p>
            ","f","introduction_2","","","","",""
"","","","","","html-keyboard-response","4","35555","0.0-4.0-0.0","654fcfd6bfd6b2be99cd197a","6554bfa13ac4b6a0ab00b03a","6554bfef653d216f6f27a3dc","1956","
            
        <div style=""text-align: center; position: fixed; top: 5vh; left: 40vw;"">
            <div style=""margin:0 auto; width: 20vw; top: 8vh; font-size: 1vw""> 
            <font color=""green""> Bonus : $0 </font>
            </div>
        </div>
    
            <div> Please press any button to continue to the next trial.</div>
        ","f","ITI","","","","",""
"","","","","","html-keyboard-response","5","36163","0.0-4.0-1.0","654fcfd6bfd6b2be99cd197a","6554bfa13ac4b6a0ab00b03a","6554bfef653d216f6f27a3dc","null","
        
        <div style=""text-align: center; position: fixed; top: 5vh; left: 40vw;"">
            <div style=""margin:0 auto; width: 20vw; top: 8vh; font-size: 1vw""> 
            <font color=""green""> Bonus : $0 </font>
            </div>
        </div>
    
        <img class=""stim"" src=./stimuli//pack_shapes/cat_2/ex_2_39.png></img>
    ","null","stimulus","","","","",""
"","","","","","html-keyboard-response","6","37170","0.0-4.0-2.0","654fcfd6bfd6b2be99cd197a","6554bfa13ac4b6a0ab00b03a","6554bfef653d216f6f27a3dc","null","
        <div style=""text-align: center; position: fixed; top: 5vh; left: 40vw;"">
            <div style=""margin:0 auto; width: 20vw; top: 8vh; font-size: 1vw""> 
            <font color=""green""> Bonus : $0 </font>
            </div>
        </div>
    ","null","","","","","",""
"","","","","","html-keyboard-response","7","38724","0.0-4.0-3.0","654fcfd6bfd6b2be99cd197a","6554bfa13ac4b6a0ab00b03a","6554bfef653d216f6f27a3dc","1553","./stimuli//pack_shapes/cat_2/ex_2_39.png","arrowright","response","ArrowRight","39","2","true",""
"","","","","","html-keyboard-response","8","40237","0.0-4.0-4.0","654fcfd6bfd6b2be99cd197a","6554bfa13ac4b6a0ab00b03a","6554bfef653d216f6f27a3dc","null","<p> <font color=""green"" size=""4vw""> Correct category! </font> </p>","null","feedback","","","","","0"
"","","","","","html-keyboard-response","9","41534","0.0-4.0-0.1","654fcfd6bfd6b2be99cd197a","6554bfa13ac4b6a0ab00b03a","6554bfef653d216f6f27a3dc","1297","
            
        <div style=""text-align: center; position: fixed; top: 5vh; left: 40vw;"">
            <div style=""margin:0 auto; width: 20vw; top: 8vh; font-size: 1vw""> 
            <font color=""green""> Bonus : $0 </font>
            </div>
        </div>
    
            <div> Please press any button to continue to the next trial.</div>
        ","f","ITI","","","","",""
"","","","","","html-keyboard-response","10","42143","0.0-4.0-1.1","654fcfd6bfd6b2be99cd197a","6554bfa13ac4b6a0ab00b03a","6554bfef653d216f6f27a3dc","null","
        
        <div style=""text-align: center; position: fixed; top: 5vh; left: 40vw;"">
            <div style=""margin:0 auto; width: 20vw; top: 8vh; font-size: 1vw""> 
            <font color=""green""> Bonus : $0 </font>
            </div>
        </div>
    
        <img class=""stim"" src=./stimuli//pack_shapes/cat_2/ex_2_8.png></img>
    ","null","stimulus","","","","",""
"","","","","","html-keyboard-response","11","43149","0.0-4.0-2.1","654fcfd6bfd6b2be99cd197a","6554bfa13ac4b6a0ab00b03a","6554bfef653d216f6f27a3dc","null","
        <div style=""text-align: center; position: fixed; top: 5vh; left: 40vw;"">
            <div style=""margin:0 auto; width: 20vw; top: 8vh; font-size: 1vw""> 
            <font color=""green""> Bonus : $0 </font>
            </div>
        </div>
    ","null","","","","","",""
"","","","","","html-keyboard-response","12","43495","0.0-4.0-3.1","654fcfd6bfd6b2be99cd197a","6554bfa13ac4b6a0ab00b03a","6554bfef653d216f6f27a3dc","345","./stimuli//pack_shapes/cat_2/ex_2_8.png","arrowright","response","ArrowRight","8","2","true",""
"","","","","","html-keyboard-response","13","45009","0.0-4.0-4.1","654fcfd6bfd6b2be99cd197a","6554bfa13ac4b6a0ab00b03a","6554bfef653d216f6f27a3dc","null","<p> <font color=""green"" size=""4vw""> Correct category! </font> </p>","null","feedback","","","","","0"
"","","","","","html-keyboard-response","14","45647","0.0-4.0-0.2","654fcfd6bfd6b2be99cd197a","6554bfa13ac4b6a0ab00b03a","6554bfef653d216f6f27a3dc","637","
            
        <div style=""text-align: center; position: fixed; top: 5vh; left: 40vw;"">
            <div style=""margin:0 auto; width: 20vw; top: 8vh; font-size: 1vw""> 
            <font color=""green""> Bonus : $0 </font>
            </div>
        </div>
    
            <div> Please press any button to continue to the next trial.</div>
        ","f","ITI","","","","",""
"","","","","","html-keyboard-response","15","46248","0.0-4.0-1.2","654fcfd6bfd6b2be99cd197a","6554bfa13ac4b6a0ab00b03a","6554bfef653d216f6f27a3dc","null","
        
        <div style=""text-align: center; position: fixed; top: 5vh; left: 40vw;"">
            <div style=""margin:0 auto; width: 20vw; top: 8vh; font-size: 1vw""> 
            <font color=""green""> Bonus : $0 </font>
            </div>
        </div>
    
        <img class=""stim"" src=./stimuli//pack_shapes/cat_1/ex_1_29.png></img>
    ","null","stimulus","","","","",""
"","","","","","html-keyboard-response","16","47255","0.0-4.0-2.2","654fcfd6bfd6b2be99cd197a","6554bfa13ac4b6a0ab00b03a","6554bfef653d216f6f27a3dc","null","
        <div style=""text-align: center; position: fixed; top: 5vh; left: 40vw;"">
            <div style=""margin:0 auto; width: 20vw; top: 8vh; font-size: 1vw""> 
            <font color=""green""> Bonus : $0 </font>
            </div>
        </div>
    ","null","","","","","",""
"","","","","","html-keyboard-response","17","47589","0.0-4.0-3.2","654fcfd6bfd6b2be99cd197a","6554bfa13ac4b6a0ab00b03a","6554bfef653d216f6f27a3dc","333","./stimuli//pack_shapes/cat_1/ex_1_29.png","arrowleft","response","ArrowLeft","29","1","true",""
"","","","","","html-keyboard-response","18","49099","0.0-4.0-4.2","654fcfd6bfd6b2be99cd197a","6554bfa13ac4b6a0ab00b03a","6554bfef653d216f6f27a3dc","null","<p> <font color=""green"" size=""4vw""> Correct category! </font> </p>","null","feedback","","","","","0"
"","","","","","html-keyboard-response","19","50008","0.0-4.0-0.3","654fcfd6bfd6b2be99cd197a","6554bfa13ac4b6a0ab00b03a","6554bfef653d216f6f27a3dc","908","
            
        <div style=""text-align: center; position: fixed; top: 5vh; left: 40vw;"">
            <div style=""margin:0 auto; width: 20vw; top: 8vh; font-size: 1vw""> 
            <font color=""green""> Bonus : $0 </font>
            </div>
        </div>
    
            <div> Please press any button to continue to the next trial.</div>
        ","f","ITI","","","","",""
"","","","","","html-keyboard-response","20","50618","0.0-4.0-1.3","654fcfd6bfd6b2be99cd197a","6554bfa13ac4b6a0ab00b03a","6554bfef653d216f6f27a3dc","null","
        
        <div style=""text-align: center; position: fixed; top: 5vh; left: 40vw;"">
            <div style=""margin:0 auto; width: 20vw; top: 8vh; font-size: 1vw""> 
            <font color=""green""> Bonus : $0 </font>
            </div>
        </div>
    
        <img class=""stim"" src=./stimuli//pack_shapes/cat_2/ex_2_49.png></img>
    ","null","stimulus","","","","",""
"","","","","","html-keyboard-response","21","51625","0.0-4.0-2.3","654fcfd6bfd6b2be99cd197a","6554bfa13ac4b6a0ab00b03a","6554bfef653d216f6f27a3dc","null","
        <div style=""text-align: center; position: fixed; top: 5vh; left: 40vw;"">
            <div style=""margin:0 auto; width: 20vw; top: 8vh; font-size: 1vw""> 
            <font color=""green""> Bonus : $0 </font>
            </div>
        </div>
    ","null","","","","","",""
"","","","","","html-keyboard-response","22","51902","0.0-4.0-3.3","654fcfd6bfd6b2be99cd197a","6554bfa13ac4b6a0ab00b03a","6554bfef653d216f6f27a3dc","276","./stimuli//pack_shapes/cat_2/ex_2_49.png","arrowright","response","ArrowRight","49","2","true",""
"","","","","","html-keyboard-response","23","53406","0.0-4.0-4.3","654fcfd6bfd6b2be99cd197a","6554bfa13ac4b6a0ab00b03a","6554bfef653d216f6f27a3dc","null","<p> <font color=""green"" size=""4vw""> Correct category! </font> </p>","null","feedback","","","","","0"
"","","","","","html-keyboard-response","24","54267","0.0-4.0-0.4","654fcfd6bfd6b2be99cd197a","6554bfa13ac4b6a0ab00b03a","6554bfef653d216f6f27a3dc","861","
            
        <div style=""text-align: center; position: fixed; top: 5vh; left: 40vw;"">
            <div style=""margin:0 auto; width: 20vw; top: 8vh; font-size: 1vw""> 
            <font color=""green""> Bonus : $0 </font>
            </div>
        </div>
    
            <div> Please press any button to continue to the next trial.</div>
        ","f","ITI","","","","",""
"","","","","","html-keyboard-response","25","54878","0.0-4.0-1.4","654fcfd6bfd6b2be99cd197a","6554bfa13ac4b6a0ab00b03a","6554bfef653d216f6f27a3dc","null","
        
        <div style=""text-align: center; position: fixed; top: 5vh; left: 40vw;"">
            <div style=""margin:0 auto; width: 20vw; top: 8vh; font-size: 1vw""> 
            <font color=""green""> Bonus : $0 </font>
            </div>
        </div>
    
        <img class=""stim"" src=./stimuli//pack_shapes/cat_1/ex_1_3.png></img>
    ","null","stimulus","","","","",""
"","","","","","html-keyboard-response","26","55884","0.0-4.0-2.4","654fcfd6bfd6b2be99cd197a","6554bfa13ac4b6a0ab00b03a","6554bfef653d216f6f27a3dc","null","
        <div style=""text-align: center; position: fixed; top: 5vh; left: 40vw;"">
            <div style=""margin:0 auto; width: 20vw; top: 8vh; font-size: 1vw""> 
            <font color=""green""> Bonus : $0 </font>
            </div>
        </div>
    ","null","","","","","",""
"","","","","","html-keyboard-response","27","56076","0.0-4.0-3.4","654fcfd6bfd6b2be99cd197a","6554bfa13ac4b6a0ab00b03a","6554bfef653d216f6f27a3dc","191","./stimuli//pack_shapes/cat_1/ex_1_3.png","arrowleft","response","ArrowLeft","3","1","true",""
"","","","","","html-keyboard-response","28","57587","0.0-4.0-4.4","654fcfd6bfd6b2be99cd197a","6554bfa13ac4b6a0ab00b03a","6554bfef653d216f6f27a3dc","null","<p> <font color=""green"" size=""4vw""> Correct category! </font> </p>","null","feedback","","","","","0"
"","","","","","html-keyboard-response","29","58059","0.0-4.0-0.5","654fcfd6bfd6b2be99cd197a","6554bfa13ac4b6a0ab00b03a","6554bfef653d216f6f27a3dc","472","
            
        <div style=""text-align: center; position: fixed; top: 5vh; left: 40vw;"">
            <div style=""margin:0 auto; width: 20vw; top: 8vh; font-size: 1vw""> 
            <font color=""green""> Bonus : $0 </font>
            </div>
        </div>
    
            <div> Please press any button to continue to the next trial.</div>
        ","f","ITI","","","","",""
"","","","","","html-keyboard-response","30","58671","0.0-4.0-1.5","654fcfd6bfd6b2be99cd197a","6554bfa13ac4b6a0ab00b03a","6554bfef653d216f6f27a3dc","null","
        
        <div style=""text-align: center; position: fixed; top: 5vh; left: 40vw;"">
            <div style=""margin:0 auto; width: 20vw; top: 8vh; font-size: 1vw""> 
            <font color=""green""> Bonus : $0 </font>
            </div>
        </div>
    
        <img class=""stim"" src=./stimuli//pack_shapes/cat_1/ex_1_39.png></img>
    ","null","stimulus","","","","",""
"","","","","","html-keyboard-response","31","59678","0.0-4.0-2.5","654fcfd6bfd6b2be99cd197a","6554bfa13ac4b6a0ab00b03a","6554bfef653d216f6f27a3dc","null","
        <div style=""text-align: center; position: fixed; top: 5vh; left: 40vw;"">
            <div style=""margin:0 auto; width: 20vw; top: 8vh; font-size: 1vw""> 
            <font color=""green""> Bonus : $0 </font>
            </div>
        </div>
    ","null","","","","","",""
"","","","","","html-keyboard-response","32","59920","0.0-4.0-3.5","654fcfd6bfd6b2be99cd197a","6554bfa13ac4b6a0ab00b03a","6554bfef653d216f6f27a3dc","241","./stimuli//pack_shapes/cat_1/ex_1_39.png","arrowleft","response","ArrowLeft","39","1","true",""
"","","","","","html-keyboard-response","33","61429","0.0-4.0-4.5","654fcfd6bfd6b2be99cd197a","6554bfa13ac4b6a0ab00b03a","6554bfef653d216f6f27a3dc","null","<p> <font color=""green"" size=""4vw""> Correct category! </font> </p>","null","feedback","","","","","0"
"","","","","","html-keyboard-response","34","62307","0.0-4.0-0.6","654fcfd6bfd6b2be99cd197a","6554bfa13ac4b6a0ab00b03a","6554bfef653d216f6f27a3dc","878","
            
        <div style=""text-align: center; position: fixed; top: 5vh; left: 40vw;"">
            <div style=""margin:0 auto; width: 20vw; top: 8vh; font-size: 1vw""> 
            <font color=""green""> Bonus : $0 </font>
            </div>
        </div>
    
            <div> Please press any button to continue to the next trial.</div>
        ","v","ITI","","","","",""
"","","","","","html-keyboard-response","35","62915","0.0-4.0-1.6","654fcfd6bfd6b2be99cd197a","6554bfa13ac4b6a0ab00b03a","6554bfef653d216f6f27a3dc","null","
        
        <div style=""text-align: center; position: fixed; top: 5vh; left: 40vw;"">
            <div style=""margin:0 auto; width: 20vw; top: 8vh; font-size: 1vw""> 
            <font color=""green""> Bonus : $0 </font>
            </div>
        </div>
    
        <img class=""stim"" src=./stimuli//pack_shapes/cat_2/ex_2_80.png></img>
    ","null","stimulus","","","","",""
"","","","","","html-keyboard-response","36","63922","0.0-4.0-2.6","654fcfd6bfd6b2be99cd197a","6554bfa13ac4b6a0ab00b03a","6554bfef653d216f6f27a3dc","null","
        <div style=""text-align: center; position: fixed; top: 5vh; left: 40vw;"">
            <div style=""margin:0 auto; width: 20vw; top: 8vh; font-size: 1vw""> 
            <font color=""green""> Bonus : $0 </font>
            </div>
        </div>
    ","null","","","","","",""
"","","","","","html-keyboard-response","37","64218","0.0-4.0-3.6","654fcfd6bfd6b2be99cd197a","6554bfa13ac4b6a0ab00b03a","6554bfef653d216f6f27a3dc","295","./stimuli//pack_shapes/cat_2/ex_2_80.png","arrowleft","response","ArrowRight","80","2","false",""
"","","","","","html-keyboard-response","38","65720","0.0-4.0-4.6","654fcfd6bfd6b2be99cd197a","6554bfa13ac4b6a0ab00b03a","6554bfef653d216f6f27a3dc","null","<p> <font color=""red"" size=""4vw""> Wrong category! </font> </p>","null","feedback","","","","","0"
"","","","","","html-keyboard-response","39","66262","0.0-4.0-0.7","654fcfd6bfd6b2be99cd197a","6554bfa13ac4b6a0ab00b03a","6554bfef653d216f6f27a3dc","542","
            
        <div style=""text-align: center; position: fixed; top: 5vh; left: 40vw;"">
            <div style=""margin:0 auto; width: 20vw; top: 8vh; font-size: 1vw""> 
            <font color=""green""> Bonus : $0 </font>
            </div>
        </div>
    
            <div> Please press any button to continue to the next trial.</div>
        ","f","ITI","","","","",""
"","","","","","html-keyboard-response","40","66865","0.0-4.0-1.7","654fcfd6bfd6b2be99cd197a","6554bfa13ac4b6a0ab00b03a","6554bfef653d216f6f27a3dc","null","
        
        <div style=""text-align: center; position: fixed; top: 5vh; left: 40vw;"">
            <div style=""margin:0 auto; width: 20vw; top: 8vh; font-size: 1vw""> 
            <font color=""green""> Bonus : $0 </font>
            </div>
        </div>
    
        <img class=""stim"" src=./stimuli//pack_shapes/cat_1/ex_1_49.png></img>
    ","null","stimulus","","","","",""
"","","","","","html-keyboard-response","41","67873","0.0-4.0-2.7","654fcfd6bfd6b2be99cd197a","6554bfa13ac4b6a0ab00b03a","6554bfef653d216f6f27a3dc","null","
        <div style=""text-align: center; position: fixed; top: 5vh; left: 40vw;"">
            <div style=""margin:0 auto; width: 20vw; top: 8vh; font-size: 1vw""> 
            <font color=""green""> Bonus : $0 </font>
            </div>
        </div>
    ","null","","","","","",""
"","","","","","html-keyboard-response","42","68231","0.0-4.0-3.7","654fcfd6bfd6b2be99cd197a","6554bfa13ac4b6a0ab00b03a","6554bfef653d216f6f27a3dc","357","./stimuli//pack_shapes/cat_1/ex_1_49.png","arrowright","response","ArrowLeft","49","1","false",""
"","","","","","html-keyboard-response","43","69746","0.0-4.0-4.7","654fcfd6bfd6b2be99cd197a","6554bfa13ac4b6a0ab00b03a","6554bfef653d216f6f27a3dc","null","<p> <font color=""red"" size=""4vw""> Wrong category! </font> </p>","null","feedback","","","","","0"
"","","","","","html-keyboard-response","44","70374","0.0-4.0-0.8","654fcfd6bfd6b2be99cd197a","6554bfa13ac4b6a0ab00b03a","6554bfef653d216f6f27a3dc","627","
            
        <div style=""text-align: center; position: fixed; top: 5vh; left: 40vw;"">
            <div style=""margin:0 auto; width: 20vw; top: 8vh; font-size: 1vw""> 
            <font color=""green""> Bonus : $0 </font>
            </div>
        </div>
    
            <div> Please press any button to continue to the next trial.</div>
        ","f","ITI","","","","",""
"","","","","","html-keyboard-response","45","70986","0.0-4.0-1.8","654fcfd6bfd6b2be99cd197a","6554bfa13ac4b6a0ab00b03a","6554bfef653d216f6f27a3dc","null","
        
        <div style=""text-align: center; position: fixed; top: 5vh; left: 40vw;"">
            <div style=""margin:0 auto; width: 20vw; top: 8vh; font-size: 1vw""> 
            <font color=""green""> Bonus : $0 </font>
            </div>
        </div>
    
        <img class=""stim"" src=./stimuli//pack_shapes/cat_2/ex_2_29.png></img>
    ","null","stimulus","","","","",""
"","","","","","html-keyboard-response","46","71993","0.0-4.0-2.8","654fcfd6bfd6b2be99cd197a","6554bfa13ac4b6a0ab00b03a","6554bfef653d216f6f27a3dc","null","
        <div style=""text-align: center; position: fixed; top: 5vh; left: 40vw;"">
            <div style=""margin:0 auto; width: 20vw; top: 8vh; font-size: 1vw""> 
            <font color=""green""> Bonus : $0 </font>
            </div>
        </div>
    ","null","","","","","",""
"","","","","","html-keyboard-response","47","72258","0.0-4.0-3.8","654fcfd6bfd6b2be99cd197a","6554bfa13ac4b6a0ab00b03a","6554bfef653d216f6f27a3dc","264","./stimuli//pack_shapes/cat_2/ex_2_29.png","arrowright","response","ArrowRight","29","2","true",""
"","","","","","html-keyboard-response","48","73758","0.0-4.0-4.8","654fcfd6bfd6b2be99cd197a","6554bfa13ac4b6a0ab00b03a","6554bfef653d216f6f27a3dc","null","<p> <font color=""green"" size=""4vw""> Correct category! </font> </p>","null","feedback","","","","","0"
"","","","","","html-keyboard-response","49","74210","0.0-4.0-0.9","654fcfd6bfd6b2be99cd197a","6554bfa13ac4b6a0ab00b03a","6554bfef653d216f6f27a3dc","451","
            
        <div style=""text-align: center; position: fixed; top: 5vh; left: 40vw;"">
            <div style=""margin:0 auto; width: 20vw; top: 8vh; font-size: 1vw""> 
            <font color=""green""> Bonus : $0 </font>
            </div>
        </div>
    
            <div> Please press any button to continue to the next trial.</div>
        ","f","ITI","","","","",""
"","","","","","html-keyboard-response","50","74812","0.0-4.0-1.9","654fcfd6bfd6b2be99cd197a","6554bfa13ac4b6a0ab00b03a","6554bfef653d216f6f27a3dc","null","
        
        <div style=""text-align: center; position: fixed; top: 5vh; left: 40vw;"">
            <div style=""margin:0 auto; width: 20vw; top: 8vh; font-size: 1vw""> 
            <font color=""green""> Bonus : $0 </font>
            </div>
        </div>
    
        <img class=""stim"" src=./stimuli//pack_shapes/cat_1/ex_1_75.png></img>
    ","null","stimulus","","","","",""
"","","","","","html-keyboard-response","51","75819","0.0-4.0-2.9","654fcfd6bfd6b2be99cd197a","6554bfa13ac4b6a0ab00b03a","6554bfef653d216f6f27a3dc","null","
        <div style=""text-align: center; position: fixed; top: 5vh; left: 40vw;"">
            <div style=""margin:0 auto; width: 20vw; top: 8vh; font-size: 1vw""> 
            <font color=""green""> Bonus : $0 </font>
            </div>
        </div>
    ","null","","","","","",""
"","","","","","html-keyboard-response","52","76083","0.0-4.0-3.9","654fcfd6bfd6b2be99cd197a","6554bfa13ac4b6a0ab00b03a","6554bfef653d216f6f27a3dc","262","./stimuli//pack_shapes/cat_1/ex_1_75.png","arrowright","response","ArrowLeft","75","1","false",""
"","","","","","html-keyboard-response","53","77586","0.0-4.0-4.9","654fcfd6bfd6b2be99cd197a","6554bfa13ac4b6a0ab00b03a","6554bfef653d216f6f27a3dc","null","<p> <font color=""red"" size=""4vw""> Wrong category! </font> </p>","null","feedback","","","","","0"
"","","","","","html-keyboard-response","54","80681","0.0-5.0","654fcfd6bfd6b2be99cd197a","6554bfa13ac4b6a0ab00b03a","6554bfef653d216f6f27a3dc","3095","
            <b> <p> The practice round has finished.</p>
            <b> For the rest of the experiment you will receive a $0.05 bonus for each correct answer!</b>
            <p> Press any key to begin the test. </p>
            ","f","intermission","","","","",""
"","","","","","html-keyboard-response","55","81400","0.0-6.0-0.0","654fcfd6bfd6b2be99cd197a","6554bfa13ac4b6a0ab00b03a","6554bfef653d216f6f27a3dc","718","
            
        <div style=""text-align: center; position: fixed; top: 5vh; left: 40vw;"">
            <div style=""margin:0 auto; width: 20vw; top: 8vh; font-size: 1vw""> 
            <font color=""green""> Bonus : $0 </font>
            </div>
        </div>
    
            <div> Please press any button to continue to the next trial.</div>
        ","f","ITI","","","","",""
"","","","","","html-keyboard-response","56","82001","0.0-6.0-1.0","654fcfd6bfd6b2be99cd197a","6554bfa13ac4b6a0ab00b03a","6554bfef653d216f6f27a3dc","null","
        
        <div style=""text-align: center; position: fixed; top: 5vh; left: 40vw;"">
            <div style=""margin:0 auto; width: 20vw; top: 8vh; font-size: 1vw""> 
            <font color=""green""> Bonus : $0 </font>
            </div>
        </div>
    
        <img class=""stim"" src=./stimuli//pack_shapes/cat_2/ex_2_54.png></img>
    ","null","stimulus","","","","",""
"","","","","","html-keyboard-response","57","83007","0.0-6.0-2.0","654fcfd6bfd6b2be99cd197a","6554bfa13ac4b6a0ab00b03a","6554bfef653d216f6f27a3dc","null","
        <div style=""text-align: center; position: fixed; top: 5vh; left: 40vw;"">
            <div style=""margin:0 auto; width: 20vw; top: 8vh; font-size: 1vw""> 
            <font color=""green""> Bonus : $0 </font>
            </div>
        </div>
    ","null","","","","","",""
"","","","","","html-keyboard-response","58","83316","0.0-6.0-3.0","654fcfd6bfd6b2be99cd197a","6554bfa13ac4b6a0ab00b03a","6554bfef653d216f6f27a3dc","309","./stimuli//pack_shapes/cat_2/ex_2_54.png","arrowright","response","ArrowRight","54","2","true",""
"","","","","","html-keyboard-response","59","84819","0.0-6.0-4.0","654fcfd6bfd6b2be99cd197a","6554bfa13ac4b6a0ab00b03a","6554bfef653d216f6f27a3dc","null","<p> <font color=""green"" size=""4vw""> Correct category! </font> <br> <br> <font color=""green"" size=""7vw""> + $0.05 </font> </p>","null","feedback","","","","","0.05"
"","","","","","html-keyboard-response","60","85703","0.0-6.0-0.1","654fcfd6bfd6b2be99cd197a","6554bfa13ac4b6a0ab00b03a","6554bfef653d216f6f27a3dc","884","
            
        <div style=""text-align: center; position: fixed; top: 5vh; left: 40vw;"">
            <div style=""margin:0 auto; width: 20vw; top: 8vh; font-size: 1vw""> 
            <font color=""green""> Bonus : $0.05 </font>
            </div>
        </div>
    
            <div> Please press any button to continue to the next trial.</div>
        ","f","ITI","","","","",""
"","","","","","html-keyboard-response","61","86306","0.0-6.0-1.1","654fcfd6bfd6b2be99cd197a","6554bfa13ac4b6a0ab00b03a","6554bfef653d216f6f27a3dc","null","
        
        <div style=""text-align: center; position: fixed; top: 5vh; left: 40vw;"">
            <div style=""margin:0 auto; width: 20vw; top: 8vh; font-size: 1vw""> 
            <font color=""green""> Bonus : $0.05 </font>
            </div>
        </div>
    
        <img class=""stim"" src=./stimuli//pack_shapes/cat_2/ex_2_31.png></img>
    ","null","stimulus","","","","",""
"","","","","","html-keyboard-response","62","87313","0.0-6.0-2.1","654fcfd6bfd6b2be99cd197a","6554bfa13ac4b6a0ab00b03a","6554bfef653d216f6f27a3dc","null","
        <div style=""text-align: center; position: fixed; top: 5vh; left: 40vw;"">
            <div style=""margin:0 auto; width: 20vw; top: 8vh; font-size: 1vw""> 
            <font color=""green""> Bonus : $0.05 </font>
            </div>
        </div>
    ","null","","","","","",""
"","","","","","html-keyboard-response","63","87583","0.0-6.0-3.1","654fcfd6bfd6b2be99cd197a","6554bfa13ac4b6a0ab00b03a","6554bfef653d216f6f27a3dc","269","./stimuli//pack_shapes/cat_2/ex_2_31.png","arrowright","response","ArrowRight","31","2","true",""
"","","","","","html-keyboard-response","64","89095","0.0-6.0-4.1","654fcfd6bfd6b2be99cd197a","6554bfa13ac4b6a0ab00b03a","6554bfef653d216f6f27a3dc","null","<p> <font color=""green"" size=""4vw""> Correct category! </font> <br> <br> <font color=""green"" size=""7vw""> + $0.05 </font> </p>","null","feedback","","","","","0.1"
"","","","","","html-keyboard-response","65","89651","0.0-6.0-0.2","654fcfd6bfd6b2be99cd197a","6554bfa13ac4b6a0ab00b03a","6554bfef653d216f6f27a3dc","555","
            
        <div style=""text-align: center; position: fixed; top: 5vh; left: 40vw;"">
            <div style=""margin:0 auto; width: 20vw; top: 8vh; font-size: 1vw""> 
            <font color=""green""> Bonus : $0.1 </font>
            </div>
        </div>
    
            <div> Please press any button to continue to the next trial.</div>
        ","f","ITI","","","","",""
"","","","","","html-keyboard-response","66","90257","0.0-6.0-1.2","654fcfd6bfd6b2be99cd197a","6554bfa13ac4b6a0ab00b03a","6554bfef653d216f6f27a3dc","null","
        
        <div style=""text-align: center; position: fixed; top: 5vh; left: 40vw;"">
            <div style=""margin:0 auto; width: 20vw; top: 8vh; font-size: 1vw""> 
            <font color=""green""> Bonus : $0.1 </font>
            </div>
        </div>
    
        <img class=""stim"" src=./stimuli//pack_shapes/cat_2/ex_2_15.png></img>
    ","null","stimulus","","","","",""
"","","","","","html-keyboard-response","67","91264","0.0-6.0-2.2","654fcfd6bfd6b2be99cd197a","6554bfa13ac4b6a0ab00b03a","6554bfef653d216f6f27a3dc","null","
        <div style=""text-align: center; position: fixed; top: 5vh; left: 40vw;"">
            <div style=""margin:0 auto; width: 20vw; top: 8vh; font-size: 1vw""> 
            <font color=""green""> Bonus : $0.1 </font>
            </div>
        </div>
    ","null","","","","","",""
"","","","","","html-keyboard-response","68","91551","0.0-6.0-3.2","654fcfd6bfd6b2be99cd197a","6554bfa13ac4b6a0ab00b03a","6554bfef653d216f6f27a3dc","286","./stimuli//pack_shapes/cat_2/ex_2_15.png","arrowright","response","ArrowRight","15","2","true",""
"","","","","","html-keyboard-response","69","93061","0.0-6.0-4.2","654fcfd6bfd6b2be99cd197a","6554bfa13ac4b6a0ab00b03a","6554bfef653d216f6f27a3dc","null","<p> <font color=""green"" size=""4vw""> Correct category! </font> <br> <br> <font color=""green"" size=""7vw""> + $0.05 </font> </p>","null","feedback","","","","","0.15"
"","","","","","html-keyboard-response","70","93863","0.0-6.0-0.3","654fcfd6bfd6b2be99cd197a","6554bfa13ac4b6a0ab00b03a","6554bfef653d216f6f27a3dc","801","
            
        <div style=""text-align: center; position: fixed; top: 5vh; left: 40vw;"">
            <div style=""margin:0 auto; width: 20vw; top: 8vh; font-size: 1vw""> 
            <font color=""green""> Bonus : $0.15 </font>
            </div>
        </div>
    
            <div> Please press any button to continue to the next trial.</div>
        ","h","ITI","","","","",""
"","","","","","html-keyboard-response","71","94470","0.0-6.0-1.3","654fcfd6bfd6b2be99cd197a","6554bfa13ac4b6a0ab00b03a","6554bfef653d216f6f27a3dc","null","
        
        <div style=""text-align: center; position: fixed; top: 5vh; left: 40vw;"">
            <div style=""margin:0 auto; width: 20vw; top: 8vh; font-size: 1vw""> 
            <font color=""green""> Bonus : $0.15 </font>
            </div>
        </div>
    
        <img class=""stim"" src=./stimuli//pack_shapes/cat_1/ex_1_9.png></img>
    ","null","stimulus","","","","",""
"","","","","","html-keyboard-response","72","95477","0.0-6.0-2.3","654fcfd6bfd6b2be99cd197a","6554bfa13ac4b6a0ab00b03a","6554bfef653d216f6f27a3dc","null","
        <div style=""text-align: center; position: fixed; top: 5vh; left: 40vw;"">
            <div style=""margin:0 auto; width: 20vw; top: 8vh; font-size: 1vw""> 
            <font color=""green""> Bonus : $0.15 </font>
            </div>
        </div>
    ","null","","","","","",""
"","","","","","html-keyboard-response","73","95710","0.0-6.0-3.3","654fcfd6bfd6b2be99cd197a","6554bfa13ac4b6a0ab00b03a","6554bfef653d216f6f27a3dc","232","./stimuli//pack_shapes/cat_1/ex_1_9.png","arrowleft","response","ArrowLeft","9","1","true",""
"","","","","","html-keyboard-response","74","97212","0.0-6.0-4.3","654fcfd6bfd6b2be99cd197a","6554bfa13ac4b6a0ab00b03a","6554bfef653d216f6f27a3dc","null","<p> <font color=""green"" size=""4vw""> Correct category! </font> <br> <br> <font color=""green"" size=""7vw""> + $0.05 </font> </p>","null","feedback","","","","","0.2"
"","","","","","html-keyboard-response","75","97567","0.0-6.0-0.4","654fcfd6bfd6b2be99cd197a","6554bfa13ac4b6a0ab00b03a","6554bfef653d216f6f27a3dc","355","
            
        <div style=""text-align: center; position: fixed; top: 5vh; left: 40vw;"">
            <div style=""margin:0 auto; width: 20vw; top: 8vh; font-size: 1vw""> 
            <font color=""green""> Bonus : $0.2 </font>
            </div>
        </div>
    
            <div> Please press any button to continue to the next trial.</div>
        ","f","ITI","","","","",""
"","","","","","html-keyboard-response","76","98171","0.0-6.0-1.4","654fcfd6bfd6b2be99cd197a","6554bfa13ac4b6a0ab00b03a","6554bfef653d216f6f27a3dc","null","
        
        <div style=""text-align: center; position: fixed; top: 5vh; left: 40vw;"">
            <div style=""margin:0 auto; width: 20vw; top: 8vh; font-size: 1vw""> 
            <font color=""green""> Bonus : $0.2 </font>
            </div>
        </div>
    
        <img class=""stim"" src=./stimuli//pack_shapes/cat_1/ex_1_2.png></img>
    ","null","stimulus","","","","",""
"","","","","","html-keyboard-response","77","99179","0.0-6.0-2.4","654fcfd6bfd6b2be99cd197a","6554bfa13ac4b6a0ab00b03a","6554bfef653d216f6f27a3dc","null","
        <div style=""text-align: center; position: fixed; top: 5vh; left: 40vw;"">
            <div style=""margin:0 auto; width: 20vw; top: 8vh; font-size: 1vw""> 
            <font color=""green""> Bonus : $0.2 </font>
            </div>
        </div>
    ","null","","","","","",""
"","","","","","html-keyboard-response","78","99395","0.0-6.0-3.4","654fcfd6bfd6b2be99cd197a","6554bfa13ac4b6a0ab00b03a","6554bfef653d216f6f27a3dc","216","./stimuli//pack_shapes/cat_1/ex_1_2.png","arrowleft","response","ArrowLeft","2","1","true",""
"","","","","","html-keyboard-response","79","100912","0.0-6.0-4.4","654fcfd6bfd6b2be99cd197a","6554bfa13ac4b6a0ab00b03a","6554bfef653d216f6f27a3dc","null","<p> <font color=""green"" size=""4vw""> Correct category! </font> <br> <br> <font color=""green"" size=""7vw""> + $0.05 </font> </p>","null","feedback","","","","","0.25"
"","","","","","html-keyboard-response","80","101259","0.0-6.0-0.5","654fcfd6bfd6b2be99cd197a","6554bfa13ac4b6a0ab00b03a","6554bfef653d216f6f27a3dc","347","
            
        <div style=""text-align: center; position: fixed; top: 5vh; left: 40vw;"">
            <div style=""margin:0 auto; width: 20vw; top: 8vh; font-size: 1vw""> 
            <font color=""green""> Bonus : $0.25 </font>
            </div>
        </div>
    
            <div> Please press any button to continue to the next trial.</div>
        ","f","ITI","","","","",""
"","","","","","html-keyboard-response","81","101872","0.0-6.0-1.5","654fcfd6bfd6b2be99cd197a","6554bfa13ac4b6a0ab00b03a","6554bfef653d216f6f27a3dc","null","
        
        <div style=""text-align: center; position: fixed; top: 5vh; left: 40vw;"">
            <div style=""margin:0 auto; width: 20vw; top: 8vh; font-size: 1vw""> 
            <font color=""green""> Bonus : $0.25 </font>
            </div>
        </div>
    
        <img class=""stim"" src=./stimuli//pack_shapes/cat_1/ex_1_76.png></img>
    ","null","stimulus","","","","",""
"","","","","","html-keyboard-response","82","102879","0.0-6.0-2.5","654fcfd6bfd6b2be99cd197a","6554bfa13ac4b6a0ab00b03a","6554bfef653d216f6f27a3dc","null","
        <div style=""text-align: center; position: fixed; top: 5vh; left: 40vw;"">
            <div style=""margin:0 auto; width: 20vw; top: 8vh; font-size: 1vw""> 
            <font color=""green""> Bonus : $0.25 </font>
            </div>
        </div>
    ","null","","","","","",""
"","","","","","html-keyboard-response","83","103128","0.0-6.0-3.5","654fcfd6bfd6b2be99cd197a","6554bfa13ac4b6a0ab00b03a","6554bfef653d216f6f27a3dc","249","./stimuli//pack_shapes/cat_1/ex_1_76.png","arrowright","response","ArrowLeft","76","1","false",""
"","","","","","html-keyboard-response","84","104630","0.0-6.0-4.5","654fcfd6bfd6b2be99cd197a","6554bfa13ac4b6a0ab00b03a","6554bfef653d216f6f27a3dc","null","<p> <font color=""red"" size=""4vw""> Wrong category! </font> </p>","null","feedback","","","","","0.25"
"","","","","","html-keyboard-response","85","105327","0.0-6.0-0.6","654fcfd6bfd6b2be99cd197a","6554bfa13ac4b6a0ab00b03a","6554bfef653d216f6f27a3dc","697","
            
        <div style=""text-align: center; position: fixed; top: 5vh; left: 40vw;"">
            <div style=""margin:0 auto; width: 20vw; top: 8vh; font-size: 1vw""> 
            <font color=""green""> Bonus : $0.25 </font>
            </div>
        </div>
    
            <div> Please press any button to continue to the next trial.</div>
        ","f","ITI","","","","",""
"","","","","","html-keyboard-response","86","105931","0.0-6.0-1.6","654fcfd6bfd6b2be99cd197a","6554bfa13ac4b6a0ab00b03a","6554bfef653d216f6f27a3dc","null","
        
        <div style=""text-align: center; position: fixed; top: 5vh; left: 40vw;"">
            <div style=""margin:0 auto; width: 20vw; top: 8vh; font-size: 1vw""> 
            <font color=""green""> Bonus : $0.25 </font>
            </div>
        </div>
    
        <img class=""stim"" src=./stimuli//pack_shapes/cat_1/ex_1_52.png></img>
    ","null","stimulus","","","","",""
"","","","","","html-keyboard-response","87","106938","0.0-6.0-2.6","654fcfd6bfd6b2be99cd197a","6554bfa13ac4b6a0ab00b03a","6554bfef653d216f6f27a3dc","null","
        <div style=""text-align: center; position: fixed; top: 5vh; left: 40vw;"">
            <div style=""margin:0 auto; width: 20vw; top: 8vh; font-size: 1vw""> 
            <font color=""green""> Bonus : $0.25 </font>
            </div>
        </div>
    ","null","","","","","",""
"","","","","","html-keyboard-response","88","107160","0.0-6.0-3.6","654fcfd6bfd6b2be99cd197a","6554bfa13ac4b6a0ab00b03a","6554bfef653d216f6f27a3dc","222","./stimuli//pack_shapes/cat_1/ex_1_52.png","arrowleft","response","ArrowLeft","52","1","true",""
"","","","","","html-keyboard-response","89","108673","0.0-6.0-4.6","654fcfd6bfd6b2be99cd197a","6554bfa13ac4b6a0ab00b03a","6554bfef653d216f6f27a3dc","null","<p> <font color=""green"" size=""4vw""> Correct category! </font> <br> <br> <font color=""green"" size=""7vw""> + $0.05 </font> </p>","null","feedback","","","","","0.3"
"","","","","","html-keyboard-response","90","109534","0.0-6.0-0.7","654fcfd6bfd6b2be99cd197a","6554bfa13ac4b6a0ab00b03a","6554bfef653d216f6f27a3dc","860","
            
        <div style=""text-align: center; position: fixed; top: 5vh; left: 40vw;"">
            <div style=""margin:0 auto; width: 20vw; top: 8vh; font-size: 1vw""> 
            <font color=""green""> Bonus : $0.3 </font>
            </div>
        </div>
    
            <div> Please press any button to continue to the next trial.</div>
        ","f","ITI","","","","",""
"","","","","","html-keyboard-response","91","110144","0.0-6.0-1.7","654fcfd6bfd6b2be99cd197a","6554bfa13ac4b6a0ab00b03a","6554bfef653d216f6f27a3dc","null","
        
        <div style=""text-align: center; position: fixed; top: 5vh; left: 40vw;"">
            <div style=""margin:0 auto; width: 20vw; top: 8vh; font-size: 1vw""> 
            <font color=""green""> Bonus : $0.3 </font>
            </div>
        </div>
    
        <img class=""stim"" src=./stimuli//pack_shapes/cat_1/ex_1_31.png></img>
    ","null","stimulus","","","","",""
"","","","","","html-keyboard-response","92","111151","0.0-6.0-2.7","654fcfd6bfd6b2be99cd197a","6554bfa13ac4b6a0ab00b03a","6554bfef653d216f6f27a3dc","null","
        <div style=""text-align: center; position: fixed; top: 5vh; left: 40vw;"">
            <div style=""margin:0 auto; width: 20vw; top: 8vh; font-size: 1vw""> 
            <font color=""green""> Bonus : $0.3 </font>
            </div>
        </div>
    ","null","","","","","",""
"","","","","","html-keyboard-response","93","111374","0.0-6.0-3.7","654fcfd6bfd6b2be99cd197a","6554bfa13ac4b6a0ab00b03a","6554bfef653d216f6f27a3dc","223","./stimuli//pack_shapes/cat_1/ex_1_31.png","arrowleft","response","ArrowLeft","31","1","true",""
"","","","","","html-keyboard-response","94","112886","0.0-6.0-4.7","654fcfd6bfd6b2be99cd197a","6554bfa13ac4b6a0ab00b03a","6554bfef653d216f6f27a3dc","null","<p> <font color=""green"" size=""4vw""> Correct category! </font> <br> <br> <font color=""green"" size=""7vw""> + $0.05 </font> </p>","null","feedback","","","","","0.35"
"","","","","","html-keyboard-response","95","113817","0.0-6.0-0.8","654fcfd6bfd6b2be99cd197a","6554bfa13ac4b6a0ab00b03a","6554bfef653d216f6f27a3dc","930","
            
        <div style=""text-align: center; position: fixed; top: 5vh; left: 40vw;"">
            <div style=""margin:0 auto; width: 20vw; top: 8vh; font-size: 1vw""> 
            <font color=""green""> Bonus : $0.35 </font>
            </div>
        </div>
    
            <div> Please press any button to continue to the next trial.</div>
        ","f","ITI","","","","",""
"","","","","","html-keyboard-response","96","114420","0.0-6.0-1.8","654fcfd6bfd6b2be99cd197a","6554bfa13ac4b6a0ab00b03a","6554bfef653d216f6f27a3dc","null","
        
        <div style=""text-align: center; position: fixed; top: 5vh; left: 40vw;"">
            <div style=""margin:0 auto; width: 20vw; top: 8vh; font-size: 1vw""> 
            <font color=""green""> Bonus : $0.35 </font>
            </div>
        </div>
    
        <img class=""stim"" src=./stimuli//pack_shapes/cat_1/ex_1_67.png></img>
    ","null","stimulus","","","","",""
"","","","","","html-keyboard-response","97","115427","0.0-6.0-2.8","654fcfd6bfd6b2be99cd197a","6554bfa13ac4b6a0ab00b03a","6554bfef653d216f6f27a3dc","null","
        <div style=""text-align: center; position: fixed; top: 5vh; left: 40vw;"">
            <div style=""margin:0 auto; width: 20vw; top: 8vh; font-size: 1vw""> 
            <font color=""green""> Bonus : $0.35 </font>
            </div>
        </div>
    ","null","","","","","",""
"","","","","","html-keyboard-response","98","115848","0.0-6.0-3.8","654fcfd6bfd6b2be99cd197a","6554bfa13ac4b6a0ab00b03a","6554bfef653d216f6f27a3dc","421","./stimuli//pack_shapes/cat_1/ex_1_67.png","arrowleft","response","ArrowLeft","67","1","true",""
"","","","","","html-keyboard-response","99","117363","0.0-6.0-4.8","654fcfd6bfd6b2be99cd197a","6554bfa13ac4b6a0ab00b03a","6554bfef653d216f6f27a3dc","null","<p> <font color=""green"" size=""4vw""> Correct category! </font> <br> <br> <font color=""green"" size=""7vw""> + $0.05 </font> </p>","null","feedback","","","","","0.4"
"","","","","","html-keyboard-response","100","118132","0.0-6.0-0.9","654fcfd6bfd6b2be99cd197a","6554bfa13ac4b6a0ab00b03a","6554bfef653d216f6f27a3dc","769","
            
        <div style=""text-align: center; position: fixed; top: 5vh; left: 40vw;"">
            <div style=""margin:0 auto; width: 20vw; top: 8vh; font-size: 1vw""> 
            <font color=""green""> Bonus : $0.4 </font>
            </div>
        </div>
    
            <div> Please press any button to continue to the next trial.</div>
        ","f","ITI","","","","",""
"","","","","","html-keyboard-response","101","118741","0.0-6.0-1.9","654fcfd6bfd6b2be99cd197a","6554bfa13ac4b6a0ab00b03a","6554bfef653d216f6f27a3dc","null","
        
        <div style=""text-align: center; position: fixed; top: 5vh; left: 40vw;"">
            <div style=""margin:0 auto; width: 20vw; top: 8vh; font-size: 1vw""> 
            <font color=""green""> Bonus : $0.4 </font>
            </div>
        </div>
    
        <img class=""stim"" src=./stimuli//pack_shapes/cat_1/ex_1_55.png></img>
    ","null","stimulus","","","","",""
"","","","","","html-keyboard-response","102","119748","0.0-6.0-2.9","654fcfd6bfd6b2be99cd197a","6554bfa13ac4b6a0ab00b03a","6554bfef653d216f6f27a3dc","null","
        <div style=""text-align: center; position: fixed; top: 5vh; left: 40vw;"">
            <div style=""margin:0 auto; width: 20vw; top: 8vh; font-size: 1vw""> 
            <font color=""green""> Bonus : $0.4 </font>
            </div>
        </div>
    ","null","","","","","",""
"","","","","","html-keyboard-response","103","120007","0.0-6.0-3.9","654fcfd6bfd6b2be99cd197a","6554bfa13ac4b6a0ab00b03a","6554bfef653d216f6f27a3dc","259","./stimuli//pack_shapes/cat_1/ex_1_55.png","arrowleft","response","ArrowLeft","55","1","true",""
"","","","","","html-keyboard-response","104","121513","0.0-6.0-4.9","654fcfd6bfd6b2be99cd197a","6554bfa13ac4b6a0ab00b03a","6554bfef653d216f6f27a3dc","null","<p> <font color=""green"" size=""4vw""> Correct category! </font> <br> <br> <font color=""green"" size=""7vw""> + $0.05 </font> </p>","null","feedback","","","","","0.45"
"","","","","","html-keyboard-response","105","122063","0.0-6.0-0.10","654fcfd6bfd6b2be99cd197a","6554bfa13ac4b6a0ab00b03a","6554bfef653d216f6f27a3dc","550","
            
        <div style=""text-align: center; position: fixed; top: 5vh; left: 40vw;"">
            <div style=""margin:0 auto; width: 20vw; top: 8vh; font-size: 1vw""> 
            <font color=""green""> Bonus : $0.45 </font>
            </div>
        </div>
    
            <div> Please press any button to continue to the next trial.</div>
        ","f","ITI","","","","",""
"","","","","","html-keyboard-response","106","122674","0.0-6.0-1.10","654fcfd6bfd6b2be99cd197a","6554bfa13ac4b6a0ab00b03a","6554bfef653d216f6f27a3dc","null","
        
        <div style=""text-align: center; position: fixed; top: 5vh; left: 40vw;"">
            <div style=""margin:0 auto; width: 20vw; top: 8vh; font-size: 1vw""> 
            <font color=""green""> Bonus : $0.45 </font>
            </div>
        </div>
    
        <img class=""stim"" src=./stimuli//pack_shapes/cat_1/ex_1_72.png></img>
    ","null","stimulus","","","","",""
"","","","","","html-keyboard-response","107","123681","0.0-6.0-2.10","654fcfd6bfd6b2be99cd197a","6554bfa13ac4b6a0ab00b03a","6554bfef653d216f6f27a3dc","null","
        <div style=""text-align: center; position: fixed; top: 5vh; left: 40vw;"">
            <div style=""margin:0 auto; width: 20vw; top: 8vh; font-size: 1vw""> 
            <font color=""green""> Bonus : $0.45 </font>
            </div>
        </div>
    ","null","","","","","",""
"","","","","","html-keyboard-response","108","123927","0.0-6.0-3.10","654fcfd6bfd6b2be99cd197a","6554bfa13ac4b6a0ab00b03a","6554bfef653d216f6f27a3dc","245","./stimuli//pack_shapes/cat_1/ex_1_72.png","arrowleft","response","ArrowLeft","72","1","true",""
"","","","","","html-keyboard-response","109","125432","0.0-6.0-4.10","654fcfd6bfd6b2be99cd197a","6554bfa13ac4b6a0ab00b03a","6554bfef653d216f6f27a3dc","null","<p> <font color=""green"" size=""4vw""> Correct category! </font> <br> <br> <font color=""green"" size=""7vw""> + $0.05 </font> </p>","null","feedback","","","","","0.5"
"","","","","","html-keyboard-response","110","126235","0.0-6.0-0.11","654fcfd6bfd6b2be99cd197a","6554bfa13ac4b6a0ab00b03a","6554bfef653d216f6f27a3dc","803","
            
        <div style=""text-align: center; position: fixed; top: 5vh; left: 40vw;"">
            <div style=""margin:0 auto; width: 20vw; top: 8vh; font-size: 1vw""> 
            <font color=""green""> Bonus : $0.5 </font>
            </div>
        </div>
    
            <div> Please press any button to continue to the next trial.</div>
        ","f","ITI","","","","",""
"","","","","","html-keyboard-response","111","126840","0.0-6.0-1.11","654fcfd6bfd6b2be99cd197a","6554bfa13ac4b6a0ab00b03a","6554bfef653d216f6f27a3dc","null","
        
        <div style=""text-align: center; position: fixed; top: 5vh; left: 40vw;"">
            <div style=""margin:0 auto; width: 20vw; top: 8vh; font-size: 1vw""> 
            <font color=""green""> Bonus : $0.5 </font>
            </div>
        </div>
    
        <img class=""stim"" src=./stimuli//pack_shapes/cat_1/ex_1_61.png></img>
    ","null","stimulus","","","","",""
"","","","","","html-keyboard-response","112","127847","0.0-6.0-2.11","654fcfd6bfd6b2be99cd197a","6554bfa13ac4b6a0ab00b03a","6554bfef653d216f6f27a3dc","null","
        <div style=""text-align: center; position: fixed; top: 5vh; left: 40vw;"">
            <div style=""margin:0 auto; width: 20vw; top: 8vh; font-size: 1vw""> 
            <font color=""green""> Bonus : $0.5 </font>
            </div>
        </div>
    ","null","","","","","",""
"","","","","","html-keyboard-response","113","128091","0.0-6.0-3.11","654fcfd6bfd6b2be99cd197a","6554bfa13ac4b6a0ab00b03a","6554bfef653d216f6f27a3dc","244","./stimuli//pack_shapes/cat_1/ex_1_61.png","arrowleft","response","ArrowLeft","61","1","true",""
"","","","","","html-keyboard-response","114","129598","0.0-6.0-4.11","654fcfd6bfd6b2be99cd197a","6554bfa13ac4b6a0ab00b03a","6554bfef653d216f6f27a3dc","null","<p> <font color=""green"" size=""4vw""> Correct category! </font> <br> <br> <font color=""green"" size=""7vw""> + $0.05 </font> </p>","null","feedback","","","","","0.55"
"","","","","","html-keyboard-response","115","130072","0.0-6.0-0.12","654fcfd6bfd6b2be99cd197a","6554bfa13ac4b6a0ab00b03a","6554bfef653d216f6f27a3dc","473","
            
        <div style=""text-align: center; position: fixed; top: 5vh; left: 40vw;"">
            <div style=""margin:0 auto; width: 20vw; top: 8vh; font-size: 1vw""> 
            <font color=""green""> Bonus : $0.55 </font>
            </div>
        </div>
    
            <div> Please press any button to continue to the next trial.</div>
        ","f","ITI","","","","",""
"","","","","","html-keyboard-response","116","130682","0.0-6.0-1.12","654fcfd6bfd6b2be99cd197a","6554bfa13ac4b6a0ab00b03a","6554bfef653d216f6f27a3dc","null","
        
        <div style=""text-align: center; position: fixed; top: 5vh; left: 40vw;"">
            <div style=""margin:0 auto; width: 20vw; top: 8vh; font-size: 1vw""> 
            <font color=""green""> Bonus : $0.55 </font>
            </div>
        </div>
    
        <img class=""stim"" src=./stimuli//pack_shapes/cat_1/ex_1_19.png></img>
    ","null","stimulus","","","","",""
"","","","","","html-keyboard-response","117","131689","0.0-6.0-2.12","654fcfd6bfd6b2be99cd197a","6554bfa13ac4b6a0ab00b03a","6554bfef653d216f6f27a3dc","null","
        <div style=""text-align: center; position: fixed; top: 5vh; left: 40vw;"">
            <div style=""margin:0 auto; width: 20vw; top: 8vh; font-size: 1vw""> 
            <font color=""green""> Bonus : $0.55 </font>
            </div>
        </div>
    ","null","","","","","",""
"","","","","","html-keyboard-response","118","131963","0.0-6.0-3.12","654fcfd6bfd6b2be99cd197a","6554bfa13ac4b6a0ab00b03a","6554bfef653d216f6f27a3dc","273","./stimuli//pack_shapes/cat_1/ex_1_19.png","arrowleft","response","ArrowLeft","19","1","true",""
"","","","","","html-keyboard-response","119","133470","0.0-6.0-4.12","654fcfd6bfd6b2be99cd197a","6554bfa13ac4b6a0ab00b03a","6554bfef653d216f6f27a3dc","null","<p> <font color=""green"" size=""4vw""> Correct category! </font> <br> <br> <font color=""green"" size=""7vw""> + $0.05 </font> </p>","null","feedback","","","","","0.6"
"","","","","","html-keyboard-response","120","133971","0.0-6.0-0.13","654fcfd6bfd6b2be99cd197a","6554bfa13ac4b6a0ab00b03a","6554bfef653d216f6f27a3dc","501","
            
        <div style=""text-align: center; position: fixed; top: 5vh; left: 40vw;"">
            <div style=""margin:0 auto; width: 20vw; top: 8vh; font-size: 1vw""> 
            <font color=""green""> Bonus : $0.6 </font>
            </div>
        </div>
    
            <div> Please press any button to continue to the next trial.</div>
        ","f","ITI","","","","",""
"","","","","","html-keyboard-response","121","134585","0.0-6.0-1.13","654fcfd6bfd6b2be99cd197a","6554bfa13ac4b6a0ab00b03a","6554bfef653d216f6f27a3dc","null","
        
        <div style=""text-align: center; position: fixed; top: 5vh; left: 40vw;"">
            <div style=""margin:0 auto; width: 20vw; top: 8vh; font-size: 1vw""> 
            <font color=""green""> Bonus : $0.6 </font>
            </div>
        </div>
    
        <img class=""stim"" src=./stimuli//pack_shapes/cat_2/ex_2_16.png></img>
    ","null","stimulus","","","","",""
"","","","","","html-keyboard-response","122","135591","0.0-6.0-2.13","654fcfd6bfd6b2be99cd197a","6554bfa13ac4b6a0ab00b03a","6554bfef653d216f6f27a3dc","null","
        <div style=""text-align: center; position: fixed; top: 5vh; left: 40vw;"">
            <div style=""margin:0 auto; width: 20vw; top: 8vh; font-size: 1vw""> 
            <font color=""green""> Bonus : $0.6 </font>
            </div>
        </div>
    ","null","","","","","",""
"","","","","","html-keyboard-response","123","135864","0.0-6.0-3.13","654fcfd6bfd6b2be99cd197a","6554bfa13ac4b6a0ab00b03a","6554bfef653d216f6f27a3dc","273","./stimuli//pack_shapes/cat_2/ex_2_16.png","arrowright","response","ArrowRight","16","2","true",""
"","","","","","html-keyboard-response","124","137371","0.0-6.0-4.13","654fcfd6bfd6b2be99cd197a","6554bfa13ac4b6a0ab00b03a","6554bfef653d216f6f27a3dc","null","<p> <font color=""green"" size=""4vw""> Correct category! </font> <br> <br> <font color=""green"" size=""7vw""> + $0.05 </font> </p>","null","feedback","","","","","0.65"
"","","","","","html-keyboard-response","125","137701","0.0-6.0-0.14","654fcfd6bfd6b2be99cd197a","6554bfa13ac4b6a0ab00b03a","6554bfef653d216f6f27a3dc","329","
            
        <div style=""text-align: center; position: fixed; top: 5vh; left: 40vw;"">
            <div style=""margin:0 auto; width: 20vw; top: 8vh; font-size: 1vw""> 
            <font color=""green""> Bonus : $0.65 </font>
            </div>
        </div>
    
            <div> Please press any button to continue to the next trial.</div>
        ","f","ITI","","","","",""
"","","","","","html-keyboard-response","126","138316","0.0-6.0-1.14","654fcfd6bfd6b2be99cd197a","6554bfa13ac4b6a0ab00b03a","6554bfef653d216f6f27a3dc","null","
        
        <div style=""text-align: center; position: fixed; top: 5vh; left: 40vw;"">
            <div style=""margin:0 auto; width: 20vw; top: 8vh; font-size: 1vw""> 
            <font color=""green""> Bonus : $0.65 </font>
            </div>
        </div>
    
        <img class=""stim"" src=./stimuli//pack_shapes/cat_2/ex_2_41.png></img>
    ","null","stimulus","","","","",""
"","","","","","html-keyboard-response","127","139323","0.0-6.0-2.14","654fcfd6bfd6b2be99cd197a","6554bfa13ac4b6a0ab00b03a","6554bfef653d216f6f27a3dc","null","
        <div style=""text-align: center; position: fixed; top: 5vh; left: 40vw;"">
            <div style=""margin:0 auto; width: 20vw; top: 8vh; font-size: 1vw""> 
            <font color=""green""> Bonus : $0.65 </font>
            </div>
        </div>
    ","null","","","","","",""
"","","","","","html-keyboard-response","128","139652","0.0-6.0-3.14","654fcfd6bfd6b2be99cd197a","6554bfa13ac4b6a0ab00b03a","6554bfef653d216f6f27a3dc","328","./stimuli//pack_shapes/cat_2/ex_2_41.png","arrowright","response","ArrowRight","41","2","true",""
"","","","","","html-keyboard-response","129","141165","0.0-6.0-4.14","654fcfd6bfd6b2be99cd197a","6554bfa13ac4b6a0ab00b03a","6554bfef653d216f6f27a3dc","null","<p> <font color=""green"" size=""4vw""> Correct category! </font> <br> <br> <font color=""green"" size=""7vw""> + $0.05 </font> </p>","null","feedback","","","","","0.7"
"","","","","","html-keyboard-response","130","141647","0.0-6.0-0.15","654fcfd6bfd6b2be99cd197a","6554bfa13ac4b6a0ab00b03a","6554bfef653d216f6f27a3dc","481","
            
        <div style=""text-align: center; position: fixed; top: 5vh; left: 40vw;"">
            <div style=""margin:0 auto; width: 20vw; top: 8vh; font-size: 1vw""> 
            <font color=""green""> Bonus : $0.7 </font>
            </div>
        </div>
    
            <div> Please press any button to continue to the next trial.</div>
        ","f","ITI","","","","",""
"","","","","","html-keyboard-response","131","142248","0.0-6.0-1.15","654fcfd6bfd6b2be99cd197a","6554bfa13ac4b6a0ab00b03a","6554bfef653d216f6f27a3dc","null","
        
        <div style=""text-align: center; position: fixed; top: 5vh; left: 40vw;"">
            <div style=""margin:0 auto; width: 20vw; top: 8vh; font-size: 1vw""> 
            <font color=""green""> Bonus : $0.7 </font>
            </div>
        </div>
    
        <img class=""stim"" src=./stimuli//pack_shapes/cat_1/ex_1_27.png></img>
    ","null","stimulus","","","","",""
"","","","","","html-keyboard-response","132","143255","0.0-6.0-2.15","654fcfd6bfd6b2be99cd197a","6554bfa13ac4b6a0ab00b03a","6554bfef653d216f6f27a3dc","null","
        <div style=""text-align: center; position: fixed; top: 5vh; left: 40vw;"">
            <div style=""margin:0 auto; width: 20vw; top: 8vh; font-size: 1vw""> 
            <font color=""green""> Bonus : $0.7 </font>
            </div>
        </div>
    ","null","","","","","",""
"","","","","","html-keyboard-response","133","143555","0.0-6.0-3.15","654fcfd6bfd6b2be99cd197a","6554bfa13ac4b6a0ab00b03a","6554bfef653d216f6f27a3dc","299","./stimuli//pack_shapes/cat_1/ex_1_27.png","arrowleft","response","ArrowLeft","27","1","true",""
"","","","","","html-keyboard-response","134","145066","0.0-6.0-4.15","654fcfd6bfd6b2be99cd197a","6554bfa13ac4b6a0ab00b03a","6554bfef653d216f6f27a3dc","null","<p> <font color=""green"" size=""4vw""> Correct category! </font> <br> <br> <font color=""green"" size=""7vw""> + $0.05 </font> </p>","null","feedback","","","","","0.75"
"","","","","","html-keyboard-response","135","145536","0.0-6.0-0.16","654fcfd6bfd6b2be99cd197a","6554bfa13ac4b6a0ab00b03a","6554bfef653d216f6f27a3dc","470","
            
        <div style=""text-align: center; position: fixed; top: 5vh; left: 40vw;"">
            <div style=""margin:0 auto; width: 20vw; top: 8vh; font-size: 1vw""> 
            <font color=""green""> Bonus : $0.75 </font>
            </div>
        </div>
    
            <div> Please press any button to continue to the next trial.</div>
        ","f","ITI","","","","",""
"","","","","","html-keyboard-response","136","146150","0.0-6.0-1.16","654fcfd6bfd6b2be99cd197a","6554bfa13ac4b6a0ab00b03a","6554bfef653d216f6f27a3dc","null","
        
        <div style=""text-align: center; position: fixed; top: 5vh; left: 40vw;"">
            <div style=""margin:0 auto; width: 20vw; top: 8vh; font-size: 1vw""> 
            <font color=""green""> Bonus : $0.75 </font>
            </div>
        </div>
    
        <img class=""stim"" src=./stimuli//pack_shapes/cat_2/ex_2_68.png></img>
    ","null","stimulus","","","","",""
"","","","","","html-keyboard-response","137","147157","0.0-6.0-2.16","654fcfd6bfd6b2be99cd197a","6554bfa13ac4b6a0ab00b03a","6554bfef653d216f6f27a3dc","null","
        <div style=""text-align: center; position: fixed; top: 5vh; left: 40vw;"">
            <div style=""margin:0 auto; width: 20vw; top: 8vh; font-size: 1vw""> 
            <font color=""green""> Bonus : $0.75 </font>
            </div>
        </div>
    ","null","","","","","",""
"","","","","","html-keyboard-response","138","147436","0.0-6.0-3.16","654fcfd6bfd6b2be99cd197a","6554bfa13ac4b6a0ab00b03a","6554bfef653d216f6f27a3dc","278","./stimuli//pack_shapes/cat_2/ex_2_68.png","arrowright","response","ArrowRight","68","2","true",""
"","","","","","html-keyboard-response","139","148951","0.0-6.0-4.16","654fcfd6bfd6b2be99cd197a","6554bfa13ac4b6a0ab00b03a","6554bfef653d216f6f27a3dc","null","<p> <font color=""green"" size=""4vw""> Correct category! </font> <br> <br> <font color=""green"" size=""7vw""> + $0.05 </font> </p>","null","feedback","","","","","0.8"
"","","","","","html-keyboard-response","140","149776","0.0-6.0-0.17","654fcfd6bfd6b2be99cd197a","6554bfa13ac4b6a0ab00b03a","6554bfef653d216f6f27a3dc","824","
            
        <div style=""text-align: center; position: fixed; top: 5vh; left: 40vw;"">
            <div style=""margin:0 auto; width: 20vw; top: 8vh; font-size: 1vw""> 
            <font color=""green""> Bonus : $0.8 </font>
            </div>
        </div>
    
            <div> Please press any button to continue to the next trial.</div>
        ","arrowleft","ITI","","","","",""
"","","","","","html-keyboard-response","141","150391","0.0-6.0-1.17","654fcfd6bfd6b2be99cd197a","6554bfa13ac4b6a0ab00b03a","6554bfef653d216f6f27a3dc","null","
        
        <div style=""text-align: center; position: fixed; top: 5vh; left: 40vw;"">
            <div style=""margin:0 auto; width: 20vw; top: 8vh; font-size: 1vw""> 
            <font color=""green""> Bonus : $0.8 </font>
            </div>
        </div>
    
        <img class=""stim"" src=./stimuli//pack_shapes/cat_2/ex_2_51.png></img>
    ","null","stimulus","","","","",""
"","","","","","html-keyboard-response","142","151397","0.0-6.0-2.17","654fcfd6bfd6b2be99cd197a","6554bfa13ac4b6a0ab00b03a","6554bfef653d216f6f27a3dc","null","
        <div style=""text-align: center; position: fixed; top: 5vh; left: 40vw;"">
            <div style=""margin:0 auto; width: 20vw; top: 8vh; font-size: 1vw""> 
            <font color=""green""> Bonus : $0.8 </font>
            </div>
        </div>
    ","null","","","","","",""
"","","","","","html-keyboard-response","143","151653","0.0-6.0-3.17","654fcfd6bfd6b2be99cd197a","6554bfa13ac4b6a0ab00b03a","6554bfef653d216f6f27a3dc","255","./stimuli//pack_shapes/cat_2/ex_2_51.png","arrowright","response","ArrowRight","51","2","true",""
"","","","","","html-keyboard-response","144","153163","0.0-6.0-4.17","654fcfd6bfd6b2be99cd197a","6554bfa13ac4b6a0ab00b03a","6554bfef653d216f6f27a3dc","null","<p> <font color=""green"" size=""4vw""> Correct category! </font> <br> <br> <font color=""green"" size=""7vw""> + $0.05 </font> </p>","null","feedback","","","","","0.85"
"","","","","","html-keyboard-response","145","153696","0.0-6.0-0.18","654fcfd6bfd6b2be99cd197a","6554bfa13ac4b6a0ab00b03a","6554bfef653d216f6f27a3dc","533","
            
        <div style=""text-align: center; position: fixed; top: 5vh; left: 40vw;"">
            <div style=""margin:0 auto; width: 20vw; top: 8vh; font-size: 1vw""> 
            <font color=""green""> Bonus : $0.85 </font>
            </div>
        </div>
    
            <div> Please press any button to continue to the next trial.</div>
        ","f","ITI","","","","",""
"","","","","","html-keyboard-response","146","154308","0.0-6.0-1.18","654fcfd6bfd6b2be99cd197a","6554bfa13ac4b6a0ab00b03a","6554bfef653d216f6f27a3dc","null","
        
        <div style=""text-align: center; position: fixed; top: 5vh; left: 40vw;"">
            <div style=""margin:0 auto; width: 20vw; top: 8vh; font-size: 1vw""> 
            <font color=""green""> Bonus : $0.85 </font>
            </div>
        </div>
    
        <img class=""stim"" src=./stimuli//pack_shapes/cat_1/ex_1_77.png></img>
    ","null","stimulus","","","","",""
"","","","","","html-keyboard-response","147","155316","0.0-6.0-2.18","654fcfd6bfd6b2be99cd197a","6554bfa13ac4b6a0ab00b03a","6554bfef653d216f6f27a3dc","null","
        <div style=""text-align: center; position: fixed; top: 5vh; left: 40vw;"">
            <div style=""margin:0 auto; width: 20vw; top: 8vh; font-size: 1vw""> 
            <font color=""green""> Bonus : $0.85 </font>
            </div>
        </div>
    ","null","","","","","",""
"","","","","","html-keyboard-response","148","155595","0.0-6.0-3.18","654fcfd6bfd6b2be99cd197a","6554bfa13ac4b6a0ab00b03a","6554bfef653d216f6f27a3dc","278","./stimuli//pack_shapes/cat_1/ex_1_77.png","arrowright","response","ArrowLeft","77","1","false",""
"","","","","","html-keyboard-response","149","157111","0.0-6.0-4.18","654fcfd6bfd6b2be99cd197a","6554bfa13ac4b6a0ab00b03a","6554bfef653d216f6f27a3dc","null","<p> <font color=""red"" size=""4vw""> Wrong category! </font> </p>","null","feedback","","","","","0.85"
"","","","","","html-keyboard-response","150","157631","0.0-6.0-0.19","654fcfd6bfd6b2be99cd197a","6554bfa13ac4b6a0ab00b03a","6554bfef653d216f6f27a3dc","520","
            
        <div style=""text-align: center; position: fixed; top: 5vh; left: 40vw;"">
            <div style=""margin:0 auto; width: 20vw; top: 8vh; font-size: 1vw""> 
            <font color=""green""> Bonus : $0.85 </font>
            </div>
        </div>
    
            <div> Please press any button to continue to the next trial.</div>
        ","f","ITI","","","","",""
"","","","","","html-keyboard-response","151","158242","0.0-6.0-1.19","654fcfd6bfd6b2be99cd197a","6554bfa13ac4b6a0ab00b03a","6554bfef653d216f6f27a3dc","null","
        
        <div style=""text-align: center; position: fixed; top: 5vh; left: 40vw;"">
            <div style=""margin:0 auto; width: 20vw; top: 8vh; font-size: 1vw""> 
            <font color=""green""> Bonus : $0.85 </font>
            </div>
        </div>
    
        <img class=""stim"" src=./stimuli//pack_shapes/cat_2/ex_2_34.png></img>
    ","null","stimulus","","","","",""
"","","","","","html-keyboard-response","152","159249","0.0-6.0-2.19","654fcfd6bfd6b2be99cd197a","6554bfa13ac4b6a0ab00b03a","6554bfef653d216f6f27a3dc","null","
        <div style=""text-align: center; position: fixed; top: 5vh; left: 40vw;"">
            <div style=""margin:0 auto; width: 20vw; top: 8vh; font-size: 1vw""> 
            <font color=""green""> Bonus : $0.85 </font>
            </div>
        </div>
    ","null","","","","","",""
"","","","","","html-keyboard-response","153","159475","0.0-6.0-3.19","654fcfd6bfd6b2be99cd197a","6554bfa13ac4b6a0ab00b03a","6554bfef653d216f6f27a3dc","225","./stimuli//pack_shapes/cat_2/ex_2_34.png","arrowright","response","ArrowRight","34","2","true",""
"","","","","","html-keyboard-response","154","160984","0.0-6.0-4.19","654fcfd6bfd6b2be99cd197a","6554bfa13ac4b6a0ab00b03a","6554bfef653d216f6f27a3dc","null","<p> <font color=""green"" size=""4vw""> Correct category! </font> <br> <br> <font color=""green"" size=""7vw""> + $0.05 </font> </p>","null","feedback","","","","","0.9"
"","","","","","html-keyboard-response","155","161423","0.0-6.0-0.20","654fcfd6bfd6b2be99cd197a","6554bfa13ac4b6a0ab00b03a","6554bfef653d216f6f27a3dc","438","
            
        <div style=""text-align: center; position: fixed; top: 5vh; left: 40vw;"">
            <div style=""margin:0 auto; width: 20vw; top: 8vh; font-size: 1vw""> 
            <font color=""green""> Bonus : $0.9 </font>
            </div>
        </div>
    
            <div> Please press any button to continue to the next trial.</div>
        ","f","ITI","","","","",""
"","","","","","html-keyboard-response","156","162038","0.0-6.0-1.20","654fcfd6bfd6b2be99cd197a","6554bfa13ac4b6a0ab00b03a","6554bfef653d216f6f27a3dc","null","
        
        <div style=""text-align: center; position: fixed; top: 5vh; left: 40vw;"">
            <div style=""margin:0 auto; width: 20vw; top: 8vh; font-size: 1vw""> 
            <font color=""green""> Bonus : $0.9 </font>
            </div>
        </div>
    
        <img class=""stim"" src=./stimuli//pack_shapes/cat_2/ex_2_74.png></img>
    ","null","stimulus","","","","",""
"","","","","","html-keyboard-response","157","163045","0.0-6.0-2.20","654fcfd6bfd6b2be99cd197a","6554bfa13ac4b6a0ab00b03a","6554bfef653d216f6f27a3dc","null","
        <div style=""text-align: center; position: fixed; top: 5vh; left: 40vw;"">
            <div style=""margin:0 auto; width: 20vw; top: 8vh; font-size: 1vw""> 
            <font color=""green""> Bonus : $0.9 </font>
            </div>
        </div>
    ","null","","","","","",""
"","","","","","html-keyboard-response","158","163554","0.0-6.0-3.20","654fcfd6bfd6b2be99cd197a","6554bfa13ac4b6a0ab00b03a","6554bfef653d216f6f27a3dc","508","./stimuli//pack_shapes/cat_2/ex_2_74.png","arrowleft","response","ArrowRight","74","2","false",""
"","","","","","html-keyboard-response","159","165058","0.0-6.0-4.20","654fcfd6bfd6b2be99cd197a","6554bfa13ac4b6a0ab00b03a","6554bfef653d216f6f27a3dc","null","<p> <font color=""red"" size=""4vw""> Wrong category! </font> </p>","null","feedback","","","","","0.9"
"","","","","","html-keyboard-response","160","165627","0.0-6.0-0.21","654fcfd6bfd6b2be99cd197a","6554bfa13ac4b6a0ab00b03a","6554bfef653d216f6f27a3dc","568","
            
        <div style=""text-align: center; position: fixed; top: 5vh; left: 40vw;"">
            <div style=""margin:0 auto; width: 20vw; top: 8vh; font-size: 1vw""> 
            <font color=""green""> Bonus : $0.9 </font>
            </div>
        </div>
    
            <div> Please press any button to continue to the next trial.</div>
        ","f","ITI","","","","",""
"","","","","","html-keyboard-response","161","166235","0.0-6.0-1.21","654fcfd6bfd6b2be99cd197a","6554bfa13ac4b6a0ab00b03a","6554bfef653d216f6f27a3dc","null","
        
        <div style=""text-align: center; position: fixed; top: 5vh; left: 40vw;"">
            <div style=""margin:0 auto; width: 20vw; top: 8vh; font-size: 1vw""> 
            <font color=""green""> Bonus : $0.9 </font>
            </div>
        </div>
    
        <img class=""stim"" src=./stimuli//pack_shapes/cat_1/ex_1_18.png></img>
    ","null","stimulus","","","","",""
"","","","","","html-keyboard-response","162","167242","0.0-6.0-2.21","654fcfd6bfd6b2be99cd197a","6554bfa13ac4b6a0ab00b03a","6554bfef653d216f6f27a3dc","null","
        <div style=""text-align: center; position: fixed; top: 5vh; left: 40vw;"">
            <div style=""margin:0 auto; width: 20vw; top: 8vh; font-size: 1vw""> 
            <font color=""green""> Bonus : $0.9 </font>
            </div>
        </div>
    ","null","","","","","",""
"","","","","","html-keyboard-response","163","167498","0.0-6.0-3.21","654fcfd6bfd6b2be99cd197a","6554bfa13ac4b6a0ab00b03a","6554bfef653d216f6f27a3dc","255","./stimuli//pack_shapes/cat_1/ex_1_18.png","arrowleft","response","ArrowLeft","18","1","true",""
"","","","","","html-keyboard-response","164","169008","0.0-6.0-4.21","654fcfd6bfd6b2be99cd197a","6554bfa13ac4b6a0ab00b03a","6554bfef653d216f6f27a3dc","null","<p> <font color=""green"" size=""4vw""> Correct category! </font> <br> <br> <font color=""green"" size=""7vw""> + $0.05 </font> </p>","null","feedback","","","","","0.95"
"","","","","","html-keyboard-response","165","169474","0.0-6.0-0.22","654fcfd6bfd6b2be99cd197a","6554bfa13ac4b6a0ab00b03a","6554bfef653d216f6f27a3dc","466","
            
        <div style=""text-align: center; position: fixed; top: 5vh; left: 40vw;"">
            <div style=""margin:0 auto; width: 20vw; top: 8vh; font-size: 1vw""> 
            <font color=""green""> Bonus : $0.95 </font>
            </div>
        </div>
    
            <div> Please press any button to continue to the next trial.</div>
        ","f","ITI","","","","",""
"","","","","","html-keyboard-response","166","170077","0.0-6.0-1.22","654fcfd6bfd6b2be99cd197a","6554bfa13ac4b6a0ab00b03a","6554bfef653d216f6f27a3dc","null","
        
        <div style=""text-align: center; position: fixed; top: 5vh; left: 40vw;"">
            <div style=""margin:0 auto; width: 20vw; top: 8vh; font-size: 1vw""> 
            <font color=""green""> Bonus : $0.95 </font>
            </div>
        </div>
    
        <img class=""stim"" src=./stimuli//pack_shapes/cat_2/ex_2_42.png></img>
    ","null","stimulus","","","","",""
"","","","","","html-keyboard-response","167","171083","0.0-6.0-2.22","654fcfd6bfd6b2be99cd197a","6554bfa13ac4b6a0ab00b03a","6554bfef653d216f6f27a3dc","null","
        <div style=""text-align: center; position: fixed; top: 5vh; left: 40vw;"">
            <div style=""margin:0 auto; width: 20vw; top: 8vh; font-size: 1vw""> 
            <font color=""green""> Bonus : $0.95 </font>
            </div>
        </div>
    ","null","","","","","",""
"","","","","","html-keyboard-response","168","171288","0.0-6.0-3.22","654fcfd6bfd6b2be99cd197a","6554bfa13ac4b6a0ab00b03a","6554bfef653d216f6f27a3dc","204","./stimuli//pack_shapes/cat_2/ex_2_42.png","arrowright","response","ArrowRight","42","2","true",""
"","","","","","html-keyboard-response","169","172803","0.0-6.0-4.22","654fcfd6bfd6b2be99cd197a","6554bfa13ac4b6a0ab00b03a","6554bfef653d216f6f27a3dc","null","<p> <font color=""green"" size=""4vw""> Correct category! </font> <br> <br> <font color=""green"" size=""7vw""> + $0.05 </font> </p>","null","feedback","","","","","1"
"","","","","","html-keyboard-response","170","173227","0.0-6.0-0.23","654fcfd6bfd6b2be99cd197a","6554bfa13ac4b6a0ab00b03a","6554bfef653d216f6f27a3dc","424","
            
        <div style=""text-align: center; position: fixed; top: 5vh; left: 40vw;"">
            <div style=""margin:0 auto; width: 20vw; top: 8vh; font-size: 1vw""> 
            <font color=""green""> Bonus : $1 </font>
            </div>
        </div>
    
            <div> Please press any button to continue to the next trial.</div>
        ","f","ITI","","","","",""
"","","","","","html-keyboard-response","171","173841","0.0-6.0-1.23","654fcfd6bfd6b2be99cd197a","6554bfa13ac4b6a0ab00b03a","6554bfef653d216f6f27a3dc","null","
        
        <div style=""text-align: center; position: fixed; top: 5vh; left: 40vw;"">
            <div style=""margin:0 auto; width: 20vw; top: 8vh; font-size: 1vw""> 
            <font color=""green""> Bonus : $1 </font>
            </div>
        </div>
    
        <img class=""stim"" src=./stimuli//pack_shapes/cat_1/ex_1_56.png></img>
    ","null","stimulus","","","","",""
"","","","","","html-keyboard-response","172","174847","0.0-6.0-2.23","654fcfd6bfd6b2be99cd197a","6554bfa13ac4b6a0ab00b03a","6554bfef653d216f6f27a3dc","null","
        <div style=""text-align: center; position: fixed; top: 5vh; left: 40vw;"">
            <div style=""margin:0 auto; width: 20vw; top: 8vh; font-size: 1vw""> 
            <font color=""green""> Bonus : $1 </font>
            </div>
        </div>
    ","null","","","","","",""
"","","","","","html-keyboard-response","173","175039","0.0-6.0-3.23","654fcfd6bfd6b2be99cd197a","6554bfa13ac4b6a0ab00b03a","6554bfef653d216f6f27a3dc","192","./stimuli//pack_shapes/cat_1/ex_1_56.png","arrowleft","response","ArrowLeft","56","1","true",""
"","","","","","html-keyboard-response","174","176552","0.0-6.0-4.23","654fcfd6bfd6b2be99cd197a","6554bfa13ac4b6a0ab00b03a","6554bfef653d216f6f27a3dc","null","<p> <font color=""green"" size=""4vw""> Correct category! </font> <br> <br> <font color=""green"" size=""7vw""> + $0.05 </font> </p>","null","feedback","","","","","1.05"
"","","","","","html-keyboard-response","175","176999","0.0-6.0-0.24","654fcfd6bfd6b2be99cd197a","6554bfa13ac4b6a0ab00b03a","6554bfef653d216f6f27a3dc","447","
            
        <div style=""text-align: center; position: fixed; top: 5vh; left: 40vw;"">
            <div style=""margin:0 auto; width: 20vw; top: 8vh; font-size: 1vw""> 
            <font color=""green""> Bonus : $1.05 </font>
            </div>
        </div>
    
            <div> Please press any button to continue to the next trial.</div>
        ","f","ITI","","","","",""
"","","","","","html-keyboard-response","176","177606","0.0-6.0-1.24","654fcfd6bfd6b2be99cd197a","6554bfa13ac4b6a0ab00b03a","6554bfef653d216f6f27a3dc","null","
        
        <div style=""text-align: center; position: fixed; top: 5vh; left: 40vw;"">
            <div style=""margin:0 auto; width: 20vw; top: 8vh; font-size: 1vw""> 
            <font color=""green""> Bonus : $1.05 </font>
            </div>
        </div>
    
        <img class=""stim"" src=./stimuli//pack_shapes/cat_2/ex_2_6.png></img>
    ","null","stimulus","","","","",""
"","","","","","html-keyboard-response","177","178614","0.0-6.0-2.24","654fcfd6bfd6b2be99cd197a","6554bfa13ac4b6a0ab00b03a","6554bfef653d216f6f27a3dc","null","
        <div style=""text-align: center; position: fixed; top: 5vh; left: 40vw;"">
            <div style=""margin:0 auto; width: 20vw; top: 8vh; font-size: 1vw""> 
            <font color=""green""> Bonus : $1.05 </font>
            </div>
        </div>
    ","null","","","","","",""
"","","","","","html-keyboard-response","178","178844","0.0-6.0-3.24","654fcfd6bfd6b2be99cd197a","6554bfa13ac4b6a0ab00b03a","6554bfef653d216f6f27a3dc","230","./stimuli//pack_shapes/cat_2/ex_2_6.png","arrowright","response","ArrowRight","6","2","true",""
"","","","","","html-keyboard-response","179","180349","0.0-6.0-4.24","654fcfd6bfd6b2be99cd197a","6554bfa13ac4b6a0ab00b03a","6554bfef653d216f6f27a3dc","null","<p> <font color=""green"" size=""4vw""> Correct category! </font> <br> <br> <font color=""green"" size=""7vw""> + $0.05 </font> </p>","null","feedback","","","","","1.1"
"","","","","","html-keyboard-response","180","180832","0.0-6.0-0.25","654fcfd6bfd6b2be99cd197a","6554bfa13ac4b6a0ab00b03a","6554bfef653d216f6f27a3dc","482","
            
        <div style=""text-align: center; position: fixed; top: 5vh; left: 40vw;"">
            <div style=""margin:0 auto; width: 20vw; top: 8vh; font-size: 1vw""> 
            <font color=""green""> Bonus : $1.1 </font>
            </div>
        </div>
    
            <div> Please press any button to continue to the next trial.</div>
        ","f","ITI","","","","",""
"","","","","","html-keyboard-response","181","181434","0.0-6.0-1.25","654fcfd6bfd6b2be99cd197a","6554bfa13ac4b6a0ab00b03a","6554bfef653d216f6f27a3dc","null","
        
        <div style=""text-align: center; position: fixed; top: 5vh; left: 40vw;"">
            <div style=""margin:0 auto; width: 20vw; top: 8vh; font-size: 1vw""> 
            <font color=""green""> Bonus : $1.1 </font>
            </div>
        </div>
    
        <img class=""stim"" src=./stimuli//pack_shapes/cat_1/ex_1_5.png></img>
    ","null","stimulus","","","","",""
"","","","","","html-keyboard-response","182","182440","0.0-6.0-2.25","654fcfd6bfd6b2be99cd197a","6554bfa13ac4b6a0ab00b03a","6554bfef653d216f6f27a3dc","null","
        <div style=""text-align: center; position: fixed; top: 5vh; left: 40vw;"">
            <div style=""margin:0 auto; width: 20vw; top: 8vh; font-size: 1vw""> 
            <font color=""green""> Bonus : $1.1 </font>
            </div>
        </div>
    ","null","","","","","",""
"","","","","","html-keyboard-response","183","182695","0.0-6.0-3.25","654fcfd6bfd6b2be99cd197a","6554bfa13ac4b6a0ab00b03a","6554bfef653d216f6f27a3dc","253","./stimuli//pack_shapes/cat_1/ex_1_5.png","arrowleft","response","ArrowLeft","5","1","true",""
"","","","","","html-keyboard-response","184","184205","0.0-6.0-4.25","654fcfd6bfd6b2be99cd197a","6554bfa13ac4b6a0ab00b03a","6554bfef653d216f6f27a3dc","null","<p> <font color=""green"" size=""4vw""> Correct category! </font> <br> <br> <font color=""green"" size=""7vw""> + $0.05 </font> </p>","null","feedback","","","","","1.15"
"","","","","","html-keyboard-response","185","184815","0.0-6.0-0.26","654fcfd6bfd6b2be99cd197a","6554bfa13ac4b6a0ab00b03a","6554bfef653d216f6f27a3dc","609","
            
        <div style=""text-align: center; position: fixed; top: 5vh; left: 40vw;"">
            <div style=""margin:0 auto; width: 20vw; top: 8vh; font-size: 1vw""> 
            <font color=""green""> Bonus : $1.15 </font>
            </div>
        </div>
    
            <div> Please press any button to continue to the next trial.</div>
        ","f","ITI","","","","",""
"","","","","","html-keyboard-response","186","185428","0.0-6.0-1.26","654fcfd6bfd6b2be99cd197a","6554bfa13ac4b6a0ab00b03a","6554bfef653d216f6f27a3dc","null","
        
        <div style=""text-align: center; position: fixed; top: 5vh; left: 40vw;"">
            <div style=""margin:0 auto; width: 20vw; top: 8vh; font-size: 1vw""> 
            <font color=""green""> Bonus : $1.15 </font>
            </div>
        </div>
    
        <img class=""stim"" src=./stimuli//pack_shapes/cat_1/ex_1_66.png></img>
    ","null","stimulus","","","","",""
"","","","","","html-keyboard-response","187","186435","0.0-6.0-2.26","654fcfd6bfd6b2be99cd197a","6554bfa13ac4b6a0ab00b03a","6554bfef653d216f6f27a3dc","null","
        <div style=""text-align: center; position: fixed; top: 5vh; left: 40vw;"">
            <div style=""margin:0 auto; width: 20vw; top: 8vh; font-size: 1vw""> 
            <font color=""green""> Bonus : $1.15 </font>
            </div>
        </div>
    ","null","","","","","",""
"","","","","","html-keyboard-response","188","186895","0.0-6.0-3.26","654fcfd6bfd6b2be99cd197a","6554bfa13ac4b6a0ab00b03a","6554bfef653d216f6f27a3dc","459","./stimuli//pack_shapes/cat_1/ex_1_66.png","arrowleft","response","ArrowLeft","66","1","true",""
"","","","","","html-keyboard-response","189","188401","0.0-6.0-4.26","654fcfd6bfd6b2be99cd197a","6554bfa13ac4b6a0ab00b03a","6554bfef653d216f6f27a3dc","null","<p> <font color=""green"" size=""4vw""> Correct category! </font> <br> <br> <font color=""green"" size=""7vw""> + $0.05 </font> </p>","null","feedback","","","","","1.2"
"","","","","","html-keyboard-response","190","188775","0.0-6.0-0.27","654fcfd6bfd6b2be99cd197a","6554bfa13ac4b6a0ab00b03a","6554bfef653d216f6f27a3dc","373","
            
        <div style=""text-align: center; position: fixed; top: 5vh; left: 40vw;"">
            <div style=""margin:0 auto; width: 20vw; top: 8vh; font-size: 1vw""> 
            <font color=""green""> Bonus : $1.2 </font>
            </div>
        </div>
    
            <div> Please press any button to continue to the next trial.</div>
        ","f","ITI","","","","",""
"","","","","","html-keyboard-response","191","189377","0.0-6.0-1.27","654fcfd6bfd6b2be99cd197a","6554bfa13ac4b6a0ab00b03a","6554bfef653d216f6f27a3dc","null","
        
        <div style=""text-align: center; position: fixed; top: 5vh; left: 40vw;"">
            <div style=""margin:0 auto; width: 20vw; top: 8vh; font-size: 1vw""> 
            <font color=""green""> Bonus : $1.2 </font>
            </div>
        </div>
    
        <img class=""stim"" src=./stimuli//pack_shapes/cat_1/ex_1_64.png></img>
    ","null","stimulus","","","","",""
"","","","","","html-keyboard-response","192","190384","0.0-6.0-2.27","654fcfd6bfd6b2be99cd197a","6554bfa13ac4b6a0ab00b03a","6554bfef653d216f6f27a3dc","null","
        <div style=""text-align: center; position: fixed; top: 5vh; left: 40vw;"">
            <div style=""margin:0 auto; width: 20vw; top: 8vh; font-size: 1vw""> 
            <font color=""green""> Bonus : $1.2 </font>
            </div>
        </div>
    ","null","","","","","",""
"","","","","","html-keyboard-response","193","190671","0.0-6.0-3.27","654fcfd6bfd6b2be99cd197a","6554bfa13ac4b6a0ab00b03a","6554bfef653d216f6f27a3dc","286","./stimuli//pack_shapes/cat_1/ex_1_64.png","arrowleft","response","ArrowLeft","64","1","true",""
"","","","","","html-keyboard-response","194","192180","0.0-6.0-4.27","654fcfd6bfd6b2be99cd197a","6554bfa13ac4b6a0ab00b03a","6554bfef653d216f6f27a3dc","null","<p> <font color=""green"" size=""4vw""> Correct category! </font> <br> <br> <font color=""green"" size=""7vw""> + $0.05 </font> </p>","null","feedback","","","","","1.25"
"","","","","","html-keyboard-response","195","192651","0.0-6.0-0.28","654fcfd6bfd6b2be99cd197a","6554bfa13ac4b6a0ab00b03a","6554bfef653d216f6f27a3dc","471","
            
        <div style=""text-align: center; position: fixed; top: 5vh; left: 40vw;"">
            <div style=""margin:0 auto; width: 20vw; top: 8vh; font-size: 1vw""> 
            <font color=""green""> Bonus : $1.25 </font>
            </div>
        </div>
    
            <div> Please press any button to continue to the next trial.</div>
        ","f","ITI","","","","",""
"","","","","","html-keyboard-response","196","193263","0.0-6.0-1.28","654fcfd6bfd6b2be99cd197a","6554bfa13ac4b6a0ab00b03a","6554bfef653d216f6f27a3dc","null","
        
        <div style=""text-align: center; position: fixed; top: 5vh; left: 40vw;"">
            <div style=""margin:0 auto; width: 20vw; top: 8vh; font-size: 1vw""> 
            <font color=""green""> Bonus : $1.25 </font>
            </div>
        </div>
    
        <img class=""stim"" src=./stimuli//pack_shapes/cat_2/ex_2_18.png></img>
    ","null","stimulus","","","","",""
"","","","","","html-keyboard-response","197","194270","0.0-6.0-2.28","654fcfd6bfd6b2be99cd197a","6554bfa13ac4b6a0ab00b03a","6554bfef653d216f6f27a3dc","null","
        <div style=""text-align: center; position: fixed; top: 5vh; left: 40vw;"">
            <div style=""margin:0 auto; width: 20vw; top: 8vh; font-size: 1vw""> 
            <font color=""green""> Bonus : $1.25 </font>
            </div>
        </div>
    ","null","","","","","",""
"","","","","","html-keyboard-response","198","194540","0.0-6.0-3.28","654fcfd6bfd6b2be99cd197a","6554bfa13ac4b6a0ab00b03a","6554bfef653d216f6f27a3dc","269","./stimuli//pack_shapes/cat_2/ex_2_18.png","arrowright","response","ArrowRight","18","2","true",""
"","","","","","html-keyboard-response","199","196052","0.0-6.0-4.28","654fcfd6bfd6b2be99cd197a","6554bfa13ac4b6a0ab00b03a","6554bfef653d216f6f27a3dc","null","<p> <font color=""green"" size=""4vw""> Correct category! </font> <br> <br> <font color=""green"" size=""7vw""> + $0.05 </font> </p>","null","feedback","","","","","1.3"
"","","","","","html-keyboard-response","200","196372","0.0-6.0-0.29","654fcfd6bfd6b2be99cd197a","6554bfa13ac4b6a0ab00b03a","6554bfef653d216f6f27a3dc","319","
            
        <div style=""text-align: center; position: fixed; top: 5vh; left: 40vw;"">
            <div style=""margin:0 auto; width: 20vw; top: 8vh; font-size: 1vw""> 
            <font color=""green""> Bonus : $1.3 </font>
            </div>
        </div>
    
            <div> Please press any button to continue to the next trial.</div>
        ","f","ITI","","","","",""
"","","","","","html-keyboard-response","201","196983","0.0-6.0-1.29","654fcfd6bfd6b2be99cd197a","6554bfa13ac4b6a0ab00b03a","6554bfef653d216f6f27a3dc","null","
        
        <div style=""text-align: center; position: fixed; top: 5vh; left: 40vw;"">
            <div style=""margin:0 auto; width: 20vw; top: 8vh; font-size: 1vw""> 
            <font color=""green""> Bonus : $1.3 </font>
            </div>
        </div>
    
        <img class=""stim"" src=./stimuli//pack_shapes/cat_1/ex_1_1.png></img>
    ","null","stimulus","","","","",""
"","","","","","html-keyboard-response","202","197990","0.0-6.0-2.29","654fcfd6bfd6b2be99cd197a","6554bfa13ac4b6a0ab00b03a","6554bfef653d216f6f27a3dc","null","
        <div style=""text-align: center; position: fixed; top: 5vh; left: 40vw;"">
            <div style=""margin:0 auto; width: 20vw; top: 8vh; font-size: 1vw""> 
            <font color=""green""> Bonus : $1.3 </font>
            </div>
        </div>
    ","null","","","","","",""
"","","","","","html-keyboard-response","203","198220","0.0-6.0-3.29","654fcfd6bfd6b2be99cd197a","6554bfa13ac4b6a0ab00b03a","6554bfef653d216f6f27a3dc","229","./stimuli//pack_shapes/cat_1/ex_1_1.png","arrowleft","response","ArrowLeft","1","1","true",""
"","","","","","html-keyboard-response","204","199726","0.0-6.0-4.29","654fcfd6bfd6b2be99cd197a","6554bfa13ac4b6a0ab00b03a","6554bfef653d216f6f27a3dc","null","<p> <font color=""green"" size=""4vw""> Correct category! </font> <br> <br> <font color=""green"" size=""7vw""> + $0.05 </font> </p>","null","feedback","","","","","1.35"
"","","","","","html-keyboard-response","205","200132","0.0-6.0-0.30","654fcfd6bfd6b2be99cd197a","6554bfa13ac4b6a0ab00b03a","6554bfef653d216f6f27a3dc","406","
            
        <div style=""text-align: center; position: fixed; top: 5vh; left: 40vw;"">
            <div style=""margin:0 auto; width: 20vw; top: 8vh; font-size: 1vw""> 
            <font color=""green""> Bonus : $1.35 </font>
            </div>
        </div>
    
            <div> Please press any button to continue to the next trial.</div>
        ","f","ITI","","","","",""
"","","","","","html-keyboard-response","206","200734","0.0-6.0-1.30","654fcfd6bfd6b2be99cd197a","6554bfa13ac4b6a0ab00b03a","6554bfef653d216f6f27a3dc","null","
        
        <div style=""text-align: center; position: fixed; top: 5vh; left: 40vw;"">
            <div style=""margin:0 auto; width: 20vw; top: 8vh; font-size: 1vw""> 
            <font color=""green""> Bonus : $1.35 </font>
            </div>
        </div>
    
        <img class=""stim"" src=./stimuli//pack_shapes/cat_2/ex_2_82.png></img>
    ","null","stimulus","","","","",""
"","","","","","html-keyboard-response","207","201741","0.0-6.0-2.30","654fcfd6bfd6b2be99cd197a","6554bfa13ac4b6a0ab00b03a","6554bfef653d216f6f27a3dc","null","
        <div style=""text-align: center; position: fixed; top: 5vh; left: 40vw;"">
            <div style=""margin:0 auto; width: 20vw; top: 8vh; font-size: 1vw""> 
            <font color=""green""> Bonus : $1.35 </font>
            </div>
        </div>
    ","null","","","","","",""
"","","","","","html-keyboard-response","208","202008","0.0-6.0-3.30","654fcfd6bfd6b2be99cd197a","6554bfa13ac4b6a0ab00b03a","6554bfef653d216f6f27a3dc","267","./stimuli//pack_shapes/cat_2/ex_2_82.png","arrowleft","response","ArrowRight","82","2","false",""
"","","","","","html-keyboard-response","209","203522","0.0-6.0-4.30","654fcfd6bfd6b2be99cd197a","6554bfa13ac4b6a0ab00b03a","6554bfef653d216f6f27a3dc","null","<p> <font color=""red"" size=""4vw""> Wrong category! </font> </p>","null","feedback","","","","","1.35"
"","","","","","html-keyboard-response","210","203909","0.0-6.0-0.31","654fcfd6bfd6b2be99cd197a","6554bfa13ac4b6a0ab00b03a","6554bfef653d216f6f27a3dc","386","
            
        <div style=""text-align: center; position: fixed; top: 5vh; left: 40vw;"">
            <div style=""margin:0 auto; width: 20vw; top: 8vh; font-size: 1vw""> 
            <font color=""green""> Bonus : $1.35 </font>
            </div>
        </div>
    
            <div> Please press any button to continue to the next trial.</div>
        ","g","ITI","","","","",""
"","","","","","html-keyboard-response","211","204513","0.0-6.0-1.31","654fcfd6bfd6b2be99cd197a","6554bfa13ac4b6a0ab00b03a","6554bfef653d216f6f27a3dc","null","
        
        <div style=""text-align: center; position: fixed; top: 5vh; left: 40vw;"">
            <div style=""margin:0 auto; width: 20vw; top: 8vh; font-size: 1vw""> 
            <font color=""green""> Bonus : $1.35 </font>
            </div>
        </div>
    
        <img class=""stim"" src=./stimuli//pack_shapes/cat_1/ex_1_17.png></img>
    ","null","stimulus","","","","",""
"","","","","","html-keyboard-response","212","205520","0.0-6.0-2.31","654fcfd6bfd6b2be99cd197a","6554bfa13ac4b6a0ab00b03a","6554bfef653d216f6f27a3dc","null","
        <div style=""text-align: center; position: fixed; top: 5vh; left: 40vw;"">
            <div style=""margin:0 auto; width: 20vw; top: 8vh; font-size: 1vw""> 
            <font color=""green""> Bonus : $1.35 </font>
            </div>
        </div>
    ","null","","","","","",""
"","","","","","html-keyboard-response","213","205777","0.0-6.0-3.31","654fcfd6bfd6b2be99cd197a","6554bfa13ac4b6a0ab00b03a","6554bfef653d216f6f27a3dc","257","./stimuli//pack_shapes/cat_1/ex_1_17.png","arrowleft","response","ArrowLeft","17","1","true",""
"","","","","","html-keyboard-response","214","207285","0.0-6.0-4.31","654fcfd6bfd6b2be99cd197a","6554bfa13ac4b6a0ab00b03a","6554bfef653d216f6f27a3dc","null","<p> <font color=""green"" size=""4vw""> Correct category! </font> <br> <br> <font color=""green"" size=""7vw""> + $0.05 </font> </p>","null","feedback","","","","","1.4"
"","","","","","html-keyboard-response","215","207773","0.0-6.0-0.32","654fcfd6bfd6b2be99cd197a","6554bfa13ac4b6a0ab00b03a","6554bfef653d216f6f27a3dc","488","
            
        <div style=""text-align: center; position: fixed; top: 5vh; left: 40vw;"">
            <div style=""margin:0 auto; width: 20vw; top: 8vh; font-size: 1vw""> 
            <font color=""green""> Bonus : $1.4 </font>
            </div>
        </div>
    
            <div> Please press any button to continue to the next trial.</div>
        ","g","ITI","","","","",""
"","","","","","html-keyboard-response","216","208385","0.0-6.0-1.32","654fcfd6bfd6b2be99cd197a","6554bfa13ac4b6a0ab00b03a","6554bfef653d216f6f27a3dc","null","
        
        <div style=""text-align: center; position: fixed; top: 5vh; left: 40vw;"">
            <div style=""margin:0 auto; width: 20vw; top: 8vh; font-size: 1vw""> 
            <font color=""green""> Bonus : $1.4 </font>
            </div>
        </div>
    
        <img class=""stim"" src=./stimuli//pack_shapes/cat_2/ex_2_43.png></img>
    ","null","stimulus","","","","",""
"","","","","","html-keyboard-response","217","209393","0.0-6.0-2.32","654fcfd6bfd6b2be99cd197a","6554bfa13ac4b6a0ab00b03a","6554bfef653d216f6f27a3dc","null","
        <div style=""text-align: center; position: fixed; top: 5vh; left: 40vw;"">
            <div style=""margin:0 auto; width: 20vw; top: 8vh; font-size: 1vw""> 
            <font color=""green""> Bonus : $1.4 </font>
            </div>
        </div>
    ","null","","","","","",""
"","","","","","html-keyboard-response","218","209686","0.0-6.0-3.32","654fcfd6bfd6b2be99cd197a","6554bfa13ac4b6a0ab00b03a","6554bfef653d216f6f27a3dc","292","./stimuli//pack_shapes/cat_2/ex_2_43.png","arrowright","response","ArrowRight","43","2","true",""
"","","","","","html-keyboard-response","219","211189","0.0-6.0-4.32","654fcfd6bfd6b2be99cd197a","6554bfa13ac4b6a0ab00b03a","6554bfef653d216f6f27a3dc","null","<p> <font color=""green"" size=""4vw""> Correct category! </font> <br> <br> <font color=""green"" size=""7vw""> + $0.05 </font> </p>","null","feedback","","","","","1.45"
"","","","","","html-keyboard-response","220","211861","0.0-6.0-0.33","654fcfd6bfd6b2be99cd197a","6554bfa13ac4b6a0ab00b03a","6554bfef653d216f6f27a3dc","672","
            
        <div style=""text-align: center; position: fixed; top: 5vh; left: 40vw;"">
            <div style=""margin:0 auto; width: 20vw; top: 8vh; font-size: 1vw""> 
            <font color=""green""> Bonus : $1.45 </font>
            </div>
        </div>
    
            <div> Please press any button to continue to the next trial.</div>
        ","g","ITI","","","","",""
"","","","","","html-keyboard-response","221","212476","0.0-6.0-1.33","654fcfd6bfd6b2be99cd197a","6554bfa13ac4b6a0ab00b03a","6554bfef653d216f6f27a3dc","null","
        
        <div style=""text-align: center; position: fixed; top: 5vh; left: 40vw;"">
            <div style=""margin:0 auto; width: 20vw; top: 8vh; font-size: 1vw""> 
            <font color=""green""> Bonus : $1.45 </font>
            </div>
        </div>
    
        <img class=""stim"" src=./stimuli//pack_shapes/cat_2/ex_2_56.png></img>
    ","null","stimulus","","","","",""
"","","","","","html-keyboard-response","222","213482","0.0-6.0-2.33","654fcfd6bfd6b2be99cd197a","6554bfa13ac4b6a0ab00b03a","6554bfef653d216f6f27a3dc","null","
        <div style=""text-align: center; position: fixed; top: 5vh; left: 40vw;"">
            <div style=""margin:0 auto; width: 20vw; top: 8vh; font-size: 1vw""> 
            <font color=""green""> Bonus : $1.45 </font>
            </div>
        </div>
    ","null","","","","","",""
"","","","","","html-keyboard-response","223","213697","0.0-6.0-3.33","654fcfd6bfd6b2be99cd197a","6554bfa13ac4b6a0ab00b03a","6554bfef653d216f6f27a3dc","214","./stimuli//pack_shapes/cat_2/ex_2_56.png","arrowright","response","ArrowRight","56","2","true",""
"","","","","","html-keyboard-response","224","215202","0.0-6.0-4.33","654fcfd6bfd6b2be99cd197a","6554bfa13ac4b6a0ab00b03a","6554bfef653d216f6f27a3dc","null","<p> <font color=""green"" size=""4vw""> Correct category! </font> <br> <br> <font color=""green"" size=""7vw""> + $0.05 </font> </p>","null","feedback","","","","","1.5"
"","","","","","html-keyboard-response","225","215605","0.0-6.0-0.34","654fcfd6bfd6b2be99cd197a","6554bfa13ac4b6a0ab00b03a","6554bfef653d216f6f27a3dc","403","
            
        <div style=""text-align: center; position: fixed; top: 5vh; left: 40vw;"">
            <div style=""margin:0 auto; width: 20vw; top: 8vh; font-size: 1vw""> 
            <font color=""green""> Bonus : $1.5 </font>
            </div>
        </div>
    
            <div> Please press any button to continue to the next trial.</div>
        ","g","ITI","","","","",""
"","","","","","html-keyboard-response","226","216209","0.0-6.0-1.34","654fcfd6bfd6b2be99cd197a","6554bfa13ac4b6a0ab00b03a","6554bfef653d216f6f27a3dc","null","
        
        <div style=""text-align: center; position: fixed; top: 5vh; left: 40vw;"">
            <div style=""margin:0 auto; width: 20vw; top: 8vh; font-size: 1vw""> 
            <font color=""green""> Bonus : $1.5 </font>
            </div>
        </div>
    
        <img class=""stim"" src=./stimuli//pack_shapes/cat_2/ex_2_7.png></img>
    ","null","stimulus","","","","",""
"","","","","","html-keyboard-response","227","217216","0.0-6.0-2.34","654fcfd6bfd6b2be99cd197a","6554bfa13ac4b6a0ab00b03a","6554bfef653d216f6f27a3dc","null","
        <div style=""text-align: center; position: fixed; top: 5vh; left: 40vw;"">
            <div style=""margin:0 auto; width: 20vw; top: 8vh; font-size: 1vw""> 
            <font color=""green""> Bonus : $1.5 </font>
            </div>
        </div>
    ","null","","","","","",""
"","","","","","html-keyboard-response","228","217446","0.0-6.0-3.34","654fcfd6bfd6b2be99cd197a","6554bfa13ac4b6a0ab00b03a","6554bfef653d216f6f27a3dc","229","./stimuli//pack_shapes/cat_2/ex_2_7.png","arrowright","response","ArrowRight","7","2","true",""
"","","","","","html-keyboard-response","229","218951","0.0-6.0-4.34","654fcfd6bfd6b2be99cd197a","6554bfa13ac4b6a0ab00b03a","6554bfef653d216f6f27a3dc","null","<p> <font color=""green"" size=""4vw""> Correct category! </font> <br> <br> <font color=""green"" size=""7vw""> + $0.05 </font> </p>","null","feedback","","","","","1.55"
"","","","","","html-keyboard-response","230","219358","0.0-6.0-0.35","654fcfd6bfd6b2be99cd197a","6554bfa13ac4b6a0ab00b03a","6554bfef653d216f6f27a3dc","406","
            
        <div style=""text-align: center; position: fixed; top: 5vh; left: 40vw;"">
            <div style=""margin:0 auto; width: 20vw; top: 8vh; font-size: 1vw""> 
            <font color=""green""> Bonus : $1.55 </font>
            </div>
        </div>
    
            <div> Please press any button to continue to the next trial.</div>
        ","g","ITI","","","","",""
"","","","","","html-keyboard-response","231","219973","0.0-6.0-1.35","654fcfd6bfd6b2be99cd197a","6554bfa13ac4b6a0ab00b03a","6554bfef653d216f6f27a3dc","null","
        
        <div style=""text-align: center; position: fixed; top: 5vh; left: 40vw;"">
            <div style=""margin:0 auto; width: 20vw; top: 8vh; font-size: 1vw""> 
            <font color=""green""> Bonus : $1.55 </font>
            </div>
        </div>
    
        <img class=""stim"" src=./stimuli//pack_shapes/cat_1/ex_1_6.png></img>
    ","null","stimulus","","","","",""
"","","","","","html-keyboard-response","232","220979","0.0-6.0-2.35","654fcfd6bfd6b2be99cd197a","6554bfa13ac4b6a0ab00b03a","6554bfef653d216f6f27a3dc","null","
        <div style=""text-align: center; position: fixed; top: 5vh; left: 40vw;"">
            <div style=""margin:0 auto; width: 20vw; top: 8vh; font-size: 1vw""> 
            <font color=""green""> Bonus : $1.55 </font>
            </div>
        </div>
    ","null","","","","","",""
"","","","","","html-keyboard-response","233","221198","0.0-6.0-3.35","654fcfd6bfd6b2be99cd197a","6554bfa13ac4b6a0ab00b03a","6554bfef653d216f6f27a3dc","218","./stimuli//pack_shapes/cat_1/ex_1_6.png","arrowleft","response","ArrowLeft","6","1","true",""
"","","","","","html-keyboard-response","234","222712","0.0-6.0-4.35","654fcfd6bfd6b2be99cd197a","6554bfa13ac4b6a0ab00b03a","6554bfef653d216f6f27a3dc","null","<p> <font color=""green"" size=""4vw""> Correct category! </font> <br> <br> <font color=""green"" size=""7vw""> + $0.05 </font> </p>","null","feedback","","","","","1.6"
"","","","","","html-keyboard-response","235","223147","0.0-6.0-0.36","654fcfd6bfd6b2be99cd197a","6554bfa13ac4b6a0ab00b03a","6554bfef653d216f6f27a3dc","434","
            
        <div style=""text-align: center; position: fixed; top: 5vh; left: 40vw;"">
            <div style=""margin:0 auto; width: 20vw; top: 8vh; font-size: 1vw""> 
            <font color=""green""> Bonus : $1.6 </font>
            </div>
        </div>
    
            <div> Please press any button to continue to the next trial.</div>
        ","g","ITI","","","","",""
"","","","","","html-keyboard-response","236","223751","0.0-6.0-1.36","654fcfd6bfd6b2be99cd197a","6554bfa13ac4b6a0ab00b03a","6554bfef653d216f6f27a3dc","null","
        
        <div style=""text-align: center; position: fixed; top: 5vh; left: 40vw;"">
            <div style=""margin:0 auto; width: 20vw; top: 8vh; font-size: 1vw""> 
            <font color=""green""> Bonus : $1.6 </font>
            </div>
        </div>
    
