"success","timeout","failed_images","failed_audio","failed_video","trial_type","trial_index","time_elapsed","internal_node_id","subject_id","study_id","session_id","rt","stimulus","response","task","correct_response","exemplar_ID","category","correct","bonus"
"true","false","[]","[]","[]","preload","0","4","0.0-0.0","60f9739250a5c6f6e4726336","6554bfa13ac4b6a0ab00b03a","6554c895748985a681a5f041","","","","","","","","",""
"","","","","","html-keyboard-response","1","2333","0.0-1.0","60f9739250a5c6f6e4726336","6554bfa13ac4b6a0ab00b03a","6554c895748985a681a5f041","2328","Welcome to the Category Learning experiment! Press any key to continue."," ","welcome","","","","",""
"","","","","","html-keyboard-response","2","24083","0.0-2.0","60f9739250a5c6f6e4726336","6554bfa13ac4b6a0ab00b03a","6554c895748985a681a5f041","21750","
            <p>You will be shown images of black shapes.  Some are category A, some are category B.
            <br>You will not know in advance which category a specific shape belongs to.</p>
            <p>After you see an image, you will be asked to guess its category <b>(left arrow for category A, right arrow for category B)</b></p>
            <p>After you choose, the screen will show you whether you were correct or not.</p>
            <p><b>You will receive a bonus payment of $0.05 for each correct answer!</b></p>
            <p> So you can increase your bonus by guessing correctly, and by guessing as quickly as possible so you move on to the next image sooner.</p>
            <p>Press any key to continue.</p>
            "," ","introduction_1","","","","",""
"","","","","","html-keyboard-response","3","28814","0.0-3.0","60f9739250a5c6f6e4726336","6554bfa13ac4b6a0ab00b03a","6554c895748985a681a5f041","4731","
            <p> <b>The first 10 trials are a practice round that will not count towards your bonus payment.</b></p>
            <p> You will be notified when practice finishes and the test begins. </p>
            <p> Press any key to begin the practice round.</p>
            "," ","introduction_2","","","","",""
"","","","","","html-keyboard-response","4","31391","0.0-4.0-0.0","60f9739250a5c6f6e4726336","6554bfa13ac4b6a0ab00b03a","6554c895748985a681a5f041","2576","
            
        <div style=""text-align: center; position: fixed; top: 5vh; left: 40vw;"">
            <div style=""margin:0 auto; width: 20vw; top: 8vh; font-size: 1vw""> 
            <font color=""green""> Bonus : $0 </font>
            </div>
        </div>
    
            <div> Please press any button to continue to the next trial.</div>
        "," ","ITI","","","","",""
"","","","","","html-keyboard-response","5","31993","0.0-4.0-1.0","60f9739250a5c6f6e4726336","6554bfa13ac4b6a0ab00b03a","6554c895748985a681a5f041","null","
        
        <div style=""text-align: center; position: fixed; top: 5vh; left: 40vw;"">
            <div style=""margin:0 auto; width: 20vw; top: 8vh; font-size: 1vw""> 
            <font color=""green""> Bonus : $0 </font>
            </div>
        </div>
    
        <img class=""stim"" src=./stimuli//pack_shapes/cat_2/ex_2_8.png></img>
    ","null","stimulus","","","","",""
"","","","","","html-keyboard-response","6","32994","0.0-4.0-2.0","60f9739250a5c6f6e4726336","6554bfa13ac4b6a0ab00b03a","6554c895748985a681a5f041","null","
        <div style=""text-align: center; position: fixed; top: 5vh; left: 40vw;"">
            <div style=""margin:0 auto; width: 20vw; top: 8vh; font-size: 1vw""> 
            <font color=""green""> Bonus : $0 </font>
            </div>
        </div>
    ","null","","","","","",""
"","","","","","html-keyboard-response","7","34376","0.0-4.0-3.0","60f9739250a5c6f6e4726336","6554bfa13ac4b6a0ab00b03a","6554c895748985a681a5f041","1381","./stimuli//pack_shapes/cat_2/ex_2_8.png","arrowright","response","ArrowRight","8","2","true",""
"","","","","","html-keyboard-response","8","35879","0.0-4.0-4.0","60f9739250a5c6f6e4726336","6554bfa13ac4b6a0ab00b03a","6554c895748985a681a5f041","null","<p> <font color=""green"" size=""4vw""> Correct category! </font> </p>","null","feedback","","","","","0"
"","","","","","html-keyboard-response","9","37105","0.0-4.0-0.1","60f9739250a5c6f6e4726336","6554bfa13ac4b6a0ab00b03a","6554c895748985a681a5f041","1226","
            
        <div style=""text-align: center; position: fixed; top: 5vh; left: 40vw;"">
            <div style=""margin:0 auto; width: 20vw; top: 8vh; font-size: 1vw""> 
            <font color=""green""> Bonus : $0 </font>
            </div>
        </div>
    
            <div> Please press any button to continue to the next trial.</div>
        "," ","ITI","","","","",""
"","","","","","html-keyboard-response","10","37707","0.0-4.0-1.1","60f9739250a5c6f6e4726336","6554bfa13ac4b6a0ab00b03a","6554c895748985a681a5f041","null","
        
        <div style=""text-align: center; position: fixed; top: 5vh; left: 40vw;"">
            <div style=""margin:0 auto; width: 20vw; top: 8vh; font-size: 1vw""> 
            <font color=""green""> Bonus : $0 </font>
            </div>
        </div>
    
        <img class=""stim"" src=./stimuli//pack_shapes/cat_1/ex_1_49.png></img>
    ","null","stimulus","","","","",""
"","","","","","html-keyboard-response","11","38709","0.0-4.0-2.1","60f9739250a5c6f6e4726336","6554bfa13ac4b6a0ab00b03a","6554c895748985a681a5f041","null","
        <div style=""text-align: center; position: fixed; top: 5vh; left: 40vw;"">
            <div style=""margin:0 auto; width: 20vw; top: 8vh; font-size: 1vw""> 
            <font color=""green""> Bonus : $0 </font>
            </div>
        </div>
    ","null","","","","","",""
"","","","","","html-keyboard-response","12","38931","0.0-4.0-3.1","60f9739250a5c6f6e4726336","6554bfa13ac4b6a0ab00b03a","6554c895748985a681a5f041","221","./stimuli//pack_shapes/cat_1/ex_1_49.png","arrowleft","response","ArrowLeft","49","1","true",""
"","","","","","html-keyboard-response","13","40433","0.0-4.0-4.1","60f9739250a5c6f6e4726336","6554bfa13ac4b6a0ab00b03a","6554c895748985a681a5f041","null","<p> <font color=""green"" size=""4vw""> Correct category! </font> </p>","null","feedback","","","","","0"
"","","","","","html-keyboard-response","14","40930","0.0-4.0-0.2","60f9739250a5c6f6e4726336","6554bfa13ac4b6a0ab00b03a","6554c895748985a681a5f041","497","
            
        <div style=""text-align: center; position: fixed; top: 5vh; left: 40vw;"">
            <div style=""margin:0 auto; width: 20vw; top: 8vh; font-size: 1vw""> 
            <font color=""green""> Bonus : $0 </font>
            </div>
        </div>
    
            <div> Please press any button to continue to the next trial.</div>
        "," ","ITI","","","","",""
"","","","","","html-keyboard-response","15","41532","0.0-4.0-1.2","60f9739250a5c6f6e4726336","6554bfa13ac4b6a0ab00b03a","6554c895748985a681a5f041","null","
        
        <div style=""text-align: center; position: fixed; top: 5vh; left: 40vw;"">
            <div style=""margin:0 auto; width: 20vw; top: 8vh; font-size: 1vw""> 
            <font color=""green""> Bonus : $0 </font>
            </div>
        </div>
    
        <img class=""stim"" src=./stimuli//pack_shapes/cat_1/ex_1_29.png></img>
    ","null","stimulus","","","","",""
"","","","","","html-keyboard-response","16","42534","0.0-4.0-2.2","60f9739250a5c6f6e4726336","6554bfa13ac4b6a0ab00b03a","6554c895748985a681a5f041","null","
        <div style=""text-align: center; position: fixed; top: 5vh; left: 40vw;"">
            <div style=""margin:0 auto; width: 20vw; top: 8vh; font-size: 1vw""> 
            <font color=""green""> Bonus : $0 </font>
            </div>
        </div>
    ","null","","","","","",""
"","","","","","html-keyboard-response","17","42946","0.0-4.0-3.2","60f9739250a5c6f6e4726336","6554bfa13ac4b6a0ab00b03a","6554c895748985a681a5f041","410","./stimuli//pack_shapes/cat_1/ex_1_29.png","arrowright","response","ArrowLeft","29","1","false",""
"","","","","","html-keyboard-response","18","44446","0.0-4.0-4.2","60f9739250a5c6f6e4726336","6554bfa13ac4b6a0ab00b03a","6554c895748985a681a5f041","null","<p> <font color=""red"" size=""4vw""> Wrong category! </font> </p>","null","feedback","","","","","0"
"","","","","","html-keyboard-response","19","45589","0.0-4.0-0.3","60f9739250a5c6f6e4726336","6554bfa13ac4b6a0ab00b03a","6554c895748985a681a5f041","1142","
            
        <div style=""text-align: center; position: fixed; top: 5vh; left: 40vw;"">
            <div style=""margin:0 auto; width: 20vw; top: 8vh; font-size: 1vw""> 
            <font color=""green""> Bonus : $0 </font>
            </div>
        </div>
    
            <div> Please press any button to continue to the next trial.</div>
        "," ","ITI","","","","",""
"","","","","","html-keyboard-response","20","46190","0.0-4.0-1.3","60f9739250a5c6f6e4726336","6554bfa13ac4b6a0ab00b03a","6554c895748985a681a5f041","null","
        
        <div style=""text-align: center; position: fixed; top: 5vh; left: 40vw;"">
            <div style=""margin:0 auto; width: 20vw; top: 8vh; font-size: 1vw""> 
            <font color=""green""> Bonus : $0 </font>
            </div>
        </div>
    
        <img class=""stim"" src=./stimuli//pack_shapes/cat_2/ex_2_49.png></img>
    ","null","stimulus","","","","",""
"","","","","","html-keyboard-response","21","47192","0.0-4.0-2.3","60f9739250a5c6f6e4726336","6554bfa13ac4b6a0ab00b03a","6554c895748985a681a5f041","null","
        <div style=""text-align: center; position: fixed; top: 5vh; left: 40vw;"">
            <div style=""margin:0 auto; width: 20vw; top: 8vh; font-size: 1vw""> 
            <font color=""green""> Bonus : $0 </font>
            </div>
        </div>
    ","null","","","","","",""
"","","","","","html-keyboard-response","22","47760","0.0-4.0-3.3","60f9739250a5c6f6e4726336","6554bfa13ac4b6a0ab00b03a","6554c895748985a681a5f041","568","./stimuli//pack_shapes/cat_2/ex_2_49.png","arrowright","response","ArrowRight","49","2","true",""
"","","","","","html-keyboard-response","23","49262","0.0-4.0-4.3","60f9739250a5c6f6e4726336","6554bfa13ac4b6a0ab00b03a","6554c895748985a681a5f041","null","<p> <font color=""green"" size=""4vw""> Correct category! </font> </p>","null","feedback","","","","","0"
"","","","","","html-keyboard-response","24","49928","0.0-4.0-0.4","60f9739250a5c6f6e4726336","6554bfa13ac4b6a0ab00b03a","6554c895748985a681a5f041","666","
            
        <div style=""text-align: center; position: fixed; top: 5vh; left: 40vw;"">
            <div style=""margin:0 auto; width: 20vw; top: 8vh; font-size: 1vw""> 
            <font color=""green""> Bonus : $0 </font>
            </div>
        </div>
    
            <div> Please press any button to continue to the next trial.</div>
        "," ","ITI","","","","",""
"","","","","","html-keyboard-response","25","50530","0.0-4.0-1.4","60f9739250a5c6f6e4726336","6554bfa13ac4b6a0ab00b03a","6554c895748985a681a5f041","null","
        
        <div style=""text-align: center; position: fixed; top: 5vh; left: 40vw;"">
            <div style=""margin:0 auto; width: 20vw; top: 8vh; font-size: 1vw""> 
            <font color=""green""> Bonus : $0 </font>
            </div>
        </div>
    
        <img class=""stim"" src=./stimuli//pack_shapes/cat_2/ex_2_29.png></img>
    ","null","stimulus","","","","",""
"","","","","","html-keyboard-response","26","51531","0.0-4.0-2.4","60f9739250a5c6f6e4726336","6554bfa13ac4b6a0ab00b03a","6554c895748985a681a5f041","null","
        <div style=""text-align: center; position: fixed; top: 5vh; left: 40vw;"">
            <div style=""margin:0 auto; width: 20vw; top: 8vh; font-size: 1vw""> 
            <font color=""green""> Bonus : $0 </font>
            </div>
        </div>
    ","null","","","","","",""
"","","","","","html-keyboard-response","27","51848","0.0-4.0-3.4","60f9739250a5c6f6e4726336","6554bfa13ac4b6a0ab00b03a","6554c895748985a681a5f041","316","./stimuli//pack_shapes/cat_2/ex_2_29.png","arrowright","response","ArrowRight","29","2","true",""
"","","","","","html-keyboard-response","28","53349","0.0-4.0-4.4","60f9739250a5c6f6e4726336","6554bfa13ac4b6a0ab00b03a","6554c895748985a681a5f041","null","<p> <font color=""green"" size=""4vw""> Correct category! </font> </p>","null","feedback","","","","","0"
"","","","","","html-keyboard-response","29","53786","0.0-4.0-0.5","60f9739250a5c6f6e4726336","6554bfa13ac4b6a0ab00b03a","6554c895748985a681a5f041","437","
            
        <div style=""text-align: center; position: fixed; top: 5vh; left: 40vw;"">
            <div style=""margin:0 auto; width: 20vw; top: 8vh; font-size: 1vw""> 
            <font color=""green""> Bonus : $0 </font>
            </div>
        </div>
    
            <div> Please press any button to continue to the next trial.</div>
        "," ","ITI","","","","",""
"","","","","","html-keyboard-response","30","54388","0.0-4.0-1.5","60f9739250a5c6f6e4726336","6554bfa13ac4b6a0ab00b03a","6554c895748985a681a5f041","null","
        
        <div style=""text-align: center; position: fixed; top: 5vh; left: 40vw;"">
            <div style=""margin:0 auto; width: 20vw; top: 8vh; font-size: 1vw""> 
            <font color=""green""> Bonus : $0 </font>
            </div>
        </div>
    
        <img class=""stim"" src=./stimuli//pack_shapes/cat_1/ex_1_75.png></img>
    ","null","stimulus","","","","",""
"","","","","","html-keyboard-response","31","55389","0.0-4.0-2.5","60f9739250a5c6f6e4726336","6554bfa13ac4b6a0ab00b03a","6554c895748985a681a5f041","null","
        <div style=""text-align: center; position: fixed; top: 5vh; left: 40vw;"">
            <div style=""margin:0 auto; width: 20vw; top: 8vh; font-size: 1vw""> 
            <font color=""green""> Bonus : $0 </font>
            </div>
        </div>
    ","null","","","","","",""
"","","","","","html-keyboard-response","32","55697","0.0-4.0-3.5","60f9739250a5c6f6e4726336","6554bfa13ac4b6a0ab00b03a","6554c895748985a681a5f041","307","./stimuli//pack_shapes/cat_1/ex_1_75.png","arrowright","response","ArrowLeft","75","1","false",""
"","","","","","html-keyboard-response","33","57198","0.0-4.0-4.5","60f9739250a5c6f6e4726336","6554bfa13ac4b6a0ab00b03a","6554c895748985a681a5f041","null","<p> <font color=""red"" size=""4vw""> Wrong category! </font> </p>","null","feedback","","","","","0"
"","","","","","html-keyboard-response","34","57846","0.0-4.0-0.6","60f9739250a5c6f6e4726336","6554bfa13ac4b6a0ab00b03a","6554c895748985a681a5f041","648","
            
        <div style=""text-align: center; position: fixed; top: 5vh; left: 40vw;"">
            <div style=""margin:0 auto; width: 20vw; top: 8vh; font-size: 1vw""> 
            <font color=""green""> Bonus : $0 </font>
            </div>
        </div>
    
            <div> Please press any button to continue to the next trial.</div>
        "," ","ITI","","","","",""
"","","","","","html-keyboard-response","35","58447","0.0-4.0-1.6","60f9739250a5c6f6e4726336","6554bfa13ac4b6a0ab00b03a","6554c895748985a681a5f041","null","
        
        <div style=""text-align: center; position: fixed; top: 5vh; left: 40vw;"">
            <div style=""margin:0 auto; width: 20vw; top: 8vh; font-size: 1vw""> 
            <font color=""green""> Bonus : $0 </font>
            </div>
        </div>
    
        <img class=""stim"" src=./stimuli//pack_shapes/cat_2/ex_2_80.png></img>
    ","null","stimulus","","","","",""
"","","","","","html-keyboard-response","36","59448","0.0-4.0-2.6","60f9739250a5c6f6e4726336","6554bfa13ac4b6a0ab00b03a","6554c895748985a681a5f041","null","
        <div style=""text-align: center; position: fixed; top: 5vh; left: 40vw;"">
            <div style=""margin:0 auto; width: 20vw; top: 8vh; font-size: 1vw""> 
            <font color=""green""> Bonus : $0 </font>
            </div>
        </div>
    ","null","","","","","",""
"","","","","","html-keyboard-response","37","59808","0.0-4.0-3.6","60f9739250a5c6f6e4726336","6554bfa13ac4b6a0ab00b03a","6554c895748985a681a5f041","359","./stimuli//pack_shapes/cat_2/ex_2_80.png","arrowleft","response","ArrowRight","80","2","false",""
"","","","","","html-keyboard-response","38","61309","0.0-4.0-4.6","60f9739250a5c6f6e4726336","6554bfa13ac4b6a0ab00b03a","6554c895748985a681a5f041","null","<p> <font color=""red"" size=""4vw""> Wrong category! </font> </p>","null","feedback","","","","","0"
"","","","","","html-keyboard-response","39","62275","0.0-4.0-0.7","60f9739250a5c6f6e4726336","6554bfa13ac4b6a0ab00b03a","6554c895748985a681a5f041","965","
            
        <div style=""text-align: center; position: fixed; top: 5vh; left: 40vw;"">
            <div style=""margin:0 auto; width: 20vw; top: 8vh; font-size: 1vw""> 
            <font color=""green""> Bonus : $0 </font>
            </div>
        </div>
    
            <div> Please press any button to continue to the next trial.</div>
        "," ","ITI","","","","",""
"","","","","","html-keyboard-response","40","62876","0.0-4.0-1.7","60f9739250a5c6f6e4726336","6554bfa13ac4b6a0ab00b03a","6554c895748985a681a5f041","null","
        
        <div style=""text-align: center; position: fixed; top: 5vh; left: 40vw;"">
            <div style=""margin:0 auto; width: 20vw; top: 8vh; font-size: 1vw""> 
            <font color=""green""> Bonus : $0 </font>
            </div>
        </div>
    
        <img class=""stim"" src=./stimuli//pack_shapes/cat_2/ex_2_39.png></img>
    ","null","stimulus","","","","",""
"","","","","","html-keyboard-response","41","63877","0.0-4.0-2.7","60f9739250a5c6f6e4726336","6554bfa13ac4b6a0ab00b03a","6554c895748985a681a5f041","null","
        <div style=""text-align: center; position: fixed; top: 5vh; left: 40vw;"">
            <div style=""margin:0 auto; width: 20vw; top: 8vh; font-size: 1vw""> 
            <font color=""green""> Bonus : $0 </font>
            </div>
        </div>
    ","null","","","","","",""
"","","","","","html-keyboard-response","42","64182","0.0-4.0-3.7","60f9739250a5c6f6e4726336","6554bfa13ac4b6a0ab00b03a","6554c895748985a681a5f041","304","./stimuli//pack_shapes/cat_2/ex_2_39.png","arrowleft","response","ArrowRight","39","2","false",""
"","","","","","html-keyboard-response","43","65683","0.0-4.0-4.7","60f9739250a5c6f6e4726336","6554bfa13ac4b6a0ab00b03a","6554c895748985a681a5f041","null","<p> <font color=""red"" size=""4vw""> Wrong category! </font> </p>","null","feedback","","","","","0"
"","","","","","html-keyboard-response","44","66138","0.0-4.0-0.8","60f9739250a5c6f6e4726336","6554bfa13ac4b6a0ab00b03a","6554c895748985a681a5f041","454","
            
        <div style=""text-align: center; position: fixed; top: 5vh; left: 40vw;"">
            <div style=""margin:0 auto; width: 20vw; top: 8vh; font-size: 1vw""> 
            <font color=""green""> Bonus : $0 </font>
            </div>
        </div>
    
            <div> Please press any button to continue to the next trial.</div>
        "," ","ITI","","","","",""
"","","","","","html-keyboard-response","45","66740","0.0-4.0-1.8","60f9739250a5c6f6e4726336","6554bfa13ac4b6a0ab00b03a","6554c895748985a681a5f041","null","
        
        <div style=""text-align: center; position: fixed; top: 5vh; left: 40vw;"">
            <div style=""margin:0 auto; width: 20vw; top: 8vh; font-size: 1vw""> 
            <font color=""green""> Bonus : $0 </font>
            </div>
        </div>
    
        <img class=""stim"" src=./stimuli//pack_shapes/cat_1/ex_1_39.png></img>
    ","null","stimulus","","","","",""
"","","","","","html-keyboard-response","46","67741","0.0-4.0-2.8","60f9739250a5c6f6e4726336","6554bfa13ac4b6a0ab00b03a","6554c895748985a681a5f041","null","
        <div style=""text-align: center; position: fixed; top: 5vh; left: 40vw;"">
            <div style=""margin:0 auto; width: 20vw; top: 8vh; font-size: 1vw""> 
            <font color=""green""> Bonus : $0 </font>
            </div>
        </div>
    ","null","","","","","",""
"","","","","","html-keyboard-response","47","68016","0.0-4.0-3.8","60f9739250a5c6f6e4726336","6554bfa13ac4b6a0ab00b03a","6554c895748985a681a5f041","275","./stimuli//pack_shapes/cat_1/ex_1_39.png","arrowleft","response","ArrowLeft","39","1","true",""
"","","","","","html-keyboard-response","48","69518","0.0-4.0-4.8","60f9739250a5c6f6e4726336","6554bfa13ac4b6a0ab00b03a","6554c895748985a681a5f041","null","<p> <font color=""green"" size=""4vw""> Correct category! </font> </p>","null","feedback","","","","","0"
"","","","","","html-keyboard-response","49","70210","0.0-4.0-0.9","60f9739250a5c6f6e4726336","6554bfa13ac4b6a0ab00b03a","6554c895748985a681a5f041","691","
            
        <div style=""text-align: center; position: fixed; top: 5vh; left: 40vw;"">
            <div style=""margin:0 auto; width: 20vw; top: 8vh; font-size: 1vw""> 
            <font color=""green""> Bonus : $0 </font>
            </div>
        </div>
    
            <div> Please press any button to continue to the next trial.</div>
        "," ","ITI","","","","",""
"","","","","","html-keyboard-response","50","70811","0.0-4.0-1.9","60f9739250a5c6f6e4726336","6554bfa13ac4b6a0ab00b03a","6554c895748985a681a5f041","null","
        
        <div style=""text-align: center; position: fixed; top: 5vh; left: 40vw;"">
            <div style=""margin:0 auto; width: 20vw; top: 8vh; font-size: 1vw""> 
            <font color=""green""> Bonus : $0 </font>
            </div>
        </div>
    
        <img class=""stim"" src=./stimuli//pack_shapes/cat_1/ex_1_3.png></img>
    ","null","stimulus","","","","",""
"","","","","","html-keyboard-response","51","71812","0.0-4.0-2.9","60f9739250a5c6f6e4726336","6554bfa13ac4b6a0ab00b03a","6554c895748985a681a5f041","null","
        <div style=""text-align: center; position: fixed; top: 5vh; left: 40vw;"">
            <div style=""margin:0 auto; width: 20vw; top: 8vh; font-size: 1vw""> 
            <font color=""green""> Bonus : $0 </font>
            </div>
        </div>
    ","null","","","","","",""
"","","","","","html-keyboard-response","52","72110","0.0-4.0-3.9","60f9739250a5c6f6e4726336","6554bfa13ac4b6a0ab00b03a","6554c895748985a681a5f041","297","./stimuli//pack_shapes/cat_1/ex_1_3.png","arrowright","response","ArrowLeft","3","1","false",""
"","","","","","html-keyboard-response","53","73612","0.0-4.0-4.9","60f9739250a5c6f6e4726336","6554bfa13ac4b6a0ab00b03a","6554c895748985a681a5f041","null","<p> <font color=""red"" size=""4vw""> Wrong category! </font> </p>","null","feedback","","","","","0"
"","","","","","html-keyboard-response","54","77244","0.0-5.0","60f9739250a5c6f6e4726336","6554bfa13ac4b6a0ab00b03a","6554c895748985a681a5f041","3632","
            <b> <p> The practice round has finished.</p>
            <b> For the rest of the experiment you will receive a $0.05 bonus for each correct answer!</b>
            <p> Press any key to begin the test. </p>
            "," ","intermission","","","","",""
"","","","","","html-keyboard-response","55","79555","0.0-6.0-0.0","60f9739250a5c6f6e4726336","6554bfa13ac4b6a0ab00b03a","6554c895748985a681a5f041","2310","
            
        <div style=""text-align: center; position: fixed; top: 5vh; left: 40vw;"">
            <div style=""margin:0 auto; width: 20vw; top: 8vh; font-size: 1vw""> 
            <font color=""green""> Bonus : $0 </font>
            </div>
        </div>
    
            <div> Please press any button to continue to the next trial.</div>
        "," ","ITI","","","","",""
"","","","","","html-keyboard-response","56","80156","0.0-6.0-1.0","60f9739250a5c6f6e4726336","6554bfa13ac4b6a0ab00b03a","6554c895748985a681a5f041","null","
        
        <div style=""text-align: center; position: fixed; top: 5vh; left: 40vw;"">
            <div style=""margin:0 auto; width: 20vw; top: 8vh; font-size: 1vw""> 
            <font color=""green""> Bonus : $0 </font>
            </div>
        </div>
    
        <img class=""stim"" src=./stimuli//pack_shapes/cat_2/ex_2_30.png></img>
    ","null","stimulus","","","","",""
"","","","","","html-keyboard-response","57","81158","0.0-6.0-2.0","60f9739250a5c6f6e4726336","6554bfa13ac4b6a0ab00b03a","6554c895748985a681a5f041","null","
        <div style=""text-align: center; position: fixed; top: 5vh; left: 40vw;"">
            <div style=""margin:0 auto; width: 20vw; top: 8vh; font-size: 1vw""> 
            <font color=""green""> Bonus : $0 </font>
            </div>
        </div>
    ","null","","","","","",""
"","","","","","html-keyboard-response","58","81437","0.0-6.0-3.0","60f9739250a5c6f6e4726336","6554bfa13ac4b6a0ab00b03a","6554c895748985a681a5f041","278","./stimuli//pack_shapes/cat_2/ex_2_30.png","arrowright","response","ArrowRight","30","2","true",""
"","","","","","html-keyboard-response","59","82938","0.0-6.0-4.0","60f9739250a5c6f6e4726336","6554bfa13ac4b6a0ab00b03a","6554c895748985a681a5f041","null","<p> <font color=""green"" size=""4vw""> Correct category! </font> <br> <br> <font color=""green"" size=""7vw""> + $0.05 </font> </p>","null","feedback","","","","","0.05"
"","","","","","html-keyboard-response","60","84047","0.0-6.0-0.1","60f9739250a5c6f6e4726336","6554bfa13ac4b6a0ab00b03a","6554c895748985a681a5f041","1108","
            
        <div style=""text-align: center; position: fixed; top: 5vh; left: 40vw;"">
            <div style=""margin:0 auto; width: 20vw; top: 8vh; font-size: 1vw""> 
            <font color=""green""> Bonus : $0.05 </font>
            </div>
        </div>
    
            <div> Please press any button to continue to the next trial.</div>
        ","arrowright","ITI","","","","",""
"","","","","","html-keyboard-response","61","84648","0.0-6.0-1.1","60f9739250a5c6f6e4726336","6554bfa13ac4b6a0ab00b03a","6554c895748985a681a5f041","null","
        
        <div style=""text-align: center; position: fixed; top: 5vh; left: 40vw;"">
            <div style=""margin:0 auto; width: 20vw; top: 8vh; font-size: 1vw""> 
            <font color=""green""> Bonus : $0.05 </font>
            </div>
        </div>
    
        <img class=""stim"" src=./stimuli//pack_shapes/cat_1/ex_1_52.png></img>
    ","null","stimulus","","","","",""
"","","","","","html-keyboard-response","62","85649","0.0-6.0-2.1","60f9739250a5c6f6e4726336","6554bfa13ac4b6a0ab00b03a","6554c895748985a681a5f041","null","
        <div style=""text-align: center; position: fixed; top: 5vh; left: 40vw;"">
            <div style=""margin:0 auto; width: 20vw; top: 8vh; font-size: 1vw""> 
            <font color=""green""> Bonus : $0.05 </font>
            </div>
        </div>
    ","null","","","","","",""
"","","","","","html-keyboard-response","63","85919","0.0-6.0-3.1","60f9739250a5c6f6e4726336","6554bfa13ac4b6a0ab00b03a","6554c895748985a681a5f041","270","./stimuli//pack_shapes/cat_1/ex_1_52.png","arrowleft","response","ArrowLeft","52","1","true",""
"","","","","","html-keyboard-response","64","87420","0.0-6.0-4.1","60f9739250a5c6f6e4726336","6554bfa13ac4b6a0ab00b03a","6554c895748985a681a5f041","null","<p> <font color=""green"" size=""4vw""> Correct category! </font> <br> <br> <font color=""green"" size=""7vw""> + $0.05 </font> </p>","null","feedback","","","","","0.1"
"","","","","","html-keyboard-response","65","88529","0.0-6.0-0.2","60f9739250a5c6f6e4726336","6554bfa13ac4b6a0ab00b03a","6554c895748985a681a5f041","1108","
            
        <div style=""text-align: center; position: fixed; top: 5vh; left: 40vw;"">
            <div style=""margin:0 auto; width: 20vw; top: 8vh; font-size: 1vw""> 
            <font color=""green""> Bonus : $0.1 </font>
            </div>
        </div>
    
            <div> Please press any button to continue to the next trial.</div>
        "," ","ITI","","","","",""
"","","","","","html-keyboard-response","66","89131","0.0-6.0-1.2","60f9739250a5c6f6e4726336","6554bfa13ac4b6a0ab00b03a","6554c895748985a681a5f041","null","
        
        <div style=""text-align: center; position: fixed; top: 5vh; left: 40vw;"">
            <div style=""margin:0 auto; width: 20vw; top: 8vh; font-size: 1vw""> 
            <font color=""green""> Bonus : $0.1 </font>
            </div>
        </div>
    
        <img class=""stim"" src=./stimuli//pack_shapes/cat_1/ex_1_31.png></img>
    ","null","stimulus","","","","",""
"","","","","","html-keyboard-response","67","90131","0.0-6.0-2.2","60f9739250a5c6f6e4726336","6554bfa13ac4b6a0ab00b03a","6554c895748985a681a5f041","null","
        <div style=""text-align: center; position: fixed; top: 5vh; left: 40vw;"">
            <div style=""margin:0 auto; width: 20vw; top: 8vh; font-size: 1vw""> 
            <font color=""green""> Bonus : $0.1 </font>
            </div>
        </div>
    ","null","","","","","",""
"","","","","","html-keyboard-response","68","90404","0.0-6.0-3.2","60f9739250a5c6f6e4726336","6554bfa13ac4b6a0ab00b03a","6554c895748985a681a5f041","272","./stimuli//pack_shapes/cat_1/ex_1_31.png","arrowleft","response","ArrowLeft","31","1","true",""
"","","","","","html-keyboard-response","69","91906","0.0-6.0-4.2","60f9739250a5c6f6e4726336","6554bfa13ac4b6a0ab00b03a","6554c895748985a681a5f041","null","<p> <font color=""green"" size=""4vw""> Correct category! </font> <br> <br> <font color=""green"" size=""7vw""> + $0.05 </font> </p>","null","feedback","","","","","0.15"
"","","","","","html-keyboard-response","70","92588","0.0-6.0-0.3","60f9739250a5c6f6e4726336","6554bfa13ac4b6a0ab00b03a","6554c895748985a681a5f041","682","
            
        <div style=""text-align: center; position: fixed; top: 5vh; left: 40vw;"">
            <div style=""margin:0 auto; width: 20vw; top: 8vh; font-size: 1vw""> 
            <font color=""green""> Bonus : $0.15 </font>
            </div>
        </div>
    
            <div> Please press any button to continue to the next trial.</div>
        "," ","ITI","","","","",""
"","","","","","html-keyboard-response","71","93190","0.0-6.0-1.3","60f9739250a5c6f6e4726336","6554bfa13ac4b6a0ab00b03a","6554c895748985a681a5f041","null","
        
        <div style=""text-align: center; position: fixed; top: 5vh; left: 40vw;"">
            <div style=""margin:0 auto; width: 20vw; top: 8vh; font-size: 1vw""> 
            <font color=""green""> Bonus : $0.15 </font>
            </div>
        </div>
    
        <img class=""stim"" src=./stimuli//pack_shapes/cat_1/ex_1_41.png></img>
    ","null","stimulus","","","","",""
"","","","","","html-keyboard-response","72","94192","0.0-6.0-2.3","60f9739250a5c6f6e4726336","6554bfa13ac4b6a0ab00b03a","6554c895748985a681a5f041","null","
        <div style=""text-align: center; position: fixed; top: 5vh; left: 40vw;"">
            <div style=""margin:0 auto; width: 20vw; top: 8vh; font-size: 1vw""> 
            <font color=""green""> Bonus : $0.15 </font>
            </div>
        </div>
    ","null","","","","","",""
"","","","","","html-keyboard-response","73","94489","0.0-6.0-3.3","60f9739250a5c6f6e4726336","6554bfa13ac4b6a0ab00b03a","6554c895748985a681a5f041","297","./stimuli//pack_shapes/cat_1/ex_1_41.png","arrowleft","response","ArrowLeft","41","1","true",""
"","","","","","html-keyboard-response","74","95991","0.0-6.0-4.3","60f9739250a5c6f6e4726336","6554bfa13ac4b6a0ab00b03a","6554c895748985a681a5f041","null","<p> <font color=""green"" size=""4vw""> Correct category! </font> <br> <br> <font color=""green"" size=""7vw""> + $0.05 </font> </p>","null","feedback","","","","","0.2"
"","","","","","html-keyboard-response","75","96624","0.0-6.0-0.4","60f9739250a5c6f6e4726336","6554bfa13ac4b6a0ab00b03a","6554c895748985a681a5f041","632","
            
        <div style=""text-align: center; position: fixed; top: 5vh; left: 40vw;"">
            <div style=""margin:0 auto; width: 20vw; top: 8vh; font-size: 1vw""> 
            <font color=""green""> Bonus : $0.2 </font>
            </div>
        </div>
    
            <div> Please press any button to continue to the next trial.</div>
        "," ","ITI","","","","",""
"","","","","","html-keyboard-response","76","97225","0.0-6.0-1.4","60f9739250a5c6f6e4726336","6554bfa13ac4b6a0ab00b03a","6554c895748985a681a5f041","null","
        
        <div style=""text-align: center; position: fixed; top: 5vh; left: 40vw;"">
            <div style=""margin:0 auto; width: 20vw; top: 8vh; font-size: 1vw""> 
            <font color=""green""> Bonus : $0.2 </font>
            </div>
        </div>
    
        <img class=""stim"" src=./stimuli//pack_shapes/cat_2/ex_2_81.png></img>
    ","null","stimulus","","","","",""
"","","","","","html-keyboard-response","77","98226","0.0-6.0-2.4","60f9739250a5c6f6e4726336","6554bfa13ac4b6a0ab00b03a","6554c895748985a681a5f041","null","
        <div style=""text-align: center; position: fixed; top: 5vh; left: 40vw;"">
            <div style=""margin:0 auto; width: 20vw; top: 8vh; font-size: 1vw""> 
            <font color=""green""> Bonus : $0.2 </font>
            </div>
        </div>
    ","null","","","","","",""
"","","","","","html-keyboard-response","78","98604","0.0-6.0-3.4","60f9739250a5c6f6e4726336","6554bfa13ac4b6a0ab00b03a","6554c895748985a681a5f041","377","./stimuli//pack_shapes/cat_2/ex_2_81.png","arrowright","response","ArrowRight","81","2","true",""
"","","","","","html-keyboard-response","79","100105","0.0-6.0-4.4","60f9739250a5c6f6e4726336","6554bfa13ac4b6a0ab00b03a","6554c895748985a681a5f041","null","<p> <font color=""green"" size=""4vw""> Correct category! </font> <br> <br> <font color=""green"" size=""7vw""> + $0.05 </font> </p>","null","feedback","","","","","0.25"
"","","","","","html-keyboard-response","80","100917","0.0-6.0-0.5","60f9739250a5c6f6e4726336","6554bfa13ac4b6a0ab00b03a","6554c895748985a681a5f041","811","
            
        <div style=""text-align: center; position: fixed; top: 5vh; left: 40vw;"">
            <div style=""margin:0 auto; width: 20vw; top: 8vh; font-size: 1vw""> 
            <font color=""green""> Bonus : $0.25 </font>
            </div>
        </div>
    
            <div> Please press any button to continue to the next trial.</div>
        ","arrowright","ITI","","","","",""
"","","","","","html-keyboard-response","81","101519","0.0-6.0-1.5","60f9739250a5c6f6e4726336","6554bfa13ac4b6a0ab00b03a","6554c895748985a681a5f041","null","
        
        <div style=""text-align: center; position: fixed; top: 5vh; left: 40vw;"">
            <div style=""margin:0 auto; width: 20vw; top: 8vh; font-size: 1vw""> 
            <font color=""green""> Bonus : $0.25 </font>
            </div>
        </div>
    
        <img class=""stim"" src=./stimuli//pack_shapes/cat_1/ex_1_2.png></img>
    ","null","stimulus","","","","",""
"","","","","","html-keyboard-response","82","102520","0.0-6.0-2.5","60f9739250a5c6f6e4726336","6554bfa13ac4b6a0ab00b03a","6554c895748985a681a5f041","null","
        <div style=""text-align: center; position: fixed; top: 5vh; left: 40vw;"">
            <div style=""margin:0 auto; width: 20vw; top: 8vh; font-size: 1vw""> 
            <font color=""green""> Bonus : $0.25 </font>
            </div>
        </div>
    ","null","","","","","",""
"","","","","","html-keyboard-response","83","102820","0.0-6.0-3.5","60f9739250a5c6f6e4726336","6554bfa13ac4b6a0ab00b03a","6554c895748985a681a5f041","299","./stimuli//pack_shapes/cat_1/ex_1_2.png","arrowright","response","ArrowLeft","2","1","false",""
"","","","","","html-keyboard-response","84","104321","0.0-6.0-4.5","60f9739250a5c6f6e4726336","6554bfa13ac4b6a0ab00b03a","6554c895748985a681a5f041","null","<p> <font color=""red"" size=""4vw""> Wrong category! </font> </p>","null","feedback","","","","","0.25"
"","","","","","html-keyboard-response","85","105094","0.0-6.0-0.6","60f9739250a5c6f6e4726336","6554bfa13ac4b6a0ab00b03a","6554c895748985a681a5f041","773","
            
        <div style=""text-align: center; position: fixed; top: 5vh; left: 40vw;"">
            <div style=""margin:0 auto; width: 20vw; top: 8vh; font-size: 1vw""> 
            <font color=""green""> Bonus : $0.25 </font>
            </div>
        </div>
    
            <div> Please press any button to continue to the next trial.</div>
        "," ","ITI","","","","",""
"","","","","","html-keyboard-response","86","105697","0.0-6.0-1.6","60f9739250a5c6f6e4726336","6554bfa13ac4b6a0ab00b03a","6554c895748985a681a5f041","null","
        
        <div style=""text-align: center; position: fixed; top: 5vh; left: 40vw;"">
            <div style=""margin:0 auto; width: 20vw; top: 8vh; font-size: 1vw""> 
            <font color=""green""> Bonus : $0.25 </font>
            </div>
        </div>
    
        <img class=""stim"" src=./stimuli//pack_shapes/cat_1/ex_1_50.png></img>
    ","null","stimulus","","","","",""
"","","","","","html-keyboard-response","87","106698","0.0-6.0-2.6","60f9739250a5c6f6e4726336","6554bfa13ac4b6a0ab00b03a","6554c895748985a681a5f041","null","
        <div style=""text-align: center; position: fixed; top: 5vh; left: 40vw;"">
            <div style=""margin:0 auto; width: 20vw; top: 8vh; font-size: 1vw""> 
            <font color=""green""> Bonus : $0.25 </font>
            </div>
        </div>
    ","null","","","","","",""
"","","","","","html-keyboard-response","88","107209","0.0-6.0-3.6","60f9739250a5c6f6e4726336","6554bfa13ac4b6a0ab00b03a","6554c895748985a681a5f041","509","./stimuli//pack_shapes/cat_1/ex_1_50.png","arrowleft","response","ArrowLeft","50","1","true",""
"","","","","","html-keyboard-response","89","108711","0.0-6.0-4.6","60f9739250a5c6f6e4726336","6554bfa13ac4b6a0ab00b03a","6554c895748985a681a5f041","null","<p> <font color=""green"" size=""4vw""> Correct category! </font> <br> <br> <font color=""green"" size=""7vw""> + $0.05 </font> </p>","null","feedback","","","","","0.3"
"","","","","","html-keyboard-response","90","109384","0.0-6.0-0.7","60f9739250a5c6f6e4726336","6554bfa13ac4b6a0ab00b03a","6554c895748985a681a5f041","673","
            
        <div style=""text-align: center; position: fixed; top: 5vh; left: 40vw;"">
            <div style=""margin:0 auto; width: 20vw; top: 8vh; font-size: 1vw""> 
            <font color=""green""> Bonus : $0.3 </font>
            </div>
        </div>
    
            <div> Please press any button to continue to the next trial.</div>
        "," ","ITI","","","","",""
"","","","","","html-keyboard-response","91","109985","0.0-6.0-1.7","60f9739250a5c6f6e4726336","6554bfa13ac4b6a0ab00b03a","6554c895748985a681a5f041","null","
        
        <div style=""text-align: center; position: fixed; top: 5vh; left: 40vw;"">
            <div style=""margin:0 auto; width: 20vw; top: 8vh; font-size: 1vw""> 
            <font color=""green""> Bonus : $0.3 </font>
            </div>
        </div>
    
        <img class=""stim"" src=./stimuli//pack_shapes/cat_1/ex_1_28.png></img>
    ","null","stimulus","","","","",""
"","","","","","html-keyboard-response","92","110986","0.0-6.0-2.7","60f9739250a5c6f6e4726336","6554bfa13ac4b6a0ab00b03a","6554c895748985a681a5f041","null","
        <div style=""text-align: center; position: fixed; top: 5vh; left: 40vw;"">
            <div style=""margin:0 auto; width: 20vw; top: 8vh; font-size: 1vw""> 
            <font color=""green""> Bonus : $0.3 </font>
            </div>
        </div>
    ","null","","","","","",""
"","","","","","html-keyboard-response","93","111332","0.0-6.0-3.7","60f9739250a5c6f6e4726336","6554bfa13ac4b6a0ab00b03a","6554c895748985a681a5f041","345","./stimuli//pack_shapes/cat_1/ex_1_28.png","arrowleft","response","ArrowLeft","28","1","true",""
"","","","","","html-keyboard-response","94","112833","0.0-6.0-4.7","60f9739250a5c6f6e4726336","6554bfa13ac4b6a0ab00b03a","6554c895748985a681a5f041","null","<p> <font color=""green"" size=""4vw""> Correct category! </font> <br> <br> <font color=""green"" size=""7vw""> + $0.05 </font> </p>","null","feedback","","","","","0.35"
"","","","","","html-keyboard-response","95","113519","0.0-6.0-0.8","60f9739250a5c6f6e4726336","6554bfa13ac4b6a0ab00b03a","6554c895748985a681a5f041","686","
            
        <div style=""text-align: center; position: fixed; top: 5vh; left: 40vw;"">
            <div style=""margin:0 auto; width: 20vw; top: 8vh; font-size: 1vw""> 
            <font color=""green""> Bonus : $0.35 </font>
            </div>
        </div>
    
            <div> Please press any button to continue to the next trial.</div>
        "," ","ITI","","","","",""
"","","","","","html-keyboard-response","96","114121","0.0-6.0-1.8","60f9739250a5c6f6e4726336","6554bfa13ac4b6a0ab00b03a","6554c895748985a681a5f041","null","
        
        <div style=""text-align: center; position: fixed; top: 5vh; left: 40vw;"">
            <div style=""margin:0 auto; width: 20vw; top: 8vh; font-size: 1vw""> 
            <font color=""green""> Bonus : $0.35 </font>
            </div>
        </div>
    
        <img class=""stim"" src=./stimuli//pack_shapes/cat_2/ex_2_47.png></img>
    ","null","stimulus","","","","",""
"","","","","","html-keyboard-response","97","115123","0.0-6.0-2.8","60f9739250a5c6f6e4726336","6554bfa13ac4b6a0ab00b03a","6554c895748985a681a5f041","null","
        <div style=""text-align: center; position: fixed; top: 5vh; left: 40vw;"">
            <div style=""margin:0 auto; width: 20vw; top: 8vh; font-size: 1vw""> 
            <font color=""green""> Bonus : $0.35 </font>
            </div>
        </div>
    ","null","","","","","",""
"","","","","","html-keyboard-response","98","115387","0.0-6.0-3.8","60f9739250a5c6f6e4726336","6554bfa13ac4b6a0ab00b03a","6554c895748985a681a5f041","264","./stimuli//pack_shapes/cat_2/ex_2_47.png","arrowright","response","ArrowRight","47","2","true",""
"","","","","","html-keyboard-response","99","116888","0.0-6.0-4.8","60f9739250a5c6f6e4726336","6554bfa13ac4b6a0ab00b03a","6554c895748985a681a5f041","null","<p> <font color=""green"" size=""4vw""> Correct category! </font> <br> <br> <font color=""green"" size=""7vw""> + $0.05 </font> </p>","null","feedback","","","","","0.4"
"","","","","","html-keyboard-response","100","117577","0.0-6.0-0.9","60f9739250a5c6f6e4726336","6554bfa13ac4b6a0ab00b03a","6554c895748985a681a5f041","688","
            
        <div style=""text-align: center; position: fixed; top: 5vh; left: 40vw;"">
            <div style=""margin:0 auto; width: 20vw; top: 8vh; font-size: 1vw""> 
            <font color=""green""> Bonus : $0.4 </font>
            </div>
        </div>
    
            <div> Please press any button to continue to the next trial.</div>
        "," ","ITI","","","","",""
"","","","","","html-keyboard-response","101","118178","0.0-6.0-1.9","60f9739250a5c6f6e4726336","6554bfa13ac4b6a0ab00b03a","6554c895748985a681a5f041","null","
        
        <div style=""text-align: center; position: fixed; top: 5vh; left: 40vw;"">
            <div style=""margin:0 auto; width: 20vw; top: 8vh; font-size: 1vw""> 
            <font color=""green""> Bonus : $0.4 </font>
            </div>
        </div>
    
        <img class=""stim"" src=./stimuli//pack_shapes/cat_1/ex_1_51.png></img>
    ","null","stimulus","","","","",""
"","","","","","html-keyboard-response","102","119180","0.0-6.0-2.9","60f9739250a5c6f6e4726336","6554bfa13ac4b6a0ab00b03a","6554c895748985a681a5f041","null","
        <div style=""text-align: center; position: fixed; top: 5vh; left: 40vw;"">
            <div style=""margin:0 auto; width: 20vw; top: 8vh; font-size: 1vw""> 
            <font color=""green""> Bonus : $0.4 </font>
            </div>
        </div>
    ","null","","","","","",""
"","","","","","html-keyboard-response","103","119452","0.0-6.0-3.9","60f9739250a5c6f6e4726336","6554bfa13ac4b6a0ab00b03a","6554c895748985a681a5f041","272","./stimuli//pack_shapes/cat_1/ex_1_51.png","arrowleft","response","ArrowLeft","51","1","true",""
"","","","","","html-keyboard-response","104","120954","0.0-6.0-4.9","60f9739250a5c6f6e4726336","6554bfa13ac4b6a0ab00b03a","6554c895748985a681a5f041","null","<p> <font color=""green"" size=""4vw""> Correct category! </font> <br> <br> <font color=""green"" size=""7vw""> + $0.05 </font> </p>","null","feedback","","","","","0.45"
"","","","","","html-keyboard-response","105","121786","0.0-6.0-0.10","60f9739250a5c6f6e4726336","6554bfa13ac4b6a0ab00b03a","6554c895748985a681a5f041","831","
            
        <div style=""text-align: center; position: fixed; top: 5vh; left: 40vw;"">
            <div style=""margin:0 auto; width: 20vw; top: 8vh; font-size: 1vw""> 
            <font color=""green""> Bonus : $0.45 </font>
            </div>
        </div>
    
            <div> Please press any button to continue to the next trial.</div>
        "," ","ITI","","","","",""
"","","","","","html-keyboard-response","106","122387","0.0-6.0-1.10","60f9739250a5c6f6e4726336","6554bfa13ac4b6a0ab00b03a","6554c895748985a681a5f041","null","
        
        <div style=""text-align: center; position: fixed; top: 5vh; left: 40vw;"">
            <div style=""margin:0 auto; width: 20vw; top: 8vh; font-size: 1vw""> 
            <font color=""green""> Bonus : $0.45 </font>
            </div>
        </div>
    
        <img class=""stim"" src=./stimuli//pack_shapes/cat_1/ex_1_15.png></img>
    ","null","stimulus","","","","",""
"","","","","","html-keyboard-response","107","123388","0.0-6.0-2.10","60f9739250a5c6f6e4726336","6554bfa13ac4b6a0ab00b03a","6554c895748985a681a5f041","null","
        <div style=""text-align: center; position: fixed; top: 5vh; left: 40vw;"">
            <div style=""margin:0 auto; width: 20vw; top: 8vh; font-size: 1vw""> 
            <font color=""green""> Bonus : $0.45 </font>
            </div>
        </div>
    ","null","","","","","",""
"","","","","","html-keyboard-response","108","123672","0.0-6.0-3.10","60f9739250a5c6f6e4726336","6554bfa13ac4b6a0ab00b03a","6554c895748985a681a5f041","283","./stimuli//pack_shapes/cat_1/ex_1_15.png","arrowright","response","ArrowLeft","15","1","false",""
"","","","","","html-keyboard-response","109","125172","0.0-6.0-4.10","60f9739250a5c6f6e4726336","6554bfa13ac4b6a0ab00b03a","6554c895748985a681a5f041","null","<p> <font color=""red"" size=""4vw""> Wrong category! </font> </p>","null","feedback","","","","","0.45"
"","","","","","html-keyboard-response","110","125799","0.0-6.0-0.11","60f9739250a5c6f6e4726336","6554bfa13ac4b6a0ab00b03a","6554c895748985a681a5f041","626","
            
        <div style=""text-align: center; position: fixed; top: 5vh; left: 40vw;"">
            <div style=""margin:0 auto; width: 20vw; top: 8vh; font-size: 1vw""> 
            <font color=""green""> Bonus : $0.45 </font>
            </div>
        </div>
    
            <div> Please press any button to continue to the next trial.</div>
        "," ","ITI","","","","",""
"","","","","","html-keyboard-response","111","126400","0.0-6.0-1.11","60f9739250a5c6f6e4726336","6554bfa13ac4b6a0ab00b03a","6554c895748985a681a5f041","null","
        
        <div style=""text-align: center; position: fixed; top: 5vh; left: 40vw;"">
            <div style=""margin:0 auto; width: 20vw; top: 8vh; font-size: 1vw""> 
            <font color=""green""> Bonus : $0.45 </font>
            </div>
        </div>
    
        <img class=""stim"" src=./stimuli//pack_shapes/cat_2/ex_2_24.png></img>
    ","null","stimulus","","","","",""
"","","","","","html-keyboard-response","112","127402","0.0-6.0-2.11","60f9739250a5c6f6e4726336","6554bfa13ac4b6a0ab00b03a","6554c895748985a681a5f041","null","
        <div style=""text-align: center; position: fixed; top: 5vh; left: 40vw;"">
            <div style=""margin:0 auto; width: 20vw; top: 8vh; font-size: 1vw""> 
            <font color=""green""> Bonus : $0.45 </font>
            </div>
        </div>
    ","null","","","","","",""
"","","","","","html-keyboard-response","113","127667","0.0-6.0-3.11","60f9739250a5c6f6e4726336","6554bfa13ac4b6a0ab00b03a","6554c895748985a681a5f041","264","./stimuli//pack_shapes/cat_2/ex_2_24.png","arrowright","response","ArrowRight","24","2","true",""
"","","","","","html-keyboard-response","114","129168","0.0-6.0-4.11","60f9739250a5c6f6e4726336","6554bfa13ac4b6a0ab00b03a","6554c895748985a681a5f041","null","<p> <font color=""green"" size=""4vw""> Correct category! </font> <br> <br> <font color=""green"" size=""7vw""> + $0.05 </font> </p>","null","feedback","","","","","0.5"
"","","","","","html-keyboard-response","115","129765","0.0-6.0-0.12","60f9739250a5c6f6e4726336","6554bfa13ac4b6a0ab00b03a","6554c895748985a681a5f041","596","
            
        <div style=""text-align: center; position: fixed; top: 5vh; left: 40vw;"">
            <div style=""margin:0 auto; width: 20vw; top: 8vh; font-size: 1vw""> 
            <font color=""green""> Bonus : $0.5 </font>
            </div>
        </div>
    
            <div> Please press any button to continue to the next trial.</div>
        "," ","ITI","","","","",""
"","","","","","html-keyboard-response","116","130365","0.0-6.0-1.12","60f9739250a5c6f6e4726336","6554bfa13ac4b6a0ab00b03a","6554c895748985a681a5f041","null","
        
        <div style=""text-align: center; position: fixed; top: 5vh; left: 40vw;"">
            <div style=""margin:0 auto; width: 20vw; top: 8vh; font-size: 1vw""> 
            <font color=""green""> Bonus : $0.5 </font>
            </div>
        </div>
    
        <img class=""stim"" src=./stimuli//pack_shapes/cat_1/ex_1_9.png></img>
    ","null","stimulus","","","","",""
"","","","","","html-keyboard-response","117","131367","0.0-6.0-2.12","60f9739250a5c6f6e4726336","6554bfa13ac4b6a0ab00b03a","6554c895748985a681a5f041","null","
        <div style=""text-align: center; position: fixed; top: 5vh; left: 40vw;"">
            <div style=""margin:0 auto; width: 20vw; top: 8vh; font-size: 1vw""> 
            <font color=""green""> Bonus : $0.5 </font>
            </div>
        </div>
    ","null","","","","","",""
"","","","","","html-keyboard-response","118","131619","0.0-6.0-3.12","60f9739250a5c6f6e4726336","6554bfa13ac4b6a0ab00b03a","6554c895748985a681a5f041","251","./stimuli//pack_shapes/cat_1/ex_1_9.png","arrowleft","response","ArrowLeft","9","1","true",""
"","","","","","html-keyboard-response","119","133121","0.0-6.0-4.12","60f9739250a5c6f6e4726336","6554bfa13ac4b6a0ab00b03a","6554c895748985a681a5f041","null","<p> <font color=""green"" size=""4vw""> Correct category! </font> <br> <br> <font color=""green"" size=""7vw""> + $0.05 </font> </p>","null","feedback","","","","","0.55"
"","","","","","html-keyboard-response","120","133732","0.0-6.0-0.13","60f9739250a5c6f6e4726336","6554bfa13ac4b6a0ab00b03a","6554c895748985a681a5f041","611","
            
        <div style=""text-align: center; position: fixed; top: 5vh; left: 40vw;"">
            <div style=""margin:0 auto; width: 20vw; top: 8vh; font-size: 1vw""> 
            <font color=""green""> Bonus : $0.55 </font>
            </div>
        </div>
    
            <div> Please press any button to continue to the next trial.</div>
        "," ","ITI","","","","",""
"","","","","","html-keyboard-response","121","134333","0.0-6.0-1.13","60f9739250a5c6f6e4726336","6554bfa13ac4b6a0ab00b03a","6554c895748985a681a5f041","null","
        
        <div style=""text-align: center; position: fixed; top: 5vh; left: 40vw;"">
            <div style=""margin:0 auto; width: 20vw; top: 8vh; font-size: 1vw""> 
            <font color=""green""> Bonus : $0.55 </font>
            </div>
        </div>
    
        <img class=""stim"" src=./stimuli//pack_shapes/cat_1/ex_1_48.png></img>
    ","null","stimulus","","","","",""
"","","","","","html-keyboard-response","122","135334","0.0-6.0-2.13","60f9739250a5c6f6e4726336","6554bfa13ac4b6a0ab00b03a","6554c895748985a681a5f041","null","
        <div style=""text-align: center; position: fixed; top: 5vh; left: 40vw;"">
            <div style=""margin:0 auto; width: 20vw; top: 8vh; font-size: 1vw""> 
            <font color=""green""> Bonus : $0.55 </font>
            </div>
        </div>
    ","null","","","","","",""
"","","","","","html-keyboard-response","123","135640","0.0-6.0-3.13","60f9739250a5c6f6e4726336","6554bfa13ac4b6a0ab00b03a","6554c895748985a681a5f041","305","./stimuli//pack_shapes/cat_1/ex_1_48.png","arrowleft","response","ArrowLeft","48","1","true",""
"","","","","","html-keyboard-response","124","137143","0.0-6.0-4.13","60f9739250a5c6f6e4726336","6554bfa13ac4b6a0ab00b03a","6554c895748985a681a5f041","null","<p> <font color=""green"" size=""4vw""> Correct category! </font> <br> <br> <font color=""green"" size=""7vw""> + $0.05 </font> </p>","null","feedback","","","","","0.6"
"","","","","","html-keyboard-response","125","137840","0.0-6.0-0.14","60f9739250a5c6f6e4726336","6554bfa13ac4b6a0ab00b03a","6554c895748985a681a5f041","696","
            
        <div style=""text-align: center; position: fixed; top: 5vh; left: 40vw;"">
            <div style=""margin:0 auto; width: 20vw; top: 8vh; font-size: 1vw""> 
            <font color=""green""> Bonus : $0.6 </font>
            </div>
        </div>
    
            <div> Please press any button to continue to the next trial.</div>
        "," ","ITI","","","","",""
"","","","","","html-keyboard-response","126","138441","0.0-6.0-1.14","60f9739250a5c6f6e4726336","6554bfa13ac4b6a0ab00b03a","6554c895748985a681a5f041","null","
        
        <div style=""text-align: center; position: fixed; top: 5vh; left: 40vw;"">
            <div style=""margin:0 auto; width: 20vw; top: 8vh; font-size: 1vw""> 
            <font color=""green""> Bonus : $0.6 </font>
            </div>
        </div>
    
        <img class=""stim"" src=./stimuli//pack_shapes/cat_2/ex_2_74.png></img>
    ","null","stimulus","","","","",""
"","","","","","html-keyboard-response","127","139443","0.0-6.0-2.14","60f9739250a5c6f6e4726336","6554bfa13ac4b6a0ab00b03a","6554c895748985a681a5f041","null","
        <div style=""text-align: center; position: fixed; top: 5vh; left: 40vw;"">
            <div style=""margin:0 auto; width: 20vw; top: 8vh; font-size: 1vw""> 
            <font color=""green""> Bonus : $0.6 </font>
            </div>
        </div>
    ","null","","","","","",""
"","","","","","html-keyboard-response","128","139727","0.0-6.0-3.14","60f9739250a5c6f6e4726336","6554bfa13ac4b6a0ab00b03a","6554c895748985a681a5f041","283","./stimuli//pack_shapes/cat_2/ex_2_74.png","arrowright","response","ArrowRight","74","2","true",""
"","","","","","html-keyboard-response","129","141228","0.0-6.0-4.14","60f9739250a5c6f6e4726336","6554bfa13ac4b6a0ab00b03a","6554c895748985a681a5f041","null","<p> <font color=""green"" size=""4vw""> Correct category! </font> <br> <br> <font color=""green"" size=""7vw""> + $0.05 </font> </p>","null","feedback","","","","","0.65"
"","","","","","html-keyboard-response","130","141791","0.0-6.0-0.15","60f9739250a5c6f6e4726336","6554bfa13ac4b6a0ab00b03a","6554c895748985a681a5f041","562","
            
        <div style=""text-align: center; position: fixed; top: 5vh; left: 40vw;"">
            <div style=""margin:0 auto; width: 20vw; top: 8vh; font-size: 1vw""> 
            <font color=""green""> Bonus : $0.65 </font>
            </div>
        </div>
    
            <div> Please press any button to continue to the next trial.</div>
        "," ","ITI","","","","",""
"","","","","","html-keyboard-response","131","142392","0.0-6.0-1.15","60f9739250a5c6f6e4726336","6554bfa13ac4b6a0ab00b03a","6554c895748985a681a5f041","null","
        
        <div style=""text-align: center; position: fixed; top: 5vh; left: 40vw;"">
            <div style=""margin:0 auto; width: 20vw; top: 8vh; font-size: 1vw""> 
            <font color=""green""> Bonus : $0.65 </font>
            </div>
        </div>
    
        <img class=""stim"" src=./stimuli//pack_shapes/cat_2/ex_2_72.png></img>
    ","null","stimulus","","","","",""
"","","","","","html-keyboard-response","132","143393","0.0-6.0-2.15","60f9739250a5c6f6e4726336","6554bfa13ac4b6a0ab00b03a","6554c895748985a681a5f041","null","
        <div style=""text-align: center; position: fixed; top: 5vh; left: 40vw;"">
            <div style=""margin:0 auto; width: 20vw; top: 8vh; font-size: 1vw""> 
            <font color=""green""> Bonus : $0.65 </font>
            </div>
        </div>
    ","null","","","","","",""
"","","","","","html-keyboard-response","133","143632","0.0-6.0-3.15","60f9739250a5c6f6e4726336","6554bfa13ac4b6a0ab00b03a","6554c895748985a681a5f041","237","./stimuli//pack_shapes/cat_2/ex_2_72.png","arrowright","response","ArrowRight","72","2","true",""
"","","","","","html-keyboard-response","134","145133","0.0-6.0-4.15","60f9739250a5c6f6e4726336","6554bfa13ac4b6a0ab00b03a","6554c895748985a681a5f041","null","<p> <font color=""green"" size=""4vw""> Correct category! </font> <br> <br> <font color=""green"" size=""7vw""> + $0.05 </font> </p>","null","feedback","","","","","0.7"
"","","","","","html-keyboard-response","135","145682","0.0-6.0-0.16","60f9739250a5c6f6e4726336","6554bfa13ac4b6a0ab00b03a","6554c895748985a681a5f041","549","
            
        <div style=""text-align: center; position: fixed; top: 5vh; left: 40vw;"">
            <div style=""margin:0 auto; width: 20vw; top: 8vh; font-size: 1vw""> 
            <font color=""green""> Bonus : $0.7 </font>
            </div>
        </div>
    
            <div> Please press any button to continue to the next trial.</div>
        "," ","ITI","","","","",""
"","","","","","html-keyboard-response","136","146284","0.0-6.0-1.16","60f9739250a5c6f6e4726336","6554bfa13ac4b6a0ab00b03a","6554c895748985a681a5f041","null","
        
        <div style=""text-align: center; position: fixed; top: 5vh; left: 40vw;"">
            <div style=""margin:0 auto; width: 20vw; top: 8vh; font-size: 1vw""> 
            <font color=""green""> Bonus : $0.7 </font>
            </div>
        </div>
    
        <img class=""stim"" src=./stimuli//pack_shapes/cat_1/ex_1_68.png></img>
    ","null","stimulus","","","","",""
"","","","","","html-keyboard-response","137","147286","0.0-6.0-2.16","60f9739250a5c6f6e4726336","6554bfa13ac4b6a0ab00b03a","6554c895748985a681a5f041","null","
        <div style=""text-align: center; position: fixed; top: 5vh; left: 40vw;"">
            <div style=""margin:0 auto; width: 20vw; top: 8vh; font-size: 1vw""> 
            <font color=""green""> Bonus : $0.7 </font>
            </div>
        </div>
    ","null","","","","","",""
"","","","","","html-keyboard-response","138","147758","0.0-6.0-3.16","60f9739250a5c6f6e4726336","6554bfa13ac4b6a0ab00b03a","6554c895748985a681a5f041","472","./stimuli//pack_shapes/cat_1/ex_1_68.png","arrowleft","response","ArrowLeft","68","1","true",""
"","","","","","html-keyboard-response","139","149259","0.0-6.0-4.16","60f9739250a5c6f6e4726336","6554bfa13ac4b6a0ab00b03a","6554c895748985a681a5f041","null","<p> <font color=""green"" size=""4vw""> Correct category! </font> <br> <br> <font color=""green"" size=""7vw""> + $0.05 </font> </p>","null","feedback","","","","","0.75"
"","","","","","html-keyboard-response","140","149954","0.0-6.0-0.17","60f9739250a5c6f6e4726336","6554bfa13ac4b6a0ab00b03a","6554c895748985a681a5f041","694","
            
        <div style=""text-align: center; position: fixed; top: 5vh; left: 40vw;"">
            <div style=""margin:0 auto; width: 20vw; top: 8vh; font-size: 1vw""> 
            <font color=""green""> Bonus : $0.75 </font>
            </div>
        </div>
    
            <div> Please press any button to continue to the next trial.</div>
        "," ","ITI","","","","",""
"","","","","","html-keyboard-response","141","150556","0.0-6.0-1.17","60f9739250a5c6f6e4726336","6554bfa13ac4b6a0ab00b03a","6554c895748985a681a5f041","null","
        
        <div style=""text-align: center; position: fixed; top: 5vh; left: 40vw;"">
            <div style=""margin:0 auto; width: 20vw; top: 8vh; font-size: 1vw""> 
            <font color=""green""> Bonus : $0.75 </font>
            </div>
        </div>
    
        <img class=""stim"" src=./stimuli//pack_shapes/cat_2/ex_2_53.png></img>
    ","null","stimulus","","","","",""
"","","","","","html-keyboard-response","142","151558","0.0-6.0-2.17","60f9739250a5c6f6e4726336","6554bfa13ac4b6a0ab00b03a","6554c895748985a681a5f041","null","
        <div style=""text-align: center; position: fixed; top: 5vh; left: 40vw;"">
            <div style=""margin:0 auto; width: 20vw; top: 8vh; font-size: 1vw""> 
            <font color=""green""> Bonus : $0.75 </font>
            </div>
        </div>
    ","null","","","","","",""
"","","","","","html-keyboard-response","143","151840","0.0-6.0-3.17","60f9739250a5c6f6e4726336","6554bfa13ac4b6a0ab00b03a","6554c895748985a681a5f041","281","./stimuli//pack_shapes/cat_2/ex_2_53.png","arrowright","response","ArrowRight","53","2","true",""
"","","","","","html-keyboard-response","144","153341","0.0-6.0-4.17","60f9739250a5c6f6e4726336","6554bfa13ac4b6a0ab00b03a","6554c895748985a681a5f041","null","<p> <font color=""green"" size=""4vw""> Correct category! </font> <br> <br> <font color=""green"" size=""7vw""> + $0.05 </font> </p>","null","feedback","","","","","0.8"
"","","","","","html-keyboard-response","145","154099","0.0-6.0-0.18","60f9739250a5c6f6e4726336","6554bfa13ac4b6a0ab00b03a","6554c895748985a681a5f041","757","
            
        <div style=""text-align: center; position: fixed; top: 5vh; left: 40vw;"">
            <div style=""margin:0 auto; width: 20vw; top: 8vh; font-size: 1vw""> 
            <font color=""green""> Bonus : $0.8 </font>
            </div>
        </div>
    
            <div> Please press any button to continue to the next trial.</div>
        "," ","ITI","","","","",""
"","","","","","html-keyboard-response","146","154701","0.0-6.0-1.18","60f9739250a5c6f6e4726336","6554bfa13ac4b6a0ab00b03a","6554c895748985a681a5f041","null","
        
        <div style=""text-align: center; position: fixed; top: 5vh; left: 40vw;"">
            <div style=""margin:0 auto; width: 20vw; top: 8vh; font-size: 1vw""> 
            <font color=""green""> Bonus : $0.8 </font>
            </div>
        </div>
    
        <img class=""stim"" src=./stimuli//pack_shapes/cat_2/ex_2_63.png></img>
    ","null","stimulus","","","","",""
"","","","","","html-keyboard-response","147","155702","0.0-6.0-2.18","60f9739250a5c6f6e4726336","6554bfa13ac4b6a0ab00b03a","6554c895748985a681a5f041","null","
        <div style=""text-align: center; position: fixed; top: 5vh; left: 40vw;"">
            <div style=""margin:0 auto; width: 20vw; top: 8vh; font-size: 1vw""> 
            <font color=""green""> Bonus : $0.8 </font>
            </div>
        </div>
    ","null","","","","","",""
"","","","","","html-keyboard-response","148","155959","0.0-6.0-3.18","60f9739250a5c6f6e4726336","6554bfa13ac4b6a0ab00b03a","6554c895748985a681a5f041","256","./stimuli//pack_shapes/cat_2/ex_2_63.png","arrowright","response","ArrowRight","63","2","true",""
"","","","","","html-keyboard-response","149","157460","0.0-6.0-4.18","60f9739250a5c6f6e4726336","6554bfa13ac4b6a0ab00b03a","6554c895748985a681a5f041","null","<p> <font color=""green"" size=""4vw""> Correct category! </font> <br> <br> <font color=""green"" size=""7vw""> + $0.05 </font> </p>","null","feedback","","","","","0.85"
"","","","","","html-keyboard-response","150","158330","0.0-6.0-0.19","60f9739250a5c6f6e4726336","6554bfa13ac4b6a0ab00b03a","6554c895748985a681a5f041","870","
            
        <div style=""text-align: center; position: fixed; top: 5vh; left: 40vw;"">
            <div style=""margin:0 auto; width: 20vw; top: 8vh; font-size: 1vw""> 
            <font color=""green""> Bonus : $0.85 </font>
            </div>
        </div>
    
            <div> Please press any button to continue to the next trial.</div>
        "," ","ITI","","","","",""
"","","","","","html-keyboard-response","151","158931","0.0-6.0-1.19","60f9739250a5c6f6e4726336","6554bfa13ac4b6a0ab00b03a","6554c895748985a681a5f041","null","
        
        <div style=""text-align: center; position: fixed; top: 5vh; left: 40vw;"">
            <div style=""margin:0 auto; width: 20vw; top: 8vh; font-size: 1vw""> 
            <font color=""green""> Bonus : $0.85 </font>
            </div>
        </div>
    
        <img class=""stim"" src=./stimuli//pack_shapes/cat_1/ex_1_22.png></img>
    ","null","stimulus","","","","",""
"","","","","","html-keyboard-response","152","159933","0.0-6.0-2.19","60f9739250a5c6f6e4726336","6554bfa13ac4b6a0ab00b03a","6554c895748985a681a5f041","null","
        <div style=""text-align: center; position: fixed; top: 5vh; left: 40vw;"">
            <div style=""margin:0 auto; width: 20vw; top: 8vh; font-size: 1vw""> 
            <font color=""green""> Bonus : $0.85 </font>
            </div>
        </div>
    ","null","","","","","",""
"","","","","","html-keyboard-response","153","160359","0.0-6.0-3.19","60f9739250a5c6f6e4726336","6554bfa13ac4b6a0ab00b03a","6554c895748985a681a5f041","425","./stimuli//pack_shapes/cat_1/ex_1_22.png","arrowleft","response","ArrowLeft","22","1","true",""
"","","","","","html-keyboard-response","154","161860","0.0-6.0-4.19","60f9739250a5c6f6e4726336","6554bfa13ac4b6a0ab00b03a","6554c895748985a681a5f041","null","<p> <font color=""green"" size=""4vw""> Correct category! </font> <br> <br> <font color=""green"" size=""7vw""> + $0.05 </font> </p>","null","feedback","","","","","0.9"
"","","","","","html-keyboard-response","155","162793","0.0-6.0-0.20","60f9739250a5c6f6e4726336","6554bfa13ac4b6a0ab00b03a","6554c895748985a681a5f041","932","
            
        <div style=""text-align: center; position: fixed; top: 5vh; left: 40vw;"">
            <div style=""margin:0 auto; width: 20vw; top: 8vh; font-size: 1vw""> 
            <font color=""green""> Bonus : $0.9 </font>
            </div>
        </div>
    
            <div> Please press any button to continue to the next trial.</div>
        "," ","ITI","","","","",""
"","","","","","html-keyboard-response","156","163394","0.0-6.0-1.20","60f9739250a5c6f6e4726336","6554bfa13ac4b6a0ab00b03a","6554c895748985a681a5f041","null","
        
        <div style=""text-align: center; position: fixed; top: 5vh; left: 40vw;"">
            <div style=""margin:0 auto; width: 20vw; top: 8vh; font-size: 1vw""> 
            <font color=""green""> Bonus : $0.9 </font>
            </div>
        </div>
    
        <img class=""stim"" src=./stimuli//pack_shapes/cat_2/ex_2_37.png></img>
    ","null","stimulus","","","","",""
"","","","","","html-keyboard-response","157","164395","0.0-6.0-2.20","60f9739250a5c6f6e4726336","6554bfa13ac4b6a0ab00b03a","6554c895748985a681a5f041","null","
        <div style=""text-align: center; position: fixed; top: 5vh; left: 40vw;"">
            <div style=""margin:0 auto; width: 20vw; top: 8vh; font-size: 1vw""> 
            <font color=""green""> Bonus : $0.9 </font>
            </div>
        </div>
    ","null","","","","","",""
"","","","","","html-keyboard-response","158","164837","0.0-6.0-3.20","60f9739250a5c6f6e4726336","6554bfa13ac4b6a0ab00b03a","6554c895748985a681a5f041","440","./stimuli//pack_shapes/cat_2/ex_2_37.png","arrowright","response","ArrowRight","37","2","true",""
"","","","","","html-keyboard-response","159","166338","0.0-6.0-4.20","60f9739250a5c6f6e4726336","6554bfa13ac4b6a0ab00b03a","6554c895748985a681a5f041","null","<p> <font color=""green"" size=""4vw""> Correct category! </font> <br> <br> <font color=""green"" size=""7vw""> + $0.05 </font> </p>","null","feedback","","","","","0.95"
"","","","","","html-keyboard-response","160","167148","0.0-6.0-0.21","60f9739250a5c6f6e4726336","6554bfa13ac4b6a0ab00b03a","6554c895748985a681a5f041","810","
            
        <div style=""text-align: center; position: fixed; top: 5vh; left: 40vw;"">
            <div style=""margin:0 auto; width: 20vw; top: 8vh; font-size: 1vw""> 
            <font color=""green""> Bonus : $0.95 </font>
            </div>
        </div>
    
            <div> Please press any button to continue to the next trial.</div>
        "," ","ITI","","","","",""
"","","","","","html-keyboard-response","161","167749","0.0-6.0-1.21","60f9739250a5c6f6e4726336","6554bfa13ac4b6a0ab00b03a","6554c895748985a681a5f041","null","
        
        <div style=""text-align: center; position: fixed; top: 5vh; left: 40vw;"">
            <div style=""margin:0 auto; width: 20vw; top: 8vh; font-size: 1vw""> 
            <font color=""green""> Bonus : $0.95 </font>
            </div>
        </div>
    
        <img class=""stim"" src=./stimuli//pack_shapes/cat_2/ex_2_70.png></img>
    ","null","stimulus","","","","",""
"","","","","","html-keyboard-response","162","168751","0.0-6.0-2.21","60f9739250a5c6f6e4726336","6554bfa13ac4b6a0ab00b03a","6554c895748985a681a5f041","null","
        <div style=""text-align: center; position: fixed; top: 5vh; left: 40vw;"">
            <div style=""margin:0 auto; width: 20vw; top: 8vh; font-size: 1vw""> 
            <font color=""green""> Bonus : $0.95 </font>
            </div>
        </div>
    ","null","","","","","",""
"","","","","","html-keyboard-response","163","169010","0.0-6.0-3.21","60f9739250a5c6f6e4726336","6554bfa13ac4b6a0ab00b03a","6554c895748985a681a5f041","258","./stimuli//pack_shapes/cat_2/ex_2_70.png","arrowright","response","ArrowRight","70","2","true",""
"","","","","","html-keyboard-response","164","170512","0.0-6.0-4.21","60f9739250a5c6f6e4726336","6554bfa13ac4b6a0ab00b03a","6554c895748985a681a5f041","null","<p> <font color=""green"" size=""4vw""> Correct category! </font> <br> <br> <font color=""green"" size=""7vw""> + $0.05 </font> </p>","null","feedback","","","","","1"
"","","","","","html-keyboard-response","165","171242","0.0-6.0-0.22","60f9739250a5c6f6e4726336","6554bfa13ac4b6a0ab00b03a","6554c895748985a681a5f041","730","
            
        <div style=""text-align: center; position: fixed; top: 5vh; left: 40vw;"">
            <div style=""margin:0 auto; width: 20vw; top: 8vh; font-size: 1vw""> 
            <font color=""green""> Bonus : $1 </font>
            </div>
        </div>
    
            <div> Please press any button to continue to the next trial.</div>
        "," ","ITI","","","","",""
"","","","","","html-keyboard-response","166","171844","0.0-6.0-1.22","60f9739250a5c6f6e4726336","6554bfa13ac4b6a0ab00b03a","6554c895748985a681a5f041","null","
        
        <div style=""text-align: center; position: fixed; top: 5vh; left: 40vw;"">
            <div style=""margin:0 auto; width: 20vw; top: 8vh; font-size: 1vw""> 
            <font color=""green""> Bonus : $1 </font>
            </div>
        </div>
    
        <img class=""stim"" src=./stimuli//pack_shapes/cat_1/ex_1_63.png></img>
    ","null","stimulus","","","","",""
"","","","","","html-keyboard-response","167","172846","0.0-6.0-2.22","60f9739250a5c6f6e4726336","6554bfa13ac4b6a0ab00b03a","6554c895748985a681a5f041","null","
        <div style=""text-align: center; position: fixed; top: 5vh; left: 40vw;"">
            <div style=""margin:0 auto; width: 20vw; top: 8vh; font-size: 1vw""> 
            <font color=""green""> Bonus : $1 </font>
            </div>
        </div>
    ","null","","","","","",""
"","","","","","html-keyboard-response","168","173088","0.0-6.0-3.22","60f9739250a5c6f6e4726336","6554bfa13ac4b6a0ab00b03a","6554c895748985a681a5f041","242","./stimuli//pack_shapes/cat_1/ex_1_63.png","arrowleft","response","ArrowLeft","63","1","true",""
"","","","","","html-keyboard-response","169","174590","0.0-6.0-4.22","60f9739250a5c6f6e4726336","6554bfa13ac4b6a0ab00b03a","6554c895748985a681a5f041","null","<p> <font color=""green"" size=""4vw""> Correct category! </font> <br> <br> <font color=""green"" size=""7vw""> + $0.05 </font> </p>","null","feedback","","","","","1.05"
"","","","","","html-keyboard-response","170","175505","0.0-6.0-0.23","60f9739250a5c6f6e4726336","6554bfa13ac4b6a0ab00b03a","6554c895748985a681a5f041","915","
            
        <div style=""text-align: center; position: fixed; top: 5vh; left: 40vw;"">
            <div style=""margin:0 auto; width: 20vw; top: 8vh; font-size: 1vw""> 
            <font color=""green""> Bonus : $1.05 </font>
            </div>
        </div>
    
            <div> Please press any button to continue to the next trial.</div>
        ","arrowleft","ITI","","","","",""
"","","","","","html-keyboard-response","171","176106","0.0-6.0-1.23","60f9739250a5c6f6e4726336","6554bfa13ac4b6a0ab00b03a","6554c895748985a681a5f041","null","
        
        <div style=""text-align: center; position: fixed; top: 5vh; left: 40vw;"">
            <div style=""margin:0 auto; width: 20vw; top: 8vh; font-size: 1vw""> 
            <font color=""green""> Bonus : $1.05 </font>
            </div>
        </div>
    
        <img class=""stim"" src=./stimuli//pack_shapes/cat_1/ex_1_64.png></img>
    ","null","stimulus","","","","",""
"","","","","","html-keyboard-response","172","177106","0.0-6.0-2.23","60f9739250a5c6f6e4726336","6554bfa13ac4b6a0ab00b03a","6554c895748985a681a5f041","null","
        <div style=""text-align: center; position: fixed; top: 5vh; left: 40vw;"">
            <div style=""margin:0 auto; width: 20vw; top: 8vh; font-size: 1vw""> 
            <font color=""green""> Bonus : $1.05 </font>
            </div>
        </div>
    ","null","","","","","",""
"","","","","","html-keyboard-response","173","177727","0.0-6.0-3.23","60f9739250a5c6f6e4726336","6554bfa13ac4b6a0ab00b03a","6554c895748985a681a5f041","620","./stimuli//pack_shapes/cat_1/ex_1_64.png","arrowright","response","ArrowLeft","64","1","false",""
"","","","","","html-keyboard-response","174","179229","0.0-6.0-4.23","60f9739250a5c6f6e4726336","6554bfa13ac4b6a0ab00b03a","6554c895748985a681a5f041","null","<p> <font color=""red"" size=""4vw""> Wrong category! </font> </p>","null","feedback","","","","","1.05"
"","","","","","html-keyboard-response","175","179934","0.0-6.0-0.24","60f9739250a5c6f6e4726336","6554bfa13ac4b6a0ab00b03a","6554c895748985a681a5f041","704","
            
        <div style=""text-align: center; position: fixed; top: 5vh; left: 40vw;"">
            <div style=""margin:0 auto; width: 20vw; top: 8vh; font-size: 1vw""> 
            <font color=""green""> Bonus : $1.05 </font>
            </div>
        </div>
    
            <div> Please press any button to continue to the next trial.</div>
        "," ","ITI","","","","",""
"","","","","","html-keyboard-response","176","180536","0.0-6.0-1.24","60f9739250a5c6f6e4726336","6554bfa13ac4b6a0ab00b03a","6554c895748985a681a5f041","null","
        
        <div style=""text-align: center; position: fixed; top: 5vh; left: 40vw;"">
            <div style=""margin:0 auto; width: 20vw; top: 8vh; font-size: 1vw""> 
            <font color=""green""> Bonus : $1.05 </font>
            </div>
        </div>
    
        <img class=""stim"" src=./stimuli//pack_shapes/cat_1/ex_1_12.png></img>
    ","null","stimulus","","","","",""
"","","","","","html-keyboard-response","177","181537","0.0-6.0-2.24","60f9739250a5c6f6e4726336","6554bfa13ac4b6a0ab00b03a","6554c895748985a681a5f041","null","
        <div style=""text-align: center; position: fixed; top: 5vh; left: 40vw;"">
            <div style=""margin:0 auto; width: 20vw; top: 8vh; font-size: 1vw""> 
            <font color=""green""> Bonus : $1.05 </font>
            </div>
        </div>
    ","null","","","","","",""
"","","","","","html-keyboard-response","178","181864","0.0-6.0-3.24","60f9739250a5c6f6e4726336","6554bfa13ac4b6a0ab00b03a","6554c895748985a681a5f041","326","./stimuli//pack_shapes/cat_1/ex_1_12.png","arrowleft","response","ArrowLeft","12","1","true",""
"","","","","","html-keyboard-response","179","183365","0.0-6.0-4.24","60f9739250a5c6f6e4726336","6554bfa13ac4b6a0ab00b03a","6554c895748985a681a5f041","null","<p> <font color=""green"" size=""4vw""> Correct category! </font> <br> <br> <font color=""green"" size=""7vw""> + $0.05 </font> </p>","null","feedback","","","","","1.1"
"","","","","","html-keyboard-response","180","183977","0.0-6.0-0.25","60f9739250a5c6f6e4726336","6554bfa13ac4b6a0ab00b03a","6554c895748985a681a5f041","611","
            
        <div style=""text-align: center; position: fixed; top: 5vh; left: 40vw;"">
            <div style=""margin:0 auto; width: 20vw; top: 8vh; font-size: 1vw""> 
            <font color=""green""> Bonus : $1.1 </font>
            </div>
        </div>
    
            <div> Please press any button to continue to the next trial.</div>
        "," ","ITI","","","","",""
"","","","","","html-keyboard-response","181","184578","0.0-6.0-1.25","60f9739250a5c6f6e4726336","6554bfa13ac4b6a0ab00b03a","6554c895748985a681a5f041","null","
        
        <div style=""text-align: center; position: fixed; top: 5vh; left: 40vw;"">
            <div style=""margin:0 auto; width: 20vw; top: 8vh; font-size: 1vw""> 
            <font color=""green""> Bonus : $1.1 </font>
            </div>
        </div>
    
        <img class=""stim"" src=./stimuli//pack_shapes/cat_2/ex_2_26.png></img>
    ","null","stimulus","","","","",""
"","","","","","html-keyboard-response","182","185580","0.0-6.0-2.25","60f9739250a5c6f6e4726336","6554bfa13ac4b6a0ab00b03a","6554c895748985a681a5f041","null","
        <div style=""text-align: center; position: fixed; top: 5vh; left: 40vw;"">
            <div style=""margin:0 auto; width: 20vw; top: 8vh; font-size: 1vw""> 
            <font color=""green""> Bonus : $1.1 </font>
            </div>
        </div>
    ","null","","","","","",""
"","","","","","html-keyboard-response","183","185884","0.0-6.0-3.25","60f9739250a5c6f6e4726336","6554bfa13ac4b6a0ab00b03a","6554c895748985a681a5f041","303","./stimuli//pack_shapes/cat_2/ex_2_26.png","arrowright","response","ArrowRight","26","2","true",""
"","","","","","html-keyboard-response","184","187385","0.0-6.0-4.25","60f9739250a5c6f6e4726336","6554bfa13ac4b6a0ab00b03a","6554c895748985a681a5f041","null","<p> <font color=""green"" size=""4vw""> Correct category! </font> <br> <br> <font color=""green"" size=""7vw""> + $0.05 </font> </p>","null","feedback","","","","","1.15"
"","","","","","html-keyboard-response","185","187965","0.0-6.0-0.26","60f9739250a5c6f6e4726336","6554bfa13ac4b6a0ab00b03a","6554c895748985a681a5f041","580","
            
        <div style=""text-align: center; position: fixed; top: 5vh; left: 40vw;"">
            <div style=""margin:0 auto; width: 20vw; top: 8vh; font-size: 1vw""> 
            <font color=""green""> Bonus : $1.15 </font>
            </div>
        </div>
    
            <div> Please press any button to continue to the next trial.</div>
        ","arrowleft","ITI","","","","",""
"","","","","","html-keyboard-response","186","188567","0.0-6.0-1.26","60f9739250a5c6f6e4726336","6554bfa13ac4b6a0ab00b03a","6554c895748985a681a5f041","null","
        
        <div style=""text-align: center; position: fixed; top: 5vh; left: 40vw;"">
            <div style=""margin:0 auto; width: 20vw; top: 8vh; font-size: 1vw""> 
            <font color=""green""> Bonus : $1.15 </font>
            </div>
        </div>
    
        <img class=""stim"" src=./stimuli//pack_shapes/cat_1/ex_1_13.png></img>
    ","null","stimulus","","","","",""
"","","","","","html-keyboard-response","187","189568","0.0-6.0-2.26","60f9739250a5c6f6e4726336","6554bfa13ac4b6a0ab00b03a","6554c895748985a681a5f041","null","
        <div style=""text-align: center; position: fixed; top: 5vh; left: 40vw;"">
            <div style=""margin:0 auto; width: 20vw; top: 8vh; font-size: 1vw""> 
            <font color=""green""> Bonus : $1.15 </font>
            </div>
        </div>
    ","null","","","","","",""
"","","","","","html-keyboard-response","188","189836","0.0-6.0-3.26","60f9739250a5c6f6e4726336","6554bfa13ac4b6a0ab00b03a","6554c895748985a681a5f041","267","./stimuli//pack_shapes/cat_1/ex_1_13.png","arrowleft","response","ArrowLeft","13","1","true",""
"","","","","","html-keyboard-response","189","191338","0.0-6.0-4.26","60f9739250a5c6f6e4726336","6554bfa13ac4b6a0ab00b03a","6554c895748985a681a5f041","null","<p> <font color=""green"" size=""4vw""> Correct category! </font> <br> <br> <font color=""green"" size=""7vw""> + $0.05 </font> </p>","null","feedback","","","","","1.2"
"","","","","","html-keyboard-response","190","191966","0.0-6.0-0.27","60f9739250a5c6f6e4726336","6554bfa13ac4b6a0ab00b03a","6554c895748985a681a5f041","628","
            
        <div style=""text-align: center; position: fixed; top: 5vh; left: 40vw;"">
            <div style=""margin:0 auto; width: 20vw; top: 8vh; font-size: 1vw""> 
            <font color=""green""> Bonus : $1.2 </font>
            </div>
        </div>
    
            <div> Please press any button to continue to the next trial.</div>
        ","arrowleft","ITI","","","","",""
"","","","","","html-keyboard-response","191","192568","0.0-6.0-1.27","60f9739250a5c6f6e4726336","6554bfa13ac4b6a0ab00b03a","6554c895748985a681a5f041","null","
        
        <div style=""text-align: center; position: fixed; top: 5vh; left: 40vw;"">
            <div style=""margin:0 auto; width: 20vw; top: 8vh; font-size: 1vw""> 
            <font color=""green""> Bonus : $1.2 </font>
            </div>
        </div>
    
        <img class=""stim"" src=./stimuli//pack_shapes/cat_1/ex_1_62.png></img>
    ","null","stimulus","","","","",""
"","","","","","html-keyboard-response","192","193569","0.0-6.0-2.27","60f9739250a5c6f6e4726336","6554bfa13ac4b6a0ab00b03a","6554c895748985a681a5f041","null","
        <div style=""text-align: center; position: fixed; top: 5vh; left: 40vw;"">
            <div style=""margin:0 auto; width: 20vw; top: 8vh; font-size: 1vw""> 
            <font color=""green""> Bonus : $1.2 </font>
            </div>
        </div>
    ","null","","","","","",""
"","","","","","html-keyboard-response","193","193920","0.0-6.0-3.27","60f9739250a5c6f6e4726336","6554bfa13ac4b6a0ab00b03a","6554c895748985a681a5f041","350","./stimuli//pack_shapes/cat_1/ex_1_62.png","arrowleft","response","ArrowLeft","62","1","true",""
"","","","","","html-keyboard-response","194","195422","0.0-6.0-4.27","60f9739250a5c6f6e4726336","6554bfa13ac4b6a0ab00b03a","6554c895748985a681a5f041","null","<p> <font color=""green"" size=""4vw""> Correct category! </font> <br> <br> <font color=""green"" size=""7vw""> + $0.05 </font> </p>","null","feedback","","","","","1.25"
"","","","","","html-keyboard-response","195","196329","0.0-6.0-0.28","60f9739250a5c6f6e4726336","6554bfa13ac4b6a0ab00b03a","6554c895748985a681a5f041","907","
            
        <div style=""text-align: center; position: fixed; top: 5vh; left: 40vw;"">
            <div style=""margin:0 auto; width: 20vw; top: 8vh; font-size: 1vw""> 
            <font color=""green""> Bonus : $1.25 </font>
            </div>
        </div>
    
            <div> Please press any button to continue to the next trial.</div>
        ","arrowleft","ITI","","","","",""
"","","","","","html-keyboard-response","196","196931","0.0-6.0-1.28","60f9739250a5c6f6e4726336","6554bfa13ac4b6a0ab00b03a","6554c895748985a681a5f041","null","
        
        <div style=""text-align: center; position: fixed; top: 5vh; left: 40vw;"">
            <div style=""margin:0 auto; width: 20vw; top: 8vh; font-size: 1vw""> 
            <font color=""green""> Bonus : $1.25 </font>
            </div>
        </div>
    
        <img class=""stim"" src=./stimuli//pack_shapes/cat_1/ex_1_6.png></img>
    ","null","stimulus","","","","",""
"","","","","","html-keyboard-response","197","197933","0.0-6.0-2.28","60f9739250a5c6f6e4726336","6554bfa13ac4b6a0ab00b03a","6554c895748985a681a5f041","null","
        <div style=""text-align: center; position: fixed; top: 5vh; left: 40vw;"">
            <div style=""margin:0 auto; width: 20vw; top: 8vh; font-size: 1vw""> 
            <font color=""green""> Bonus : $1.25 </font>
            </div>
        </div>
    ","null","","","","","",""
"","","","","","html-keyboard-response","198","198210","0.0-6.0-3.28","60f9739250a5c6f6e4726336","6554bfa13ac4b6a0ab00b03a","6554c895748985a681a5f041","277","./stimuli//pack_shapes/cat_1/ex_1_6.png","arrowleft","response","ArrowLeft","6","1","true",""
"","","","","","html-keyboard-response","199","199712","0.0-6.0-4.28","60f9739250a5c6f6e4726336","6554bfa13ac4b6a0ab00b03a","6554c895748985a681a5f041","null","<p> <font color=""green"" size=""4vw""> Correct category! </font> <br> <br> <font color=""green"" size=""7vw""> + $0.05 </font> </p>","null","feedback","","","","","1.3"
"","","","","","html-keyboard-response","200","200518","0.0-6.0-0.29","60f9739250a5c6f6e4726336","6554bfa13ac4b6a0ab00b03a","6554c895748985a681a5f041","806","
            
        <div style=""text-align: center; position: fixed; top: 5vh; left: 40vw;"">
            <div style=""margin:0 auto; width: 20vw; top: 8vh; font-size: 1vw""> 
            <font color=""green""> Bonus : $1.3 </font>
            </div>
        </div>
    
            <div> Please press any button to continue to the next trial.</div>
        ","arrowleft","ITI","","","","",""
"","","","","","html-keyboard-response","201","201119","0.0-6.0-1.29","60f9739250a5c6f6e4726336","6554bfa13ac4b6a0ab00b03a","6554c895748985a681a5f041","null","
        
        <div style=""text-align: center; position: fixed; top: 5vh; left: 40vw;"">
            <div style=""margin:0 auto; width: 20vw; top: 8vh; font-size: 1vw""> 
            <font color=""green""> Bonus : $1.3 </font>
            </div>
        </div>
    
        <img class=""stim"" src=./stimuli//pack_shapes/cat_2/ex_2_36.png></img>
    ","null","stimulus","","","","",""
"","","","","","html-keyboard-response","202","202121","0.0-6.0-2.29","60f9739250a5c6f6e4726336","6554bfa13ac4b6a0ab00b03a","6554c895748985a681a5f041","null","
        <div style=""text-align: center; position: fixed; top: 5vh; left: 40vw;"">
            <div style=""margin:0 auto; width: 20vw; top: 8vh; font-size: 1vw""> 
            <font color=""green""> Bonus : $1.3 </font>
            </div>
        </div>
    ","null","","","","","",""
"","","","","","html-keyboard-response","203","202477","0.0-6.0-3.29","60f9739250a5c6f6e4726336","6554bfa13ac4b6a0ab00b03a","6554c895748985a681a5f041","356","./stimuli//pack_shapes/cat_2/ex_2_36.png","arrowright","response","ArrowRight","36","2","true",""
"","","","","","html-keyboard-response","204","203979","0.0-6.0-4.29","60f9739250a5c6f6e4726336","6554bfa13ac4b6a0ab00b03a","6554c895748985a681a5f041","null","<p> <font color=""green"" size=""4vw""> Correct category! </font> <br> <br> <font color=""green"" size=""7vw""> + $0.05 </font> </p>","null","feedback","","","","","1.35"
"","","","","","html-keyboard-response","205","204644","0.0-6.0-0.30","60f9739250a5c6f6e4726336","6554bfa13ac4b6a0ab00b03a","6554c895748985a681a5f041","665","
            
        <div style=""text-align: center; position: fixed; top: 5vh; left: 40vw;"">
            <div style=""margin:0 auto; width: 20vw; top: 8vh; font-size: 1vw""> 
            <font color=""green""> Bonus : $1.35 </font>
            </div>
        </div>
    
            <div> Please press any button to continue to the next trial.</div>
        ","arrowleft","ITI","","","","",""
"","","","","","html-keyboard-response","206","205246","0.0-6.0-1.30","60f9739250a5c6f6e4726336","6554bfa13ac4b6a0ab00b03a","6554c895748985a681a5f041","null","
        
        <div style=""text-align: center; position: fixed; top: 5vh; left: 40vw;"">
            <div style=""margin:0 auto; width: 20vw; top: 8vh; font-size: 1vw""> 
            <font color=""green""> Bonus : $1.35 </font>
            </div>
        </div>
    
        <img class=""stim"" src=./stimuli//pack_shapes/cat_2/ex_2_51.png></img>
    ","null","stimulus","","","","",""
"","","","","","html-keyboard-response","207","206247","0.0-6.0-2.30","60f9739250a5c6f6e4726336","6554bfa13ac4b6a0ab00b03a","6554c895748985a681a5f041","null","
        <div style=""text-align: center; position: fixed; top: 5vh; left: 40vw;"">
            <div style=""margin:0 auto; width: 20vw; top: 8vh; font-size: 1vw""> 
            <font color=""green""> Bonus : $1.35 </font>
            </div>
        </div>
    ","null","","","","","",""
"","","","","","html-keyboard-response","208","206553","0.0-6.0-3.30","60f9739250a5c6f6e4726336","6554bfa13ac4b6a0ab00b03a","6554c895748985a681a5f041","305","./stimuli//pack_shapes/cat_2/ex_2_51.png","arrowright","response","ArrowRight","51","2","true",""
"","","","","","html-keyboard-response","209","208054","0.0-6.0-4.30","60f9739250a5c6f6e4726336","6554bfa13ac4b6a0ab00b03a","6554c895748985a681a5f041","null","<p> <font color=""green"" size=""4vw""> Correct category! </font> <br> <br> <font color=""green"" size=""7vw""> + $0.05 </font> </p>","null","feedback","","","","","1.4"
"","","","","","html-keyboard-response","210","208738","0.0-6.0-0.31","60f9739250a5c6f6e4726336","6554bfa13ac4b6a0ab00b03a","6554c895748985a681a5f041","683","
            
        <div style=""text-align: center; position: fixed; top: 5vh; left: 40vw;"">
            <div style=""margin:0 auto; width: 20vw; top: 8vh; font-size: 1vw""> 
            <font color=""green""> Bonus : $1.4 </font>
            </div>
        </div>
    
            <div> Please press any button to continue to the next trial.</div>
        ","arrowright","ITI","","","","",""
"","","","","","html-keyboard-response","211","209339","0.0-6.0-1.31","60f9739250a5c6f6e4726336","6554bfa13ac4b6a0ab00b03a","6554c895748985a681a5f041","null","
        
        <div style=""text-align: center; position: fixed; top: 5vh; left: 40vw;"">
            <div style=""margin:0 auto; width: 20vw; top: 8vh; font-size: 1vw""> 
            <font color=""green""> Bonus : $1.4 </font>
            </div>
        </div>
    
        <img class=""stim"" src=./stimuli//pack_shapes/cat_2/ex_2_33.png></img>
    ","null","stimulus","","","","",""
"","","","","","html-keyboard-response","212","210339","0.0-6.0-2.31","60f9739250a5c6f6e4726336","6554bfa13ac4b6a0ab00b03a","6554c895748985a681a5f041","null","
        <div style=""text-align: center; position: fixed; top: 5vh; left: 40vw;"">
            <div style=""margin:0 auto; width: 20vw; top: 8vh; font-size: 1vw""> 
            <font color=""green""> Bonus : $1.4 </font>
            </div>
        </div>
    ","null","","","","","",""
"","","","","","html-keyboard-response","213","210844","0.0-6.0-3.31","60f9739250a5c6f6e4726336","6554bfa13ac4b6a0ab00b03a","6554c895748985a681a5f041","503","./stimuli//pack_shapes/cat_2/ex_2_33.png","arrowright","response","ArrowRight","33","2","true",""
"","","","","","html-keyboard-response","214","212345","0.0-6.0-4.31","60f9739250a5c6f6e4726336","6554bfa13ac4b6a0ab00b03a","6554c895748985a681a5f041","null","<p> <font color=""green"" size=""4vw""> Correct category! </font> <br> <br> <font color=""green"" size=""7vw""> + $0.05 </font> </p>","null","feedback","","","","","1.45"
"","","","","","html-keyboard-response","215","212812","0.0-6.0-0.32","60f9739250a5c6f6e4726336","6554bfa13ac4b6a0ab00b03a","6554c895748985a681a5f041","466","
            
        <div style=""text-align: center; position: fixed; top: 5vh; left: 40vw;"">
            <div style=""margin:0 auto; width: 20vw; top: 8vh; font-size: 1vw""> 
            <font color=""green""> Bonus : $1.45 </font>
            </div>
        </div>
    
            <div> Please press any button to continue to the next trial.</div>
        ","arrowleft","ITI","","","","",""
"","","","","","html-keyboard-response","216","213413","0.0-6.0-1.32","60f9739250a5c6f6e4726336","6554bfa13ac4b6a0ab00b03a","6554c895748985a681a5f041","null","
        
        <div style=""text-align: center; position: fixed; top: 5vh; left: 40vw;"">
            <div style=""margin:0 auto; width: 20vw; top: 8vh; font-size: 1vw""> 
            <font color=""green""> Bonus : $1.45 </font>
            </div>
        </div>
    
        <img class=""stim"" src=./stimuli//pack_shapes/cat_1/ex_1_14.png></img>
    ","null","stimulus","","","","",""
"","","","","","html-keyboard-response","217","214415","0.0-6.0-2.32","60f9739250a5c6f6e4726336","6554bfa13ac4b6a0ab00b03a","6554c895748985a681a5f041","null","
        <div style=""text-align: center; position: fixed; top: 5vh; left: 40vw;"">
            <div style=""margin:0 auto; width: 20vw; top: 8vh; font-size: 1vw""> 
            <font color=""green""> Bonus : $1.45 </font>
            </div>
        </div>
    ","null","","","","","",""
"","","","","","html-keyboard-response","218","214694","0.0-6.0-3.32","60f9739250a5c6f6e4726336","6554bfa13ac4b6a0ab00b03a","6554c895748985a681a5f041","278","./stimuli//pack_shapes/cat_1/ex_1_14.png","arrowleft","response","ArrowLeft","14","1","true",""
"","","","","","html-keyboard-response","219","216196","0.0-6.0-4.32","60f9739250a5c6f6e4726336","6554bfa13ac4b6a0ab00b03a","6554c895748985a681a5f041","null","<p> <font color=""green"" size=""4vw""> Correct category! </font> <br> <br> <font color=""green"" size=""7vw""> + $0.05 </font> </p>","null","feedback","","","","","1.5"
"","","","","","html-keyboard-response","220","216634","0.0-6.0-0.33","60f9739250a5c6f6e4726336","6554bfa13ac4b6a0ab00b03a","6554c895748985a681a5f041","437","
            
        <div style=""text-align: center; position: fixed; top: 5vh; left: 40vw;"">
            <div style=""margin:0 auto; width: 20vw; top: 8vh; font-size: 1vw""> 
            <font color=""green""> Bonus : $1.5 </font>
            </div>
        </div>
    
            <div> Please press any button to continue to the next trial.</div>
        ","arrowleft","ITI","","","","",""
"","","","","","html-keyboard-response","221","217235","0.0-6.0-1.33","60f9739250a5c6f6e4726336","6554bfa13ac4b6a0ab00b03a","6554c895748985a681a5f041","null","
        
        <div style=""text-align: center; position: fixed; top: 5vh; left: 40vw;"">
            <div style=""margin:0 auto; width: 20vw; top: 8vh; font-size: 1vw""> 
            <font color=""green""> Bonus : $1.5 </font>
            </div>
        </div>
    
        <img class=""stim"" src=./stimuli//pack_shapes/cat_1/ex_1_8.png></img>
    ","null","stimulus","","","","",""
"","","","","","html-keyboard-response","222","218236","0.0-6.0-2.33","60f9739250a5c6f6e4726336","6554bfa13ac4b6a0ab00b03a","6554c895748985a681a5f041","null","
        <div style=""text-align: center; position: fixed; top: 5vh; left: 40vw;"">
            <div style=""margin:0 auto; width: 20vw; top: 8vh; font-size: 1vw""> 
            <font color=""green""> Bonus : $1.5 </font>
            </div>
        </div>
    ","null","","","","","",""
"","","","","","html-keyboard-response","223","218482","0.0-6.0-3.33","60f9739250a5c6f6e4726336","6554bfa13ac4b6a0ab00b03a","6554c895748985a681a5f041","245","./stimuli//pack_shapes/cat_1/ex_1_8.png","arrowleft","response","ArrowLeft","8","1","true",""
"","","","","","html-keyboard-response","224","219984","0.0-6.0-4.33","60f9739250a5c6f6e4726336","6554bfa13ac4b6a0ab00b03a","6554c895748985a681a5f041","null","<p> <font color=""green"" size=""4vw""> Correct category! </font> <br> <br> <font color=""green"" size=""7vw""> + $0.05 </font> </p>","null","feedback","","","","","1.55"
"","","","","","html-keyboard-response","225","220537","0.0-6.0-0.34","60f9739250a5c6f6e4726336","6554bfa13ac4b6a0ab00b03a","6554c895748985a681a5f041","552","
            
        <div style=""text-align: center; position: fixed; top: 5vh; left: 40vw;"">
            <div style=""margin:0 auto; width: 20vw; top: 8vh; font-size: 1vw""> 
            <font color=""green""> Bonus : $1.55 </font>
            </div>
        </div>
    
            <div> Please press any button to continue to the next trial.</div>
        ","arrowleft","ITI","","","","",""
"","","","","","html-keyboard-response","226","221138","0.0-6.0-1.34","60f9739250a5c6f6e4726336","6554bfa13ac4b6a0ab00b03a","6554c895748985a681a5f041","null","
        
        <div style=""text-align: center; position: fixed; top: 5vh; left: 40vw;"">
            <div style=""margin:0 auto; width: 20vw; top: 8vh; font-size: 1vw""> 
            <font color=""green""> Bonus : $1.55 </font>
            </div>
        </div>
    
        <img class=""stim"" src=./stimuli//pack_shapes/cat_2/ex_2_77.png></img>
    ","null","stimulus","","","","",""
"","","","","","html-keyboard-response","227","222139","0.0-6.0-2.34","60f9739250a5c6f6e4726336","6554bfa13ac4b6a0ab00b03a","6554c895748985a681a5f041","null","
        <div style=""text-align: center; position: fixed; top: 5vh; left: 40vw;"">
            <div style=""margin:0 auto; width: 20vw; top: 8vh; font-size: 1vw""> 
            <font color=""green""> Bonus : $1.55 </font>
            </div>
        </div>
    ","null","","","","","",""
"","","","","","html-keyboard-response","228","222508","0.0-6.0-3.34","60f9739250a5c6f6e4726336","6554bfa13ac4b6a0ab00b03a","6554c895748985a681a5f041","367","./stimuli//pack_shapes/cat_2/ex_2_77.png","arrowright","response","ArrowRight","77","2","true",""
"","","","","","html-keyboard-response","229","224009","0.0-6.0-4.34","60f9739250a5c6f6e4726336","6554bfa13ac4b6a0ab00b03a","6554c895748985a681a5f041","null","<p> <font color=""green"" size=""4vw""> Correct category! </font> <br> <br> <font color=""green"" size=""7vw""> + $0.05 </font> </p>","null","feedback","","","","","1.6"
"","","","","","html-keyboard-response","230","224605","0.0-6.0-0.35","60f9739250a5c6f6e4726336","6554bfa13ac4b6a0ab00b03a","6554c895748985a681a5f041","595","
            
        <div style=""text-align: center; position: fixed; top: 5vh; left: 40vw;"">
            <div style=""margin:0 auto; width: 20vw; top: 8vh; font-size: 1vw""> 
            <font color=""green""> Bonus : $1.6 </font>
            </div>
        </div>
    
            <div> Please press any button to continue to the next trial.</div>
        ","arrowleft","ITI","","","","",""
"","","","","","html-keyboard-response","231","225206","0.0-6.0-1.35","60f9739250a5c6f6e4726336","6554bfa13ac4b6a0ab00b03a","6554c895748985a681a5f041","null","
        
        <div style=""text-align: center; position: fixed; top: 5vh; left: 40vw;"">
            <div style=""margin:0 auto; width: 20vw; top: 8vh; font-size: 1vw""> 
            <font color=""green""> Bonus : $1.6 </font>
            </div>
        </div>
    
        <img class=""stim"" src=./stimuli//pack_shapes/cat_1/ex_1_74.png></img>
    ","null","stimulus","","","","",""
"","","","","","html-keyboard-response","232","226207","0.0-6.0-2.35","60f9739250a5c6f6e4726336","6554bfa13ac4b6a0ab00b03a","6554c895748985a681a5f041","null","
        <div style=""text-align: center; position: fixed; top: 5vh; left: 40vw;"">
            <div style=""margin:0 auto; width: 20vw; top: 8vh; font-size: 1vw""> 
            <font color=""green""> Bonus : $1.6 </font>
            </div>
        </div>
    ","null","","","","","",""
"","","","","","html-keyboard-response","233","226633","0.0-6.0-3.35","60f9739250a5c6f6e4726336","6554bfa13ac4b6a0ab00b03a","6554c895748985a681a5f041","425","./stimuli//pack_shapes/cat_1/ex_1_74.png","arrowright","response","ArrowLeft","74","1","false",""
"","","","","","html-keyboard-response","234","228135","0.0-6.0-4.35","60f9739250a5c6f6e4726336","6554bfa13ac4b6a0ab00b03a","6554c895748985a681a5f041","null","<p> <font color=""red"" size=""4vw""> Wrong category! </font> </p>","null","feedback","","","","","1.6"
"","","","","","html-keyboard-response","235","228486","0.0-6.0-0.36","60f9739250a5c6f6e4726336","6554bfa13ac4b6a0ab00b03a","6554c895748985a681a5f041","350","
            
        <div style=""text-align: center; position: fixed; top: 5vh; left: 40vw;"">
            <div style=""margin:0 auto; width: 20vw; top: 8vh; font-size: 1vw""> 
            <font color=""green""> Bonus : $1.6 </font>
            </div>
        </div>
    
            <div> Please press any button to continue to the next trial.</div>
        ","arrowleft","ITI","","","","",""
"","","","","","html-keyboard-response","236","229088","0.0-6.0-1.36","60f9739250a5c6f6e4726336","6554bfa13ac4b6a0ab00b03a","6554c895748985a681a5f041","null","
        
        <div style=""text-align: center; position: fixed; top: 5vh; left: 40vw;"">
            <div style=""margin:0 auto; width: 20vw; top: 8vh; font-size: 1vw""> 
