"success","timeout","failed_images","failed_audio","failed_video","trial_type","trial_index","time_elapsed","internal_node_id","subject_id","study_id","session_id","rt","stimulus","response","task","correct_response","exemplar_ID","category","correct","bonus"
"true","false","[]","[]","[]","preload","0","2","0.0-0.0","60f43127b2b2e32120869426","6554bfa13ac4b6a0ab00b03a","6554c743bae3c001856b3909","","","","","","","","",""
"","","","","","html-keyboard-response","1","28928","0.0-1.0","60f43127b2b2e32120869426","6554bfa13ac4b6a0ab00b03a","6554c743bae3c001856b3909","28925","Welcome to the Category Learning experiment! Press any key to continue."," ","welcome","","","","",""
"","","","","","html-keyboard-response","2","40529","0.0-2.0","60f43127b2b2e32120869426","6554bfa13ac4b6a0ab00b03a","6554c743bae3c001856b3909","11600","
            <p>You will be shown images of black shapes.  Some are category A, some are category B.
            <br>You will not know in advance which category a specific shape belongs to.</p>
            <p>After you see an image, you will be asked to guess its category <b>(left arrow for category A, right arrow for category B)</b></p>
            <p>After you choose, the screen will show you whether you were correct or not.</p>
            <p><b>You will receive a bonus payment of $0.05 for each correct answer!</b></p>
            <p> So you can increase your bonus by guessing correctly, and by guessing as quickly as possible so you move on to the next image sooner.</p>
            <p>Press any key to continue.</p>
            "," ","introduction_1","","","","",""
"","","","","","html-keyboard-response","3","43192","0.0-3.0","60f43127b2b2e32120869426","6554bfa13ac4b6a0ab00b03a","6554c743bae3c001856b3909","2663","
            <p> <b>The first 10 trials are a practice round that will not count towards your bonus payment.</b></p>
            <p> You will be notified when practice finishes and the test begins. </p>
            <p> Press any key to begin the practice round.</p>
            "," ","introduction_2","","","","",""
"","","","","","html-keyboard-response","4","46569","0.0-4.0-0.0","60f43127b2b2e32120869426","6554bfa13ac4b6a0ab00b03a","6554c743bae3c001856b3909","3376","
            
        <div style=""text-align: center; position: fixed; top: 5vh; left: 40vw;"">
            <div style=""margin:0 auto; width: 20vw; top: 8vh; font-size: 1vw""> 
            <font color=""green""> Bonus : $0 </font>
            </div>
        </div>
    
            <div> Please press any button to continue to the next trial.</div>
        "," ","ITI","","","","",""
"","","","","","html-keyboard-response","5","47175","0.0-4.0-1.0","60f43127b2b2e32120869426","6554bfa13ac4b6a0ab00b03a","6554c743bae3c001856b3909","null","
        
        <div style=""text-align: center; position: fixed; top: 5vh; left: 40vw;"">
            <div style=""margin:0 auto; width: 20vw; top: 8vh; font-size: 1vw""> 
            <font color=""green""> Bonus : $0 </font>
            </div>
        </div>
    
        <img class=""stim"" src=./stimuli//pack_shapes/cat_1/ex_1_39.png></img>
    ","null","stimulus","","","","",""
"","","","","","html-keyboard-response","6","48189","0.0-4.0-2.0","60f43127b2b2e32120869426","6554bfa13ac4b6a0ab00b03a","6554c743bae3c001856b3909","null","
        <div style=""text-align: center; position: fixed; top: 5vh; left: 40vw;"">
            <div style=""margin:0 auto; width: 20vw; top: 8vh; font-size: 1vw""> 
            <font color=""green""> Bonus : $0 </font>
            </div>
        </div>
    ","null","","","","","",""
"","","","","","html-keyboard-response","7","49448","0.0-4.0-3.0","60f43127b2b2e32120869426","6554bfa13ac4b6a0ab00b03a","6554c743bae3c001856b3909","1258","./stimuli//pack_shapes/cat_1/ex_1_39.png","arrowleft","response","ArrowLeft","39","1","true",""
"","","","","","html-keyboard-response","8","50956","0.0-4.0-4.0","60f43127b2b2e32120869426","6554bfa13ac4b6a0ab00b03a","6554c743bae3c001856b3909","null","<p> <font color=""green"" size=""4vw""> Correct category! </font> </p>","null","feedback","","","","","0"
"","","","","","html-keyboard-response","9","53616","0.0-4.0-0.1","60f43127b2b2e32120869426","6554bfa13ac4b6a0ab00b03a","6554c743bae3c001856b3909","2660","
            
        <div style=""text-align: center; position: fixed; top: 5vh; left: 40vw;"">
            <div style=""margin:0 auto; width: 20vw; top: 8vh; font-size: 1vw""> 
            <font color=""green""> Bonus : $0 </font>
            </div>
        </div>
    
            <div> Please press any button to continue to the next trial.</div>
        "," ","ITI","","","","",""
"","","","","","html-keyboard-response","10","54221","0.0-4.0-1.1","60f43127b2b2e32120869426","6554bfa13ac4b6a0ab00b03a","6554c743bae3c001856b3909","null","
        
        <div style=""text-align: center; position: fixed; top: 5vh; left: 40vw;"">
            <div style=""margin:0 auto; width: 20vw; top: 8vh; font-size: 1vw""> 
            <font color=""green""> Bonus : $0 </font>
            </div>
        </div>
    
        <img class=""stim"" src=./stimuli//pack_shapes/cat_1/ex_1_49.png></img>
    ","null","stimulus","","","","",""
"","","","","","html-keyboard-response","11","55233","0.0-4.0-2.1","60f43127b2b2e32120869426","6554bfa13ac4b6a0ab00b03a","6554c743bae3c001856b3909","null","
        <div style=""text-align: center; position: fixed; top: 5vh; left: 40vw;"">
            <div style=""margin:0 auto; width: 20vw; top: 8vh; font-size: 1vw""> 
            <font color=""green""> Bonus : $0 </font>
            </div>
        </div>
    ","null","","","","","",""
"","","","","","html-keyboard-response","12","57192","0.0-4.0-3.1","60f43127b2b2e32120869426","6554bfa13ac4b6a0ab00b03a","6554c743bae3c001856b3909","1958","./stimuli//pack_shapes/cat_1/ex_1_49.png","arrowright","response","ArrowLeft","49","1","false",""
"","","","","","html-keyboard-response","13","58697","0.0-4.0-4.1","60f43127b2b2e32120869426","6554bfa13ac4b6a0ab00b03a","6554c743bae3c001856b3909","null","<p> <font color=""red"" size=""4vw""> Wrong category! </font> </p>","null","feedback","","","","","0"
"","","","","","html-keyboard-response","14","59944","0.0-4.0-0.2","60f43127b2b2e32120869426","6554bfa13ac4b6a0ab00b03a","6554c743bae3c001856b3909","1247","
            
        <div style=""text-align: center; position: fixed; top: 5vh; left: 40vw;"">
            <div style=""margin:0 auto; width: 20vw; top: 8vh; font-size: 1vw""> 
            <font color=""green""> Bonus : $0 </font>
            </div>
        </div>
    
            <div> Please press any button to continue to the next trial.</div>
        "," ","ITI","","","","",""
"","","","","","html-keyboard-response","15","60552","0.0-4.0-1.2","60f43127b2b2e32120869426","6554bfa13ac4b6a0ab00b03a","6554c743bae3c001856b3909","null","
        
        <div style=""text-align: center; position: fixed; top: 5vh; left: 40vw;"">
            <div style=""margin:0 auto; width: 20vw; top: 8vh; font-size: 1vw""> 
            <font color=""green""> Bonus : $0 </font>
            </div>
        </div>
    
        <img class=""stim"" src=./stimuli//pack_shapes/cat_2/ex_2_49.png></img>
    ","null","stimulus","","","","",""
"","","","","","html-keyboard-response","16","61566","0.0-4.0-2.2","60f43127b2b2e32120869426","6554bfa13ac4b6a0ab00b03a","6554c743bae3c001856b3909","null","
        <div style=""text-align: center; position: fixed; top: 5vh; left: 40vw;"">
            <div style=""margin:0 auto; width: 20vw; top: 8vh; font-size: 1vw""> 
            <font color=""green""> Bonus : $0 </font>
            </div>
        </div>
    ","null","","","","","",""
"","","","","","html-keyboard-response","17","61968","0.0-4.0-3.2","60f43127b2b2e32120869426","6554bfa13ac4b6a0ab00b03a","6554c743bae3c001856b3909","402","./stimuli//pack_shapes/cat_2/ex_2_49.png","arrowleft","response","ArrowRight","49","2","false",""
"","","","","","html-keyboard-response","18","63471","0.0-4.0-4.2","60f43127b2b2e32120869426","6554bfa13ac4b6a0ab00b03a","6554c743bae3c001856b3909","null","<p> <font color=""red"" size=""4vw""> Wrong category! </font> </p>","null","feedback","","","","","0"
"","","","","","html-keyboard-response","19","64432","0.0-4.0-0.3","60f43127b2b2e32120869426","6554bfa13ac4b6a0ab00b03a","6554c743bae3c001856b3909","961","
            
        <div style=""text-align: center; position: fixed; top: 5vh; left: 40vw;"">
            <div style=""margin:0 auto; width: 20vw; top: 8vh; font-size: 1vw""> 
            <font color=""green""> Bonus : $0 </font>
            </div>
        </div>
    
            <div> Please press any button to continue to the next trial.</div>
        "," ","ITI","","","","",""
"","","","","","html-keyboard-response","20","65049","0.0-4.0-1.3","60f43127b2b2e32120869426","6554bfa13ac4b6a0ab00b03a","6554c743bae3c001856b3909","null","
        
        <div style=""text-align: center; position: fixed; top: 5vh; left: 40vw;"">
            <div style=""margin:0 auto; width: 20vw; top: 8vh; font-size: 1vw""> 
            <font color=""green""> Bonus : $0 </font>
            </div>
        </div>
    
        <img class=""stim"" src=./stimuli//pack_shapes/cat_2/ex_2_39.png></img>
    ","null","stimulus","","","","",""
"","","","","","html-keyboard-response","21","66061","0.0-4.0-2.3","60f43127b2b2e32120869426","6554bfa13ac4b6a0ab00b03a","6554c743bae3c001856b3909","null","
        <div style=""text-align: center; position: fixed; top: 5vh; left: 40vw;"">
            <div style=""margin:0 auto; width: 20vw; top: 8vh; font-size: 1vw""> 
            <font color=""green""> Bonus : $0 </font>
            </div>
        </div>
    ","null","","","","","",""
"","","","","","html-keyboard-response","22","66344","0.0-4.0-3.3","60f43127b2b2e32120869426","6554bfa13ac4b6a0ab00b03a","6554c743bae3c001856b3909","283","./stimuli//pack_shapes/cat_2/ex_2_39.png","arrowright","response","ArrowRight","39","2","true",""
"","","","","","html-keyboard-response","23","67854","0.0-4.0-4.3","60f43127b2b2e32120869426","6554bfa13ac4b6a0ab00b03a","6554c743bae3c001856b3909","null","<p> <font color=""green"" size=""4vw""> Correct category! </font> </p>","null","feedback","","","","","0"
"","","","","","html-keyboard-response","24","68632","0.0-4.0-0.4","60f43127b2b2e32120869426","6554bfa13ac4b6a0ab00b03a","6554c743bae3c001856b3909","778","
            
        <div style=""text-align: center; position: fixed; top: 5vh; left: 40vw;"">
            <div style=""margin:0 auto; width: 20vw; top: 8vh; font-size: 1vw""> 
            <font color=""green""> Bonus : $0 </font>
            </div>
        </div>
    
            <div> Please press any button to continue to the next trial.</div>
        "," ","ITI","","","","",""
"","","","","","html-keyboard-response","25","69242","0.0-4.0-1.4","60f43127b2b2e32120869426","6554bfa13ac4b6a0ab00b03a","6554c743bae3c001856b3909","null","
        
        <div style=""text-align: center; position: fixed; top: 5vh; left: 40vw;"">
            <div style=""margin:0 auto; width: 20vw; top: 8vh; font-size: 1vw""> 
            <font color=""green""> Bonus : $0 </font>
            </div>
        </div>
    
        <img class=""stim"" src=./stimuli//pack_shapes/cat_1/ex_1_3.png></img>
    ","null","stimulus","","","","",""
"","","","","","html-keyboard-response","26","70256","0.0-4.0-2.4","60f43127b2b2e32120869426","6554bfa13ac4b6a0ab00b03a","6554c743bae3c001856b3909","null","
        <div style=""text-align: center; position: fixed; top: 5vh; left: 40vw;"">
            <div style=""margin:0 auto; width: 20vw; top: 8vh; font-size: 1vw""> 
            <font color=""green""> Bonus : $0 </font>
            </div>
        </div>
    ","null","","","","","",""
"","","","","","html-keyboard-response","27","70592","0.0-4.0-3.4","60f43127b2b2e32120869426","6554bfa13ac4b6a0ab00b03a","6554c743bae3c001856b3909","335","./stimuli//pack_shapes/cat_1/ex_1_3.png","arrowright","response","ArrowLeft","3","1","false",""
"","","","","","html-keyboard-response","28","72094","0.0-4.0-4.4","60f43127b2b2e32120869426","6554bfa13ac4b6a0ab00b03a","6554c743bae3c001856b3909","null","<p> <font color=""red"" size=""4vw""> Wrong category! </font> </p>","null","feedback","","","","","0"
"","","","","","html-keyboard-response","29","73003","0.0-4.0-0.5","60f43127b2b2e32120869426","6554bfa13ac4b6a0ab00b03a","6554c743bae3c001856b3909","909","
            
        <div style=""text-align: center; position: fixed; top: 5vh; left: 40vw;"">
            <div style=""margin:0 auto; width: 20vw; top: 8vh; font-size: 1vw""> 
            <font color=""green""> Bonus : $0 </font>
            </div>
        </div>
    
            <div> Please press any button to continue to the next trial.</div>
        "," ","ITI","","","","",""
"","","","","","html-keyboard-response","30","73605","0.0-4.0-1.5","60f43127b2b2e32120869426","6554bfa13ac4b6a0ab00b03a","6554c743bae3c001856b3909","null","
        
        <div style=""text-align: center; position: fixed; top: 5vh; left: 40vw;"">
            <div style=""margin:0 auto; width: 20vw; top: 8vh; font-size: 1vw""> 
            <font color=""green""> Bonus : $0 </font>
            </div>
        </div>
    
        <img class=""stim"" src=./stimuli//pack_shapes/cat_2/ex_2_8.png></img>
    ","null","stimulus","","","","",""
"","","","","","html-keyboard-response","31","74609","0.0-4.0-2.5","60f43127b2b2e32120869426","6554bfa13ac4b6a0ab00b03a","6554c743bae3c001856b3909","null","
        <div style=""text-align: center; position: fixed; top: 5vh; left: 40vw;"">
            <div style=""margin:0 auto; width: 20vw; top: 8vh; font-size: 1vw""> 
            <font color=""green""> Bonus : $0 </font>
            </div>
        </div>
    ","null","","","","","",""
"","","","","","html-keyboard-response","32","74856","0.0-4.0-3.5","60f43127b2b2e32120869426","6554bfa13ac4b6a0ab00b03a","6554c743bae3c001856b3909","247","./stimuli//pack_shapes/cat_2/ex_2_8.png","arrowright","response","ArrowRight","8","2","true",""
"","","","","","html-keyboard-response","33","76362","0.0-4.0-4.5","60f43127b2b2e32120869426","6554bfa13ac4b6a0ab00b03a","6554c743bae3c001856b3909","null","<p> <font color=""green"" size=""4vw""> Correct category! </font> </p>","null","feedback","","","","","0"
"","","","","","html-keyboard-response","34","77607","0.0-4.0-0.6","60f43127b2b2e32120869426","6554bfa13ac4b6a0ab00b03a","6554c743bae3c001856b3909","1245","
            
        <div style=""text-align: center; position: fixed; top: 5vh; left: 40vw;"">
            <div style=""margin:0 auto; width: 20vw; top: 8vh; font-size: 1vw""> 
            <font color=""green""> Bonus : $0 </font>
            </div>
        </div>
    
            <div> Please press any button to continue to the next trial.</div>
        "," ","ITI","","","","",""
"","","","","","html-keyboard-response","35","78218","0.0-4.0-1.6","60f43127b2b2e32120869426","6554bfa13ac4b6a0ab00b03a","6554c743bae3c001856b3909","null","
        
        <div style=""text-align: center; position: fixed; top: 5vh; left: 40vw;"">
            <div style=""margin:0 auto; width: 20vw; top: 8vh; font-size: 1vw""> 
            <font color=""green""> Bonus : $0 </font>
            </div>
        </div>
    
        <img class=""stim"" src=./stimuli//pack_shapes/cat_2/ex_2_29.png></img>
    ","null","stimulus","","","","",""
"","","","","","html-keyboard-response","36","79231","0.0-4.0-2.6","60f43127b2b2e32120869426","6554bfa13ac4b6a0ab00b03a","6554c743bae3c001856b3909","null","
        <div style=""text-align: center; position: fixed; top: 5vh; left: 40vw;"">
            <div style=""margin:0 auto; width: 20vw; top: 8vh; font-size: 1vw""> 
            <font color=""green""> Bonus : $0 </font>
            </div>
        </div>
    ","null","","","","","",""
"","","","","","html-keyboard-response","37","79439","0.0-4.0-3.6","60f43127b2b2e32120869426","6554bfa13ac4b6a0ab00b03a","6554c743bae3c001856b3909","208","./stimuli//pack_shapes/cat_2/ex_2_29.png","arrowright","response","ArrowRight","29","2","true",""
"","","","","","html-keyboard-response","38","80943","0.0-4.0-4.6","60f43127b2b2e32120869426","6554bfa13ac4b6a0ab00b03a","6554c743bae3c001856b3909","null","<p> <font color=""green"" size=""4vw""> Correct category! </font> </p>","null","feedback","","","","","0"
"","","","","","html-keyboard-response","39","82072","0.0-4.0-0.7","60f43127b2b2e32120869426","6554bfa13ac4b6a0ab00b03a","6554c743bae3c001856b3909","1128","
            
        <div style=""text-align: center; position: fixed; top: 5vh; left: 40vw;"">
            <div style=""margin:0 auto; width: 20vw; top: 8vh; font-size: 1vw""> 
            <font color=""green""> Bonus : $0 </font>
            </div>
        </div>
    
            <div> Please press any button to continue to the next trial.</div>
        "," ","ITI","","","","",""
"","","","","","html-keyboard-response","40","82676","0.0-4.0-1.7","60f43127b2b2e32120869426","6554bfa13ac4b6a0ab00b03a","6554c743bae3c001856b3909","null","
        
        <div style=""text-align: center; position: fixed; top: 5vh; left: 40vw;"">
            <div style=""margin:0 auto; width: 20vw; top: 8vh; font-size: 1vw""> 
            <font color=""green""> Bonus : $0 </font>
            </div>
        </div>
    
        <img class=""stim"" src=./stimuli//pack_shapes/cat_1/ex_1_75.png></img>
    ","null","stimulus","","","","",""
"","","","","","html-keyboard-response","41","83680","0.0-4.0-2.7","60f43127b2b2e32120869426","6554bfa13ac4b6a0ab00b03a","6554c743bae3c001856b3909","null","
        <div style=""text-align: center; position: fixed; top: 5vh; left: 40vw;"">
            <div style=""margin:0 auto; width: 20vw; top: 8vh; font-size: 1vw""> 
            <font color=""green""> Bonus : $0 </font>
            </div>
        </div>
    ","null","","","","","",""
"","","","","","html-keyboard-response","42","83896","0.0-4.0-3.7","60f43127b2b2e32120869426","6554bfa13ac4b6a0ab00b03a","6554c743bae3c001856b3909","215","./stimuli//pack_shapes/cat_1/ex_1_75.png","arrowright","response","ArrowLeft","75","1","false",""
"","","","","","html-keyboard-response","43","85404","0.0-4.0-4.7","60f43127b2b2e32120869426","6554bfa13ac4b6a0ab00b03a","6554c743bae3c001856b3909","null","<p> <font color=""red"" size=""4vw""> Wrong category! </font> </p>","null","feedback","","","","","0"
"","","","","","html-keyboard-response","44","86360","0.0-4.0-0.8","60f43127b2b2e32120869426","6554bfa13ac4b6a0ab00b03a","6554c743bae3c001856b3909","956","
            
        <div style=""text-align: center; position: fixed; top: 5vh; left: 40vw;"">
            <div style=""margin:0 auto; width: 20vw; top: 8vh; font-size: 1vw""> 
            <font color=""green""> Bonus : $0 </font>
            </div>
        </div>
    
            <div> Please press any button to continue to the next trial.</div>
        "," ","ITI","","","","",""
"","","","","","html-keyboard-response","45","86964","0.0-4.0-1.8","60f43127b2b2e32120869426","6554bfa13ac4b6a0ab00b03a","6554c743bae3c001856b3909","null","
        
        <div style=""text-align: center; position: fixed; top: 5vh; left: 40vw;"">
            <div style=""margin:0 auto; width: 20vw; top: 8vh; font-size: 1vw""> 
            <font color=""green""> Bonus : $0 </font>
            </div>
        </div>
    
        <img class=""stim"" src=./stimuli//pack_shapes/cat_1/ex_1_29.png></img>
    ","null","stimulus","","","","",""
"","","","","","html-keyboard-response","46","87972","0.0-4.0-2.8","60f43127b2b2e32120869426","6554bfa13ac4b6a0ab00b03a","6554c743bae3c001856b3909","null","
        <div style=""text-align: center; position: fixed; top: 5vh; left: 40vw;"">
            <div style=""margin:0 auto; width: 20vw; top: 8vh; font-size: 1vw""> 
            <font color=""green""> Bonus : $0 </font>
            </div>
        </div>
    ","null","","","","","",""
"","","","","","html-keyboard-response","47","88168","0.0-4.0-3.8","60f43127b2b2e32120869426","6554bfa13ac4b6a0ab00b03a","6554c743bae3c001856b3909","195","./stimuli//pack_shapes/cat_1/ex_1_29.png","arrowleft","response","ArrowLeft","29","1","true",""
"","","","","","html-keyboard-response","48","89670","0.0-4.0-4.8","60f43127b2b2e32120869426","6554bfa13ac4b6a0ab00b03a","6554c743bae3c001856b3909","null","<p> <font color=""green"" size=""4vw""> Correct category! </font> </p>","null","feedback","","","","","0"
"","","","","","html-keyboard-response","49","90944","0.0-4.0-0.9","60f43127b2b2e32120869426","6554bfa13ac4b6a0ab00b03a","6554c743bae3c001856b3909","1274","
            
        <div style=""text-align: center; position: fixed; top: 5vh; left: 40vw;"">
            <div style=""margin:0 auto; width: 20vw; top: 8vh; font-size: 1vw""> 
            <font color=""green""> Bonus : $0 </font>
            </div>
        </div>
    
            <div> Please press any button to continue to the next trial.</div>
        "," ","ITI","","","","",""
"","","","","","html-keyboard-response","50","91556","0.0-4.0-1.9","60f43127b2b2e32120869426","6554bfa13ac4b6a0ab00b03a","6554c743bae3c001856b3909","null","
        
        <div style=""text-align: center; position: fixed; top: 5vh; left: 40vw;"">
            <div style=""margin:0 auto; width: 20vw; top: 8vh; font-size: 1vw""> 
            <font color=""green""> Bonus : $0 </font>
            </div>
        </div>
    
        <img class=""stim"" src=./stimuli//pack_shapes/cat_2/ex_2_80.png></img>
    ","null","stimulus","","","","",""
"","","","","","html-keyboard-response","51","92571","0.0-4.0-2.9","60f43127b2b2e32120869426","6554bfa13ac4b6a0ab00b03a","6554c743bae3c001856b3909","null","
        <div style=""text-align: center; position: fixed; top: 5vh; left: 40vw;"">
            <div style=""margin:0 auto; width: 20vw; top: 8vh; font-size: 1vw""> 
            <font color=""green""> Bonus : $0 </font>
            </div>
        </div>
    ","null","","","","","",""
"","","","","","html-keyboard-response","52","92816","0.0-4.0-3.9","60f43127b2b2e32120869426","6554bfa13ac4b6a0ab00b03a","6554c743bae3c001856b3909","245","./stimuli//pack_shapes/cat_2/ex_2_80.png","arrowright","response","ArrowRight","80","2","true",""
"","","","","","html-keyboard-response","53","94333","0.0-4.0-4.9","60f43127b2b2e32120869426","6554bfa13ac4b6a0ab00b03a","6554c743bae3c001856b3909","null","<p> <font color=""green"" size=""4vw""> Correct category! </font> </p>","null","feedback","","","","","0"
"","","","","","html-keyboard-response","54","97952","0.0-5.0","60f43127b2b2e32120869426","6554bfa13ac4b6a0ab00b03a","6554c743bae3c001856b3909","3619","
            <b> <p> The practice round has finished.</p>
            <b> For the rest of the experiment you will receive a $0.05 bonus for each correct answer!</b>
            <p> Press any key to begin the test. </p>
            "," ","intermission","","","","",""
"","","","","","html-keyboard-response","55","98976","0.0-6.0-0.0","60f43127b2b2e32120869426","6554bfa13ac4b6a0ab00b03a","6554c743bae3c001856b3909","1024","
            
        <div style=""text-align: center; position: fixed; top: 5vh; left: 40vw;"">
            <div style=""margin:0 auto; width: 20vw; top: 8vh; font-size: 1vw""> 
            <font color=""green""> Bonus : $0 </font>
            </div>
        </div>
    
            <div> Please press any button to continue to the next trial.</div>
        "," ","ITI","","","","",""
"","","","","","html-keyboard-response","56","99586","0.0-6.0-1.0","60f43127b2b2e32120869426","6554bfa13ac4b6a0ab00b03a","6554c743bae3c001856b3909","null","
        
        <div style=""text-align: center; position: fixed; top: 5vh; left: 40vw;"">
            <div style=""margin:0 auto; width: 20vw; top: 8vh; font-size: 1vw""> 
            <font color=""green""> Bonus : $0 </font>
            </div>
        </div>
    
        <img class=""stim"" src=./stimuli//pack_shapes/cat_2/ex_2_44.png></img>
    ","null","stimulus","","","","",""
"","","","","","html-keyboard-response","57","100600","0.0-6.0-2.0","60f43127b2b2e32120869426","6554bfa13ac4b6a0ab00b03a","6554c743bae3c001856b3909","null","
        <div style=""text-align: center; position: fixed; top: 5vh; left: 40vw;"">
            <div style=""margin:0 auto; width: 20vw; top: 8vh; font-size: 1vw""> 
            <font color=""green""> Bonus : $0 </font>
            </div>
        </div>
    ","null","","","","","",""
"","","","","","html-keyboard-response","58","100888","0.0-6.0-3.0","60f43127b2b2e32120869426","6554bfa13ac4b6a0ab00b03a","6554c743bae3c001856b3909","288","./stimuli//pack_shapes/cat_2/ex_2_44.png","arrowright","response","ArrowRight","44","2","true",""
"","","","","","html-keyboard-response","59","102402","0.0-6.0-4.0","60f43127b2b2e32120869426","6554bfa13ac4b6a0ab00b03a","6554c743bae3c001856b3909","null","<p> <font color=""green"" size=""4vw""> Correct category! </font> <br> <br> <font color=""green"" size=""7vw""> + $0.05 </font> </p>","null","feedback","","","","","0.05"
"","","","","","html-keyboard-response","60","103368","0.0-6.0-0.1","60f43127b2b2e32120869426","6554bfa13ac4b6a0ab00b03a","6554c743bae3c001856b3909","965","
            
        <div style=""text-align: center; position: fixed; top: 5vh; left: 40vw;"">
            <div style=""margin:0 auto; width: 20vw; top: 8vh; font-size: 1vw""> 
            <font color=""green""> Bonus : $0.05 </font>
            </div>
        </div>
    
            <div> Please press any button to continue to the next trial.</div>
        "," ","ITI","","","","",""
"","","","","","html-keyboard-response","61","103978","0.0-6.0-1.1","60f43127b2b2e32120869426","6554bfa13ac4b6a0ab00b03a","6554c743bae3c001856b3909","null","
        
        <div style=""text-align: center; position: fixed; top: 5vh; left: 40vw;"">
            <div style=""margin:0 auto; width: 20vw; top: 8vh; font-size: 1vw""> 
            <font color=""green""> Bonus : $0.05 </font>
            </div>
        </div>
    
        <img class=""stim"" src=./stimuli//pack_shapes/cat_1/ex_1_69.png></img>
    ","null","stimulus","","","","",""
"","","","","","html-keyboard-response","62","104991","0.0-6.0-2.1","60f43127b2b2e32120869426","6554bfa13ac4b6a0ab00b03a","6554c743bae3c001856b3909","null","
        <div style=""text-align: center; position: fixed; top: 5vh; left: 40vw;"">
            <div style=""margin:0 auto; width: 20vw; top: 8vh; font-size: 1vw""> 
            <font color=""green""> Bonus : $0.05 </font>
            </div>
        </div>
    ","null","","","","","",""
"","","","","","html-keyboard-response","63","105152","0.0-6.0-3.1","60f43127b2b2e32120869426","6554bfa13ac4b6a0ab00b03a","6554c743bae3c001856b3909","161","./stimuli//pack_shapes/cat_1/ex_1_69.png","arrowleft","response","ArrowLeft","69","1","true",""
"","","","","","html-keyboard-response","64","106668","0.0-6.0-4.1","60f43127b2b2e32120869426","6554bfa13ac4b6a0ab00b03a","6554c743bae3c001856b3909","null","<p> <font color=""green"" size=""4vw""> Correct category! </font> <br> <br> <font color=""green"" size=""7vw""> + $0.05 </font> </p>","null","feedback","","","","","0.1"
"","","","","","html-keyboard-response","65","107408","0.0-6.0-0.2","60f43127b2b2e32120869426","6554bfa13ac4b6a0ab00b03a","6554c743bae3c001856b3909","740","
            
        <div style=""text-align: center; position: fixed; top: 5vh; left: 40vw;"">
            <div style=""margin:0 auto; width: 20vw; top: 8vh; font-size: 1vw""> 
            <font color=""green""> Bonus : $0.1 </font>
            </div>
        </div>
    
            <div> Please press any button to continue to the next trial.</div>
        "," ","ITI","","","","",""
"","","","","","html-keyboard-response","66","108015","0.0-6.0-1.2","60f43127b2b2e32120869426","6554bfa13ac4b6a0ab00b03a","6554c743bae3c001856b3909","null","
        
        <div style=""text-align: center; position: fixed; top: 5vh; left: 40vw;"">
            <div style=""margin:0 auto; width: 20vw; top: 8vh; font-size: 1vw""> 
            <font color=""green""> Bonus : $0.1 </font>
            </div>
        </div>
    
        <img class=""stim"" src=./stimuli//pack_shapes/cat_1/ex_1_66.png></img>
    ","null","stimulus","","","","",""
"","","","","","html-keyboard-response","67","109022","0.0-6.0-2.2","60f43127b2b2e32120869426","6554bfa13ac4b6a0ab00b03a","6554c743bae3c001856b3909","null","
        <div style=""text-align: center; position: fixed; top: 5vh; left: 40vw;"">
            <div style=""margin:0 auto; width: 20vw; top: 8vh; font-size: 1vw""> 
            <font color=""green""> Bonus : $0.1 </font>
            </div>
        </div>
    ","null","","","","","",""
"","","","","","html-keyboard-response","68","109240","0.0-6.0-3.2","60f43127b2b2e32120869426","6554bfa13ac4b6a0ab00b03a","6554c743bae3c001856b3909","218","./stimuli//pack_shapes/cat_1/ex_1_66.png","arrowleft","response","ArrowLeft","66","1","true",""
"","","","","","html-keyboard-response","69","110754","0.0-6.0-4.2","60f43127b2b2e32120869426","6554bfa13ac4b6a0ab00b03a","6554c743bae3c001856b3909","null","<p> <font color=""green"" size=""4vw""> Correct category! </font> <br> <br> <font color=""green"" size=""7vw""> + $0.05 </font> </p>","null","feedback","","","","","0.15"
"","","","","","html-keyboard-response","70","111032","0.0-6.0-0.3","60f43127b2b2e32120869426","6554bfa13ac4b6a0ab00b03a","6554c743bae3c001856b3909","278","
            
        <div style=""text-align: center; position: fixed; top: 5vh; left: 40vw;"">
            <div style=""margin:0 auto; width: 20vw; top: 8vh; font-size: 1vw""> 
            <font color=""green""> Bonus : $0.15 </font>
            </div>
        </div>
    
            <div> Please press any button to continue to the next trial.</div>
        "," ","ITI","","","","",""
"","","","","","html-keyboard-response","71","111639","0.0-6.0-1.3","60f43127b2b2e32120869426","6554bfa13ac4b6a0ab00b03a","6554c743bae3c001856b3909","null","
        
        <div style=""text-align: center; position: fixed; top: 5vh; left: 40vw;"">
            <div style=""margin:0 auto; width: 20vw; top: 8vh; font-size: 1vw""> 
            <font color=""green""> Bonus : $0.15 </font>
            </div>
        </div>
    
        <img class=""stim"" src=./stimuli//pack_shapes/cat_2/ex_2_72.png></img>
    ","null","stimulus","","","","",""
"","","","","","html-keyboard-response","72","112654","0.0-6.0-2.3","60f43127b2b2e32120869426","6554bfa13ac4b6a0ab00b03a","6554c743bae3c001856b3909","null","
        <div style=""text-align: center; position: fixed; top: 5vh; left: 40vw;"">
            <div style=""margin:0 auto; width: 20vw; top: 8vh; font-size: 1vw""> 
            <font color=""green""> Bonus : $0.15 </font>
            </div>
        </div>
    ","null","","","","","",""
"","","","","","html-keyboard-response","73","112696","0.0-6.0-3.3","60f43127b2b2e32120869426","6554bfa13ac4b6a0ab00b03a","6554c743bae3c001856b3909","41","./stimuli//pack_shapes/cat_2/ex_2_72.png","arrowright","response","ArrowRight","72","2","true",""
"","","","","","html-keyboard-response","74","114208","0.0-6.0-4.3","60f43127b2b2e32120869426","6554bfa13ac4b6a0ab00b03a","6554c743bae3c001856b3909","null","<p> <font color=""green"" size=""4vw""> Correct category! </font> <br> <br> <font color=""green"" size=""7vw""> + $0.05 </font> </p>","null","feedback","","","","","0.2"
"","","","","","html-keyboard-response","75","114432","0.0-6.0-0.4","60f43127b2b2e32120869426","6554bfa13ac4b6a0ab00b03a","6554c743bae3c001856b3909","223","
            
        <div style=""text-align: center; position: fixed; top: 5vh; left: 40vw;"">
            <div style=""margin:0 auto; width: 20vw; top: 8vh; font-size: 1vw""> 
            <font color=""green""> Bonus : $0.2 </font>
            </div>
        </div>
    
            <div> Please press any button to continue to the next trial.</div>
        "," ","ITI","","","","",""
"","","","","","html-keyboard-response","76","115037","0.0-6.0-1.4","60f43127b2b2e32120869426","6554bfa13ac4b6a0ab00b03a","6554c743bae3c001856b3909","null","
        
        <div style=""text-align: center; position: fixed; top: 5vh; left: 40vw;"">
            <div style=""margin:0 auto; width: 20vw; top: 8vh; font-size: 1vw""> 
            <font color=""green""> Bonus : $0.2 </font>
            </div>
        </div>
    
        <img class=""stim"" src=./stimuli//pack_shapes/cat_2/ex_2_67.png></img>
    ","null","stimulus","","","","",""
"","","","","","html-keyboard-response","77","116049","0.0-6.0-2.4","60f43127b2b2e32120869426","6554bfa13ac4b6a0ab00b03a","6554c743bae3c001856b3909","null","
        <div style=""text-align: center; position: fixed; top: 5vh; left: 40vw;"">
            <div style=""margin:0 auto; width: 20vw; top: 8vh; font-size: 1vw""> 
            <font color=""green""> Bonus : $0.2 </font>
            </div>
        </div>
    ","null","","","","","",""
"","","","","","html-keyboard-response","78","116265","0.0-6.0-3.4","60f43127b2b2e32120869426","6554bfa13ac4b6a0ab00b03a","6554c743bae3c001856b3909","215","./stimuli//pack_shapes/cat_2/ex_2_67.png","arrowright","response","ArrowRight","67","2","true",""
"","","","","","html-keyboard-response","79","117774","0.0-6.0-4.4","60f43127b2b2e32120869426","6554bfa13ac4b6a0ab00b03a","6554c743bae3c001856b3909","null","<p> <font color=""green"" size=""4vw""> Correct category! </font> <br> <br> <font color=""green"" size=""7vw""> + $0.05 </font> </p>","null","feedback","","","","","0.25"
"","","","","","html-keyboard-response","80","118520","0.0-6.0-0.5","60f43127b2b2e32120869426","6554bfa13ac4b6a0ab00b03a","6554c743bae3c001856b3909","745","
            
        <div style=""text-align: center; position: fixed; top: 5vh; left: 40vw;"">
            <div style=""margin:0 auto; width: 20vw; top: 8vh; font-size: 1vw""> 
            <font color=""green""> Bonus : $0.25 </font>
            </div>
        </div>
    
            <div> Please press any button to continue to the next trial.</div>
        "," ","ITI","","","","",""
"","","","","","html-keyboard-response","81","119125","0.0-6.0-1.5","60f43127b2b2e32120869426","6554bfa13ac4b6a0ab00b03a","6554c743bae3c001856b3909","null","
        
        <div style=""text-align: center; position: fixed; top: 5vh; left: 40vw;"">
            <div style=""margin:0 auto; width: 20vw; top: 8vh; font-size: 1vw""> 
            <font color=""green""> Bonus : $0.25 </font>
            </div>
        </div>
    
        <img class=""stim"" src=./stimuli//pack_shapes/cat_2/ex_2_71.png></img>
    ","null","stimulus","","","","",""
"","","","","","html-keyboard-response","82","120128","0.0-6.0-2.5","60f43127b2b2e32120869426","6554bfa13ac4b6a0ab00b03a","6554c743bae3c001856b3909","null","
        <div style=""text-align: center; position: fixed; top: 5vh; left: 40vw;"">
            <div style=""margin:0 auto; width: 20vw; top: 8vh; font-size: 1vw""> 
            <font color=""green""> Bonus : $0.25 </font>
            </div>
        </div>
    ","null","","","","","",""
"","","","","","html-keyboard-response","83","120152","0.0-6.0-3.5","60f43127b2b2e32120869426","6554bfa13ac4b6a0ab00b03a","6554c743bae3c001856b3909","23","./stimuli//pack_shapes/cat_2/ex_2_71.png","arrowright","response","ArrowRight","71","2","true",""
"","","","","","html-keyboard-response","84","121663","0.0-6.0-4.5","60f43127b2b2e32120869426","6554bfa13ac4b6a0ab00b03a","6554c743bae3c001856b3909","null","<p> <font color=""green"" size=""4vw""> Correct category! </font> <br> <br> <font color=""green"" size=""7vw""> + $0.05 </font> </p>","null","feedback","","","","","0.3"
"","","","","","html-keyboard-response","85","122057","0.0-6.0-0.6","60f43127b2b2e32120869426","6554bfa13ac4b6a0ab00b03a","6554c743bae3c001856b3909","393","
            
        <div style=""text-align: center; position: fixed; top: 5vh; left: 40vw;"">
            <div style=""margin:0 auto; width: 20vw; top: 8vh; font-size: 1vw""> 
            <font color=""green""> Bonus : $0.3 </font>
            </div>
        </div>
    
            <div> Please press any button to continue to the next trial.</div>
        "," ","ITI","","","","",""
"","","","","","html-keyboard-response","86","122666","0.0-6.0-1.6","60f43127b2b2e32120869426","6554bfa13ac4b6a0ab00b03a","6554c743bae3c001856b3909","null","
        
        <div style=""text-align: center; position: fixed; top: 5vh; left: 40vw;"">
            <div style=""margin:0 auto; width: 20vw; top: 8vh; font-size: 1vw""> 
            <font color=""green""> Bonus : $0.3 </font>
            </div>
        </div>
    
        <img class=""stim"" src=./stimuli//pack_shapes/cat_1/ex_1_6.png></img>
    ","null","stimulus","","","","",""
"","","","","","html-keyboard-response","87","123673","0.0-6.0-2.6","60f43127b2b2e32120869426","6554bfa13ac4b6a0ab00b03a","6554c743bae3c001856b3909","null","
        <div style=""text-align: center; position: fixed; top: 5vh; left: 40vw;"">
            <div style=""margin:0 auto; width: 20vw; top: 8vh; font-size: 1vw""> 
            <font color=""green""> Bonus : $0.3 </font>
            </div>
        </div>
    ","null","","","","","",""
"","","","","","html-keyboard-response","88","123920","0.0-6.0-3.6","60f43127b2b2e32120869426","6554bfa13ac4b6a0ab00b03a","6554c743bae3c001856b3909","246","./stimuli//pack_shapes/cat_1/ex_1_6.png","arrowright","response","ArrowLeft","6","1","false",""
"","","","","","html-keyboard-response","89","125432","0.0-6.0-4.6","60f43127b2b2e32120869426","6554bfa13ac4b6a0ab00b03a","6554c743bae3c001856b3909","null","<p> <font color=""red"" size=""4vw""> Wrong category! </font> </p>","null","feedback","","","","","0.3"
"","","","","","html-keyboard-response","90","126361","0.0-6.0-0.7","60f43127b2b2e32120869426","6554bfa13ac4b6a0ab00b03a","6554c743bae3c001856b3909","929","
            
        <div style=""text-align: center; position: fixed; top: 5vh; left: 40vw;"">
            <div style=""margin:0 auto; width: 20vw; top: 8vh; font-size: 1vw""> 
            <font color=""green""> Bonus : $0.3 </font>
            </div>
        </div>
    
            <div> Please press any button to continue to the next trial.</div>
        "," ","ITI","","","","",""
"","","","","","html-keyboard-response","91","126974","0.0-6.0-1.7","60f43127b2b2e32120869426","6554bfa13ac4b6a0ab00b03a","6554c743bae3c001856b3909","null","
        
        <div style=""text-align: center; position: fixed; top: 5vh; left: 40vw;"">
            <div style=""margin:0 auto; width: 20vw; top: 8vh; font-size: 1vw""> 
            <font color=""green""> Bonus : $0.3 </font>
            </div>
        </div>
    
        <img class=""stim"" src=./stimuli//pack_shapes/cat_1/ex_1_56.png></img>
    ","null","stimulus","","","","",""
"","","","","","html-keyboard-response","92","127989","0.0-6.0-2.7","60f43127b2b2e32120869426","6554bfa13ac4b6a0ab00b03a","6554c743bae3c001856b3909","null","
        <div style=""text-align: center; position: fixed; top: 5vh; left: 40vw;"">
            <div style=""margin:0 auto; width: 20vw; top: 8vh; font-size: 1vw""> 
            <font color=""green""> Bonus : $0.3 </font>
            </div>
        </div>
    ","null","","","","","",""
"","","","","","html-keyboard-response","93","128025","0.0-6.0-3.7","60f43127b2b2e32120869426","6554bfa13ac4b6a0ab00b03a","6554c743bae3c001856b3909","35","./stimuli//pack_shapes/cat_1/ex_1_56.png","arrowleft","response","ArrowLeft","56","1","true",""
"","","","","","html-keyboard-response","94","129528","0.0-6.0-4.7","60f43127b2b2e32120869426","6554bfa13ac4b6a0ab00b03a","6554c743bae3c001856b3909","null","<p> <font color=""green"" size=""4vw""> Correct category! </font> <br> <br> <font color=""green"" size=""7vw""> + $0.05 </font> </p>","null","feedback","","","","","0.35"
"","","","","","html-keyboard-response","95","131312","0.0-6.0-0.8","60f43127b2b2e32120869426","6554bfa13ac4b6a0ab00b03a","6554c743bae3c001856b3909","1784","
            
        <div style=""text-align: center; position: fixed; top: 5vh; left: 40vw;"">
            <div style=""margin:0 auto; width: 20vw; top: 8vh; font-size: 1vw""> 
            <font color=""green""> Bonus : $0.35 </font>
            </div>
        </div>
    
            <div> Please press any button to continue to the next trial.</div>
        "," ","ITI","","","","",""
"","","","","","html-keyboard-response","96","131928","0.0-6.0-1.8","60f43127b2b2e32120869426","6554bfa13ac4b6a0ab00b03a","6554c743bae3c001856b3909","null","
        
        <div style=""text-align: center; position: fixed; top: 5vh; left: 40vw;"">
            <div style=""margin:0 auto; width: 20vw; top: 8vh; font-size: 1vw""> 
            <font color=""green""> Bonus : $0.35 </font>
            </div>
        </div>
    
        <img class=""stim"" src=./stimuli//pack_shapes/cat_2/ex_2_18.png></img>
    ","null","stimulus","","","","",""
"","","","","","html-keyboard-response","97","132941","0.0-6.0-2.8","60f43127b2b2e32120869426","6554bfa13ac4b6a0ab00b03a","6554c743bae3c001856b3909","null","
        <div style=""text-align: center; position: fixed; top: 5vh; left: 40vw;"">
            <div style=""margin:0 auto; width: 20vw; top: 8vh; font-size: 1vw""> 
            <font color=""green""> Bonus : $0.35 </font>
            </div>
        </div>
    ","null","","","","","",""
"","","","","","html-keyboard-response","98","135089","0.0-6.0-3.8","60f43127b2b2e32120869426","6554bfa13ac4b6a0ab00b03a","6554c743bae3c001856b3909","2147","./stimuli//pack_shapes/cat_2/ex_2_18.png","arrowleft","response","ArrowRight","18","2","false",""
"","","","","","html-keyboard-response","99","136591","0.0-6.0-4.8","60f43127b2b2e32120869426","6554bfa13ac4b6a0ab00b03a","6554c743bae3c001856b3909","null","<p> <font color=""red"" size=""4vw""> Wrong category! </font> </p>","null","feedback","","","","","0.35"
"","","","","","html-keyboard-response","100","142693","0.0-6.0-0.9","60f43127b2b2e32120869426","6554bfa13ac4b6a0ab00b03a","6554c743bae3c001856b3909","6102","
            
        <div style=""text-align: center; position: fixed; top: 5vh; left: 40vw;"">
            <div style=""margin:0 auto; width: 20vw; top: 8vh; font-size: 1vw""> 
            <font color=""green""> Bonus : $0.35 </font>
            </div>
        </div>
    
            <div> Please press any button to continue to the next trial.</div>
        "," ","ITI","","","","",""
"","","","","","html-keyboard-response","101","143298","0.0-6.0-1.9","60f43127b2b2e32120869426","6554bfa13ac4b6a0ab00b03a","6554c743bae3c001856b3909","null","
        
        <div style=""text-align: center; position: fixed; top: 5vh; left: 40vw;"">
            <div style=""margin:0 auto; width: 20vw; top: 8vh; font-size: 1vw""> 
            <font color=""green""> Bonus : $0.35 </font>
            </div>
        </div>
    
        <img class=""stim"" src=./stimuli//pack_shapes/cat_1/ex_1_57.png></img>
    ","null","stimulus","","","","",""
"","","","","","html-keyboard-response","102","144312","0.0-6.0-2.9","60f43127b2b2e32120869426","6554bfa13ac4b6a0ab00b03a","6554c743bae3c001856b3909","null","
        <div style=""text-align: center; position: fixed; top: 5vh; left: 40vw;"">
            <div style=""margin:0 auto; width: 20vw; top: 8vh; font-size: 1vw""> 
            <font color=""green""> Bonus : $0.35 </font>
            </div>
        </div>
    ","null","","","","","",""
"","","","","","html-keyboard-response","103","144673","0.0-6.0-3.9","60f43127b2b2e32120869426","6554bfa13ac4b6a0ab00b03a","6554c743bae3c001856b3909","361","./stimuli//pack_shapes/cat_1/ex_1_57.png","arrowleft","response","ArrowLeft","57","1","true",""
"","","","","","html-keyboard-response","104","146182","0.0-6.0-4.9","60f43127b2b2e32120869426","6554bfa13ac4b6a0ab00b03a","6554c743bae3c001856b3909","null","<p> <font color=""green"" size=""4vw""> Correct category! </font> <br> <br> <font color=""green"" size=""7vw""> + $0.05 </font> </p>","null","feedback","","","","","0.4"
"","","","","","html-keyboard-response","105","152088","0.0-6.0-0.10","60f43127b2b2e32120869426","6554bfa13ac4b6a0ab00b03a","6554c743bae3c001856b3909","5906","
            
        <div style=""text-align: center; position: fixed; top: 5vh; left: 40vw;"">
            <div style=""margin:0 auto; width: 20vw; top: 8vh; font-size: 1vw""> 
            <font color=""green""> Bonus : $0.4 </font>
            </div>
        </div>
    
            <div> Please press any button to continue to the next trial.</div>
        "," ","ITI","","","","",""
"","","","","","html-keyboard-response","106","152689","0.0-6.0-1.10","60f43127b2b2e32120869426","6554bfa13ac4b6a0ab00b03a","6554c743bae3c001856b3909","null","
        
        <div style=""text-align: center; position: fixed; top: 5vh; left: 40vw;"">
            <div style=""margin:0 auto; width: 20vw; top: 8vh; font-size: 1vw""> 
            <font color=""green""> Bonus : $0.4 </font>
            </div>
        </div>
    
        <img class=""stim"" src=./stimuli//pack_shapes/cat_2/ex_2_78.png></img>
    ","null","stimulus","","","","",""
"","","","","","html-keyboard-response","107","153695","0.0-6.0-2.10","60f43127b2b2e32120869426","6554bfa13ac4b6a0ab00b03a","6554c743bae3c001856b3909","null","
        <div style=""text-align: center; position: fixed; top: 5vh; left: 40vw;"">
            <div style=""margin:0 auto; width: 20vw; top: 8vh; font-size: 1vw""> 
            <font color=""green""> Bonus : $0.4 </font>
            </div>
        </div>
    ","null","","","","","",""
"","","","","","html-keyboard-response","108","153952","0.0-6.0-3.10","60f43127b2b2e32120869426","6554bfa13ac4b6a0ab00b03a","6554c743bae3c001856b3909","257","./stimuli//pack_shapes/cat_2/ex_2_78.png","arrowright","response","ArrowRight","78","2","true",""
"","","","","","html-keyboard-response","109","155460","0.0-6.0-4.10","60f43127b2b2e32120869426","6554bfa13ac4b6a0ab00b03a","6554c743bae3c001856b3909","null","<p> <font color=""green"" size=""4vw""> Correct category! </font> <br> <br> <font color=""green"" size=""7vw""> + $0.05 </font> </p>","null","feedback","","","","","0.45"
"","","","","","html-keyboard-response","110","156280","0.0-6.0-0.11","60f43127b2b2e32120869426","6554bfa13ac4b6a0ab00b03a","6554c743bae3c001856b3909","819","
            
        <div style=""text-align: center; position: fixed; top: 5vh; left: 40vw;"">
            <div style=""margin:0 auto; width: 20vw; top: 8vh; font-size: 1vw""> 
            <font color=""green""> Bonus : $0.45 </font>
            </div>
        </div>
    
            <div> Please press any button to continue to the next trial.</div>
        "," ","ITI","","","","",""
"","","","","","html-keyboard-response","111","156887","0.0-6.0-1.11","60f43127b2b2e32120869426","6554bfa13ac4b6a0ab00b03a","6554c743bae3c001856b3909","null","
        
        <div style=""text-align: center; position: fixed; top: 5vh; left: 40vw;"">
            <div style=""margin:0 auto; width: 20vw; top: 8vh; font-size: 1vw""> 
            <font color=""green""> Bonus : $0.45 </font>
            </div>
        </div>
    
        <img class=""stim"" src=./stimuli//pack_shapes/cat_1/ex_1_73.png></img>
    ","null","stimulus","","","","",""
"","","","","","html-keyboard-response","112","157899","0.0-6.0-2.11","60f43127b2b2e32120869426","6554bfa13ac4b6a0ab00b03a","6554c743bae3c001856b3909","null","
        <div style=""text-align: center; position: fixed; top: 5vh; left: 40vw;"">
            <div style=""margin:0 auto; width: 20vw; top: 8vh; font-size: 1vw""> 
            <font color=""green""> Bonus : $0.45 </font>
            </div>
        </div>
    ","null","","","","","",""
"","","","","","html-keyboard-response","113","158144","0.0-6.0-3.11","60f43127b2b2e32120869426","6554bfa13ac4b6a0ab00b03a","6554c743bae3c001856b3909","245","./stimuli//pack_shapes/cat_1/ex_1_73.png","arrowleft","response","ArrowLeft","73","1","true",""
"","","","","","html-keyboard-response","114","159649","0.0-6.0-4.11","60f43127b2b2e32120869426","6554bfa13ac4b6a0ab00b03a","6554c743bae3c001856b3909","null","<p> <font color=""green"" size=""4vw""> Correct category! </font> <br> <br> <font color=""green"" size=""7vw""> + $0.05 </font> </p>","null","feedback","","","","","0.5"
"","","","","","html-keyboard-response","115","160793","0.0-6.0-0.12","60f43127b2b2e32120869426","6554bfa13ac4b6a0ab00b03a","6554c743bae3c001856b3909","1143","
            
        <div style=""text-align: center; position: fixed; top: 5vh; left: 40vw;"">
            <div style=""margin:0 auto; width: 20vw; top: 8vh; font-size: 1vw""> 
            <font color=""green""> Bonus : $0.5 </font>
            </div>
        </div>
    
            <div> Please press any button to continue to the next trial.</div>
        "," ","ITI","","","","",""
"","","","","","html-keyboard-response","116","161406","0.0-6.0-1.12","60f43127b2b2e32120869426","6554bfa13ac4b6a0ab00b03a","6554c743bae3c001856b3909","null","
        
        <div style=""text-align: center; position: fixed; top: 5vh; left: 40vw;"">
            <div style=""margin:0 auto; width: 20vw; top: 8vh; font-size: 1vw""> 
            <font color=""green""> Bonus : $0.5 </font>
            </div>
        </div>
    
        <img class=""stim"" src=./stimuli//pack_shapes/cat_1/ex_1_27.png></img>
    ","null","stimulus","","","","",""
"","","","","","html-keyboard-response","117","162418","0.0-6.0-2.12","60f43127b2b2e32120869426","6554bfa13ac4b6a0ab00b03a","6554c743bae3c001856b3909","null","
        <div style=""text-align: center; position: fixed; top: 5vh; left: 40vw;"">
            <div style=""margin:0 auto; width: 20vw; top: 8vh; font-size: 1vw""> 
            <font color=""green""> Bonus : $0.5 </font>
            </div>
        </div>
    ","null","","","","","",""
"","","","","","html-keyboard-response","118","163504","0.0-6.0-3.12","60f43127b2b2e32120869426","6554bfa13ac4b6a0ab00b03a","6554c743bae3c001856b3909","1086","./stimuli//pack_shapes/cat_1/ex_1_27.png","arrowleft","response","ArrowLeft","27","1","true",""
"","","","","","html-keyboard-response","119","165011","0.0-6.0-4.12","60f43127b2b2e32120869426","6554bfa13ac4b6a0ab00b03a","6554c743bae3c001856b3909","null","<p> <font color=""green"" size=""4vw""> Correct category! </font> <br> <br> <font color=""green"" size=""7vw""> + $0.05 </font> </p>","null","feedback","","","","","0.55"
"","","","","","html-keyboard-response","120","166137","0.0-6.0-0.13","60f43127b2b2e32120869426","6554bfa13ac4b6a0ab00b03a","6554c743bae3c001856b3909","1126","
            
        <div style=""text-align: center; position: fixed; top: 5vh; left: 40vw;"">
            <div style=""margin:0 auto; width: 20vw; top: 8vh; font-size: 1vw""> 
            <font color=""green""> Bonus : $0.55 </font>
            </div>
        </div>
    
            <div> Please press any button to continue to the next trial.</div>
        "," ","ITI","","","","",""
"","","","","","html-keyboard-response","121","166740","0.0-6.0-1.13","60f43127b2b2e32120869426","6554bfa13ac4b6a0ab00b03a","6554c743bae3c001856b3909","null","
        
        <div style=""text-align: center; position: fixed; top: 5vh; left: 40vw;"">
            <div style=""margin:0 auto; width: 20vw; top: 8vh; font-size: 1vw""> 
            <font color=""green""> Bonus : $0.55 </font>
            </div>
        </div>
    
        <img class=""stim"" src=./stimuli//pack_shapes/cat_1/ex_1_9.png></img>
    ","null","stimulus","","","","",""
"","","","","","html-keyboard-response","122","167755","0.0-6.0-2.13","60f43127b2b2e32120869426","6554bfa13ac4b6a0ab00b03a","6554c743bae3c001856b3909","null","
        <div style=""text-align: center; position: fixed; top: 5vh; left: 40vw;"">
            <div style=""margin:0 auto; width: 20vw; top: 8vh; font-size: 1vw""> 
            <font color=""green""> Bonus : $0.55 </font>
            </div>
        </div>
    ","null","","","","","",""
"","","","","","html-keyboard-response","123","168832","0.0-6.0-3.13","60f43127b2b2e32120869426","6554bfa13ac4b6a0ab00b03a","6554c743bae3c001856b3909","1077","./stimuli//pack_shapes/cat_1/ex_1_9.png","arrowright","response","ArrowLeft","9","1","false",""
"","","","","","html-keyboard-response","124","170336","0.0-6.0-4.13","60f43127b2b2e32120869426","6554bfa13ac4b6a0ab00b03a","6554c743bae3c001856b3909","null","<p> <font color=""red"" size=""4vw""> Wrong category! </font> </p>","null","feedback","","","","","0.55"
"","","","","","html-keyboard-response","125","170824","0.0-6.0-0.14","60f43127b2b2e32120869426","6554bfa13ac4b6a0ab00b03a","6554c743bae3c001856b3909","488","
            
        <div style=""text-align: center; position: fixed; top: 5vh; left: 40vw;"">
            <div style=""margin:0 auto; width: 20vw; top: 8vh; font-size: 1vw""> 
            <font color=""green""> Bonus : $0.55 </font>
            </div>
        </div>
    
            <div> Please press any button to continue to the next trial.</div>
        "," ","ITI","","","","",""
"","","","","","html-keyboard-response","126","171436","0.0-6.0-1.14","60f43127b2b2e32120869426","6554bfa13ac4b6a0ab00b03a","6554c743bae3c001856b3909","null","
        
        <div style=""text-align: center; position: fixed; top: 5vh; left: 40vw;"">
            <div style=""margin:0 auto; width: 20vw; top: 8vh; font-size: 1vw""> 
            <font color=""green""> Bonus : $0.55 </font>
            </div>
        </div>
    
        <img class=""stim"" src=./stimuli//pack_shapes/cat_1/ex_1_47.png></img>
    ","null","stimulus","","","","",""
"","","","","","html-keyboard-response","127","172450","0.0-6.0-2.14","60f43127b2b2e32120869426","6554bfa13ac4b6a0ab00b03a","6554c743bae3c001856b3909","null","
        <div style=""text-align: center; position: fixed; top: 5vh; left: 40vw;"">
            <div style=""margin:0 auto; width: 20vw; top: 8vh; font-size: 1vw""> 
            <font color=""green""> Bonus : $0.55 </font>
            </div>
        </div>
    ","null","","","","","",""
"","","","","","html-keyboard-response","128","172568","0.0-6.0-3.14","60f43127b2b2e32120869426","6554bfa13ac4b6a0ab00b03a","6554c743bae3c001856b3909","118","./stimuli//pack_shapes/cat_1/ex_1_47.png","arrowleft","response","ArrowLeft","47","1","true",""
"","","","","","html-keyboard-response","129","174085","0.0-6.0-4.14","60f43127b2b2e32120869426","6554bfa13ac4b6a0ab00b03a","6554c743bae3c001856b3909","null","<p> <font color=""green"" size=""4vw""> Correct category! </font> <br> <br> <font color=""green"" size=""7vw""> + $0.05 </font> </p>","null","feedback","","","","","0.6"
"","","","","","html-keyboard-response","130","174384","0.0-6.0-0.15","60f43127b2b2e32120869426","6554bfa13ac4b6a0ab00b03a","6554c743bae3c001856b3909","299","
            
        <div style=""text-align: center; position: fixed; top: 5vh; left: 40vw;"">
            <div style=""margin:0 auto; width: 20vw; top: 8vh; font-size: 1vw""> 
            <font color=""green""> Bonus : $0.6 </font>
            </div>
        </div>
    
            <div> Please press any button to continue to the next trial.</div>
        "," ","ITI","","","","",""
"","","","","","html-keyboard-response","131","174988","0.0-6.0-1.15","60f43127b2b2e32120869426","6554bfa13ac4b6a0ab00b03a","6554c743bae3c001856b3909","null","
        
        <div style=""text-align: center; position: fixed; top: 5vh; left: 40vw;"">
            <div style=""margin:0 auto; width: 20vw; top: 8vh; font-size: 1vw""> 
            <font color=""green""> Bonus : $0.6 </font>
            </div>
        </div>
    
        <img class=""stim"" src=./stimuli//pack_shapes/cat_2/ex_2_6.png></img>
    ","null","stimulus","","","","",""
"","","","","","html-keyboard-response","132","175989","0.0-6.0-2.15","60f43127b2b2e32120869426","6554bfa13ac4b6a0ab00b03a","6554c743bae3c001856b3909","null","
        <div style=""text-align: center; position: fixed; top: 5vh; left: 40vw;"">
            <div style=""margin:0 auto; width: 20vw; top: 8vh; font-size: 1vw""> 
            <font color=""green""> Bonus : $0.6 </font>
            </div>
        </div>
    ","null","","","","","",""
"","","","","","html-keyboard-response","133","176200","0.0-6.0-3.15","60f43127b2b2e32120869426","6554bfa13ac4b6a0ab00b03a","6554c743bae3c001856b3909","211","./stimuli//pack_shapes/cat_2/ex_2_6.png","arrowleft","response","ArrowRight","6","2","false",""
"","","","","","html-keyboard-response","134","177709","0.0-6.0-4.15","60f43127b2b2e32120869426","6554bfa13ac4b6a0ab00b03a","6554c743bae3c001856b3909","null","<p> <font color=""red"" size=""4vw""> Wrong category! </font> </p>","null","feedback","","","","","0.6"
"","","","","","html-keyboard-response","135","178000","0.0-6.0-0.16","60f43127b2b2e32120869426","6554bfa13ac4b6a0ab00b03a","6554c743bae3c001856b3909","290","
            
        <div style=""text-align: center; position: fixed; top: 5vh; left: 40vw;"">
            <div style=""margin:0 auto; width: 20vw; top: 8vh; font-size: 1vw""> 
            <font color=""green""> Bonus : $0.6 </font>
            </div>
        </div>
    
            <div> Please press any button to continue to the next trial.</div>
        "," ","ITI","","","","",""
"","","","","","html-keyboard-response","136","178612","0.0-6.0-1.16","60f43127b2b2e32120869426","6554bfa13ac4b6a0ab00b03a","6554c743bae3c001856b3909","null","
        
        <div style=""text-align: center; position: fixed; top: 5vh; left: 40vw;"">
            <div style=""margin:0 auto; width: 20vw; top: 8vh; font-size: 1vw""> 
            <font color=""green""> Bonus : $0.6 </font>
            </div>
        </div>
    
        <img class=""stim"" src=./stimuli//pack_shapes/cat_1/ex_1_72.png></img>
    ","null","stimulus","","","","",""
"","","","","","html-keyboard-response","137","179623","0.0-6.0-2.16","60f43127b2b2e32120869426","6554bfa13ac4b6a0ab00b03a","6554c743bae3c001856b3909","null","
        <div style=""text-align: center; position: fixed; top: 5vh; left: 40vw;"">
            <div style=""margin:0 auto; width: 20vw; top: 8vh; font-size: 1vw""> 
            <font color=""green""> Bonus : $0.6 </font>
            </div>
        </div>
    ","null","","","","","",""
"","","","","","html-keyboard-response","138","179720","0.0-6.0-3.16","60f43127b2b2e32120869426","6554bfa13ac4b6a0ab00b03a","6554c743bae3c001856b3909","97","./stimuli//pack_shapes/cat_1/ex_1_72.png","arrowleft","response","ArrowLeft","72","1","true",""
"","","","","","html-keyboard-response","139","181221","0.0-6.0-4.16","60f43127b2b2e32120869426","6554bfa13ac4b6a0ab00b03a","6554c743bae3c001856b3909","null","<p> <font color=""green"" size=""4vw""> Correct category! </font> <br> <br> <font color=""green"" size=""7vw""> + $0.05 </font> </p>","null","feedback","","","","","0.65"
"","","","","","html-keyboard-response","140","181480","0.0-6.0-0.17","60f43127b2b2e32120869426","6554bfa13ac4b6a0ab00b03a","6554c743bae3c001856b3909","258","
            
        <div style=""text-align: center; position: fixed; top: 5vh; left: 40vw;"">
            <div style=""margin:0 auto; width: 20vw; top: 8vh; font-size: 1vw""> 
            <font color=""green""> Bonus : $0.65 </font>
            </div>
        </div>
    
            <div> Please press any button to continue to the next trial.</div>
        "," ","ITI","","","","",""
"","","","","","html-keyboard-response","141","182089","0.0-6.0-1.17","60f43127b2b2e32120869426","6554bfa13ac4b6a0ab00b03a","6554c743bae3c001856b3909","null","
        
        <div style=""text-align: center; position: fixed; top: 5vh; left: 40vw;"">
            <div style=""margin:0 auto; width: 20vw; top: 8vh; font-size: 1vw""> 
            <font color=""green""> Bonus : $0.65 </font>
            </div>
        </div>
    
        <img class=""stim"" src=./stimuli//pack_shapes/cat_2/ex_2_13.png></img>
    ","null","stimulus","","","","",""
"","","","","","html-keyboard-response","142","183091","0.0-6.0-2.17","60f43127b2b2e32120869426","6554bfa13ac4b6a0ab00b03a","6554c743bae3c001856b3909","null","
        <div style=""text-align: center; position: fixed; top: 5vh; left: 40vw;"">
            <div style=""margin:0 auto; width: 20vw; top: 8vh; font-size: 1vw""> 
            <font color=""green""> Bonus : $0.65 </font>
            </div>
        </div>
    ","null","","","","","",""
"","","","","","html-keyboard-response","143","183232","0.0-6.0-3.17","60f43127b2b2e32120869426","6554bfa13ac4b6a0ab00b03a","6554c743bae3c001856b3909","140","./stimuli//pack_shapes/cat_2/ex_2_13.png","arrowleft","response","ArrowRight","13","2","false",""
"","","","","","html-keyboard-response","144","184742","0.0-6.0-4.17","60f43127b2b2e32120869426","6554bfa13ac4b6a0ab00b03a","6554c743bae3c001856b3909","null","<p> <font color=""red"" size=""4vw""> Wrong category! </font> </p>","null","feedback","","","","","0.65"
"","","","","","html-keyboard-response","145","185096","0.0-6.0-0.18","60f43127b2b2e32120869426","6554bfa13ac4b6a0ab00b03a","6554c743bae3c001856b3909","353","
            
        <div style=""text-align: center; position: fixed; top: 5vh; left: 40vw;"">
            <div style=""margin:0 auto; width: 20vw; top: 8vh; font-size: 1vw""> 
            <font color=""green""> Bonus : $0.65 </font>
            </div>
        </div>
    
            <div> Please press any button to continue to the next trial.</div>
        "," ","ITI","","","","",""
"","","","","","html-keyboard-response","146","185706","0.0-6.0-1.18","60f43127b2b2e32120869426","6554bfa13ac4b6a0ab00b03a","6554c743bae3c001856b3909","null","
        
        <div style=""text-align: center; position: fixed; top: 5vh; left: 40vw;"">
            <div style=""margin:0 auto; width: 20vw; top: 8vh; font-size: 1vw""> 
            <font color=""green""> Bonus : $0.65 </font>
            </div>
        </div>
    
        <img class=""stim"" src=./stimuli//pack_shapes/cat_1/ex_1_76.png></img>
    ","null","stimulus","","","","",""
"","","","","","html-keyboard-response","147","186718","0.0-6.0-2.18","60f43127b2b2e32120869426","6554bfa13ac4b6a0ab00b03a","6554c743bae3c001856b3909","null","
        <div style=""text-align: center; position: fixed; top: 5vh; left: 40vw;"">
            <div style=""margin:0 auto; width: 20vw; top: 8vh; font-size: 1vw""> 
            <font color=""green""> Bonus : $0.65 </font>
            </div>
        </div>
    ","null","","","","","",""
"","","","","","html-keyboard-response","148","186904","0.0-6.0-3.18","60f43127b2b2e32120869426","6554bfa13ac4b6a0ab00b03a","6554c743bae3c001856b3909","185","./stimuli//pack_shapes/cat_1/ex_1_76.png","arrowleft","response","ArrowLeft","76","1","true",""
"","","","","","html-keyboard-response","149","188417","0.0-6.0-4.18","60f43127b2b2e32120869426","6554bfa13ac4b6a0ab00b03a","6554c743bae3c001856b3909","null","<p> <font color=""green"" size=""4vw""> Correct category! </font> <br> <br> <font color=""green"" size=""7vw""> + $0.05 </font> </p>","null","feedback","","","","","0.7"
"","","","","","html-keyboard-response","150","188640","0.0-6.0-0.19","60f43127b2b2e32120869426","6554bfa13ac4b6a0ab00b03a","6554c743bae3c001856b3909","223","
            
        <div style=""text-align: center; position: fixed; top: 5vh; left: 40vw;"">
            <div style=""margin:0 auto; width: 20vw; top: 8vh; font-size: 1vw""> 
            <font color=""green""> Bonus : $0.7 </font>
            </div>
        </div>
    
            <div> Please press any button to continue to the next trial.</div>
        "," ","ITI","","","","",""
"","","","","","html-keyboard-response","151","189255","0.0-6.0-1.19","60f43127b2b2e32120869426","6554bfa13ac4b6a0ab00b03a","6554c743bae3c001856b3909","null","
        
        <div style=""text-align: center; position: fixed; top: 5vh; left: 40vw;"">
            <div style=""margin:0 auto; width: 20vw; top: 8vh; font-size: 1vw""> 
            <font color=""green""> Bonus : $0.7 </font>
            </div>
        </div>
    
        <img class=""stim"" src=./stimuli//pack_shapes/cat_2/ex_2_26.png></img>
    ","null","stimulus","","","","",""
"","","","","","html-keyboard-response","152","190267","0.0-6.0-2.19","60f43127b2b2e32120869426","6554bfa13ac4b6a0ab00b03a","6554c743bae3c001856b3909","null","
        <div style=""text-align: center; position: fixed; top: 5vh; left: 40vw;"">
            <div style=""margin:0 auto; width: 20vw; top: 8vh; font-size: 1vw""> 
            <font color=""green""> Bonus : $0.7 </font>
            </div>
        </div>
    ","null","","","","","",""
"","","","","","html-keyboard-response","153","190464","0.0-6.0-3.19","60f43127b2b2e32120869426","6554bfa13ac4b6a0ab00b03a","6554c743bae3c001856b3909","197","./stimuli//pack_shapes/cat_2/ex_2_26.png","arrowright","response","ArrowRight","26","2","true",""
"","","","","","html-keyboard-response","154","191966","0.0-6.0-4.19","60f43127b2b2e32120869426","6554bfa13ac4b6a0ab00b03a","6554c743bae3c001856b3909","null","<p> <font color=""green"" size=""4vw""> Correct category! </font> <br> <br> <font color=""green"" size=""7vw""> + $0.05 </font> </p>","null","feedback","","","","","0.75"
"","","","","","html-keyboard-response","155","192208","0.0-6.0-0.20","60f43127b2b2e32120869426","6554bfa13ac4b6a0ab00b03a","6554c743bae3c001856b3909","242","
            
        <div style=""text-align: center; position: fixed; top: 5vh; left: 40vw;"">
            <div style=""margin:0 auto; width: 20vw; top: 8vh; font-size: 1vw""> 
            <font color=""green""> Bonus : $0.75 </font>
            </div>
        </div>
    
            <div> Please press any button to continue to the next trial.</div>
        "," ","ITI","","","","",""
"","","","","","html-keyboard-response","156","192818","0.0-6.0-1.20","60f43127b2b2e32120869426","6554bfa13ac4b6a0ab00b03a","6554c743bae3c001856b3909","null","
        
        <div style=""text-align: center; position: fixed; top: 5vh; left: 40vw;"">
            <div style=""margin:0 auto; width: 20vw; top: 8vh; font-size: 1vw""> 
            <font color=""green""> Bonus : $0.75 </font>
            </div>
        </div>
    
        <img class=""stim"" src=./stimuli//pack_shapes/cat_1/ex_1_11.png></img>
    ","null","stimulus","","","","",""
"","","","","","html-keyboard-response","157","193829","0.0-6.0-2.20","60f43127b2b2e32120869426","6554bfa13ac4b6a0ab00b03a","6554c743bae3c001856b3909","null","
        <div style=""text-align: center; position: fixed; top: 5vh; left: 40vw;"">
            <div style=""margin:0 auto; width: 20vw; top: 8vh; font-size: 1vw""> 
            <font color=""green""> Bonus : $0.75 </font>
            </div>
        </div>
    ","null","","","","","",""
"","","","","","html-keyboard-response","158","193920","0.0-6.0-3.20","60f43127b2b2e32120869426","6554bfa13ac4b6a0ab00b03a","6554c743bae3c001856b3909","91","./stimuli//pack_shapes/cat_1/ex_1_11.png","arrowright","response","ArrowLeft","11","1","false",""
"","","","","","html-keyboard-response","159","195427","0.0-6.0-4.20","60f43127b2b2e32120869426","6554bfa13ac4b6a0ab00b03a","6554c743bae3c001856b3909","null","<p> <font color=""red"" size=""4vw""> Wrong category! </font> </p>","null","feedback","","","","","0.75"
"","","","","","html-keyboard-response","160","195664","0.0-6.0-0.21","60f43127b2b2e32120869426","6554bfa13ac4b6a0ab00b03a","6554c743bae3c001856b3909","236","
            
        <div style=""text-align: center; position: fixed; top: 5vh; left: 40vw;"">
            <div style=""margin:0 auto; width: 20vw; top: 8vh; font-size: 1vw""> 
            <font color=""green""> Bonus : $0.75 </font>
            </div>
        </div>
    
            <div> Please press any button to continue to the next trial.</div>
        "," ","ITI","","","","",""
"","","","","","html-keyboard-response","161","196269","0.0-6.0-1.21","60f43127b2b2e32120869426","6554bfa13ac4b6a0ab00b03a","6554c743bae3c001856b3909","null","
        
        <div style=""text-align: center; position: fixed; top: 5vh; left: 40vw;"">
            <div style=""margin:0 auto; width: 20vw; top: 8vh; font-size: 1vw""> 
            <font color=""green""> Bonus : $0.75 </font>
            </div>
        </div>
    
        <img class=""stim"" src=./stimuli//pack_shapes/cat_1/ex_1_44.png></img>
    ","null","stimulus","","","","",""
"","","","","","html-keyboard-response","162","197271","0.0-6.0-2.21","60f43127b2b2e32120869426","6554bfa13ac4b6a0ab00b03a","6554c743bae3c001856b3909","null","
        <div style=""text-align: center; position: fixed; top: 5vh; left: 40vw;"">
            <div style=""margin:0 auto; width: 20vw; top: 8vh; font-size: 1vw""> 
            <font color=""green""> Bonus : $0.75 </font>
            </div>
        </div>
    ","null","","","","","",""
"","","","","","html-keyboard-response","163","197520","0.0-6.0-3.21","60f43127b2b2e32120869426","6554bfa13ac4b6a0ab00b03a","6554c743bae3c001856b3909","249","./stimuli//pack_shapes/cat_1/ex_1_44.png","arrowleft","response","ArrowLeft","44","1","true",""
"","","","","","html-keyboard-response","164","198967","0.0-6.0-4.21","60f43127b2b2e32120869426","6554bfa13ac4b6a0ab00b03a","6554c743bae3c001856b3909","1447","<p> <font color=""green"" size=""4vw""> Correct category! </font> <br> <br> <font color=""green"" size=""7vw""> + $0.05 </font> </p>"," ","feedback","","","","","0.8"
"","","","","","html-keyboard-response","165","199272","0.0-6.0-0.22","60f43127b2b2e32120869426","6554bfa13ac4b6a0ab00b03a","6554c743bae3c001856b3909","304","
            
        <div style=""text-align: center; position: fixed; top: 5vh; left: 40vw;"">
            <div style=""margin:0 auto; width: 20vw; top: 8vh; font-size: 1vw""> 
            <font color=""green""> Bonus : $0.8 </font>
            </div>
        </div>
    
            <div> Please press any button to continue to the next trial.</div>
        "," ","ITI","","","","",""
"","","","","","html-keyboard-response","166","199884","0.0-6.0-1.22","60f43127b2b2e32120869426","6554bfa13ac4b6a0ab00b03a","6554c743bae3c001856b3909","null","
        
        <div style=""text-align: center; position: fixed; top: 5vh; left: 40vw;"">
            <div style=""margin:0 auto; width: 20vw; top: 8vh; font-size: 1vw""> 
            <font color=""green""> Bonus : $0.8 </font>
            </div>
        </div>
    
        <img class=""stim"" src=./stimuli//pack_shapes/cat_2/ex_2_54.png></img>
    ","null","stimulus","","","","",""
"","","","","","html-keyboard-response","167","200893","0.0-6.0-2.22","60f43127b2b2e32120869426","6554bfa13ac4b6a0ab00b03a","6554c743bae3c001856b3909","null","
        <div style=""text-align: center; position: fixed; top: 5vh; left: 40vw;"">
            <div style=""margin:0 auto; width: 20vw; top: 8vh; font-size: 1vw""> 
            <font color=""green""> Bonus : $0.8 </font>
            </div>
        </div>
    ","null","","","","","",""
"","","","","","html-keyboard-response","168","201225","0.0-6.0-3.22","60f43127b2b2e32120869426","6554bfa13ac4b6a0ab00b03a","6554c743bae3c001856b3909","332","./stimuli//pack_shapes/cat_2/ex_2_54.png","arrowleft","response","ArrowRight","54","2","false",""
"","","","","","html-keyboard-response","169","202736","0.0-6.0-4.22","60f43127b2b2e32120869426","6554bfa13ac4b6a0ab00b03a","6554c743bae3c001856b3909","null","<p> <font color=""red"" size=""4vw""> Wrong category! </font> </p>","null","feedback","","","","","0.8"
"","","","","","html-keyboard-response","170","202992","0.0-6.0-0.23","60f43127b2b2e32120869426","6554bfa13ac4b6a0ab00b03a","6554c743bae3c001856b3909","256","
            
        <div style=""text-align: center; position: fixed; top: 5vh; left: 40vw;"">
            <div style=""margin:0 auto; width: 20vw; top: 8vh; font-size: 1vw""> 
            <font color=""green""> Bonus : $0.8 </font>
            </div>
        </div>
    
            <div> Please press any button to continue to the next trial.</div>
        "," ","ITI","","","","",""
"","","","","","html-keyboard-response","171","203595","0.0-6.0-1.23","60f43127b2b2e32120869426","6554bfa13ac4b6a0ab00b03a","6554c743bae3c001856b3909","null","
        
        <div style=""text-align: center; position: fixed; top: 5vh; left: 40vw;"">
            <div style=""margin:0 auto; width: 20vw; top: 8vh; font-size: 1vw""> 
            <font color=""green""> Bonus : $0.8 </font>
            </div>
        </div>
    
        <img class=""stim"" src=./stimuli//pack_shapes/cat_1/ex_1_59.png></img>
    ","null","stimulus","","","","",""
"","","","","","html-keyboard-response","172","204602","0.0-6.0-2.23","60f43127b2b2e32120869426","6554bfa13ac4b6a0ab00b03a","6554c743bae3c001856b3909","null","
        <div style=""text-align: center; position: fixed; top: 5vh; left: 40vw;"">
            <div style=""margin:0 auto; width: 20vw; top: 8vh; font-size: 1vw""> 
            <font color=""green""> Bonus : $0.8 </font>
            </div>
        </div>
    ","null","","","","","",""
"","","","","","html-keyboard-response","173","204744","0.0-6.0-3.23","60f43127b2b2e32120869426","6554bfa13ac4b6a0ab00b03a","6554c743bae3c001856b3909","142","./stimuli//pack_shapes/cat_1/ex_1_59.png","arrowleft","response","ArrowLeft","59","1","true",""
"","","","","","html-keyboard-response","174","206251","0.0-6.0-4.23","60f43127b2b2e32120869426","6554bfa13ac4b6a0ab00b03a","6554c743bae3c001856b3909","null","<p> <font color=""green"" size=""4vw""> Correct category! </font> <br> <br> <font color=""green"" size=""7vw""> + $0.05 </font> </p>","null","feedback","","","","","0.85"
"","","","","","html-keyboard-response","175","206527","0.0-6.0-0.24","60f43127b2b2e32120869426","6554bfa13ac4b6a0ab00b03a","6554c743bae3c001856b3909","276","
            
        <div style=""text-align: center; position: fixed; top: 5vh; left: 40vw;"">
            <div style=""margin:0 auto; width: 20vw; top: 8vh; font-size: 1vw""> 
            <font color=""green""> Bonus : $0.85 </font>
            </div>
        </div>
    
            <div> Please press any button to continue to the next trial.</div>
        "," ","ITI","","","","",""
"","","","","","html-keyboard-response","176","207137","0.0-6.0-1.24","60f43127b2b2e32120869426","6554bfa13ac4b6a0ab00b03a","6554c743bae3c001856b3909","null","
        
        <div style=""text-align: center; position: fixed; top: 5vh; left: 40vw;"">
            <div style=""margin:0 auto; width: 20vw; top: 8vh; font-size: 1vw""> 
            <font color=""green""> Bonus : $0.85 </font>
            </div>
        </div>
    
        <img class=""stim"" src=./stimuli//pack_shapes/cat_2/ex_2_69.png></img>
    ","null","stimulus","","","","",""
"","","","","","html-keyboard-response","177","208146","0.0-6.0-2.24","60f43127b2b2e32120869426","6554bfa13ac4b6a0ab00b03a","6554c743bae3c001856b3909","null","
        <div style=""text-align: center; position: fixed; top: 5vh; left: 40vw;"">
            <div style=""margin:0 auto; width: 20vw; top: 8vh; font-size: 1vw""> 
            <font color=""green""> Bonus : $0.85 </font>
            </div>
        </div>
    ","null","","","","","",""
"","","","","","html-keyboard-response","178","208400","0.0-6.0-3.24","60f43127b2b2e32120869426","6554bfa13ac4b6a0ab00b03a","6554c743bae3c001856b3909","253","./stimuli//pack_shapes/cat_2/ex_2_69.png","arrowright","response","ArrowRight","69","2","true",""
"","","","","","html-keyboard-response","179","209888","0.0-6.0-4.24","60f43127b2b2e32120869426","6554bfa13ac4b6a0ab00b03a","6554c743bae3c001856b3909","1488","<p> <font color=""green"" size=""4vw""> Correct category! </font> <br> <br> <font color=""green"" size=""7vw""> + $0.05 </font> </p>"," ","feedback","","","","","0.9"
"","","","","","html-keyboard-response","180","210184","0.0-6.0-0.25","60f43127b2b2e32120869426","6554bfa13ac4b6a0ab00b03a","6554c743bae3c001856b3909","296","
            
        <div style=""text-align: center; position: fixed; top: 5vh; left: 40vw;"">
            <div style=""margin:0 auto; width: 20vw; top: 8vh; font-size: 1vw""> 
            <font color=""green""> Bonus : $0.9 </font>
            </div>
        </div>
    
            <div> Please press any button to continue to the next trial.</div>
        "," ","ITI","","","","",""
"","","","","","html-keyboard-response","181","210785","0.0-6.0-1.25","60f43127b2b2e32120869426","6554bfa13ac4b6a0ab00b03a","6554c743bae3c001856b3909","null","
        
        <div style=""text-align: center; position: fixed; top: 5vh; left: 40vw;"">
            <div style=""margin:0 auto; width: 20vw; top: 8vh; font-size: 1vw""> 
            <font color=""green""> Bonus : $0.9 </font>
            </div>
        </div>
    
        <img class=""stim"" src=./stimuli//pack_shapes/cat_2/ex_2_36.png></img>
    ","null","stimulus","","","","",""
"","","","","","html-keyboard-response","182","211799","0.0-6.0-2.25","60f43127b2b2e32120869426","6554bfa13ac4b6a0ab00b03a","6554c743bae3c001856b3909","null","
        <div style=""text-align: center; position: fixed; top: 5vh; left: 40vw;"">
            <div style=""margin:0 auto; width: 20vw; top: 8vh; font-size: 1vw""> 
            <font color=""green""> Bonus : $0.9 </font>
            </div>
        </div>
    ","null","","","","","",""
"","","","","","html-keyboard-response","183","212048","0.0-6.0-3.25","60f43127b2b2e32120869426","6554bfa13ac4b6a0ab00b03a","6554c743bae3c001856b3909","248","./stimuli//pack_shapes/cat_2/ex_2_36.png","arrowleft","response","ArrowRight","36","2","false",""
"","","","","","html-keyboard-response","184","213552","0.0-6.0-4.25","60f43127b2b2e32120869426","6554bfa13ac4b6a0ab00b03a","6554c743bae3c001856b3909","null","<p> <font color=""red"" size=""4vw""> Wrong category! </font> </p>","null","feedback","","","","","0.9"
"","","","","","html-keyboard-response","185","214232","0.0-6.0-0.26","60f43127b2b2e32120869426","6554bfa13ac4b6a0ab00b03a","6554c743bae3c001856b3909","679","
            
        <div style=""text-align: center; position: fixed; top: 5vh; left: 40vw;"">
            <div style=""margin:0 auto; width: 20vw; top: 8vh; font-size: 1vw""> 
            <font color=""green""> Bonus : $0.9 </font>
            </div>
        </div>
    
            <div> Please press any button to continue to the next trial.</div>
        "," ","ITI","","","","",""
"","","","","","html-keyboard-response","186","214833","0.0-6.0-1.26","60f43127b2b2e32120869426","6554bfa13ac4b6a0ab00b03a","6554c743bae3c001856b3909","null","
        
        <div style=""text-align: center; position: fixed; top: 5vh; left: 40vw;"">
            <div style=""margin:0 auto; width: 20vw; top: 8vh; font-size: 1vw""> 
            <font color=""green""> Bonus : $0.9 </font>
            </div>
        </div>
    
        <img class=""stim"" src=./stimuli//pack_shapes/cat_1/ex_1_28.png></img>
    ","null","stimulus","","","","",""
"","","","","","html-keyboard-response","187","215843","0.0-6.0-2.26","60f43127b2b2e32120869426","6554bfa13ac4b6a0ab00b03a","6554c743bae3c001856b3909","null","
        <div style=""text-align: center; position: fixed; top: 5vh; left: 40vw;"">
            <div style=""margin:0 auto; width: 20vw; top: 8vh; font-size: 1vw""> 
            <font color=""green""> Bonus : $0.9 </font>
            </div>
        </div>
    ","null","","","","","",""
"","","","","","html-keyboard-response","188","216040","0.0-6.0-3.26","60f43127b2b2e32120869426","6554bfa13ac4b6a0ab00b03a","6554c743bae3c001856b3909","197","./stimuli//pack_shapes/cat_1/ex_1_28.png","arrowleft","response","ArrowLeft","28","1","true",""
"","","","","","html-keyboard-response","189","217391","0.0-6.0-4.26","60f43127b2b2e32120869426","6554bfa13ac4b6a0ab00b03a","6554c743bae3c001856b3909","1351","<p> <font color=""green"" size=""4vw""> Correct category! </font> <br> <br> <font color=""green"" size=""7vw""> + $0.05 </font> </p>"," ","feedback","","","","","0.95"
"","","","","","html-keyboard-response","190","217672","0.0-6.0-0.27","60f43127b2b2e32120869426","6554bfa13ac4b6a0ab00b03a","6554c743bae3c001856b3909","280","
            
        <div style=""text-align: center; position: fixed; top: 5vh; left: 40vw;"">
            <div style=""margin:0 auto; width: 20vw; top: 8vh; font-size: 1vw""> 
            <font color=""green""> Bonus : $0.95 </font>
            </div>
        </div>
    
            <div> Please press any button to continue to the next trial.</div>
        "," ","ITI","","","","",""
"","","","","","html-keyboard-response","191","218276","0.0-6.0-1.27","60f43127b2b2e32120869426","6554bfa13ac4b6a0ab00b03a","6554c743bae3c001856b3909","null","
        
        <div style=""text-align: center; position: fixed; top: 5vh; left: 40vw;"">
            <div style=""margin:0 auto; width: 20vw; top: 8vh; font-size: 1vw""> 
            <font color=""green""> Bonus : $0.95 </font>
            </div>
        </div>
    
        <img class=""stim"" src=./stimuli//pack_shapes/cat_1/ex_1_18.png></img>
    ","null","stimulus","","","","",""
"","","","","","html-keyboard-response","192","219288","0.0-6.0-2.27","60f43127b2b2e32120869426","6554bfa13ac4b6a0ab00b03a","6554c743bae3c001856b3909","null","
        <div style=""text-align: center; position: fixed; top: 5vh; left: 40vw;"">
            <div style=""margin:0 auto; width: 20vw; top: 8vh; font-size: 1vw""> 
            <font color=""green""> Bonus : $0.95 </font>
            </div>
        </div>
    ","null","","","","","",""
"","","","","","html-keyboard-response","193","219496","0.0-6.0-3.27","60f43127b2b2e32120869426","6554bfa13ac4b6a0ab00b03a","6554c743bae3c001856b3909","207","./stimuli//pack_shapes/cat_1/ex_1_18.png","arrowright","response","ArrowLeft","18","1","false",""
"","","","","","html-keyboard-response","194","221003","0.0-6.0-4.27","60f43127b2b2e32120869426","6554bfa13ac4b6a0ab00b03a","6554c743bae3c001856b3909","null","<p> <font color=""red"" size=""4vw""> Wrong category! </font> </p>","null","feedback","","","","","0.95"
"","","","","","html-keyboard-response","195","221320","0.0-6.0-0.28","60f43127b2b2e32120869426","6554bfa13ac4b6a0ab00b03a","6554c743bae3c001856b3909","316","
            
        <div style=""text-align: center; position: fixed; top: 5vh; left: 40vw;"">
            <div style=""margin:0 auto; width: 20vw; top: 8vh; font-size: 1vw""> 
            <font color=""green""> Bonus : $0.95 </font>
            </div>
        </div>
    
            <div> Please press any button to continue to the next trial.</div>
        "," ","ITI","","","","",""
"","","","","","html-keyboard-response","196","221933","0.0-6.0-1.28","60f43127b2b2e32120869426","6554bfa13ac4b6a0ab00b03a","6554c743bae3c001856b3909","null","
        
        <div style=""text-align: center; position: fixed; top: 5vh; left: 40vw;"">
            <div style=""margin:0 auto; width: 20vw; top: 8vh; font-size: 1vw""> 
            <font color=""green""> Bonus : $0.95 </font>
            </div>
        </div>
    
        <img class=""stim"" src=./stimuli//pack_shapes/cat_2/ex_2_63.png></img>
    ","null","stimulus","","","","",""
"","","","","","html-keyboard-response","197","222943","0.0-6.0-2.28","60f43127b2b2e32120869426","6554bfa13ac4b6a0ab00b03a","6554c743bae3c001856b3909","null","
        <div style=""text-align: center; position: fixed; top: 5vh; left: 40vw;"">
            <div style=""margin:0 auto; width: 20vw; top: 8vh; font-size: 1vw""> 
            <font color=""green""> Bonus : $0.95 </font>
            </div>
        </div>
    ","null","","","","","",""
"","","","","","html-keyboard-response","198","223680","0.0-6.0-3.28","60f43127b2b2e32120869426","6554bfa13ac4b6a0ab00b03a","6554c743bae3c001856b3909","736","./stimuli//pack_shapes/cat_2/ex_2_63.png","arrowleft","response","ArrowRight","63","2","false",""
"","","","","","html-keyboard-response","199","225184","0.0-6.0-4.28","60f43127b2b2e32120869426","6554bfa13ac4b6a0ab00b03a","6554c743bae3c001856b3909","null","<p> <font color=""red"" size=""4vw""> Wrong category! </font> </p>","null","feedback","","","","","0.95"
"","","","","","html-keyboard-response","200","225752","0.0-6.0-0.29","60f43127b2b2e32120869426","6554bfa13ac4b6a0ab00b03a","6554c743bae3c001856b3909","567","
            
        <div style=""text-align: center; position: fixed; top: 5vh; left: 40vw;"">
            <div style=""margin:0 auto; width: 20vw; top: 8vh; font-size: 1vw""> 
            <font color=""green""> Bonus : $0.95 </font>
            </div>
        </div>
    
            <div> Please press any button to continue to the next trial.</div>
        "," ","ITI","","","","",""
"","","","","","html-keyboard-response","201","226356","0.0-6.0-1.29","60f43127b2b2e32120869426","6554bfa13ac4b6a0ab00b03a","6554c743bae3c001856b3909","null","
        
        <div style=""text-align: center; position: fixed; top: 5vh; left: 40vw;"">
            <div style=""margin:0 auto; width: 20vw; top: 8vh; font-size: 1vw""> 
            <font color=""green""> Bonus : $0.95 </font>
            </div>
        </div>
    
        <img class=""stim"" src=./stimuli//pack_shapes/cat_2/ex_2_70.png></img>
    ","null","stimulus","","","","",""
"","","","","","html-keyboard-response","202","227363","0.0-6.0-2.29","60f43127b2b2e32120869426","6554bfa13ac4b6a0ab00b03a","6554c743bae3c001856b3909","null","
        <div style=""text-align: center; position: fixed; top: 5vh; left: 40vw;"">
            <div style=""margin:0 auto; width: 20vw; top: 8vh; font-size: 1vw""> 
            <font color=""green""> Bonus : $0.95 </font>
            </div>
        </div>
    ","null","","","","","",""
"","","","","","html-keyboard-response","203","227440","0.0-6.0-3.29","60f43127b2b2e32120869426","6554bfa13ac4b6a0ab00b03a","6554c743bae3c001856b3909","77","./stimuli//pack_shapes/cat_2/ex_2_70.png","arrowright","response","ArrowRight","70","2","true",""
"","","","","","html-keyboard-response","204","228951","0.0-6.0-4.29","60f43127b2b2e32120869426","6554bfa13ac4b6a0ab00b03a","6554c743bae3c001856b3909","null","<p> <font color=""green"" size=""4vw""> Correct category! </font> <br> <br> <font color=""green"" size=""7vw""> + $0.05 </font> </p>","null","feedback","","","","","1"
"","","","","","html-keyboard-response","205","229264","0.0-6.0-0.30","60f43127b2b2e32120869426","6554bfa13ac4b6a0ab00b03a","6554c743bae3c001856b3909","313","
            
        <div style=""text-align: center; position: fixed; top: 5vh; left: 40vw;"">
            <div style=""margin:0 auto; width: 20vw; top: 8vh; font-size: 1vw""> 
            <font color=""green""> Bonus : $1 </font>
            </div>
        </div>
    
            <div> Please press any button to continue to the next trial.</div>
        "," ","ITI","","","","",""
"","","","","","html-keyboard-response","206","229881","0.0-6.0-1.30","60f43127b2b2e32120869426","6554bfa13ac4b6a0ab00b03a","6554c743bae3c001856b3909","null","
        
        <div style=""text-align: center; position: fixed; top: 5vh; left: 40vw;"">
            <div style=""margin:0 auto; width: 20vw; top: 8vh; font-size: 1vw""> 
            <font color=""green""> Bonus : $1 </font>
            </div>
        </div>
    
        <img class=""stim"" src=./stimuli//pack_shapes/cat_2/ex_2_40.png></img>
    ","null","stimulus","","","","",""
"","","","","","html-keyboard-response","207","230883","0.0-6.0-2.30","60f43127b2b2e32120869426","6554bfa13ac4b6a0ab00b03a","6554c743bae3c001856b3909","null","
        <div style=""text-align: center; position: fixed; top: 5vh; left: 40vw;"">
            <div style=""margin:0 auto; width: 20vw; top: 8vh; font-size: 1vw""> 
            <font color=""green""> Bonus : $1 </font>
            </div>
        </div>
    ","null","","","","","",""
"","","","","","html-keyboard-response","208","230897","0.0-6.0-3.30","60f43127b2b2e32120869426","6554bfa13ac4b6a0ab00b03a","6554c743bae3c001856b3909","13","./stimuli//pack_shapes/cat_2/ex_2_40.png","arrowright","response","ArrowRight","40","2","true",""
"","","","","","html-keyboard-response","209","231220","0.0-6.0-4.30","60f43127b2b2e32120869426","6554bfa13ac4b6a0ab00b03a","6554c743bae3c001856b3909","324","<p> <font color=""green"" size=""4vw""> Correct category! </font> <br> <br> <font color=""green"" size=""7vw""> + $0.05 </font> </p>","arrowright","feedback","","","","","1.05"
"","","","","","html-keyboard-response","210","231816","0.0-6.0-0.31","60f43127b2b2e32120869426","6554bfa13ac4b6a0ab00b03a","6554c743bae3c001856b3909","596","
            
        <div style=""text-align: center; position: fixed; top: 5vh; left: 40vw;"">
            <div style=""margin:0 auto; width: 20vw; top: 8vh; font-size: 1vw""> 
            <font color=""green""> Bonus : $1.05 </font>
            </div>
        </div>
    
            <div> Please press any button to continue to the next trial.</div>
        "," ","ITI","","","","",""
"","","","","","html-keyboard-response","211","232426","0.0-6.0-1.31","60f43127b2b2e32120869426","6554bfa13ac4b6a0ab00b03a","6554c743bae3c001856b3909","null","
        
        <div style=""text-align: center; position: fixed; top: 5vh; left: 40vw;"">
            <div style=""margin:0 auto; width: 20vw; top: 8vh; font-size: 1vw""> 
            <font color=""green""> Bonus : $1.05 </font>
            </div>
        </div>
    
        <img class=""stim"" src=./stimuli//pack_shapes/cat_1/ex_1_74.png></img>
    ","null","stimulus","","","","",""
"","","","","","html-keyboard-response","212","233438","0.0-6.0-2.31","60f43127b2b2e32120869426","6554bfa13ac4b6a0ab00b03a","6554c743bae3c001856b3909","null","
        <div style=""text-align: center; position: fixed; top: 5vh; left: 40vw;"">
            <div style=""margin:0 auto; width: 20vw; top: 8vh; font-size: 1vw""> 
            <font color=""green""> Bonus : $1.05 </font>
            </div>
        </div>
    ","null","","","","","",""
"","","","","","html-keyboard-response","213","233713","0.0-6.0-3.31","60f43127b2b2e32120869426","6554bfa13ac4b6a0ab00b03a","6554c743bae3c001856b3909","274","./stimuli//pack_shapes/cat_1/ex_1_74.png","arrowleft","response","ArrowLeft","74","1","true",""
"","","","","","html-keyboard-response","214","235216","0.0-6.0-4.31","60f43127b2b2e32120869426","6554bfa13ac4b6a0ab00b03a","6554c743bae3c001856b3909","null","<p> <font color=""green"" size=""4vw""> Correct category! </font> <br> <br> <font color=""green"" size=""7vw""> + $0.05 </font> </p>","null","feedback","","","","","1.1"
"","","","","","html-keyboard-response","215","235440","0.0-6.0-0.32","60f43127b2b2e32120869426","6554bfa13ac4b6a0ab00b03a","6554c743bae3c001856b3909","223","
            
        <div style=""text-align: center; position: fixed; top: 5vh; left: 40vw;"">
            <div style=""margin:0 auto; width: 20vw; top: 8vh; font-size: 1vw""> 
            <font color=""green""> Bonus : $1.1 </font>
            </div>
        </div>
    
            <div> Please press any button to continue to the next trial.</div>
        "," ","ITI","","","","",""
"","","","","","html-keyboard-response","216","236041","0.0-6.0-1.32","60f43127b2b2e32120869426","6554bfa13ac4b6a0ab00b03a","6554c743bae3c001856b3909","null","
        
        <div style=""text-align: center; position: fixed; top: 5vh; left: 40vw;"">
            <div style=""margin:0 auto; width: 20vw; top: 8vh; font-size: 1vw""> 
            <font color=""green""> Bonus : $1.1 </font>
            </div>
        </div>
    
        <img class=""stim"" src=./stimuli//pack_shapes/cat_1/ex_1_54.png></img>
    ","null","stimulus","","","","",""
"","","","","","html-keyboard-response","217","237054","0.0-6.0-2.32","60f43127b2b2e32120869426","6554bfa13ac4b6a0ab00b03a","6554c743bae3c001856b3909","null","
        <div style=""text-align: center; position: fixed; top: 5vh; left: 40vw;"">
            <div style=""margin:0 auto; width: 20vw; top: 8vh; font-size: 1vw""> 
            <font color=""green""> Bonus : $1.1 </font>
            </div>
        </div>
    ","null","","","","","",""
"","","","","","html-keyboard-response","218","237297","0.0-6.0-3.32","60f43127b2b2e32120869426","6554bfa13ac4b6a0ab00b03a","6554c743bae3c001856b3909","242","./stimuli//pack_shapes/cat_1/ex_1_54.png","arrowleft","response","ArrowLeft","54","1","true",""
"","","","","","html-keyboard-response","219","238801","0.0-6.0-4.32","60f43127b2b2e32120869426","6554bfa13ac4b6a0ab00b03a","6554c743bae3c001856b3909","null","<p> <font color=""green"" size=""4vw""> Correct category! </font> <br> <br> <font color=""green"" size=""7vw""> + $0.05 </font> </p>","null","feedback","","","","","1.15"
"","","","","","html-keyboard-response","220","239065","0.0-6.0-0.33","60f43127b2b2e32120869426","6554bfa13ac4b6a0ab00b03a","6554c743bae3c001856b3909","263","
            
        <div style=""text-align: center; position: fixed; top: 5vh; left: 40vw;"">
            <div style=""margin:0 auto; width: 20vw; top: 8vh; font-size: 1vw""> 
            <font color=""green""> Bonus : $1.15 </font>
            </div>
        </div>
    
            <div> Please press any button to continue to the next trial.</div>
        "," ","ITI","","","","",""
"","","","","","html-keyboard-response","221","239672","0.0-6.0-1.33","60f43127b2b2e32120869426","6554bfa13ac4b6a0ab00b03a","6554c743bae3c001856b3909","null","
        
        <div style=""text-align: center; position: fixed; top: 5vh; left: 40vw;"">
            <div style=""margin:0 auto; width: 20vw; top: 8vh; font-size: 1vw""> 
            <font color=""green""> Bonus : $1.15 </font>
            </div>
        </div>
    
        <img class=""stim"" src=./stimuli//pack_shapes/cat_2/ex_2_61.png></img>
    ","null","stimulus","","","","",""
"","","","","","html-keyboard-response","222","240684","0.0-6.0-2.33","60f43127b2b2e32120869426","6554bfa13ac4b6a0ab00b03a","6554c743bae3c001856b3909","null","
        <div style=""text-align: center; position: fixed; top: 5vh; left: 40vw;"">
            <div style=""margin:0 auto; width: 20vw; top: 8vh; font-size: 1vw""> 
            <font color=""green""> Bonus : $1.15 </font>
            </div>
        </div>
    ","null","","","","","",""
"","","","","","html-keyboard-response","223","240865","0.0-6.0-3.33","60f43127b2b2e32120869426","6554bfa13ac4b6a0ab00b03a","6554c743bae3c001856b3909","181","./stimuli//pack_shapes/cat_2/ex_2_61.png","arrowright","response","ArrowRight","61","2","true",""
"","","","","","html-keyboard-response","224","241808","0.0-6.0-4.33","60f43127b2b2e32120869426","6554bfa13ac4b6a0ab00b03a","6554c743bae3c001856b3909","942","<p> <font color=""green"" size=""4vw""> Correct category! </font> <br> <br> <font color=""green"" size=""7vw""> + $0.05 </font> </p>"," ","feedback","","","","","1.2"
"","","","","","html-keyboard-response","225","242064","0.0-6.0-0.34","60f43127b2b2e32120869426","6554bfa13ac4b6a0ab00b03a","6554c743bae3c001856b3909","256","
            
        <div style=""text-align: center; position: fixed; top: 5vh; left: 40vw;"">
            <div style=""margin:0 auto; width: 20vw; top: 8vh; font-size: 1vw""> 
            <font color=""green""> Bonus : $1.2 </font>
            </div>
        </div>
    
            <div> Please press any button to continue to the next trial.</div>
        "," ","ITI","","","","",""
"","","","","","html-keyboard-response","226","242680","0.0-6.0-1.34","60f43127b2b2e32120869426","6554bfa13ac4b6a0ab00b03a","6554c743bae3c001856b3909","null","
        
        <div style=""text-align: center; position: fixed; top: 5vh; left: 40vw;"">
            <div style=""margin:0 auto; width: 20vw; top: 8vh; font-size: 1vw""> 
            <font color=""green""> Bonus : $1.2 </font>
            </div>
        </div>
    
        <img class=""stim"" src=./stimuli//pack_shapes/cat_1/ex_1_67.png></img>
    ","null","stimulus","","","","",""
"","","","","","html-keyboard-response","227","243688","0.0-6.0-2.34","60f43127b2b2e32120869426","6554bfa13ac4b6a0ab00b03a","6554c743bae3c001856b3909","null","
        <div style=""text-align: center; position: fixed; top: 5vh; left: 40vw;"">
            <div style=""margin:0 auto; width: 20vw; top: 8vh; font-size: 1vw""> 
            <font color=""green""> Bonus : $1.2 </font>
            </div>
        </div>
    ","null","","","","","",""
"","","","","","html-keyboard-response","228","243992","0.0-6.0-3.34","60f43127b2b2e32120869426","6554bfa13ac4b6a0ab00b03a","6554c743bae3c001856b3909","302","./stimuli//pack_shapes/cat_1/ex_1_67.png","arrowleft","response","ArrowLeft","67","1","true",""
"","","","","","html-keyboard-response","229","245328","0.0-6.0-4.34","60f43127b2b2e32120869426","6554bfa13ac4b6a0ab00b03a","6554c743bae3c001856b3909","1336","<p> <font color=""green"" size=""4vw""> Correct category! </font> <br> <br> <font color=""green"" size=""7vw""> + $0.05 </font> </p>"," ","feedback","","","","","1.25"
"","","","","","html-keyboard-response","230","245640","0.0-6.0-0.35","60f43127b2b2e32120869426","6554bfa13ac4b6a0ab00b03a","6554c743bae3c001856b3909","312","
            
        <div style=""text-align: center; position: fixed; top: 5vh; left: 40vw;"">
            <div style=""margin:0 auto; width: 20vw; top: 8vh; font-size: 1vw""> 
            <font color=""green""> Bonus : $1.25 </font>
            </div>
        </div>
    
            <div> Please press any button to continue to the next trial.</div>
        "," ","ITI","","","","",""
"","","","","","html-keyboard-response","231","246244","0.0-6.0-1.35","60f43127b2b2e32120869426","6554bfa13ac4b6a0ab00b03a","6554c743bae3c001856b3909","null","
        
        <div style=""text-align: center; position: fixed; top: 5vh; left: 40vw;"">
            <div style=""margin:0 auto; width: 20vw; top: 8vh; font-size: 1vw""> 
            <font color=""green""> Bonus : $1.25 </font>
            </div>
        </div>
    
        <img class=""stim"" src=./stimuli//pack_shapes/cat_1/ex_1_7.png></img>
    ","null","stimulus","","","","",""
"","","","","","html-keyboard-response","232","247259","0.0-6.0-2.35","60f43127b2b2e32120869426","6554bfa13ac4b6a0ab00b03a","6554c743bae3c001856b3909","null","
        <div style=""text-align: center; position: fixed; top: 5vh; left: 40vw;"">
            <div style=""margin:0 auto; width: 20vw; top: 8vh; font-size: 1vw""> 
            <font color=""green""> Bonus : $1.25 </font>
            </div>
        </div>
    ","null","","","","","",""
"","","","","","html-keyboard-response","233","247393","0.0-6.0-3.35","60f43127b2b2e32120869426","6554bfa13ac4b6a0ab00b03a","6554c743bae3c001856b3909","133","./stimuli//pack_shapes/cat_1/ex_1_7.png","arrowright","response","ArrowLeft","7","1","false",""
"","","","","","html-keyboard-response","234","248903","0.0-6.0-4.35","60f43127b2b2e32120869426","6554bfa13ac4b6a0ab00b03a","6554c743bae3c001856b3909","null","<p> <font color=""red"" size=""4vw""> Wrong category! </font> </p>","null","feedback","","","","","1.25"
"","","","","","html-keyboard-response","235","249208","0.0-6.0-0.36","60f43127b2b2e32120869426","6554bfa13ac4b6a0ab00b03a","6554c743bae3c001856b3909","305","
            
        <div style=""text-align: center; position: fixed; top: 5vh; left: 40vw;"">
            <div style=""margin:0 auto; width: 20vw; top: 8vh; font-size: 1vw""> 
            <font color=""green""> Bonus : $1.25 </font>
            </div>
        </div>
    
            <div> Please press any button to continue to the next trial.</div>
        "," ","ITI","","","","",""
"","","","","","html-keyboard-response","236","249824","0.0-6.0-1.36","60f43127b2b2e32120869426","6554bfa13ac4b6a0ab00b03a","6554c743bae3c001856b3909","null","
        
        <div style=""text-align: center; position: fixed; top: 5vh; left: 40vw;"">
            <div style=""margin:0 auto; width: 20vw; top: 8vh; font-size: 1vw""> 
            <font color=""green""> Bonus : $1.25 </font>
            </div>
        </div>
    
        <img class=""stim"" src=./stimuli//pack_shapes/cat_2/ex_2_52.png></img>
    ","null","stimulus","","","","",""
"","","","","","html-keyboard-response","237","250832","0.0-6.0-2.36","60f43127b2b2e32120869426","6554bfa13ac4b6a0ab00b03a","6554c743bae3c001856b3909","null","
        <div style=""text-align: center; position: fixed; top: 5vh; left: 40vw;"">
            <div style=""margin:0 auto; width: 20vw; top: 8vh; font-size: 1vw""> 
