"success","timeout","failed_images","failed_audio","failed_video","trial_type","trial_index","time_elapsed","internal_node_id","subject_id","study_id","session_id","rt","stimulus","response","task","correct_response","exemplar_ID","category","correct","bonus"
"true","false","[]","[]","[]","preload","0","2","0.0-0.0","64935b0f0075f5a969a42686","6554bfa13ac4b6a0ab00b03a","6554bfef683f4dbddef570a6","","","","","","","","",""
"","","","","","html-keyboard-response","1","4488","0.0-1.0","64935b0f0075f5a969a42686","6554bfa13ac4b6a0ab00b03a","6554bfef683f4dbddef570a6","4485","Welcome to the Category Learning experiment! Press any key to continue.","enter","welcome","","","","",""
"","","","","","html-keyboard-response","2","29837","0.0-2.0","64935b0f0075f5a969a42686","6554bfa13ac4b6a0ab00b03a","6554bfef683f4dbddef570a6","25348","
            <p>You will be shown images of black shapes.  Some are category A, some are category B.
            <br>You will not know in advance which category a specific shape belongs to.</p>
            <p>After you see an image, you will be asked to guess its category <b>(left arrow for category A, right arrow for category B)</b></p>
            <p>After you choose, the screen will show you whether you were correct or not.</p>
            <p><b>You will receive a bonus payment of $0.05 for each correct answer!</b></p>
            <p> So you can increase your bonus by guessing correctly, and by guessing as quickly as possible so you move on to the next image sooner.</p>
            <p>Press any key to continue.</p>
            "," ","introduction_1","","","","",""
"","","","","","html-keyboard-response","3","33773","0.0-3.0","64935b0f0075f5a969a42686","6554bfa13ac4b6a0ab00b03a","6554bfef683f4dbddef570a6","3936","
            <p> <b>The first 10 trials are a practice round that will not count towards your bonus payment.</b></p>
            <p> You will be notified when practice finishes and the test begins. </p>
            <p> Press any key to begin the practice round.</p>
            "," ","introduction_2","","","","",""
"","","","","","html-keyboard-response","4","34981","0.0-4.0-0.0","64935b0f0075f5a969a42686","6554bfa13ac4b6a0ab00b03a","6554bfef683f4dbddef570a6","1207","
            
        <div style=""text-align: center; position: fixed; top: 5vh; left: 40vw;"">
            <div style=""margin:0 auto; width: 20vw; top: 8vh; font-size: 1vw""> 
            <font color=""green""> Bonus : $0 </font>
            </div>
        </div>
    
            <div> Please press any button to continue to the next trial.</div>
        "," ","ITI","","","","",""
"","","","","","html-keyboard-response","5","35586","0.0-4.0-1.0","64935b0f0075f5a969a42686","6554bfa13ac4b6a0ab00b03a","6554bfef683f4dbddef570a6","null","
        
        <div style=""text-align: center; position: fixed; top: 5vh; left: 40vw;"">
            <div style=""margin:0 auto; width: 20vw; top: 8vh; font-size: 1vw""> 
            <font color=""green""> Bonus : $0 </font>
            </div>
        </div>
    
        <img class=""stim"" src=./stimuli//pack_shapes/cat_2/ex_2_49.png></img>
    ","null","stimulus","","","","",""
"","","","","","html-keyboard-response","6","36597","0.0-4.0-2.0","64935b0f0075f5a969a42686","6554bfa13ac4b6a0ab00b03a","6554bfef683f4dbddef570a6","null","
        <div style=""text-align: center; position: fixed; top: 5vh; left: 40vw;"">
            <div style=""margin:0 auto; width: 20vw; top: 8vh; font-size: 1vw""> 
            <font color=""green""> Bonus : $0 </font>
            </div>
        </div>
    ","null","","","","","",""
"","","","","","html-keyboard-response","7","37545","0.0-4.0-3.0","64935b0f0075f5a969a42686","6554bfa13ac4b6a0ab00b03a","6554bfef683f4dbddef570a6","947","./stimuli//pack_shapes/cat_2/ex_2_49.png","arrowright","response","ArrowRight","49","2","true",""
"","","","","","html-keyboard-response","8","39055","0.0-4.0-4.0","64935b0f0075f5a969a42686","6554bfa13ac4b6a0ab00b03a","6554bfef683f4dbddef570a6","null","<p> <font color=""green"" size=""4vw""> Correct category! </font> </p>","null","feedback","","","","","0"
"","","","","","html-keyboard-response","9","40406","0.0-4.0-0.1","64935b0f0075f5a969a42686","6554bfa13ac4b6a0ab00b03a","6554bfef683f4dbddef570a6","1352","
            
        <div style=""text-align: center; position: fixed; top: 5vh; left: 40vw;"">
            <div style=""margin:0 auto; width: 20vw; top: 8vh; font-size: 1vw""> 
            <font color=""green""> Bonus : $0 </font>
            </div>
        </div>
    
            <div> Please press any button to continue to the next trial.</div>
        ","arrowright","ITI","","","","",""
"","","","","","html-keyboard-response","10","41009","0.0-4.0-1.1","64935b0f0075f5a969a42686","6554bfa13ac4b6a0ab00b03a","6554bfef683f4dbddef570a6","null","
        
        <div style=""text-align: center; position: fixed; top: 5vh; left: 40vw;"">
            <div style=""margin:0 auto; width: 20vw; top: 8vh; font-size: 1vw""> 
            <font color=""green""> Bonus : $0 </font>
            </div>
        </div>
    
        <img class=""stim"" src=./stimuli//pack_shapes/cat_1/ex_1_49.png></img>
    ","null","stimulus","","","","",""
"","","","","","html-keyboard-response","11","42012","0.0-4.0-2.1","64935b0f0075f5a969a42686","6554bfa13ac4b6a0ab00b03a","6554bfef683f4dbddef570a6","null","
        <div style=""text-align: center; position: fixed; top: 5vh; left: 40vw;"">
            <div style=""margin:0 auto; width: 20vw; top: 8vh; font-size: 1vw""> 
            <font color=""green""> Bonus : $0 </font>
            </div>
        </div>
    ","null","","","","","",""
"","","","","","html-keyboard-response","12","42729","0.0-4.0-3.1","64935b0f0075f5a969a42686","6554bfa13ac4b6a0ab00b03a","6554bfef683f4dbddef570a6","715","./stimuli//pack_shapes/cat_1/ex_1_49.png","arrowleft","response","ArrowLeft","49","1","true",""
"","","","","","html-keyboard-response","13","44243","0.0-4.0-4.1","64935b0f0075f5a969a42686","6554bfa13ac4b6a0ab00b03a","6554bfef683f4dbddef570a6","null","<p> <font color=""green"" size=""4vw""> Correct category! </font> </p>","null","feedback","","","","","0"
"","","","","","html-keyboard-response","14","45069","0.0-4.0-0.2","64935b0f0075f5a969a42686","6554bfa13ac4b6a0ab00b03a","6554bfef683f4dbddef570a6","825","
            
        <div style=""text-align: center; position: fixed; top: 5vh; left: 40vw;"">
            <div style=""margin:0 auto; width: 20vw; top: 8vh; font-size: 1vw""> 
            <font color=""green""> Bonus : $0 </font>
            </div>
        </div>
    
            <div> Please press any button to continue to the next trial.</div>
        ","arrowright","ITI","","","","",""
"","","","","","html-keyboard-response","15","45684","0.0-4.0-1.2","64935b0f0075f5a969a42686","6554bfa13ac4b6a0ab00b03a","6554bfef683f4dbddef570a6","null","
        
        <div style=""text-align: center; position: fixed; top: 5vh; left: 40vw;"">
            <div style=""margin:0 auto; width: 20vw; top: 8vh; font-size: 1vw""> 
            <font color=""green""> Bonus : $0 </font>
            </div>
        </div>
    
        <img class=""stim"" src=./stimuli//pack_shapes/cat_2/ex_2_80.png></img>
    ","null","stimulus","","","","",""
"","","","","","html-keyboard-response","16","46695","0.0-4.0-2.2","64935b0f0075f5a969a42686","6554bfa13ac4b6a0ab00b03a","6554bfef683f4dbddef570a6","null","
        <div style=""text-align: center; position: fixed; top: 5vh; left: 40vw;"">
            <div style=""margin:0 auto; width: 20vw; top: 8vh; font-size: 1vw""> 
            <font color=""green""> Bonus : $0 </font>
            </div>
        </div>
    ","null","","","","","",""
"","","","","","html-keyboard-response","17","46976","0.0-4.0-3.2","64935b0f0075f5a969a42686","6554bfa13ac4b6a0ab00b03a","6554bfef683f4dbddef570a6","279","./stimuli//pack_shapes/cat_2/ex_2_80.png","arrowright","response","ArrowRight","80","2","true",""
"","","","","","html-keyboard-response","18","48478","0.0-4.0-4.2","64935b0f0075f5a969a42686","6554bfa13ac4b6a0ab00b03a","6554bfef683f4dbddef570a6","null","<p> <font color=""green"" size=""4vw""> Correct category! </font> </p>","null","feedback","","","","","0"
"","","","","","html-keyboard-response","19","49535","0.0-4.0-0.3","64935b0f0075f5a969a42686","6554bfa13ac4b6a0ab00b03a","6554bfef683f4dbddef570a6","1057","
            
        <div style=""text-align: center; position: fixed; top: 5vh; left: 40vw;"">
            <div style=""margin:0 auto; width: 20vw; top: 8vh; font-size: 1vw""> 
            <font color=""green""> Bonus : $0 </font>
            </div>
        </div>
    
            <div> Please press any button to continue to the next trial.</div>
        ","arrowright","ITI","","","","",""
"","","","","","html-keyboard-response","20","50150","0.0-4.0-1.3","64935b0f0075f5a969a42686","6554bfa13ac4b6a0ab00b03a","6554bfef683f4dbddef570a6","null","
        
        <div style=""text-align: center; position: fixed; top: 5vh; left: 40vw;"">
            <div style=""margin:0 auto; width: 20vw; top: 8vh; font-size: 1vw""> 
            <font color=""green""> Bonus : $0 </font>
            </div>
        </div>
    
        <img class=""stim"" src=./stimuli//pack_shapes/cat_1/ex_1_39.png></img>
    ","null","stimulus","","","","",""
"","","","","","html-keyboard-response","21","51161","0.0-4.0-2.3","64935b0f0075f5a969a42686","6554bfa13ac4b6a0ab00b03a","6554bfef683f4dbddef570a6","null","
        <div style=""text-align: center; position: fixed; top: 5vh; left: 40vw;"">
            <div style=""margin:0 auto; width: 20vw; top: 8vh; font-size: 1vw""> 
            <font color=""green""> Bonus : $0 </font>
            </div>
        </div>
    ","null","","","","","",""
"","","","","","html-keyboard-response","22","51474","0.0-4.0-3.3","64935b0f0075f5a969a42686","6554bfa13ac4b6a0ab00b03a","6554bfef683f4dbddef570a6","312","./stimuli//pack_shapes/cat_1/ex_1_39.png","arrowleft","response","ArrowLeft","39","1","true",""
"","","","","","html-keyboard-response","23","52978","0.0-4.0-4.3","64935b0f0075f5a969a42686","6554bfa13ac4b6a0ab00b03a","6554bfef683f4dbddef570a6","null","<p> <font color=""green"" size=""4vw""> Correct category! </font> </p>","null","feedback","","","","","0"
"","","","","","html-keyboard-response","24","53758","0.0-4.0-0.4","64935b0f0075f5a969a42686","6554bfa13ac4b6a0ab00b03a","6554bfef683f4dbddef570a6","778","
            
        <div style=""text-align: center; position: fixed; top: 5vh; left: 40vw;"">
            <div style=""margin:0 auto; width: 20vw; top: 8vh; font-size: 1vw""> 
            <font color=""green""> Bonus : $0 </font>
            </div>
        </div>
    
            <div> Please press any button to continue to the next trial.</div>
        ","arrowright","ITI","","","","",""
"","","","","","html-keyboard-response","25","54366","0.0-4.0-1.4","64935b0f0075f5a969a42686","6554bfa13ac4b6a0ab00b03a","6554bfef683f4dbddef570a6","null","
        
        <div style=""text-align: center; position: fixed; top: 5vh; left: 40vw;"">
            <div style=""margin:0 auto; width: 20vw; top: 8vh; font-size: 1vw""> 
            <font color=""green""> Bonus : $0 </font>
            </div>
        </div>
    
        <img class=""stim"" src=./stimuli//pack_shapes/cat_2/ex_2_39.png></img>
    ","null","stimulus","","","","",""
"","","","","","html-keyboard-response","26","55380","0.0-4.0-2.4","64935b0f0075f5a969a42686","6554bfa13ac4b6a0ab00b03a","6554bfef683f4dbddef570a6","null","
        <div style=""text-align: center; position: fixed; top: 5vh; left: 40vw;"">
            <div style=""margin:0 auto; width: 20vw; top: 8vh; font-size: 1vw""> 
            <font color=""green""> Bonus : $0 </font>
            </div>
        </div>
    ","null","","","","","",""
"","","","","","html-keyboard-response","27","55701","0.0-4.0-3.4","64935b0f0075f5a969a42686","6554bfa13ac4b6a0ab00b03a","6554bfef683f4dbddef570a6","320","./stimuli//pack_shapes/cat_2/ex_2_39.png","arrowright","response","ArrowRight","39","2","true",""
"","","","","","html-keyboard-response","28","57216","0.0-4.0-4.4","64935b0f0075f5a969a42686","6554bfa13ac4b6a0ab00b03a","6554bfef683f4dbddef570a6","null","<p> <font color=""green"" size=""4vw""> Correct category! </font> </p>","null","feedback","","","","","0"
"","","","","","html-keyboard-response","29","58631","0.0-4.0-0.5","64935b0f0075f5a969a42686","6554bfa13ac4b6a0ab00b03a","6554bfef683f4dbddef570a6","1414","
            
        <div style=""text-align: center; position: fixed; top: 5vh; left: 40vw;"">
            <div style=""margin:0 auto; width: 20vw; top: 8vh; font-size: 1vw""> 
            <font color=""green""> Bonus : $0 </font>
            </div>
        </div>
    
            <div> Please press any button to continue to the next trial.</div>
        ","arrowright","ITI","","","","",""
"","","","","","html-keyboard-response","30","59243","0.0-4.0-1.5","64935b0f0075f5a969a42686","6554bfa13ac4b6a0ab00b03a","6554bfef683f4dbddef570a6","null","
        
        <div style=""text-align: center; position: fixed; top: 5vh; left: 40vw;"">
            <div style=""margin:0 auto; width: 20vw; top: 8vh; font-size: 1vw""> 
            <font color=""green""> Bonus : $0 </font>
            </div>
        </div>
    
        <img class=""stim"" src=./stimuli//pack_shapes/cat_1/ex_1_75.png></img>
    ","null","stimulus","","","","",""
"","","","","","html-keyboard-response","31","60254","0.0-4.0-2.5","64935b0f0075f5a969a42686","6554bfa13ac4b6a0ab00b03a","6554bfef683f4dbddef570a6","null","
        <div style=""text-align: center; position: fixed; top: 5vh; left: 40vw;"">
            <div style=""margin:0 auto; width: 20vw; top: 8vh; font-size: 1vw""> 
            <font color=""green""> Bonus : $0 </font>
            </div>
        </div>
    ","null","","","","","",""
"","","","","","html-keyboard-response","32","60647","0.0-4.0-3.5","64935b0f0075f5a969a42686","6554bfa13ac4b6a0ab00b03a","6554bfef683f4dbddef570a6","392","./stimuli//pack_shapes/cat_1/ex_1_75.png","arrowleft","response","ArrowLeft","75","1","true",""
"","","","","","html-keyboard-response","33","62152","0.0-4.0-4.5","64935b0f0075f5a969a42686","6554bfa13ac4b6a0ab00b03a","6554bfef683f4dbddef570a6","null","<p> <font color=""green"" size=""4vw""> Correct category! </font> </p>","null","feedback","","","","","0"
"","","","","","html-keyboard-response","34","63235","0.0-4.0-0.6","64935b0f0075f5a969a42686","6554bfa13ac4b6a0ab00b03a","6554bfef683f4dbddef570a6","1082","
            
        <div style=""text-align: center; position: fixed; top: 5vh; left: 40vw;"">
            <div style=""margin:0 auto; width: 20vw; top: 8vh; font-size: 1vw""> 
            <font color=""green""> Bonus : $0 </font>
            </div>
        </div>
    
            <div> Please press any button to continue to the next trial.</div>
        ","arrowright","ITI","","","","",""
"","","","","","html-keyboard-response","35","63849","0.0-4.0-1.6","64935b0f0075f5a969a42686","6554bfa13ac4b6a0ab00b03a","6554bfef683f4dbddef570a6","null","
        
        <div style=""text-align: center; position: fixed; top: 5vh; left: 40vw;"">
            <div style=""margin:0 auto; width: 20vw; top: 8vh; font-size: 1vw""> 
            <font color=""green""> Bonus : $0 </font>
            </div>
        </div>
    
        <img class=""stim"" src=./stimuli//pack_shapes/cat_2/ex_2_29.png></img>
    ","null","stimulus","","","","",""
"","","","","","html-keyboard-response","36","64850","0.0-4.0-2.6","64935b0f0075f5a969a42686","6554bfa13ac4b6a0ab00b03a","6554bfef683f4dbddef570a6","null","
        <div style=""text-align: center; position: fixed; top: 5vh; left: 40vw;"">
            <div style=""margin:0 auto; width: 20vw; top: 8vh; font-size: 1vw""> 
            <font color=""green""> Bonus : $0 </font>
            </div>
        </div>
    ","null","","","","","",""
"","","","","","html-keyboard-response","37","65105","0.0-4.0-3.6","64935b0f0075f5a969a42686","6554bfa13ac4b6a0ab00b03a","6554bfef683f4dbddef570a6","254","./stimuli//pack_shapes/cat_2/ex_2_29.png","arrowright","response","ArrowRight","29","2","true",""
"","","","","","html-keyboard-response","38","66607","0.0-4.0-4.6","64935b0f0075f5a969a42686","6554bfa13ac4b6a0ab00b03a","6554bfef683f4dbddef570a6","null","<p> <font color=""green"" size=""4vw""> Correct category! </font> </p>","null","feedback","","","","","0"
"","","","","","html-keyboard-response","39","66947","0.0-4.0-0.7","64935b0f0075f5a969a42686","6554bfa13ac4b6a0ab00b03a","6554bfef683f4dbddef570a6","339","
            
        <div style=""text-align: center; position: fixed; top: 5vh; left: 40vw;"">
            <div style=""margin:0 auto; width: 20vw; top: 8vh; font-size: 1vw""> 
            <font color=""green""> Bonus : $0 </font>
            </div>
        </div>
    
            <div> Please press any button to continue to the next trial.</div>
        ","arrowright","ITI","","","","",""
"","","","","","html-keyboard-response","40","67562","0.0-4.0-1.7","64935b0f0075f5a969a42686","6554bfa13ac4b6a0ab00b03a","6554bfef683f4dbddef570a6","null","
        
        <div style=""text-align: center; position: fixed; top: 5vh; left: 40vw;"">
            <div style=""margin:0 auto; width: 20vw; top: 8vh; font-size: 1vw""> 
            <font color=""green""> Bonus : $0 </font>
            </div>
        </div>
    
        <img class=""stim"" src=./stimuli//pack_shapes/cat_1/ex_1_29.png></img>
    ","null","stimulus","","","","",""
"","","","","","html-keyboard-response","41","68563","0.0-4.0-2.7","64935b0f0075f5a969a42686","6554bfa13ac4b6a0ab00b03a","6554bfef683f4dbddef570a6","null","
        <div style=""text-align: center; position: fixed; top: 5vh; left: 40vw;"">
            <div style=""margin:0 auto; width: 20vw; top: 8vh; font-size: 1vw""> 
            <font color=""green""> Bonus : $0 </font>
            </div>
        </div>
    ","null","","","","","",""
"","","","","","html-keyboard-response","42","68898","0.0-4.0-3.7","64935b0f0075f5a969a42686","6554bfa13ac4b6a0ab00b03a","6554bfef683f4dbddef570a6","335","./stimuli//pack_shapes/cat_1/ex_1_29.png","arrowleft","response","ArrowLeft","29","1","true",""
"","","","","","html-keyboard-response","43","70410","0.0-4.0-4.7","64935b0f0075f5a969a42686","6554bfa13ac4b6a0ab00b03a","6554bfef683f4dbddef570a6","null","<p> <font color=""green"" size=""4vw""> Correct category! </font> </p>","null","feedback","","","","","0"
"","","","","","html-keyboard-response","44","71321","0.0-4.0-0.8","64935b0f0075f5a969a42686","6554bfa13ac4b6a0ab00b03a","6554bfef683f4dbddef570a6","911","
            
        <div style=""text-align: center; position: fixed; top: 5vh; left: 40vw;"">
            <div style=""margin:0 auto; width: 20vw; top: 8vh; font-size: 1vw""> 
            <font color=""green""> Bonus : $0 </font>
            </div>
        </div>
    
            <div> Please press any button to continue to the next trial.</div>
        ","arrowleft","ITI","","","","",""
"","","","","","html-keyboard-response","45","71925","0.0-4.0-1.8","64935b0f0075f5a969a42686","6554bfa13ac4b6a0ab00b03a","6554bfef683f4dbddef570a6","null","
        
        <div style=""text-align: center; position: fixed; top: 5vh; left: 40vw;"">
            <div style=""margin:0 auto; width: 20vw; top: 8vh; font-size: 1vw""> 
            <font color=""green""> Bonus : $0 </font>
            </div>
        </div>
    
        <img class=""stim"" src=./stimuli//pack_shapes/cat_1/ex_1_3.png></img>
    ","null","stimulus","","","","",""
"","","","","","html-keyboard-response","46","72953","0.0-4.0-2.8","64935b0f0075f5a969a42686","6554bfa13ac4b6a0ab00b03a","6554bfef683f4dbddef570a6","null","
        <div style=""text-align: center; position: fixed; top: 5vh; left: 40vw;"">
            <div style=""margin:0 auto; width: 20vw; top: 8vh; font-size: 1vw""> 
            <font color=""green""> Bonus : $0 </font>
            </div>
        </div>
    ","null","","","","","",""
"","","","","","html-keyboard-response","47","73200","0.0-4.0-3.8","64935b0f0075f5a969a42686","6554bfa13ac4b6a0ab00b03a","6554bfef683f4dbddef570a6","247","./stimuli//pack_shapes/cat_1/ex_1_3.png","arrowleft","response","ArrowLeft","3","1","true",""
"","","","","","html-keyboard-response","48","74714","0.0-4.0-4.8","64935b0f0075f5a969a42686","6554bfa13ac4b6a0ab00b03a","6554bfef683f4dbddef570a6","null","<p> <font color=""green"" size=""4vw""> Correct category! </font> </p>","null","feedback","","","","","0"
"","","","","","html-keyboard-response","49","75930","0.0-4.0-0.9","64935b0f0075f5a969a42686","6554bfa13ac4b6a0ab00b03a","6554bfef683f4dbddef570a6","1215","
            
        <div style=""text-align: center; position: fixed; top: 5vh; left: 40vw;"">
            <div style=""margin:0 auto; width: 20vw; top: 8vh; font-size: 1vw""> 
            <font color=""green""> Bonus : $0 </font>
            </div>
        </div>
    
            <div> Please press any button to continue to the next trial.</div>
        ","arrowleft","ITI","","","","",""
"","","","","","html-keyboard-response","50","76539","0.0-4.0-1.9","64935b0f0075f5a969a42686","6554bfa13ac4b6a0ab00b03a","6554bfef683f4dbddef570a6","null","
        
        <div style=""text-align: center; position: fixed; top: 5vh; left: 40vw;"">
            <div style=""margin:0 auto; width: 20vw; top: 8vh; font-size: 1vw""> 
            <font color=""green""> Bonus : $0 </font>
            </div>
        </div>
    
        <img class=""stim"" src=./stimuli//pack_shapes/cat_2/ex_2_8.png></img>
    ","null","stimulus","","","","",""
"","","","","","html-keyboard-response","51","77554","0.0-4.0-2.9","64935b0f0075f5a969a42686","6554bfa13ac4b6a0ab00b03a","6554bfef683f4dbddef570a6","null","
        <div style=""text-align: center; position: fixed; top: 5vh; left: 40vw;"">
            <div style=""margin:0 auto; width: 20vw; top: 8vh; font-size: 1vw""> 
            <font color=""green""> Bonus : $0 </font>
            </div>
        </div>
    ","null","","","","","",""
"","","","","","html-keyboard-response","52","77863","0.0-4.0-3.9","64935b0f0075f5a969a42686","6554bfa13ac4b6a0ab00b03a","6554bfef683f4dbddef570a6","308","./stimuli//pack_shapes/cat_2/ex_2_8.png","arrowright","response","ArrowRight","8","2","true",""
"","","","","","html-keyboard-response","53","79367","0.0-4.0-4.9","64935b0f0075f5a969a42686","6554bfa13ac4b6a0ab00b03a","6554bfef683f4dbddef570a6","null","<p> <font color=""green"" size=""4vw""> Correct category! </font> </p>","null","feedback","","","","","0"
"","","","","","html-keyboard-response","54","84760","0.0-5.0","64935b0f0075f5a969a42686","6554bfa13ac4b6a0ab00b03a","6554bfef683f4dbddef570a6","5392","
            <b> <p> The practice round has finished.</p>
            <b> For the rest of the experiment you will receive a $0.05 bonus for each correct answer!</b>
            <p> Press any key to begin the test. </p>
            ","arrowright","intermission","","","","",""
"","","","","","html-keyboard-response","55","85641","0.0-6.0-0.0","64935b0f0075f5a969a42686","6554bfa13ac4b6a0ab00b03a","6554bfef683f4dbddef570a6","880","
            
        <div style=""text-align: center; position: fixed; top: 5vh; left: 40vw;"">
            <div style=""margin:0 auto; width: 20vw; top: 8vh; font-size: 1vw""> 
            <font color=""green""> Bonus : $0 </font>
            </div>
        </div>
    
            <div> Please press any button to continue to the next trial.</div>
        ","arrowright","ITI","","","","",""
"","","","","","html-keyboard-response","56","86248","0.0-6.0-1.0","64935b0f0075f5a969a42686","6554bfa13ac4b6a0ab00b03a","6554bfef683f4dbddef570a6","null","
        
        <div style=""text-align: center; position: fixed; top: 5vh; left: 40vw;"">
            <div style=""margin:0 auto; width: 20vw; top: 8vh; font-size: 1vw""> 
            <font color=""green""> Bonus : $0 </font>
            </div>
        </div>
    
        <img class=""stim"" src=./stimuli//pack_shapes/cat_1/ex_1_77.png></img>
    ","null","stimulus","","","","",""
"","","","","","html-keyboard-response","57","87251","0.0-6.0-2.0","64935b0f0075f5a969a42686","6554bfa13ac4b6a0ab00b03a","6554bfef683f4dbddef570a6","null","
        <div style=""text-align: center; position: fixed; top: 5vh; left: 40vw;"">
            <div style=""margin:0 auto; width: 20vw; top: 8vh; font-size: 1vw""> 
            <font color=""green""> Bonus : $0 </font>
            </div>
        </div>
    ","null","","","","","",""
"","","","","","html-keyboard-response","58","87518","0.0-6.0-3.0","64935b0f0075f5a969a42686","6554bfa13ac4b6a0ab00b03a","6554bfef683f4dbddef570a6","266","./stimuli//pack_shapes/cat_1/ex_1_77.png","arrowright","response","ArrowLeft","77","1","false",""
"","","","","","html-keyboard-response","59","89021","0.0-6.0-4.0","64935b0f0075f5a969a42686","6554bfa13ac4b6a0ab00b03a","6554bfef683f4dbddef570a6","null","<p> <font color=""red"" size=""4vw""> Wrong category! </font> </p>","null","feedback","","","","","0"
"","","","","","html-keyboard-response","60","89631","0.0-6.0-0.1","64935b0f0075f5a969a42686","6554bfa13ac4b6a0ab00b03a","6554bfef683f4dbddef570a6","609","
            
        <div style=""text-align: center; position: fixed; top: 5vh; left: 40vw;"">
            <div style=""margin:0 auto; width: 20vw; top: 8vh; font-size: 1vw""> 
            <font color=""green""> Bonus : $0 </font>
            </div>
        </div>
    
            <div> Please press any button to continue to the next trial.</div>
        ","arrowright","ITI","","","","",""
"","","","","","html-keyboard-response","61","90238","0.0-6.0-1.1","64935b0f0075f5a969a42686","6554bfa13ac4b6a0ab00b03a","6554bfef683f4dbddef570a6","null","
        
        <div style=""text-align: center; position: fixed; top: 5vh; left: 40vw;"">
            <div style=""margin:0 auto; width: 20vw; top: 8vh; font-size: 1vw""> 
            <font color=""green""> Bonus : $0 </font>
            </div>
        </div>
    
        <img class=""stim"" src=./stimuli//pack_shapes/cat_2/ex_2_16.png></img>
    ","null","stimulus","","","","",""
"","","","","","html-keyboard-response","62","91311","0.0-6.0-2.1","64935b0f0075f5a969a42686","6554bfa13ac4b6a0ab00b03a","6554bfef683f4dbddef570a6","null","
        <div style=""text-align: center; position: fixed; top: 5vh; left: 40vw;"">
            <div style=""margin:0 auto; width: 20vw; top: 8vh; font-size: 1vw""> 
            <font color=""green""> Bonus : $0 </font>
            </div>
        </div>
    ","null","","","","","",""
"","","","","","html-keyboard-response","63","91584","0.0-6.0-3.1","64935b0f0075f5a969a42686","6554bfa13ac4b6a0ab00b03a","6554bfef683f4dbddef570a6","273","./stimuli//pack_shapes/cat_2/ex_2_16.png","arrowleft","response","ArrowRight","16","2","false",""
"","","","","","html-keyboard-response","64","93086","0.0-6.0-4.1","64935b0f0075f5a969a42686","6554bfa13ac4b6a0ab00b03a","6554bfef683f4dbddef570a6","null","<p> <font color=""red"" size=""4vw""> Wrong category! </font> </p>","null","feedback","","","","","0"
"","","","","","html-keyboard-response","65","93767","0.0-6.0-0.2","64935b0f0075f5a969a42686","6554bfa13ac4b6a0ab00b03a","6554bfef683f4dbddef570a6","680","
            
        <div style=""text-align: center; position: fixed; top: 5vh; left: 40vw;"">
            <div style=""margin:0 auto; width: 20vw; top: 8vh; font-size: 1vw""> 
            <font color=""green""> Bonus : $0 </font>
            </div>
        </div>
    
            <div> Please press any button to continue to the next trial.</div>
        ","arrowright","ITI","","","","",""
"","","","","","html-keyboard-response","66","94379","0.0-6.0-1.2","64935b0f0075f5a969a42686","6554bfa13ac4b6a0ab00b03a","6554bfef683f4dbddef570a6","null","
        
        <div style=""text-align: center; position: fixed; top: 5vh; left: 40vw;"">
            <div style=""margin:0 auto; width: 20vw; top: 8vh; font-size: 1vw""> 
            <font color=""green""> Bonus : $0 </font>
            </div>
        </div>
    
        <img class=""stim"" src=./stimuli//pack_shapes/cat_1/ex_1_40.png></img>
    ","null","stimulus","","","","",""
"","","","","","html-keyboard-response","67","95389","0.0-6.0-2.2","64935b0f0075f5a969a42686","6554bfa13ac4b6a0ab00b03a","6554bfef683f4dbddef570a6","null","
        <div style=""text-align: center; position: fixed; top: 5vh; left: 40vw;"">
            <div style=""margin:0 auto; width: 20vw; top: 8vh; font-size: 1vw""> 
            <font color=""green""> Bonus : $0 </font>
            </div>
        </div>
    ","null","","","","","",""
"","","","","","html-keyboard-response","68","95724","0.0-6.0-3.2","64935b0f0075f5a969a42686","6554bfa13ac4b6a0ab00b03a","6554bfef683f4dbddef570a6","333","./stimuli//pack_shapes/cat_1/ex_1_40.png","arrowleft","response","ArrowLeft","40","1","true",""
"","","","","","html-keyboard-response","69","97226","0.0-6.0-4.2","64935b0f0075f5a969a42686","6554bfa13ac4b6a0ab00b03a","6554bfef683f4dbddef570a6","null","<p> <font color=""green"" size=""4vw""> Correct category! </font> <br> <br> <font color=""green"" size=""7vw""> + $0.05 </font> </p>","null","feedback","","","","","0.05"
"","","","","","html-keyboard-response","70","98013","0.0-6.0-0.3","64935b0f0075f5a969a42686","6554bfa13ac4b6a0ab00b03a","6554bfef683f4dbddef570a6","786","
            
        <div style=""text-align: center; position: fixed; top: 5vh; left: 40vw;"">
            <div style=""margin:0 auto; width: 20vw; top: 8vh; font-size: 1vw""> 
            <font color=""green""> Bonus : $0.05 </font>
            </div>
        </div>
    
            <div> Please press any button to continue to the next trial.</div>
        ","arrowleft","ITI","","","","",""
"","","","","","html-keyboard-response","71","98625","0.0-6.0-1.3","64935b0f0075f5a969a42686","6554bfa13ac4b6a0ab00b03a","6554bfef683f4dbddef570a6","null","
        
        <div style=""text-align: center; position: fixed; top: 5vh; left: 40vw;"">
            <div style=""margin:0 auto; width: 20vw; top: 8vh; font-size: 1vw""> 
            <font color=""green""> Bonus : $0.05 </font>
            </div>
        </div>
    
        <img class=""stim"" src=./stimuli//pack_shapes/cat_2/ex_2_14.png></img>
    ","null","stimulus","","","","",""
"","","","","","html-keyboard-response","72","99635","0.0-6.0-2.3","64935b0f0075f5a969a42686","6554bfa13ac4b6a0ab00b03a","6554bfef683f4dbddef570a6","null","
        <div style=""text-align: center; position: fixed; top: 5vh; left: 40vw;"">
            <div style=""margin:0 auto; width: 20vw; top: 8vh; font-size: 1vw""> 
            <font color=""green""> Bonus : $0.05 </font>
            </div>
        </div>
    ","null","","","","","",""
"","","","","","html-keyboard-response","73","99946","0.0-6.0-3.3","64935b0f0075f5a969a42686","6554bfa13ac4b6a0ab00b03a","6554bfef683f4dbddef570a6","311","./stimuli//pack_shapes/cat_2/ex_2_14.png","arrowright","response","ArrowRight","14","2","true",""
"","","","","","html-keyboard-response","74","101460","0.0-6.0-4.3","64935b0f0075f5a969a42686","6554bfa13ac4b6a0ab00b03a","6554bfef683f4dbddef570a6","null","<p> <font color=""green"" size=""4vw""> Correct category! </font> <br> <br> <font color=""green"" size=""7vw""> + $0.05 </font> </p>","null","feedback","","","","","0.1"
"","","","","","html-keyboard-response","75","102024","0.0-6.0-0.4","64935b0f0075f5a969a42686","6554bfa13ac4b6a0ab00b03a","6554bfef683f4dbddef570a6","564","
            
        <div style=""text-align: center; position: fixed; top: 5vh; left: 40vw;"">
            <div style=""margin:0 auto; width: 20vw; top: 8vh; font-size: 1vw""> 
            <font color=""green""> Bonus : $0.1 </font>
            </div>
        </div>
    
            <div> Please press any button to continue to the next trial.</div>
        ","arrowright","ITI","","","","",""
"","","","","","html-keyboard-response","76","102628","0.0-6.0-1.4","64935b0f0075f5a969a42686","6554bfa13ac4b6a0ab00b03a","6554bfef683f4dbddef570a6","null","
        
        <div style=""text-align: center; position: fixed; top: 5vh; left: 40vw;"">
            <div style=""margin:0 auto; width: 20vw; top: 8vh; font-size: 1vw""> 
            <font color=""green""> Bonus : $0.1 </font>
            </div>
        </div>
    
        <img class=""stim"" src=./stimuli//pack_shapes/cat_2/ex_2_36.png></img>
    ","null","stimulus","","","","",""
"","","","","","html-keyboard-response","77","103631","0.0-6.0-2.4","64935b0f0075f5a969a42686","6554bfa13ac4b6a0ab00b03a","6554bfef683f4dbddef570a6","null","
        <div style=""text-align: center; position: fixed; top: 5vh; left: 40vw;"">
            <div style=""margin:0 auto; width: 20vw; top: 8vh; font-size: 1vw""> 
            <font color=""green""> Bonus : $0.1 </font>
            </div>
        </div>
    ","null","","","","","",""
"","","","","","html-keyboard-response","78","103909","0.0-6.0-3.4","64935b0f0075f5a969a42686","6554bfa13ac4b6a0ab00b03a","6554bfef683f4dbddef570a6","277","./stimuli//pack_shapes/cat_2/ex_2_36.png","arrowright","response","ArrowRight","36","2","true",""
"","","","","","html-keyboard-response","79","105421","0.0-6.0-4.4","64935b0f0075f5a969a42686","6554bfa13ac4b6a0ab00b03a","6554bfef683f4dbddef570a6","null","<p> <font color=""green"" size=""4vw""> Correct category! </font> <br> <br> <font color=""green"" size=""7vw""> + $0.05 </font> </p>","null","feedback","","","","","0.15"
"","","","","","html-keyboard-response","80","106210","0.0-6.0-0.5","64935b0f0075f5a969a42686","6554bfa13ac4b6a0ab00b03a","6554bfef683f4dbddef570a6","788","
            
        <div style=""text-align: center; position: fixed; top: 5vh; left: 40vw;"">
            <div style=""margin:0 auto; width: 20vw; top: 8vh; font-size: 1vw""> 
            <font color=""green""> Bonus : $0.15 </font>
            </div>
        </div>
    
            <div> Please press any button to continue to the next trial.</div>
        ","arrowright","ITI","","","","",""
"","","","","","html-keyboard-response","81","106818","0.0-6.0-1.5","64935b0f0075f5a969a42686","6554bfa13ac4b6a0ab00b03a","6554bfef683f4dbddef570a6","null","
        
        <div style=""text-align: center; position: fixed; top: 5vh; left: 40vw;"">
            <div style=""margin:0 auto; width: 20vw; top: 8vh; font-size: 1vw""> 
            <font color=""green""> Bonus : $0.15 </font>
            </div>
        </div>
    
        <img class=""stim"" src=./stimuli//pack_shapes/cat_1/ex_1_33.png></img>
    ","null","stimulus","","","","",""
"","","","","","html-keyboard-response","82","107827","0.0-6.0-2.5","64935b0f0075f5a969a42686","6554bfa13ac4b6a0ab00b03a","6554bfef683f4dbddef570a6","null","
        <div style=""text-align: center; position: fixed; top: 5vh; left: 40vw;"">
            <div style=""margin:0 auto; width: 20vw; top: 8vh; font-size: 1vw""> 
            <font color=""green""> Bonus : $0.15 </font>
            </div>
        </div>
    ","null","","","","","",""
"","","","","","html-keyboard-response","83","108064","0.0-6.0-3.5","64935b0f0075f5a969a42686","6554bfa13ac4b6a0ab00b03a","6554bfef683f4dbddef570a6","238","./stimuli//pack_shapes/cat_1/ex_1_33.png","arrowleft","response","ArrowLeft","33","1","true",""
"","","","","","html-keyboard-response","84","109566","0.0-6.0-4.5","64935b0f0075f5a969a42686","6554bfa13ac4b6a0ab00b03a","6554bfef683f4dbddef570a6","null","<p> <font color=""green"" size=""4vw""> Correct category! </font> <br> <br> <font color=""green"" size=""7vw""> + $0.05 </font> </p>","null","feedback","","","","","0.2"
"","","","","","html-keyboard-response","85","111732","0.0-6.0-0.6","64935b0f0075f5a969a42686","6554bfa13ac4b6a0ab00b03a","6554bfef683f4dbddef570a6","2166","
            
        <div style=""text-align: center; position: fixed; top: 5vh; left: 40vw;"">
            <div style=""margin:0 auto; width: 20vw; top: 8vh; font-size: 1vw""> 
            <font color=""green""> Bonus : $0.2 </font>
            </div>
        </div>
    
            <div> Please press any button to continue to the next trial.</div>
        ","arrowright","ITI","","","","",""
"","","","","","html-keyboard-response","86","112343","0.0-6.0-1.6","64935b0f0075f5a969a42686","6554bfa13ac4b6a0ab00b03a","6554bfef683f4dbddef570a6","null","
        
        <div style=""text-align: center; position: fixed; top: 5vh; left: 40vw;"">
            <div style=""margin:0 auto; width: 20vw; top: 8vh; font-size: 1vw""> 
            <font color=""green""> Bonus : $0.2 </font>
            </div>
        </div>
    
        <img class=""stim"" src=./stimuli//pack_shapes/cat_2/ex_2_32.png></img>
    ","null","stimulus","","","","",""
"","","","","","html-keyboard-response","87","113359","0.0-6.0-2.6","64935b0f0075f5a969a42686","6554bfa13ac4b6a0ab00b03a","6554bfef683f4dbddef570a6","null","
        <div style=""text-align: center; position: fixed; top: 5vh; left: 40vw;"">
            <div style=""margin:0 auto; width: 20vw; top: 8vh; font-size: 1vw""> 
            <font color=""green""> Bonus : $0.2 </font>
            </div>
        </div>
    ","null","","","","","",""
"","","","","","html-keyboard-response","88","113840","0.0-6.0-3.6","64935b0f0075f5a969a42686","6554bfa13ac4b6a0ab00b03a","6554bfef683f4dbddef570a6","480","./stimuli//pack_shapes/cat_2/ex_2_32.png","arrowleft","response","ArrowRight","32","2","false",""
"","","","","","html-keyboard-response","89","115352","0.0-6.0-4.6","64935b0f0075f5a969a42686","6554bfa13ac4b6a0ab00b03a","6554bfef683f4dbddef570a6","null","<p> <font color=""red"" size=""4vw""> Wrong category! </font> </p>","null","feedback","","","","","0.2"
"","","","","","html-keyboard-response","90","115815","0.0-6.0-0.7","64935b0f0075f5a969a42686","6554bfa13ac4b6a0ab00b03a","6554bfef683f4dbddef570a6","463","
            
        <div style=""text-align: center; position: fixed; top: 5vh; left: 40vw;"">
            <div style=""margin:0 auto; width: 20vw; top: 8vh; font-size: 1vw""> 
            <font color=""green""> Bonus : $0.2 </font>
            </div>
        </div>
    
            <div> Please press any button to continue to the next trial.</div>
        ","arrowright","ITI","","","","",""
"","","","","","html-keyboard-response","91","116420","0.0-6.0-1.7","64935b0f0075f5a969a42686","6554bfa13ac4b6a0ab00b03a","6554bfef683f4dbddef570a6","null","
        
        <div style=""text-align: center; position: fixed; top: 5vh; left: 40vw;"">
            <div style=""margin:0 auto; width: 20vw; top: 8vh; font-size: 1vw""> 
            <font color=""green""> Bonus : $0.2 </font>
            </div>
        </div>
    
        <img class=""stim"" src=./stimuli//pack_shapes/cat_2/ex_2_10.png></img>
    ","null","stimulus","","","","",""
"","","","","","html-keyboard-response","92","117433","0.0-6.0-2.7","64935b0f0075f5a969a42686","6554bfa13ac4b6a0ab00b03a","6554bfef683f4dbddef570a6","null","
        <div style=""text-align: center; position: fixed; top: 5vh; left: 40vw;"">
            <div style=""margin:0 auto; width: 20vw; top: 8vh; font-size: 1vw""> 
            <font color=""green""> Bonus : $0.2 </font>
            </div>
        </div>
    ","null","","","","","",""
"","","","","","html-keyboard-response","93","117733","0.0-6.0-3.7","64935b0f0075f5a969a42686","6554bfa13ac4b6a0ab00b03a","6554bfef683f4dbddef570a6","299","./stimuli//pack_shapes/cat_2/ex_2_10.png","arrowright","response","ArrowRight","10","2","true",""
"","","","","","html-keyboard-response","94","119242","0.0-6.0-4.7","64935b0f0075f5a969a42686","6554bfa13ac4b6a0ab00b03a","6554bfef683f4dbddef570a6","null","<p> <font color=""green"" size=""4vw""> Correct category! </font> <br> <br> <font color=""green"" size=""7vw""> + $0.05 </font> </p>","null","feedback","","","","","0.25"
"","","","","","html-keyboard-response","95","120112","0.0-6.0-0.8","64935b0f0075f5a969a42686","6554bfa13ac4b6a0ab00b03a","6554bfef683f4dbddef570a6","868","
            
        <div style=""text-align: center; position: fixed; top: 5vh; left: 40vw;"">
            <div style=""margin:0 auto; width: 20vw; top: 8vh; font-size: 1vw""> 
            <font color=""green""> Bonus : $0.25 </font>
            </div>
        </div>
    
            <div> Please press any button to continue to the next trial.</div>
        ","arrowright","ITI","","","","",""
"","","","","","html-keyboard-response","96","120853","0.0-6.0-1.8","64935b0f0075f5a969a42686","6554bfa13ac4b6a0ab00b03a","6554bfef683f4dbddef570a6","null","
        
        <div style=""text-align: center; position: fixed; top: 5vh; left: 40vw;"">
            <div style=""margin:0 auto; width: 20vw; top: 8vh; font-size: 1vw""> 
            <font color=""green""> Bonus : $0.25 </font>
            </div>
        </div>
    
        <img class=""stim"" src=./stimuli//pack_shapes/cat_1/ex_1_70.png></img>
    ","null","stimulus","","","","",""
"","","","","","html-keyboard-response","97","121862","0.0-6.0-2.8","64935b0f0075f5a969a42686","6554bfa13ac4b6a0ab00b03a","6554bfef683f4dbddef570a6","null","
        <div style=""text-align: center; position: fixed; top: 5vh; left: 40vw;"">
            <div style=""margin:0 auto; width: 20vw; top: 8vh; font-size: 1vw""> 
            <font color=""green""> Bonus : $0.25 </font>
            </div>
        </div>
    ","null","","","","","",""
"","","","","","html-keyboard-response","98","122118","0.0-6.0-3.8","64935b0f0075f5a969a42686","6554bfa13ac4b6a0ab00b03a","6554bfef683f4dbddef570a6","255","./stimuli//pack_shapes/cat_1/ex_1_70.png","arrowleft","response","ArrowLeft","70","1","true",""
"","","","","","html-keyboard-response","99","123629","0.0-6.0-4.8","64935b0f0075f5a969a42686","6554bfa13ac4b6a0ab00b03a","6554bfef683f4dbddef570a6","null","<p> <font color=""green"" size=""4vw""> Correct category! </font> <br> <br> <font color=""green"" size=""7vw""> + $0.05 </font> </p>","null","feedback","","","","","0.3"
"","","","","","html-keyboard-response","100","124345","0.0-6.0-0.9","64935b0f0075f5a969a42686","6554bfa13ac4b6a0ab00b03a","6554bfef683f4dbddef570a6","714","
            
        <div style=""text-align: center; position: fixed; top: 5vh; left: 40vw;"">
            <div style=""margin:0 auto; width: 20vw; top: 8vh; font-size: 1vw""> 
            <font color=""green""> Bonus : $0.3 </font>
            </div>
        </div>
    
            <div> Please press any button to continue to the next trial.</div>
        ","arrowleft","ITI","","","","",""
"","","","","","html-keyboard-response","101","124949","0.0-6.0-1.9","64935b0f0075f5a969a42686","6554bfa13ac4b6a0ab00b03a","6554bfef683f4dbddef570a6","null","
        
        <div style=""text-align: center; position: fixed; top: 5vh; left: 40vw;"">
            <div style=""margin:0 auto; width: 20vw; top: 8vh; font-size: 1vw""> 
            <font color=""green""> Bonus : $0.3 </font>
            </div>
        </div>
    
        <img class=""stim"" src=./stimuli//pack_shapes/cat_2/ex_2_75.png></img>
    ","null","stimulus","","","","",""
"","","","","","html-keyboard-response","102","125954","0.0-6.0-2.9","64935b0f0075f5a969a42686","6554bfa13ac4b6a0ab00b03a","6554bfef683f4dbddef570a6","null","
        <div style=""text-align: center; position: fixed; top: 5vh; left: 40vw;"">
            <div style=""margin:0 auto; width: 20vw; top: 8vh; font-size: 1vw""> 
            <font color=""green""> Bonus : $0.3 </font>
            </div>
        </div>
    ","null","","","","","",""
"","","","","","html-keyboard-response","103","126226","0.0-6.0-3.9","64935b0f0075f5a969a42686","6554bfa13ac4b6a0ab00b03a","6554bfef683f4dbddef570a6","271","./stimuli//pack_shapes/cat_2/ex_2_75.png","arrowleft","response","ArrowRight","75","2","false",""
"","","","","","html-keyboard-response","104","127740","0.0-6.0-4.9","64935b0f0075f5a969a42686","6554bfa13ac4b6a0ab00b03a","6554bfef683f4dbddef570a6","null","<p> <font color=""red"" size=""4vw""> Wrong category! </font> </p>","null","feedback","","","","","0.3"
"","","","","","html-keyboard-response","105","128169","0.0-6.0-0.10","64935b0f0075f5a969a42686","6554bfa13ac4b6a0ab00b03a","6554bfef683f4dbddef570a6","429","
            
        <div style=""text-align: center; position: fixed; top: 5vh; left: 40vw;"">
            <div style=""margin:0 auto; width: 20vw; top: 8vh; font-size: 1vw""> 
            <font color=""green""> Bonus : $0.3 </font>
            </div>
        </div>
    
            <div> Please press any button to continue to the next trial.</div>
        ","arrowleft","ITI","","","","",""
"","","","","","html-keyboard-response","106","128782","0.0-6.0-1.10","64935b0f0075f5a969a42686","6554bfa13ac4b6a0ab00b03a","6554bfef683f4dbddef570a6","null","
        
        <div style=""text-align: center; position: fixed; top: 5vh; left: 40vw;"">
            <div style=""margin:0 auto; width: 20vw; top: 8vh; font-size: 1vw""> 
            <font color=""green""> Bonus : $0.3 </font>
            </div>
        </div>
    
        <img class=""stim"" src=./stimuli//pack_shapes/cat_2/ex_2_34.png></img>
    ","null","stimulus","","","","",""
"","","","","","html-keyboard-response","107","129788","0.0-6.0-2.10","64935b0f0075f5a969a42686","6554bfa13ac4b6a0ab00b03a","6554bfef683f4dbddef570a6","null","
        <div style=""text-align: center; position: fixed; top: 5vh; left: 40vw;"">
            <div style=""margin:0 auto; width: 20vw; top: 8vh; font-size: 1vw""> 
            <font color=""green""> Bonus : $0.3 </font>
            </div>
        </div>
    ","null","","","","","",""
"","","","","","html-keyboard-response","108","130070","0.0-6.0-3.10","64935b0f0075f5a969a42686","6554bfa13ac4b6a0ab00b03a","6554bfef683f4dbddef570a6","281","./stimuli//pack_shapes/cat_2/ex_2_34.png","arrowright","response","ArrowRight","34","2","true",""
"","","","","","html-keyboard-response","109","131570","0.0-6.0-4.10","64935b0f0075f5a969a42686","6554bfa13ac4b6a0ab00b03a","6554bfef683f4dbddef570a6","null","<p> <font color=""green"" size=""4vw""> Correct category! </font> <br> <br> <font color=""green"" size=""7vw""> + $0.05 </font> </p>","null","feedback","","","","","0.35"
"","","","","","html-keyboard-response","110","132469","0.0-6.0-0.11","64935b0f0075f5a969a42686","6554bfa13ac4b6a0ab00b03a","6554bfef683f4dbddef570a6","898","
            
        <div style=""text-align: center; position: fixed; top: 5vh; left: 40vw;"">
            <div style=""margin:0 auto; width: 20vw; top: 8vh; font-size: 1vw""> 
            <font color=""green""> Bonus : $0.35 </font>
            </div>
        </div>
    
            <div> Please press any button to continue to the next trial.</div>
        ","arrowright","ITI","","","","",""
"","","","","","html-keyboard-response","111","133080","0.0-6.0-1.11","64935b0f0075f5a969a42686","6554bfa13ac4b6a0ab00b03a","6554bfef683f4dbddef570a6","null","
        
        <div style=""text-align: center; position: fixed; top: 5vh; left: 40vw;"">
            <div style=""margin:0 auto; width: 20vw; top: 8vh; font-size: 1vw""> 
            <font color=""green""> Bonus : $0.35 </font>
            </div>
        </div>
    
        <img class=""stim"" src=./stimuli//pack_shapes/cat_2/ex_2_55.png></img>
    ","null","stimulus","","","","",""
"","","","","","html-keyboard-response","112","134088","0.0-6.0-2.11","64935b0f0075f5a969a42686","6554bfa13ac4b6a0ab00b03a","6554bfef683f4dbddef570a6","null","
        <div style=""text-align: center; position: fixed; top: 5vh; left: 40vw;"">
            <div style=""margin:0 auto; width: 20vw; top: 8vh; font-size: 1vw""> 
            <font color=""green""> Bonus : $0.35 </font>
            </div>
        </div>
    ","null","","","","","",""
"","","","","","html-keyboard-response","113","134329","0.0-6.0-3.11","64935b0f0075f5a969a42686","6554bfa13ac4b6a0ab00b03a","6554bfef683f4dbddef570a6","241","./stimuli//pack_shapes/cat_2/ex_2_55.png","arrowleft","response","ArrowRight","55","2","false",""
"","","","","","html-keyboard-response","114","135838","0.0-6.0-4.11","64935b0f0075f5a969a42686","6554bfa13ac4b6a0ab00b03a","6554bfef683f4dbddef570a6","null","<p> <font color=""red"" size=""4vw""> Wrong category! </font> </p>","null","feedback","","","","","0.35"
"","","","","","html-keyboard-response","115","135936","0.0-6.0-0.12","64935b0f0075f5a969a42686","6554bfa13ac4b6a0ab00b03a","6554bfef683f4dbddef570a6","97","
            
        <div style=""text-align: center; position: fixed; top: 5vh; left: 40vw;"">
            <div style=""margin:0 auto; width: 20vw; top: 8vh; font-size: 1vw""> 
            <font color=""green""> Bonus : $0.35 </font>
            </div>
        </div>
    
            <div> Please press any button to continue to the next trial.</div>
        ","arrowright","ITI","","","","",""
"","","","","","html-keyboard-response","116","136550","0.0-6.0-1.12","64935b0f0075f5a969a42686","6554bfa13ac4b6a0ab00b03a","6554bfef683f4dbddef570a6","null","
        
        <div style=""text-align: center; position: fixed; top: 5vh; left: 40vw;"">
            <div style=""margin:0 auto; width: 20vw; top: 8vh; font-size: 1vw""> 
            <font color=""green""> Bonus : $0.35 </font>
            </div>
        </div>
    
        <img class=""stim"" src=./stimuli//pack_shapes/cat_1/ex_1_1.png></img>
    ","null","stimulus","","","","",""
"","","","","","html-keyboard-response","117","137554","0.0-6.0-2.12","64935b0f0075f5a969a42686","6554bfa13ac4b6a0ab00b03a","6554bfef683f4dbddef570a6","null","
        <div style=""text-align: center; position: fixed; top: 5vh; left: 40vw;"">
            <div style=""margin:0 auto; width: 20vw; top: 8vh; font-size: 1vw""> 
            <font color=""green""> Bonus : $0.35 </font>
            </div>
        </div>
    ","null","","","","","",""
"","","","","","html-keyboard-response","118","137843","0.0-6.0-3.12","64935b0f0075f5a969a42686","6554bfa13ac4b6a0ab00b03a","6554bfef683f4dbddef570a6","289","./stimuli//pack_shapes/cat_1/ex_1_1.png","arrowleft","response","ArrowLeft","1","1","true",""
"","","","","","html-keyboard-response","119","139346","0.0-6.0-4.12","64935b0f0075f5a969a42686","6554bfa13ac4b6a0ab00b03a","6554bfef683f4dbddef570a6","null","<p> <font color=""green"" size=""4vw""> Correct category! </font> <br> <br> <font color=""green"" size=""7vw""> + $0.05 </font> </p>","null","feedback","","","","","0.4"
"","","","","","html-keyboard-response","120","139952","0.0-6.0-0.13","64935b0f0075f5a969a42686","6554bfa13ac4b6a0ab00b03a","6554bfef683f4dbddef570a6","605","
            
        <div style=""text-align: center; position: fixed; top: 5vh; left: 40vw;"">
            <div style=""margin:0 auto; width: 20vw; top: 8vh; font-size: 1vw""> 
            <font color=""green""> Bonus : $0.4 </font>
            </div>
        </div>
    
            <div> Please press any button to continue to the next trial.</div>
        ","arrowleft","ITI","","","","",""
"","","","","","html-keyboard-response","121","140557","0.0-6.0-1.13","64935b0f0075f5a969a42686","6554bfa13ac4b6a0ab00b03a","6554bfef683f4dbddef570a6","null","
        
        <div style=""text-align: center; position: fixed; top: 5vh; left: 40vw;"">
            <div style=""margin:0 auto; width: 20vw; top: 8vh; font-size: 1vw""> 
            <font color=""green""> Bonus : $0.4 </font>
            </div>
        </div>
    
        <img class=""stim"" src=./stimuli//pack_shapes/cat_2/ex_2_30.png></img>
    ","null","stimulus","","","","",""
"","","","","","html-keyboard-response","122","141567","0.0-6.0-2.13","64935b0f0075f5a969a42686","6554bfa13ac4b6a0ab00b03a","6554bfef683f4dbddef570a6","null","
        <div style=""text-align: center; position: fixed; top: 5vh; left: 40vw;"">
            <div style=""margin:0 auto; width: 20vw; top: 8vh; font-size: 1vw""> 
            <font color=""green""> Bonus : $0.4 </font>
            </div>
        </div>
    ","null","","","","","",""
"","","","","","html-keyboard-response","123","141841","0.0-6.0-3.13","64935b0f0075f5a969a42686","6554bfa13ac4b6a0ab00b03a","6554bfef683f4dbddef570a6","272","./stimuli//pack_shapes/cat_2/ex_2_30.png","arrowright","response","ArrowRight","30","2","true",""
"","","","","","html-keyboard-response","124","143349","0.0-6.0-4.13","64935b0f0075f5a969a42686","6554bfa13ac4b6a0ab00b03a","6554bfef683f4dbddef570a6","null","<p> <font color=""green"" size=""4vw""> Correct category! </font> <br> <br> <font color=""green"" size=""7vw""> + $0.05 </font> </p>","null","feedback","","","","","0.45"
"","","","","","html-keyboard-response","125","143851","0.0-6.0-0.14","64935b0f0075f5a969a42686","6554bfa13ac4b6a0ab00b03a","6554bfef683f4dbddef570a6","504","
            
        <div style=""text-align: center; position: fixed; top: 5vh; left: 40vw;"">
            <div style=""margin:0 auto; width: 20vw; top: 8vh; font-size: 1vw""> 
            <font color=""green""> Bonus : $0.45 </font>
            </div>
        </div>
    
            <div> Please press any button to continue to the next trial.</div>
        ","arrowright","ITI","","","","",""
"","","","","","html-keyboard-response","126","144459","0.0-6.0-1.14","64935b0f0075f5a969a42686","6554bfa13ac4b6a0ab00b03a","6554bfef683f4dbddef570a6","null","
        
        <div style=""text-align: center; position: fixed; top: 5vh; left: 40vw;"">
            <div style=""margin:0 auto; width: 20vw; top: 8vh; font-size: 1vw""> 
            <font color=""green""> Bonus : $0.45 </font>
            </div>
        </div>
    
        <img class=""stim"" src=./stimuli//pack_shapes/cat_1/ex_1_69.png></img>
    ","null","stimulus","","","","",""
"","","","","","html-keyboard-response","127","145471","0.0-6.0-2.14","64935b0f0075f5a969a42686","6554bfa13ac4b6a0ab00b03a","6554bfef683f4dbddef570a6","null","
        <div style=""text-align: center; position: fixed; top: 5vh; left: 40vw;"">
            <div style=""margin:0 auto; width: 20vw; top: 8vh; font-size: 1vw""> 
            <font color=""green""> Bonus : $0.45 </font>
            </div>
        </div>
    ","null","","","","","",""
"","","","","","html-keyboard-response","128","145814","0.0-6.0-3.14","64935b0f0075f5a969a42686","6554bfa13ac4b6a0ab00b03a","6554bfef683f4dbddef570a6","342","./stimuli//pack_shapes/cat_1/ex_1_69.png","arrowleft","response","ArrowLeft","69","1","true",""
"","","","","","html-keyboard-response","129","147314","0.0-6.0-4.14","64935b0f0075f5a969a42686","6554bfa13ac4b6a0ab00b03a","6554bfef683f4dbddef570a6","null","<p> <font color=""green"" size=""4vw""> Correct category! </font> <br> <br> <font color=""green"" size=""7vw""> + $0.05 </font> </p>","null","feedback","","","","","0.5"
"","","","","","html-keyboard-response","130","148030","0.0-6.0-0.15","64935b0f0075f5a969a42686","6554bfa13ac4b6a0ab00b03a","6554bfef683f4dbddef570a6","716","
            
        <div style=""text-align: center; position: fixed; top: 5vh; left: 40vw;"">
            <div style=""margin:0 auto; width: 20vw; top: 8vh; font-size: 1vw""> 
            <font color=""green""> Bonus : $0.5 </font>
            </div>
        </div>
    
            <div> Please press any button to continue to the next trial.</div>
        ","arrowleft","ITI","","","","",""
"","","","","","html-keyboard-response","131","148641","0.0-6.0-1.15","64935b0f0075f5a969a42686","6554bfa13ac4b6a0ab00b03a","6554bfef683f4dbddef570a6","null","
        
        <div style=""text-align: center; position: fixed; top: 5vh; left: 40vw;"">
            <div style=""margin:0 auto; width: 20vw; top: 8vh; font-size: 1vw""> 
            <font color=""green""> Bonus : $0.5 </font>
            </div>
        </div>
    
        <img class=""stim"" src=./stimuli//pack_shapes/cat_2/ex_2_47.png></img>
    ","null","stimulus","","","","",""
"","","","","","html-keyboard-response","132","149653","0.0-6.0-2.15","64935b0f0075f5a969a42686","6554bfa13ac4b6a0ab00b03a","6554bfef683f4dbddef570a6","null","
        <div style=""text-align: center; position: fixed; top: 5vh; left: 40vw;"">
            <div style=""margin:0 auto; width: 20vw; top: 8vh; font-size: 1vw""> 
            <font color=""green""> Bonus : $0.5 </font>
            </div>
        </div>
    ","null","","","","","",""
"","","","","","html-keyboard-response","133","149873","0.0-6.0-3.15","64935b0f0075f5a969a42686","6554bfa13ac4b6a0ab00b03a","6554bfef683f4dbddef570a6","219","./stimuli//pack_shapes/cat_2/ex_2_47.png","arrowright","response","ArrowRight","47","2","true",""
"","","","","","html-keyboard-response","134","151373","0.0-6.0-4.15","64935b0f0075f5a969a42686","6554bfa13ac4b6a0ab00b03a","6554bfef683f4dbddef570a6","null","<p> <font color=""green"" size=""4vw""> Correct category! </font> <br> <br> <font color=""green"" size=""7vw""> + $0.05 </font> </p>","null","feedback","","","","","0.55"
"","","","","","html-keyboard-response","135","151796","0.0-6.0-0.16","64935b0f0075f5a969a42686","6554bfa13ac4b6a0ab00b03a","6554bfef683f4dbddef570a6","422","
            
        <div style=""text-align: center; position: fixed; top: 5vh; left: 40vw;"">
            <div style=""margin:0 auto; width: 20vw; top: 8vh; font-size: 1vw""> 
            <font color=""green""> Bonus : $0.55 </font>
            </div>
        </div>
    
            <div> Please press any button to continue to the next trial.</div>
        ","arrowright","ITI","","","","",""
"","","","","","html-keyboard-response","136","152401","0.0-6.0-1.16","64935b0f0075f5a969a42686","6554bfa13ac4b6a0ab00b03a","6554bfef683f4dbddef570a6","null","
        
        <div style=""text-align: center; position: fixed; top: 5vh; left: 40vw;"">
            <div style=""margin:0 auto; width: 20vw; top: 8vh; font-size: 1vw""> 
            <font color=""green""> Bonus : $0.55 </font>
            </div>
        </div>
    
        <img class=""stim"" src=./stimuli//pack_shapes/cat_2/ex_2_67.png></img>
    ","null","stimulus","","","","",""
"","","","","","html-keyboard-response","137","153407","0.0-6.0-2.16","64935b0f0075f5a969a42686","6554bfa13ac4b6a0ab00b03a","6554bfef683f4dbddef570a6","null","
        <div style=""text-align: center; position: fixed; top: 5vh; left: 40vw;"">
            <div style=""margin:0 auto; width: 20vw; top: 8vh; font-size: 1vw""> 
            <font color=""green""> Bonus : $0.55 </font>
            </div>
        </div>
    ","null","","","","","",""
"","","","","","html-keyboard-response","138","153699","0.0-6.0-3.16","64935b0f0075f5a969a42686","6554bfa13ac4b6a0ab00b03a","6554bfef683f4dbddef570a6","291","./stimuli//pack_shapes/cat_2/ex_2_67.png","arrowleft","response","ArrowRight","67","2","false",""
"","","","","","html-keyboard-response","139","155199","0.0-6.0-4.16","64935b0f0075f5a969a42686","6554bfa13ac4b6a0ab00b03a","6554bfef683f4dbddef570a6","1500","<p> <font color=""red"" size=""4vw""> Wrong category! </font> </p>","arrowright","feedback","","","","","0.55"
"","","","","","html-keyboard-response","140","156144","0.0-6.0-0.17","64935b0f0075f5a969a42686","6554bfa13ac4b6a0ab00b03a","6554bfef683f4dbddef570a6","943","
            
        <div style=""text-align: center; position: fixed; top: 5vh; left: 40vw;"">
            <div style=""margin:0 auto; width: 20vw; top: 8vh; font-size: 1vw""> 
            <font color=""green""> Bonus : $0.55 </font>
            </div>
        </div>
    
            <div> Please press any button to continue to the next trial.</div>
        ","arrowright","ITI","","","","",""
"","","","","","html-keyboard-response","141","156744","0.0-6.0-1.17","64935b0f0075f5a969a42686","6554bfa13ac4b6a0ab00b03a","6554bfef683f4dbddef570a6","null","
        
        <div style=""text-align: center; position: fixed; top: 5vh; left: 40vw;"">
            <div style=""margin:0 auto; width: 20vw; top: 8vh; font-size: 1vw""> 
            <font color=""green""> Bonus : $0.55 </font>
            </div>
        </div>
    
        <img class=""stim"" src=./stimuli//pack_shapes/cat_2/ex_2_76.png></img>
    ","null","stimulus","","","","",""
"","","","","","html-keyboard-response","142","157749","0.0-6.0-2.17","64935b0f0075f5a969a42686","6554bfa13ac4b6a0ab00b03a","6554bfef683f4dbddef570a6","null","
        <div style=""text-align: center; position: fixed; top: 5vh; left: 40vw;"">
            <div style=""margin:0 auto; width: 20vw; top: 8vh; font-size: 1vw""> 
            <font color=""green""> Bonus : $0.55 </font>
            </div>
        </div>
    ","null","","","","","",""
"","","","","","html-keyboard-response","143","157997","0.0-6.0-3.17","64935b0f0075f5a969a42686","6554bfa13ac4b6a0ab00b03a","6554bfef683f4dbddef570a6","247","./stimuli//pack_shapes/cat_2/ex_2_76.png","arrowright","response","ArrowRight","76","2","true",""
"","","","","","html-keyboard-response","144","159507","0.0-6.0-4.17","64935b0f0075f5a969a42686","6554bfa13ac4b6a0ab00b03a","6554bfef683f4dbddef570a6","null","<p> <font color=""green"" size=""4vw""> Correct category! </font> <br> <br> <font color=""green"" size=""7vw""> + $0.05 </font> </p>","null","feedback","","","","","0.6"
"","","","","","html-keyboard-response","145","159626","0.0-6.0-0.18","64935b0f0075f5a969a42686","6554bfa13ac4b6a0ab00b03a","6554bfef683f4dbddef570a6","118","
            
        <div style=""text-align: center; position: fixed; top: 5vh; left: 40vw;"">
            <div style=""margin:0 auto; width: 20vw; top: 8vh; font-size: 1vw""> 
            <font color=""green""> Bonus : $0.6 </font>
            </div>
        </div>
    
            <div> Please press any button to continue to the next trial.</div>
        ","arrowright","ITI","","","","",""
"","","","","","html-keyboard-response","146","160230","0.0-6.0-1.18","64935b0f0075f5a969a42686","6554bfa13ac4b6a0ab00b03a","6554bfef683f4dbddef570a6","null","
        
        <div style=""text-align: center; position: fixed; top: 5vh; left: 40vw;"">
            <div style=""margin:0 auto; width: 20vw; top: 8vh; font-size: 1vw""> 
            <font color=""green""> Bonus : $0.6 </font>
            </div>
        </div>
    
        <img class=""stim"" src=./stimuli//pack_shapes/cat_1/ex_1_38.png></img>
    ","null","stimulus","","","","",""
"","","","","","html-keyboard-response","147","161237","0.0-6.0-2.18","64935b0f0075f5a969a42686","6554bfa13ac4b6a0ab00b03a","6554bfef683f4dbddef570a6","null","
        <div style=""text-align: center; position: fixed; top: 5vh; left: 40vw;"">
            <div style=""margin:0 auto; width: 20vw; top: 8vh; font-size: 1vw""> 
            <font color=""green""> Bonus : $0.6 </font>
            </div>
        </div>
    ","null","","","","","",""
"","","","","","html-keyboard-response","148","161560","0.0-6.0-3.18","64935b0f0075f5a969a42686","6554bfa13ac4b6a0ab00b03a","6554bfef683f4dbddef570a6","322","./stimuli//pack_shapes/cat_1/ex_1_38.png","arrowleft","response","ArrowLeft","38","1","true",""
"","","","","","html-keyboard-response","149","163069","0.0-6.0-4.18","64935b0f0075f5a969a42686","6554bfa13ac4b6a0ab00b03a","6554bfef683f4dbddef570a6","null","<p> <font color=""green"" size=""4vw""> Correct category! </font> <br> <br> <font color=""green"" size=""7vw""> + $0.05 </font> </p>","null","feedback","","","","","0.65"
"","","","","","html-keyboard-response","150","163832","0.0-6.0-0.19","64935b0f0075f5a969a42686","6554bfa13ac4b6a0ab00b03a","6554bfef683f4dbddef570a6","762","
            
        <div style=""text-align: center; position: fixed; top: 5vh; left: 40vw;"">
            <div style=""margin:0 auto; width: 20vw; top: 8vh; font-size: 1vw""> 
            <font color=""green""> Bonus : $0.65 </font>
            </div>
        </div>
    
            <div> Please press any button to continue to the next trial.</div>
        ","arrowleft","ITI","","","","",""
"","","","","","html-keyboard-response","151","164435","0.0-6.0-1.19","64935b0f0075f5a969a42686","6554bfa13ac4b6a0ab00b03a","6554bfef683f4dbddef570a6","null","
        
        <div style=""text-align: center; position: fixed; top: 5vh; left: 40vw;"">
            <div style=""margin:0 auto; width: 20vw; top: 8vh; font-size: 1vw""> 
            <font color=""green""> Bonus : $0.65 </font>
            </div>
        </div>
    
        <img class=""stim"" src=./stimuli//pack_shapes/cat_1/ex_1_31.png></img>
    ","null","stimulus","","","","",""
"","","","","","html-keyboard-response","152","165441","0.0-6.0-2.19","64935b0f0075f5a969a42686","6554bfa13ac4b6a0ab00b03a","6554bfef683f4dbddef570a6","null","
        <div style=""text-align: center; position: fixed; top: 5vh; left: 40vw;"">
            <div style=""margin:0 auto; width: 20vw; top: 8vh; font-size: 1vw""> 
            <font color=""green""> Bonus : $0.65 </font>
            </div>
        </div>
    ","null","","","","","",""
"","","","","","html-keyboard-response","153","165697","0.0-6.0-3.19","64935b0f0075f5a969a42686","6554bfa13ac4b6a0ab00b03a","6554bfef683f4dbddef570a6","255","./stimuli//pack_shapes/cat_1/ex_1_31.png","arrowleft","response","ArrowLeft","31","1","true",""
"","","","","","html-keyboard-response","154","167210","0.0-6.0-4.19","64935b0f0075f5a969a42686","6554bfa13ac4b6a0ab00b03a","6554bfef683f4dbddef570a6","null","<p> <font color=""green"" size=""4vw""> Correct category! </font> <br> <br> <font color=""green"" size=""7vw""> + $0.05 </font> </p>","null","feedback","","","","","0.7"
"","","","","","html-keyboard-response","155","167847","0.0-6.0-0.20","64935b0f0075f5a969a42686","6554bfa13ac4b6a0ab00b03a","6554bfef683f4dbddef570a6","637","
            
        <div style=""text-align: center; position: fixed; top: 5vh; left: 40vw;"">
            <div style=""margin:0 auto; width: 20vw; top: 8vh; font-size: 1vw""> 
            <font color=""green""> Bonus : $0.7 </font>
            </div>
        </div>
    
            <div> Please press any button to continue to the next trial.</div>
        ","arrowleft","ITI","","","","",""
"","","","","","html-keyboard-response","156","168463","0.0-6.0-1.20","64935b0f0075f5a969a42686","6554bfa13ac4b6a0ab00b03a","6554bfef683f4dbddef570a6","null","
        
        <div style=""text-align: center; position: fixed; top: 5vh; left: 40vw;"">
            <div style=""margin:0 auto; width: 20vw; top: 8vh; font-size: 1vw""> 
            <font color=""green""> Bonus : $0.7 </font>
            </div>
        </div>
    
        <img class=""stim"" src=./stimuli//pack_shapes/cat_2/ex_2_81.png></img>
    ","null","stimulus","","","","",""
"","","","","","html-keyboard-response","157","169470","0.0-6.0-2.20","64935b0f0075f5a969a42686","6554bfa13ac4b6a0ab00b03a","6554bfef683f4dbddef570a6","null","
        <div style=""text-align: center; position: fixed; top: 5vh; left: 40vw;"">
            <div style=""margin:0 auto; width: 20vw; top: 8vh; font-size: 1vw""> 
            <font color=""green""> Bonus : $0.7 </font>
            </div>
        </div>
    ","null","","","","","",""
"","","","","","html-keyboard-response","158","169680","0.0-6.0-3.20","64935b0f0075f5a969a42686","6554bfa13ac4b6a0ab00b03a","6554bfef683f4dbddef570a6","210","./stimuli//pack_shapes/cat_2/ex_2_81.png","arrowright","response","ArrowRight","81","2","true",""
"","","","","","html-keyboard-response","159","171002","0.0-6.0-4.20","64935b0f0075f5a969a42686","6554bfa13ac4b6a0ab00b03a","6554bfef683f4dbddef570a6","1321","<p> <font color=""green"" size=""4vw""> Correct category! </font> <br> <br> <font color=""green"" size=""7vw""> + $0.05 </font> </p>","arrowright","feedback","","","","","0.75"
"","","","","","html-keyboard-response","160","172471","0.0-6.0-0.21","64935b0f0075f5a969a42686","6554bfa13ac4b6a0ab00b03a","6554bfef683f4dbddef570a6","1468","
            
        <div style=""text-align: center; position: fixed; top: 5vh; left: 40vw;"">
            <div style=""margin:0 auto; width: 20vw; top: 8vh; font-size: 1vw""> 
            <font color=""green""> Bonus : $0.75 </font>
            </div>
        </div>
    
            <div> Please press any button to continue to the next trial.</div>
        ","arrowright","ITI","","","","",""
"","","","","","html-keyboard-response","161","173074","0.0-6.0-1.21","64935b0f0075f5a969a42686","6554bfa13ac4b6a0ab00b03a","6554bfef683f4dbddef570a6","null","
        
        <div style=""text-align: center; position: fixed; top: 5vh; left: 40vw;"">
            <div style=""margin:0 auto; width: 20vw; top: 8vh; font-size: 1vw""> 
            <font color=""green""> Bonus : $0.75 </font>
            </div>
        </div>
    
        <img class=""stim"" src=./stimuli//pack_shapes/cat_2/ex_2_12.png></img>
    ","null","stimulus","","","","",""
"","","","","","html-keyboard-response","162","174079","0.0-6.0-2.21","64935b0f0075f5a969a42686","6554bfa13ac4b6a0ab00b03a","6554bfef683f4dbddef570a6","null","
        <div style=""text-align: center; position: fixed; top: 5vh; left: 40vw;"">
            <div style=""margin:0 auto; width: 20vw; top: 8vh; font-size: 1vw""> 
            <font color=""green""> Bonus : $0.75 </font>
            </div>
        </div>
    ","null","","","","","",""
"","","","","","html-keyboard-response","163","174338","0.0-6.0-3.21","64935b0f0075f5a969a42686","6554bfa13ac4b6a0ab00b03a","6554bfef683f4dbddef570a6","259","./stimuli//pack_shapes/cat_2/ex_2_12.png","arrowleft","response","ArrowRight","12","2","false",""
"","","","","","html-keyboard-response","164","175849","0.0-6.0-4.21","64935b0f0075f5a969a42686","6554bfa13ac4b6a0ab00b03a","6554bfef683f4dbddef570a6","null","<p> <font color=""red"" size=""4vw""> Wrong category! </font> </p>","null","feedback","","","","","0.75"
"","","","","","html-keyboard-response","165","178503","0.0-6.0-0.22","64935b0f0075f5a969a42686","6554bfa13ac4b6a0ab00b03a","6554bfef683f4dbddef570a6","2653","
            
        <div style=""text-align: center; position: fixed; top: 5vh; left: 40vw;"">
            <div style=""margin:0 auto; width: 20vw; top: 8vh; font-size: 1vw""> 
            <font color=""green""> Bonus : $0.75 </font>
            </div>
        </div>
    
            <div> Please press any button to continue to the next trial.</div>
        ","arrowright","ITI","","","","",""
"","","","","","html-keyboard-response","166","179112","0.0-6.0-1.22","64935b0f0075f5a969a42686","6554bfa13ac4b6a0ab00b03a","6554bfef683f4dbddef570a6","null","
        
        <div style=""text-align: center; position: fixed; top: 5vh; left: 40vw;"">
            <div style=""margin:0 auto; width: 20vw; top: 8vh; font-size: 1vw""> 
            <font color=""green""> Bonus : $0.75 </font>
            </div>
        </div>
    
        <img class=""stim"" src=./stimuli//pack_shapes/cat_2/ex_2_23.png></img>
    ","null","stimulus","","","","",""
"","","","","","html-keyboard-response","167","180122","0.0-6.0-2.22","64935b0f0075f5a969a42686","6554bfa13ac4b6a0ab00b03a","6554bfef683f4dbddef570a6","null","
        <div style=""text-align: center; position: fixed; top: 5vh; left: 40vw;"">
            <div style=""margin:0 auto; width: 20vw; top: 8vh; font-size: 1vw""> 
            <font color=""green""> Bonus : $0.75 </font>
            </div>
        </div>
    ","null","","","","","",""
"","","","","","html-keyboard-response","168","180430","0.0-6.0-3.22","64935b0f0075f5a969a42686","6554bfa13ac4b6a0ab00b03a","6554bfef683f4dbddef570a6","307","./stimuli//pack_shapes/cat_2/ex_2_23.png","arrowright","response","ArrowRight","23","2","true",""
"","","","","","html-keyboard-response","169","181934","0.0-6.0-4.22","64935b0f0075f5a969a42686","6554bfa13ac4b6a0ab00b03a","6554bfef683f4dbddef570a6","null","<p> <font color=""green"" size=""4vw""> Correct category! </font> <br> <br> <font color=""green"" size=""7vw""> + $0.05 </font> </p>","null","feedback","","","","","0.8"
"","","","","","html-keyboard-response","170","181939","0.0-6.0-0.23","64935b0f0075f5a969a42686","6554bfa13ac4b6a0ab00b03a","6554bfef683f4dbddef570a6","5","
            
        <div style=""text-align: center; position: fixed; top: 5vh; left: 40vw;"">
            <div style=""margin:0 auto; width: 20vw; top: 8vh; font-size: 1vw""> 
            <font color=""green""> Bonus : $0.8 </font>
            </div>
        </div>
    
            <div> Please press any button to continue to the next trial.</div>
        ","arrowright","ITI","","","","",""
"","","","","","html-keyboard-response","171","182615","0.0-6.0-1.23","64935b0f0075f5a969a42686","6554bfa13ac4b6a0ab00b03a","6554bfef683f4dbddef570a6","null","
        
        <div style=""text-align: center; position: fixed; top: 5vh; left: 40vw;"">
            <div style=""margin:0 auto; width: 20vw; top: 8vh; font-size: 1vw""> 
            <font color=""green""> Bonus : $0.8 </font>
            </div>
        </div>
    
        <img class=""stim"" src=./stimuli//pack_shapes/cat_2/ex_2_66.png></img>
    ","null","stimulus","","","","",""
"","","","","","html-keyboard-response","172","183624","0.0-6.0-2.23","64935b0f0075f5a969a42686","6554bfa13ac4b6a0ab00b03a","6554bfef683f4dbddef570a6","null","
        <div style=""text-align: center; position: fixed; top: 5vh; left: 40vw;"">
            <div style=""margin:0 auto; width: 20vw; top: 8vh; font-size: 1vw""> 
            <font color=""green""> Bonus : $0.8 </font>
            </div>
        </div>
    ","null","","","","","",""
"","","","","","html-keyboard-response","173","183911","0.0-6.0-3.23","64935b0f0075f5a969a42686","6554bfa13ac4b6a0ab00b03a","6554bfef683f4dbddef570a6","288","./stimuli//pack_shapes/cat_2/ex_2_66.png","arrowleft","response","ArrowRight","66","2","false",""
"","","","","","html-keyboard-response","174","185423","0.0-6.0-4.23","64935b0f0075f5a969a42686","6554bfa13ac4b6a0ab00b03a","6554bfef683f4dbddef570a6","null","<p> <font color=""red"" size=""4vw""> Wrong category! </font> </p>","null","feedback","","","","","0.8"
"","","","","","html-keyboard-response","175","187368","0.0-6.0-0.24","64935b0f0075f5a969a42686","6554bfa13ac4b6a0ab00b03a","6554bfef683f4dbddef570a6","1945","
            
        <div style=""text-align: center; position: fixed; top: 5vh; left: 40vw;"">
            <div style=""margin:0 auto; width: 20vw; top: 8vh; font-size: 1vw""> 
            <font color=""green""> Bonus : $0.8 </font>
            </div>
        </div>
    
            <div> Please press any button to continue to the next trial.</div>
        ","arrowright","ITI","","","","",""
"","","","","","html-keyboard-response","176","187977","0.0-6.0-1.24","64935b0f0075f5a969a42686","6554bfa13ac4b6a0ab00b03a","6554bfef683f4dbddef570a6","null","
        
        <div style=""text-align: center; position: fixed; top: 5vh; left: 40vw;"">
            <div style=""margin:0 auto; width: 20vw; top: 8vh; font-size: 1vw""> 
            <font color=""green""> Bonus : $0.8 </font>
            </div>
        </div>
    
        <img class=""stim"" src=./stimuli//pack_shapes/cat_2/ex_2_74.png></img>
    ","null","stimulus","","","","",""
"","","","","","html-keyboard-response","177","188984","0.0-6.0-2.24","64935b0f0075f5a969a42686","6554bfa13ac4b6a0ab00b03a","6554bfef683f4dbddef570a6","null","
        <div style=""text-align: center; position: fixed; top: 5vh; left: 40vw;"">
            <div style=""margin:0 auto; width: 20vw; top: 8vh; font-size: 1vw""> 
            <font color=""green""> Bonus : $0.8 </font>
            </div>
        </div>
    ","null","","","","","",""
"","","","","","html-keyboard-response","178","189207","0.0-6.0-3.24","64935b0f0075f5a969a42686","6554bfa13ac4b6a0ab00b03a","6554bfef683f4dbddef570a6","222","./stimuli//pack_shapes/cat_2/ex_2_74.png","arrowright","response","ArrowRight","74","2","true",""
"","","","","","html-keyboard-response","179","190712","0.0-6.0-4.24","64935b0f0075f5a969a42686","6554bfa13ac4b6a0ab00b03a","6554bfef683f4dbddef570a6","null","<p> <font color=""green"" size=""4vw""> Correct category! </font> <br> <br> <font color=""green"" size=""7vw""> + $0.05 </font> </p>","null","feedback","","","","","0.85"
"","","","","","html-keyboard-response","180","190952","0.0-6.0-0.25","64935b0f0075f5a969a42686","6554bfa13ac4b6a0ab00b03a","6554bfef683f4dbddef570a6","239","
            
        <div style=""text-align: center; position: fixed; top: 5vh; left: 40vw;"">
            <div style=""margin:0 auto; width: 20vw; top: 8vh; font-size: 1vw""> 
            <font color=""green""> Bonus : $0.85 </font>
            </div>
        </div>
    
            <div> Please press any button to continue to the next trial.</div>
        ","arrowright","ITI","","","","",""
"","","","","","html-keyboard-response","181","191561","0.0-6.0-1.25","64935b0f0075f5a969a42686","6554bfa13ac4b6a0ab00b03a","6554bfef683f4dbddef570a6","null","
        
        <div style=""text-align: center; position: fixed; top: 5vh; left: 40vw;"">
            <div style=""margin:0 auto; width: 20vw; top: 8vh; font-size: 1vw""> 
            <font color=""green""> Bonus : $0.85 </font>
            </div>
        </div>
    
        <img class=""stim"" src=./stimuli//pack_shapes/cat_2/ex_2_27.png></img>
    ","null","stimulus","","","","",""
"","","","","","html-keyboard-response","182","192567","0.0-6.0-2.25","64935b0f0075f5a969a42686","6554bfa13ac4b6a0ab00b03a","6554bfef683f4dbddef570a6","null","
        <div style=""text-align: center; position: fixed; top: 5vh; left: 40vw;"">
            <div style=""margin:0 auto; width: 20vw; top: 8vh; font-size: 1vw""> 
            <font color=""green""> Bonus : $0.85 </font>
            </div>
        </div>
    ","null","","","","","",""
"","","","","","html-keyboard-response","183","192807","0.0-6.0-3.25","64935b0f0075f5a969a42686","6554bfa13ac4b6a0ab00b03a","6554bfef683f4dbddef570a6","240","./stimuli//pack_shapes/cat_2/ex_2_27.png","arrowright","response","ArrowRight","27","2","true",""
"","","","","","html-keyboard-response","184","194322","0.0-6.0-4.25","64935b0f0075f5a969a42686","6554bfa13ac4b6a0ab00b03a","6554bfef683f4dbddef570a6","null","<p> <font color=""green"" size=""4vw""> Correct category! </font> <br> <br> <font color=""green"" size=""7vw""> + $0.05 </font> </p>","null","feedback","","","","","0.9"
"","","","","","html-keyboard-response","185","194919","0.0-6.0-0.26","64935b0f0075f5a969a42686","6554bfa13ac4b6a0ab00b03a","6554bfef683f4dbddef570a6","597","
            
        <div style=""text-align: center; position: fixed; top: 5vh; left: 40vw;"">
            <div style=""margin:0 auto; width: 20vw; top: 8vh; font-size: 1vw""> 
            <font color=""green""> Bonus : $0.9 </font>
            </div>
        </div>
    
            <div> Please press any button to continue to the next trial.</div>
        ","arrowright","ITI","","","","",""
"","","","","","html-keyboard-response","186","195522","0.0-6.0-1.26","64935b0f0075f5a969a42686","6554bfa13ac4b6a0ab00b03a","6554bfef683f4dbddef570a6","null","
        
        <div style=""text-align: center; position: fixed; top: 5vh; left: 40vw;"">
            <div style=""margin:0 auto; width: 20vw; top: 8vh; font-size: 1vw""> 
            <font color=""green""> Bonus : $0.9 </font>
            </div>
        </div>
    
        <img class=""stim"" src=./stimuli//pack_shapes/cat_2/ex_2_71.png></img>
    ","null","stimulus","","","","",""
"","","","","","html-keyboard-response","187","196534","0.0-6.0-2.26","64935b0f0075f5a969a42686","6554bfa13ac4b6a0ab00b03a","6554bfef683f4dbddef570a6","null","
        <div style=""text-align: center; position: fixed; top: 5vh; left: 40vw;"">
            <div style=""margin:0 auto; width: 20vw; top: 8vh; font-size: 1vw""> 
            <font color=""green""> Bonus : $0.9 </font>
            </div>
        </div>
    ","null","","","","","",""
"","","","","","html-keyboard-response","188","196586","0.0-6.0-3.26","64935b0f0075f5a969a42686","6554bfa13ac4b6a0ab00b03a","6554bfef683f4dbddef570a6","51","./stimuli//pack_shapes/cat_2/ex_2_71.png","arrowright","response","ArrowRight","71","2","true",""
"","","","","","html-keyboard-response","189","198095","0.0-6.0-4.26","64935b0f0075f5a969a42686","6554bfa13ac4b6a0ab00b03a","6554bfef683f4dbddef570a6","null","<p> <font color=""green"" size=""4vw""> Correct category! </font> <br> <br> <font color=""green"" size=""7vw""> + $0.05 </font> </p>","null","feedback","","","","","0.95"
"","","","","","html-keyboard-response","190","198446","0.0-6.0-0.27","64935b0f0075f5a969a42686","6554bfa13ac4b6a0ab00b03a","6554bfef683f4dbddef570a6","350","
            
        <div style=""text-align: center; position: fixed; top: 5vh; left: 40vw;"">
            <div style=""margin:0 auto; width: 20vw; top: 8vh; font-size: 1vw""> 
            <font color=""green""> Bonus : $0.95 </font>
            </div>
        </div>
    
            <div> Please press any button to continue to the next trial.</div>
        ","arrowright","ITI","","","","",""
"","","","","","html-keyboard-response","191","199048","0.0-6.0-1.27","64935b0f0075f5a969a42686","6554bfa13ac4b6a0ab00b03a","6554bfef683f4dbddef570a6","null","
        
        <div style=""text-align: center; position: fixed; top: 5vh; left: 40vw;"">
            <div style=""margin:0 auto; width: 20vw; top: 8vh; font-size: 1vw""> 
            <font color=""green""> Bonus : $0.95 </font>
            </div>
        </div>
    
        <img class=""stim"" src=./stimuli//pack_shapes/cat_2/ex_2_72.png></img>
    ","null","stimulus","","","","",""
"","","","","","html-keyboard-response","192","200058","0.0-6.0-2.27","64935b0f0075f5a969a42686","6554bfa13ac4b6a0ab00b03a","6554bfef683f4dbddef570a6","null","
        <div style=""text-align: center; position: fixed; top: 5vh; left: 40vw;"">
            <div style=""margin:0 auto; width: 20vw; top: 8vh; font-size: 1vw""> 
            <font color=""green""> Bonus : $0.95 </font>
            </div>
        </div>
    ","null","","","","","",""
"","","","","","html-keyboard-response","193","200446","0.0-6.0-3.27","64935b0f0075f5a969a42686","6554bfa13ac4b6a0ab00b03a","6554bfef683f4dbddef570a6","388","./stimuli//pack_shapes/cat_2/ex_2_72.png","arrowright","response","ArrowRight","72","2","true",""
"","","","","","html-keyboard-response","194","201951","0.0-6.0-4.27","64935b0f0075f5a969a42686","6554bfa13ac4b6a0ab00b03a","6554bfef683f4dbddef570a6","null","<p> <font color=""green"" size=""4vw""> Correct category! </font> <br> <br> <font color=""green"" size=""7vw""> + $0.05 </font> </p>","null","feedback","","","","","1"
"","","","","","html-keyboard-response","195","202898","0.0-6.0-0.28","64935b0f0075f5a969a42686","6554bfa13ac4b6a0ab00b03a","6554bfef683f4dbddef570a6","948","
            
        <div style=""text-align: center; position: fixed; top: 5vh; left: 40vw;"">
            <div style=""margin:0 auto; width: 20vw; top: 8vh; font-size: 1vw""> 
            <font color=""green""> Bonus : $1 </font>
            </div>
        </div>
    
            <div> Please press any button to continue to the next trial.</div>
        ","arrowright","ITI","","","","",""
"","","","","","html-keyboard-response","196","203514","0.0-6.0-1.28","64935b0f0075f5a969a42686","6554bfa13ac4b6a0ab00b03a","6554bfef683f4dbddef570a6","null","
        
        <div style=""text-align: center; position: fixed; top: 5vh; left: 40vw;"">
            <div style=""margin:0 auto; width: 20vw; top: 8vh; font-size: 1vw""> 
            <font color=""green""> Bonus : $1 </font>
            </div>
        </div>
    
        <img class=""stim"" src=./stimuli//pack_shapes/cat_2/ex_2_59.png></img>
    ","null","stimulus","","","","",""
"","","","","","html-keyboard-response","197","204522","0.0-6.0-2.28","64935b0f0075f5a969a42686","6554bfa13ac4b6a0ab00b03a","6554bfef683f4dbddef570a6","null","
        <div style=""text-align: center; position: fixed; top: 5vh; left: 40vw;"">
            <div style=""margin:0 auto; width: 20vw; top: 8vh; font-size: 1vw""> 
            <font color=""green""> Bonus : $1 </font>
            </div>
        </div>
    ","null","","","","","",""
"","","","","","html-keyboard-response","198","205123","0.0-6.0-3.28","64935b0f0075f5a969a42686","6554bfa13ac4b6a0ab00b03a","6554bfef683f4dbddef570a6","599","./stimuli//pack_shapes/cat_2/ex_2_59.png","arrowleft","response","ArrowRight","59","2","false",""
"","","","","","html-keyboard-response","199","206631","0.0-6.0-4.28","64935b0f0075f5a969a42686","6554bfa13ac4b6a0ab00b03a","6554bfef683f4dbddef570a6","null","<p> <font color=""red"" size=""4vw""> Wrong category! </font> </p>","null","feedback","","","","","1"
"","","","","","html-keyboard-response","200","206937","0.0-6.0-0.29","64935b0f0075f5a969a42686","6554bfa13ac4b6a0ab00b03a","6554bfef683f4dbddef570a6","305","
            
        <div style=""text-align: center; position: fixed; top: 5vh; left: 40vw;"">
            <div style=""margin:0 auto; width: 20vw; top: 8vh; font-size: 1vw""> 
            <font color=""green""> Bonus : $1 </font>
            </div>
        </div>
    
            <div> Please press any button to continue to the next trial.</div>
        ","arrowright","ITI","","","","",""
"","","","","","html-keyboard-response","201","207545","0.0-6.0-1.29","64935b0f0075f5a969a42686","6554bfa13ac4b6a0ab00b03a","6554bfef683f4dbddef570a6","null","
        
        <div style=""text-align: center; position: fixed; top: 5vh; left: 40vw;"">
            <div style=""margin:0 auto; width: 20vw; top: 8vh; font-size: 1vw""> 
            <font color=""green""> Bonus : $1 </font>
            </div>
        </div>
    
        <img class=""stim"" src=./stimuli//pack_shapes/cat_2/ex_2_69.png></img>
    ","null","stimulus","","","","",""
"","","","","","html-keyboard-response","202","208556","0.0-6.0-2.29","64935b0f0075f5a969a42686","6554bfa13ac4b6a0ab00b03a","6554bfef683f4dbddef570a6","null","
        <div style=""text-align: center; position: fixed; top: 5vh; left: 40vw;"">
            <div style=""margin:0 auto; width: 20vw; top: 8vh; font-size: 1vw""> 
            <font color=""green""> Bonus : $1 </font>
            </div>
        </div>
    ","null","","","","","",""
"","","","","","html-keyboard-response","203","208816","0.0-6.0-3.29","64935b0f0075f5a969a42686","6554bfa13ac4b6a0ab00b03a","6554bfef683f4dbddef570a6","259","./stimuli//pack_shapes/cat_2/ex_2_69.png","arrowright","response","ArrowRight","69","2","true",""
"","","","","","html-keyboard-response","204","210322","0.0-6.0-4.29","64935b0f0075f5a969a42686","6554bfa13ac4b6a0ab00b03a","6554bfef683f4dbddef570a6","null","<p> <font color=""green"" size=""4vw""> Correct category! </font> <br> <br> <font color=""green"" size=""7vw""> + $0.05 </font> </p>","null","feedback","","","","","1.05"
"","","","","","html-keyboard-response","205","211191","0.0-6.0-0.30","64935b0f0075f5a969a42686","6554bfa13ac4b6a0ab00b03a","6554bfef683f4dbddef570a6","869","
            
        <div style=""text-align: center; position: fixed; top: 5vh; left: 40vw;"">
            <div style=""margin:0 auto; width: 20vw; top: 8vh; font-size: 1vw""> 
            <font color=""green""> Bonus : $1.05 </font>
            </div>
        </div>
    
            <div> Please press any button to continue to the next trial.</div>
        ","arrowright","ITI","","","","",""
"","","","","","html-keyboard-response","206","211804","0.0-6.0-1.30","64935b0f0075f5a969a42686","6554bfa13ac4b6a0ab00b03a","6554bfef683f4dbddef570a6","null","
        
        <div style=""text-align: center; position: fixed; top: 5vh; left: 40vw;"">
            <div style=""margin:0 auto; width: 20vw; top: 8vh; font-size: 1vw""> 
            <font color=""green""> Bonus : $1.05 </font>
            </div>
        </div>
    
        <img class=""stim"" src=./stimuli//pack_shapes/cat_1/ex_1_18.png></img>
    ","null","stimulus","","","","",""
"","","","","","html-keyboard-response","207","212819","0.0-6.0-2.30","64935b0f0075f5a969a42686","6554bfa13ac4b6a0ab00b03a","6554bfef683f4dbddef570a6","null","
        <div style=""text-align: center; position: fixed; top: 5vh; left: 40vw;"">
            <div style=""margin:0 auto; width: 20vw; top: 8vh; font-size: 1vw""> 
            <font color=""green""> Bonus : $1.05 </font>
            </div>
        </div>
    ","null","","","","","",""
"","","","","","html-keyboard-response","208","213133","0.0-6.0-3.30","64935b0f0075f5a969a42686","6554bfa13ac4b6a0ab00b03a","6554bfef683f4dbddef570a6","314","./stimuli//pack_shapes/cat_1/ex_1_18.png","arrowleft","response","ArrowLeft","18","1","true",""
"","","","","","html-keyboard-response","209","214635","0.0-6.0-4.30","64935b0f0075f5a969a42686","6554bfa13ac4b6a0ab00b03a","6554bfef683f4dbddef570a6","null","<p> <font color=""green"" size=""4vw""> Correct category! </font> <br> <br> <font color=""green"" size=""7vw""> + $0.05 </font> </p>","null","feedback","","","","","1.1"
"","","","","","html-keyboard-response","210","215437","0.0-6.0-0.31","64935b0f0075f5a969a42686","6554bfa13ac4b6a0ab00b03a","6554bfef683f4dbddef570a6","802","
            
        <div style=""text-align: center; position: fixed; top: 5vh; left: 40vw;"">
            <div style=""margin:0 auto; width: 20vw; top: 8vh; font-size: 1vw""> 
            <font color=""green""> Bonus : $1.1 </font>
            </div>
        </div>
    
            <div> Please press any button to continue to the next trial.</div>
        ","arrowright","ITI","","","","",""
"","","","","","html-keyboard-response","211","216039","0.0-6.0-1.31","64935b0f0075f5a969a42686","6554bfa13ac4b6a0ab00b03a","6554bfef683f4dbddef570a6","null","
        
        <div style=""text-align: center; position: fixed; top: 5vh; left: 40vw;"">
            <div style=""margin:0 auto; width: 20vw; top: 8vh; font-size: 1vw""> 
            <font color=""green""> Bonus : $1.1 </font>
            </div>
        </div>
    
        <img class=""stim"" src=./stimuli//pack_shapes/cat_1/ex_1_9.png></img>
    ","null","stimulus","","","","",""
"","","","","","html-keyboard-response","212","217048","0.0-6.0-2.31","64935b0f0075f5a969a42686","6554bfa13ac4b6a0ab00b03a","6554bfef683f4dbddef570a6","null","
        <div style=""text-align: center; position: fixed; top: 5vh; left: 40vw;"">
            <div style=""margin:0 auto; width: 20vw; top: 8vh; font-size: 1vw""> 
            <font color=""green""> Bonus : $1.1 </font>
            </div>
        </div>
    ","null","","","","","",""
"","","","","","html-keyboard-response","213","217273","0.0-6.0-3.31","64935b0f0075f5a969a42686","6554bfa13ac4b6a0ab00b03a","6554bfef683f4dbddef570a6","224","./stimuli//pack_shapes/cat_1/ex_1_9.png","arrowleft","response","ArrowLeft","9","1","true",""
"","","","","","html-keyboard-response","214","218788","0.0-6.0-4.31","64935b0f0075f5a969a42686","6554bfa13ac4b6a0ab00b03a","6554bfef683f4dbddef570a6","null","<p> <font color=""green"" size=""4vw""> Correct category! </font> <br> <br> <font color=""green"" size=""7vw""> + $0.05 </font> </p>","null","feedback","","","","","1.15"
"","","","","","html-keyboard-response","215","219418","0.0-6.0-0.32","64935b0f0075f5a969a42686","6554bfa13ac4b6a0ab00b03a","6554bfef683f4dbddef570a6","629","
            
        <div style=""text-align: center; position: fixed; top: 5vh; left: 40vw;"">
            <div style=""margin:0 auto; width: 20vw; top: 8vh; font-size: 1vw""> 
            <font color=""green""> Bonus : $1.15 </font>
            </div>
        </div>
    
            <div> Please press any button to continue to the next trial.</div>
        ","arrowright","ITI","","","","",""
"","","","","","html-keyboard-response","216","220023","0.0-6.0-1.32","64935b0f0075f5a969a42686","6554bfa13ac4b6a0ab00b03a","6554bfef683f4dbddef570a6","null","
        
        <div style=""text-align: center; position: fixed; top: 5vh; left: 40vw;"">
            <div style=""margin:0 auto; width: 20vw; top: 8vh; font-size: 1vw""> 
            <font color=""green""> Bonus : $1.15 </font>
            </div>
        </div>
    
        <img class=""stim"" src=./stimuli//pack_shapes/cat_2/ex_2_73.png></img>
    ","null","stimulus","","","","",""
"","","","","","html-keyboard-response","217","221032","0.0-6.0-2.32","64935b0f0075f5a969a42686","6554bfa13ac4b6a0ab00b03a","6554bfef683f4dbddef570a6","null","
        <div style=""text-align: center; position: fixed; top: 5vh; left: 40vw;"">
            <div style=""margin:0 auto; width: 20vw; top: 8vh; font-size: 1vw""> 
            <font color=""green""> Bonus : $1.15 </font>
            </div>
        </div>
    ","null","","","","","",""
"","","","","","html-keyboard-response","218","221253","0.0-6.0-3.32","64935b0f0075f5a969a42686","6554bfa13ac4b6a0ab00b03a","6554bfef683f4dbddef570a6","220","./stimuli//pack_shapes/cat_2/ex_2_73.png","arrowright","response","ArrowRight","73","2","true",""
"","","","","","html-keyboard-response","219","222767","0.0-6.0-4.32","64935b0f0075f5a969a42686","6554bfa13ac4b6a0ab00b03a","6554bfef683f4dbddef570a6","null","<p> <font color=""green"" size=""4vw""> Correct category! </font> <br> <br> <font color=""green"" size=""7vw""> + $0.05 </font> </p>","null","feedback","","","","","1.2"
"","","","","","html-keyboard-response","220","223449","0.0-6.0-0.33","64935b0f0075f5a969a42686","6554bfa13ac4b6a0ab00b03a","6554bfef683f4dbddef570a6","679","
            
        <div style=""text-align: center; position: fixed; top: 5vh; left: 40vw;"">
            <div style=""margin:0 auto; width: 20vw; top: 8vh; font-size: 1vw""> 
            <font color=""green""> Bonus : $1.2 </font>
            </div>
        </div>
    
            <div> Please press any button to continue to the next trial.</div>
        ","arrowright","ITI","","","","",""
"","","","","","html-keyboard-response","221","224059","0.0-6.0-1.33","64935b0f0075f5a969a42686","6554bfa13ac4b6a0ab00b03a","6554bfef683f4dbddef570a6","null","
        
        <div style=""text-align: center; position: fixed; top: 5vh; left: 40vw;"">
            <div style=""margin:0 auto; width: 20vw; top: 8vh; font-size: 1vw""> 
            <font color=""green""> Bonus : $1.2 </font>
            </div>
        </div>
    
        <img class=""stim"" src=./stimuli//pack_shapes/cat_1/ex_1_66.png></img>
    ","null","stimulus","","","","",""
"","","","","","html-keyboard-response","222","225096","0.0-6.0-2.33","64935b0f0075f5a969a42686","6554bfa13ac4b6a0ab00b03a","6554bfef683f4dbddef570a6","null","
        <div style=""text-align: center; position: fixed; top: 5vh; left: 40vw;"">
            <div style=""margin:0 auto; width: 20vw; top: 8vh; font-size: 1vw""> 
            <font color=""green""> Bonus : $1.2 </font>
            </div>
        </div>
    ","null","","","","","",""
"","","","","","html-keyboard-response","223","225346","0.0-6.0-3.33","64935b0f0075f5a969a42686","6554bfa13ac4b6a0ab00b03a","6554bfef683f4dbddef570a6","249","./stimuli//pack_shapes/cat_1/ex_1_66.png","arrowleft","response","ArrowLeft","66","1","true",""
"","","","","","html-keyboard-response","224","225940","0.0-6.0-4.33","64935b0f0075f5a969a42686","6554bfa13ac4b6a0ab00b03a","6554bfef683f4dbddef570a6","593","<p> <font color=""green"" size=""4vw""> Correct category! </font> <br> <br> <font color=""green"" size=""7vw""> + $0.05 </font> </p>","arrowright","feedback","","","","","1.25"
"","","","","","html-keyboard-response","225","226517","0.0-6.0-0.34","64935b0f0075f5a969a42686","6554bfa13ac4b6a0ab00b03a","6554bfef683f4dbddef570a6","577","
            
        <div style=""text-align: center; position: fixed; top: 5vh; left: 40vw;"">
            <div style=""margin:0 auto; width: 20vw; top: 8vh; font-size: 1vw""> 
            <font color=""green""> Bonus : $1.25 </font>
            </div>
        </div>
    
            <div> Please press any button to continue to the next trial.</div>
        ","arrowright","ITI","","","","",""
"","","","","","html-keyboard-response","226","227133","0.0-6.0-1.34","64935b0f0075f5a969a42686","6554bfa13ac4b6a0ab00b03a","6554bfef683f4dbddef570a6","null","
        
        <div style=""text-align: center; position: fixed; top: 5vh; left: 40vw;"">
            <div style=""margin:0 auto; width: 20vw; top: 8vh; font-size: 1vw""> 
            <font color=""green""> Bonus : $1.25 </font>
            </div>
        </div>
    
        <img class=""stim"" src=./stimuli//pack_shapes/cat_2/ex_2_60.png></img>
    ","null","stimulus","","","","",""
"","","","","","html-keyboard-response","227","228143","0.0-6.0-2.34","64935b0f0075f5a969a42686","6554bfa13ac4b6a0ab00b03a","6554bfef683f4dbddef570a6","null","
        <div style=""text-align: center; position: fixed; top: 5vh; left: 40vw;"">
            <div style=""margin:0 auto; width: 20vw; top: 8vh; font-size: 1vw""> 
            <font color=""green""> Bonus : $1.25 </font>
            </div>
        </div>
    ","null","","","","","",""
"","","","","","html-keyboard-response","228","228446","0.0-6.0-3.34","64935b0f0075f5a969a42686","6554bfa13ac4b6a0ab00b03a","6554bfef683f4dbddef570a6","303","./stimuli//pack_shapes/cat_2/ex_2_60.png","arrowright","response","ArrowRight","60","2","true",""
"","","","","","html-keyboard-response","229","229961","0.0-6.0-4.34","64935b0f0075f5a969a42686","6554bfa13ac4b6a0ab00b03a","6554bfef683f4dbddef570a6","null","<p> <font color=""green"" size=""4vw""> Correct category! </font> <br> <br> <font color=""green"" size=""7vw""> + $0.05 </font> </p>","null","feedback","","","","","1.3"
"","","","","","html-keyboard-response","230","230317","0.0-6.0-0.35","64935b0f0075f5a969a42686","6554bfa13ac4b6a0ab00b03a","6554bfef683f4dbddef570a6","355","
            
        <div style=""text-align: center; position: fixed; top: 5vh; left: 40vw;"">
            <div style=""margin:0 auto; width: 20vw; top: 8vh; font-size: 1vw""> 
            <font color=""green""> Bonus : $1.3 </font>
            </div>
        </div>
    
            <div> Please press any button to continue to the next trial.</div>
        ","arrowright","ITI","","","","",""
"","","","","","html-keyboard-response","231","230928","0.0-6.0-1.35","64935b0f0075f5a969a42686","6554bfa13ac4b6a0ab00b03a","6554bfef683f4dbddef570a6","null","
        
        <div style=""text-align: center; position: fixed; top: 5vh; left: 40vw;"">
            <div style=""margin:0 auto; width: 20vw; top: 8vh; font-size: 1vw""> 
            <font color=""green""> Bonus : $1.3 </font>
            </div>
        </div>
    
        <img class=""stim"" src=./stimuli//pack_shapes/cat_1/ex_1_74.png></img>
    ","null","stimulus","","","","",""
"","","","","","html-keyboard-response","232","231935","0.0-6.0-2.35","64935b0f0075f5a969a42686","6554bfa13ac4b6a0ab00b03a","6554bfef683f4dbddef570a6","null","
        <div style=""text-align: center; position: fixed; top: 5vh; left: 40vw;"">
            <div style=""margin:0 auto; width: 20vw; top: 8vh; font-size: 1vw""> 
            <font color=""green""> Bonus : $1.3 </font>
            </div>
        </div>
    ","null","","","","","",""
"","","","","","html-keyboard-response","233","232216","0.0-6.0-3.35","64935b0f0075f5a969a42686","6554bfa13ac4b6a0ab00b03a","6554bfef683f4dbddef570a6","281","./stimuli//pack_shapes/cat_1/ex_1_74.png","arrowleft","response","ArrowLeft","74","1","true",""
"","","","","","html-keyboard-response","234","233724","0.0-6.0-4.35","64935b0f0075f5a969a42686","6554bfa13ac4b6a0ab00b03a","6554bfef683f4dbddef570a6","null","<p> <font color=""green"" size=""4vw""> Correct category! </font> <br> <br> <font color=""green"" size=""7vw""> + $0.05 </font> </p>","null","feedback","","","","","1.35"
"","","","","","html-keyboard-response","235","234192","0.0-6.0-0.36","64935b0f0075f5a969a42686","6554bfa13ac4b6a0ab00b03a","6554bfef683f4dbddef570a6","468","
            
        <div style=""text-align: center; position: fixed; top: 5vh; left: 40vw;"">
            <div style=""margin:0 auto; width: 20vw; top: 8vh; font-size: 1vw""> 
            <font color=""green""> Bonus : $1.35 </font>
            </div>
        </div>
    
            <div> Please press any button to continue to the next trial.</div>
        ","arrowright","ITI","","","","",""
"","","","","","html-keyboard-response","236","234798","0.0-6.0-1.36","64935b0f0075f5a969a42686","6554bfa13ac4b6a0ab00b03a","6554bfef683f4dbddef570a6","null","
        
        <div style=""text-align: center; position: fixed; top: 5vh; left: 40vw;"">
            <div style=""margin:0 auto; width: 20vw; top: 8vh; font-size: 1vw""> 
