"success","timeout","failed_images","failed_audio","failed_video","trial_type","trial_index","time_elapsed","internal_node_id","subject_id","study_id","session_id","rt","stimulus","response","task","correct_response","exemplar_ID","category","correct","bonus"
"true","false","[]","[]","[]","preload","0","7","0.0-0.0","60f556d6227ebf234b6ce294","6554bfa13ac4b6a0ab00b03a","6554c0eb75bb323c0e1c9914","","","","","","","","",""
"","","","","","html-keyboard-response","1","4745","0.0-1.0","60f556d6227ebf234b6ce294","6554bfa13ac4b6a0ab00b03a","6554c0eb75bb323c0e1c9914","4736","Welcome to the Category Learning experiment! Press any key to continue."," ","welcome","","","","",""
"","","","","","html-keyboard-response","2","30606","0.0-2.0","60f556d6227ebf234b6ce294","6554bfa13ac4b6a0ab00b03a","6554c0eb75bb323c0e1c9914","25860","
            <p>You will be shown images of black shapes.  Some are category A, some are category B.
            <br>You will not know in advance which category a specific shape belongs to.</p>
            <p>After you see an image, you will be asked to guess its category <b>(left arrow for category A, right arrow for category B)</b></p>
            <p>After you choose, the screen will show you whether you were correct or not.</p>
            <p><b>You will receive a bonus payment of $0.05 for each correct answer!</b></p>
            <p> So you can increase your bonus by guessing correctly, and by guessing as quickly as possible so you move on to the next image sooner.</p>
            <p>Press any key to continue.</p>
            "," ","introduction_1","","","","",""
"","","","","","html-keyboard-response","3","36434","0.0-3.0","60f556d6227ebf234b6ce294","6554bfa13ac4b6a0ab00b03a","6554c0eb75bb323c0e1c9914","5827","
            <p> <b>The first 10 trials are a practice round that will not count towards your bonus payment.</b></p>
            <p> You will be notified when practice finishes and the test begins. </p>
            <p> Press any key to begin the practice round.</p>
            "," ","introduction_2","","","","",""
"","","","","","html-keyboard-response","4","38138","0.0-4.0-0.0","60f556d6227ebf234b6ce294","6554bfa13ac4b6a0ab00b03a","6554c0eb75bb323c0e1c9914","1703","
            
        <div style=""text-align: center; position: fixed; top: 5vh; left: 40vw;"">
            <div style=""margin:0 auto; width: 20vw; top: 8vh; font-size: 1vw""> 
            <font color=""green""> Bonus : $0 </font>
            </div>
        </div>
    
            <div> Please press any button to continue to the next trial.</div>
        "," ","ITI","","","","",""
"","","","","","html-keyboard-response","5","38755","0.0-4.0-1.0","60f556d6227ebf234b6ce294","6554bfa13ac4b6a0ab00b03a","6554c0eb75bb323c0e1c9914","null","
        
        <div style=""text-align: center; position: fixed; top: 5vh; left: 40vw;"">
            <div style=""margin:0 auto; width: 20vw; top: 8vh; font-size: 1vw""> 
            <font color=""green""> Bonus : $0 </font>
            </div>
        </div>
    
        <img class=""stim"" src=./stimuli//pack_shapes/cat_2/ex_2_29.png></img>
    ","null","stimulus","","","","",""
"","","","","","html-keyboard-response","6","39768","0.0-4.0-2.0","60f556d6227ebf234b6ce294","6554bfa13ac4b6a0ab00b03a","6554c0eb75bb323c0e1c9914","null","
        <div style=""text-align: center; position: fixed; top: 5vh; left: 40vw;"">
            <div style=""margin:0 auto; width: 20vw; top: 8vh; font-size: 1vw""> 
            <font color=""green""> Bonus : $0 </font>
            </div>
        </div>
    ","null","","","","","",""
"","","","","","html-keyboard-response","7","41009","0.0-4.0-3.0","60f556d6227ebf234b6ce294","6554bfa13ac4b6a0ab00b03a","6554c0eb75bb323c0e1c9914","1239","./stimuli//pack_shapes/cat_2/ex_2_29.png","arrowleft","response","ArrowRight","29","2","false",""
"","","","","","html-keyboard-response","8","42522","0.0-4.0-4.0","60f556d6227ebf234b6ce294","6554bfa13ac4b6a0ab00b03a","6554c0eb75bb323c0e1c9914","null","<p> <font color=""red"" size=""4vw""> Wrong category! </font> </p>","null","feedback","","","","","0"
"","","","","","html-keyboard-response","9","46006","0.0-4.0-0.1","60f556d6227ebf234b6ce294","6554bfa13ac4b6a0ab00b03a","6554c0eb75bb323c0e1c9914","3482","
            
        <div style=""text-align: center; position: fixed; top: 5vh; left: 40vw;"">
            <div style=""margin:0 auto; width: 20vw; top: 8vh; font-size: 1vw""> 
            <font color=""green""> Bonus : $0 </font>
            </div>
        </div>
    
            <div> Please press any button to continue to the next trial.</div>
        "," ","ITI","","","","",""
"","","","","","html-keyboard-response","10","46621","0.0-4.0-1.1","60f556d6227ebf234b6ce294","6554bfa13ac4b6a0ab00b03a","6554c0eb75bb323c0e1c9914","null","
        
        <div style=""text-align: center; position: fixed; top: 5vh; left: 40vw;"">
            <div style=""margin:0 auto; width: 20vw; top: 8vh; font-size: 1vw""> 
            <font color=""green""> Bonus : $0 </font>
            </div>
        </div>
    
        <img class=""stim"" src=./stimuli//pack_shapes/cat_2/ex_2_80.png></img>
    ","null","stimulus","","","","",""
"","","","","","html-keyboard-response","11","47638","0.0-4.0-2.1","60f556d6227ebf234b6ce294","6554bfa13ac4b6a0ab00b03a","6554c0eb75bb323c0e1c9914","null","
        <div style=""text-align: center; position: fixed; top: 5vh; left: 40vw;"">
            <div style=""margin:0 auto; width: 20vw; top: 8vh; font-size: 1vw""> 
            <font color=""green""> Bonus : $0 </font>
            </div>
        </div>
    ","null","","","","","",""
"","","","","","html-keyboard-response","12","48317","0.0-4.0-3.1","60f556d6227ebf234b6ce294","6554bfa13ac4b6a0ab00b03a","6554c0eb75bb323c0e1c9914","678","./stimuli//pack_shapes/cat_2/ex_2_80.png","arrowright","response","ArrowRight","80","2","true",""
"","","","","","html-keyboard-response","13","49827","0.0-4.0-4.1","60f556d6227ebf234b6ce294","6554bfa13ac4b6a0ab00b03a","6554c0eb75bb323c0e1c9914","null","<p> <font color=""green"" size=""4vw""> Correct category! </font> </p>","null","feedback","","","","","0"
"","","","","","html-keyboard-response","14","50852","0.0-4.0-0.2","60f556d6227ebf234b6ce294","6554bfa13ac4b6a0ab00b03a","6554c0eb75bb323c0e1c9914","1024","
            
        <div style=""text-align: center; position: fixed; top: 5vh; left: 40vw;"">
            <div style=""margin:0 auto; width: 20vw; top: 8vh; font-size: 1vw""> 
            <font color=""green""> Bonus : $0 </font>
            </div>
        </div>
    
            <div> Please press any button to continue to the next trial.</div>
        ","arrowright","ITI","","","","",""
"","","","","","html-keyboard-response","15","51457","0.0-4.0-1.2","60f556d6227ebf234b6ce294","6554bfa13ac4b6a0ab00b03a","6554c0eb75bb323c0e1c9914","null","
        
        <div style=""text-align: center; position: fixed; top: 5vh; left: 40vw;"">
            <div style=""margin:0 auto; width: 20vw; top: 8vh; font-size: 1vw""> 
            <font color=""green""> Bonus : $0 </font>
            </div>
        </div>
    
        <img class=""stim"" src=./stimuli//pack_shapes/cat_1/ex_1_29.png></img>
    ","null","stimulus","","","","",""
"","","","","","html-keyboard-response","16","52471","0.0-4.0-2.2","60f556d6227ebf234b6ce294","6554bfa13ac4b6a0ab00b03a","6554c0eb75bb323c0e1c9914","null","
        <div style=""text-align: center; position: fixed; top: 5vh; left: 40vw;"">
            <div style=""margin:0 auto; width: 20vw; top: 8vh; font-size: 1vw""> 
            <font color=""green""> Bonus : $0 </font>
            </div>
        </div>
    ","null","","","","","",""
"","","","","","html-keyboard-response","17","52878","0.0-4.0-3.2","60f556d6227ebf234b6ce294","6554bfa13ac4b6a0ab00b03a","6554c0eb75bb323c0e1c9914","404","./stimuli//pack_shapes/cat_1/ex_1_29.png","arrowleft","response","ArrowLeft","29","1","true",""
"","","","","","html-keyboard-response","18","54394","0.0-4.0-4.2","60f556d6227ebf234b6ce294","6554bfa13ac4b6a0ab00b03a","6554c0eb75bb323c0e1c9914","null","<p> <font color=""green"" size=""4vw""> Correct category! </font> </p>","null","feedback","","","","","0"
"","","","","","html-keyboard-response","19","55099","0.0-4.0-0.3","60f556d6227ebf234b6ce294","6554bfa13ac4b6a0ab00b03a","6554c0eb75bb323c0e1c9914","703","
            
        <div style=""text-align: center; position: fixed; top: 5vh; left: 40vw;"">
            <div style=""margin:0 auto; width: 20vw; top: 8vh; font-size: 1vw""> 
            <font color=""green""> Bonus : $0 </font>
            </div>
        </div>
    
            <div> Please press any button to continue to the next trial.</div>
        ","arrowleft","ITI","","","","",""
"","","","","","html-keyboard-response","20","55705","0.0-4.0-1.3","60f556d6227ebf234b6ce294","6554bfa13ac4b6a0ab00b03a","6554c0eb75bb323c0e1c9914","null","
        
        <div style=""text-align: center; position: fixed; top: 5vh; left: 40vw;"">
            <div style=""margin:0 auto; width: 20vw; top: 8vh; font-size: 1vw""> 
            <font color=""green""> Bonus : $0 </font>
            </div>
        </div>
    
        <img class=""stim"" src=./stimuli//pack_shapes/cat_2/ex_2_39.png></img>
    ","null","stimulus","","","","",""
"","","","","","html-keyboard-response","21","56710","0.0-4.0-2.3","60f556d6227ebf234b6ce294","6554bfa13ac4b6a0ab00b03a","6554c0eb75bb323c0e1c9914","null","
        <div style=""text-align: center; position: fixed; top: 5vh; left: 40vw;"">
            <div style=""margin:0 auto; width: 20vw; top: 8vh; font-size: 1vw""> 
            <font color=""green""> Bonus : $0 </font>
            </div>
        </div>
    ","null","","","","","",""
"","","","","","html-keyboard-response","22","57039","0.0-4.0-3.3","60f556d6227ebf234b6ce294","6554bfa13ac4b6a0ab00b03a","6554c0eb75bb323c0e1c9914","327","./stimuli//pack_shapes/cat_2/ex_2_39.png","arrowright","response","ArrowRight","39","2","true",""
"","","","","","html-keyboard-response","23","58542","0.0-4.0-4.3","60f556d6227ebf234b6ce294","6554bfa13ac4b6a0ab00b03a","6554c0eb75bb323c0e1c9914","null","<p> <font color=""green"" size=""4vw""> Correct category! </font> </p>","null","feedback","","","","","0"
"","","","","","html-keyboard-response","24","59477","0.0-4.0-0.4","60f556d6227ebf234b6ce294","6554bfa13ac4b6a0ab00b03a","6554c0eb75bb323c0e1c9914","934","
            
        <div style=""text-align: center; position: fixed; top: 5vh; left: 40vw;"">
            <div style=""margin:0 auto; width: 20vw; top: 8vh; font-size: 1vw""> 
            <font color=""green""> Bonus : $0 </font>
            </div>
        </div>
    
            <div> Please press any button to continue to the next trial.</div>
        ","arrowleft","ITI","","","","",""
"","","","","","html-keyboard-response","25","60088","0.0-4.0-1.4","60f556d6227ebf234b6ce294","6554bfa13ac4b6a0ab00b03a","6554c0eb75bb323c0e1c9914","null","
        
        <div style=""text-align: center; position: fixed; top: 5vh; left: 40vw;"">
            <div style=""margin:0 auto; width: 20vw; top: 8vh; font-size: 1vw""> 
            <font color=""green""> Bonus : $0 </font>
            </div>
        </div>
    
        <img class=""stim"" src=./stimuli//pack_shapes/cat_2/ex_2_49.png></img>
    ","null","stimulus","","","","",""
"","","","","","html-keyboard-response","26","61091","0.0-4.0-2.4","60f556d6227ebf234b6ce294","6554bfa13ac4b6a0ab00b03a","6554c0eb75bb323c0e1c9914","null","
        <div style=""text-align: center; position: fixed; top: 5vh; left: 40vw;"">
            <div style=""margin:0 auto; width: 20vw; top: 8vh; font-size: 1vw""> 
            <font color=""green""> Bonus : $0 </font>
            </div>
        </div>
    ","null","","","","","",""
"","","","","","html-keyboard-response","27","61637","0.0-4.0-3.4","60f556d6227ebf234b6ce294","6554bfa13ac4b6a0ab00b03a","6554c0eb75bb323c0e1c9914","545","./stimuli//pack_shapes/cat_2/ex_2_49.png","arrowleft","response","ArrowRight","49","2","false",""
"","","","","","html-keyboard-response","28","63140","0.0-4.0-4.4","60f556d6227ebf234b6ce294","6554bfa13ac4b6a0ab00b03a","6554c0eb75bb323c0e1c9914","null","<p> <font color=""red"" size=""4vw""> Wrong category! </font> </p>","null","feedback","","","","","0"
"","","","","","html-keyboard-response","29","64181","0.0-4.0-0.5","60f556d6227ebf234b6ce294","6554bfa13ac4b6a0ab00b03a","6554c0eb75bb323c0e1c9914","1039","
            
        <div style=""text-align: center; position: fixed; top: 5vh; left: 40vw;"">
            <div style=""margin:0 auto; width: 20vw; top: 8vh; font-size: 1vw""> 
            <font color=""green""> Bonus : $0 </font>
            </div>
        </div>
    
            <div> Please press any button to continue to the next trial.</div>
        ","arrowright","ITI","","","","",""
"","","","","","html-keyboard-response","30","64789","0.0-4.0-1.5","60f556d6227ebf234b6ce294","6554bfa13ac4b6a0ab00b03a","6554c0eb75bb323c0e1c9914","null","
        
        <div style=""text-align: center; position: fixed; top: 5vh; left: 40vw;"">
            <div style=""margin:0 auto; width: 20vw; top: 8vh; font-size: 1vw""> 
            <font color=""green""> Bonus : $0 </font>
            </div>
        </div>
    
        <img class=""stim"" src=./stimuli//pack_shapes/cat_1/ex_1_39.png></img>
    ","null","stimulus","","","","",""
"","","","","","html-keyboard-response","31","65800","0.0-4.0-2.5","60f556d6227ebf234b6ce294","6554bfa13ac4b6a0ab00b03a","6554c0eb75bb323c0e1c9914","null","
        <div style=""text-align: center; position: fixed; top: 5vh; left: 40vw;"">
            <div style=""margin:0 auto; width: 20vw; top: 8vh; font-size: 1vw""> 
            <font color=""green""> Bonus : $0 </font>
            </div>
        </div>
    ","null","","","","","",""
"","","","","","html-keyboard-response","32","66563","0.0-4.0-3.5","60f556d6227ebf234b6ce294","6554bfa13ac4b6a0ab00b03a","6554c0eb75bb323c0e1c9914","762","./stimuli//pack_shapes/cat_1/ex_1_39.png","arrowright","response","ArrowLeft","39","1","false",""
"","","","","","html-keyboard-response","33","68077","0.0-4.0-4.5","60f556d6227ebf234b6ce294","6554bfa13ac4b6a0ab00b03a","6554c0eb75bb323c0e1c9914","null","<p> <font color=""red"" size=""4vw""> Wrong category! </font> </p>","null","feedback","","","","","0"
"","","","","","html-keyboard-response","34","69001","0.0-4.0-0.6","60f556d6227ebf234b6ce294","6554bfa13ac4b6a0ab00b03a","6554c0eb75bb323c0e1c9914","923","
            
        <div style=""text-align: center; position: fixed; top: 5vh; left: 40vw;"">
            <div style=""margin:0 auto; width: 20vw; top: 8vh; font-size: 1vw""> 
            <font color=""green""> Bonus : $0 </font>
            </div>
        </div>
    
            <div> Please press any button to continue to the next trial.</div>
        ","arrowleft","ITI","","","","",""
"","","","","","html-keyboard-response","35","69617","0.0-4.0-1.6","60f556d6227ebf234b6ce294","6554bfa13ac4b6a0ab00b03a","6554c0eb75bb323c0e1c9914","null","
        
        <div style=""text-align: center; position: fixed; top: 5vh; left: 40vw;"">
            <div style=""margin:0 auto; width: 20vw; top: 8vh; font-size: 1vw""> 
            <font color=""green""> Bonus : $0 </font>
            </div>
        </div>
    
        <img class=""stim"" src=./stimuli//pack_shapes/cat_2/ex_2_8.png></img>
    ","null","stimulus","","","","",""
"","","","","","html-keyboard-response","36","70634","0.0-4.0-2.6","60f556d6227ebf234b6ce294","6554bfa13ac4b6a0ab00b03a","6554c0eb75bb323c0e1c9914","null","
        <div style=""text-align: center; position: fixed; top: 5vh; left: 40vw;"">
            <div style=""margin:0 auto; width: 20vw; top: 8vh; font-size: 1vw""> 
            <font color=""green""> Bonus : $0 </font>
            </div>
        </div>
    ","null","","","","","",""
"","","","","","html-keyboard-response","37","70969","0.0-4.0-3.6","60f556d6227ebf234b6ce294","6554bfa13ac4b6a0ab00b03a","6554c0eb75bb323c0e1c9914","333","./stimuli//pack_shapes/cat_2/ex_2_8.png","arrowright","response","ArrowRight","8","2","true",""
"","","","","","html-keyboard-response","38","72479","0.0-4.0-4.6","60f556d6227ebf234b6ce294","6554bfa13ac4b6a0ab00b03a","6554c0eb75bb323c0e1c9914","null","<p> <font color=""green"" size=""4vw""> Correct category! </font> </p>","null","feedback","","","","","0"
"","","","","","html-keyboard-response","39","73121","0.0-4.0-0.7","60f556d6227ebf234b6ce294","6554bfa13ac4b6a0ab00b03a","6554c0eb75bb323c0e1c9914","640","
            
        <div style=""text-align: center; position: fixed; top: 5vh; left: 40vw;"">
            <div style=""margin:0 auto; width: 20vw; top: 8vh; font-size: 1vw""> 
            <font color=""green""> Bonus : $0 </font>
            </div>
        </div>
    
            <div> Please press any button to continue to the next trial.</div>
        ","arrowright","ITI","","","","",""
"","","","","","html-keyboard-response","40","73732","0.0-4.0-1.7","60f556d6227ebf234b6ce294","6554bfa13ac4b6a0ab00b03a","6554c0eb75bb323c0e1c9914","null","
        
        <div style=""text-align: center; position: fixed; top: 5vh; left: 40vw;"">
            <div style=""margin:0 auto; width: 20vw; top: 8vh; font-size: 1vw""> 
            <font color=""green""> Bonus : $0 </font>
            </div>
        </div>
    
        <img class=""stim"" src=./stimuli//pack_shapes/cat_1/ex_1_49.png></img>
    ","null","stimulus","","","","",""
"","","","","","html-keyboard-response","41","74749","0.0-4.0-2.7","60f556d6227ebf234b6ce294","6554bfa13ac4b6a0ab00b03a","6554c0eb75bb323c0e1c9914","null","
        <div style=""text-align: center; position: fixed; top: 5vh; left: 40vw;"">
            <div style=""margin:0 auto; width: 20vw; top: 8vh; font-size: 1vw""> 
            <font color=""green""> Bonus : $0 </font>
            </div>
        </div>
    ","null","","","","","",""
"","","","","","html-keyboard-response","42","75182","0.0-4.0-3.7","60f556d6227ebf234b6ce294","6554bfa13ac4b6a0ab00b03a","6554c0eb75bb323c0e1c9914","432","./stimuli//pack_shapes/cat_1/ex_1_49.png","arrowleft","response","ArrowLeft","49","1","true",""
"","","","","","html-keyboard-response","43","76691","0.0-4.0-4.7","60f556d6227ebf234b6ce294","6554bfa13ac4b6a0ab00b03a","6554c0eb75bb323c0e1c9914","null","<p> <font color=""green"" size=""4vw""> Correct category! </font> </p>","null","feedback","","","","","0"
"","","","","","html-keyboard-response","44","77353","0.0-4.0-0.8","60f556d6227ebf234b6ce294","6554bfa13ac4b6a0ab00b03a","6554c0eb75bb323c0e1c9914","661","
            
        <div style=""text-align: center; position: fixed; top: 5vh; left: 40vw;"">
            <div style=""margin:0 auto; width: 20vw; top: 8vh; font-size: 1vw""> 
            <font color=""green""> Bonus : $0 </font>
            </div>
        </div>
    
            <div> Please press any button to continue to the next trial.</div>
        ","arrowright","ITI","","","","",""
"","","","","","html-keyboard-response","45","77956","0.0-4.0-1.8","60f556d6227ebf234b6ce294","6554bfa13ac4b6a0ab00b03a","6554c0eb75bb323c0e1c9914","null","
        
        <div style=""text-align: center; position: fixed; top: 5vh; left: 40vw;"">
            <div style=""margin:0 auto; width: 20vw; top: 8vh; font-size: 1vw""> 
            <font color=""green""> Bonus : $0 </font>
            </div>
        </div>
    
        <img class=""stim"" src=./stimuli//pack_shapes/cat_1/ex_1_3.png></img>
    ","null","stimulus","","","","",""
"","","","","","html-keyboard-response","46","78973","0.0-4.0-2.8","60f556d6227ebf234b6ce294","6554bfa13ac4b6a0ab00b03a","6554c0eb75bb323c0e1c9914","null","
        <div style=""text-align: center; position: fixed; top: 5vh; left: 40vw;"">
            <div style=""margin:0 auto; width: 20vw; top: 8vh; font-size: 1vw""> 
            <font color=""green""> Bonus : $0 </font>
            </div>
        </div>
    ","null","","","","","",""
"","","","","","html-keyboard-response","47","79370","0.0-4.0-3.8","60f556d6227ebf234b6ce294","6554bfa13ac4b6a0ab00b03a","6554c0eb75bb323c0e1c9914","395","./stimuli//pack_shapes/cat_1/ex_1_3.png","arrowright","response","ArrowLeft","3","1","false",""
"","","","","","html-keyboard-response","48","80881","0.0-4.0-4.8","60f556d6227ebf234b6ce294","6554bfa13ac4b6a0ab00b03a","6554c0eb75bb323c0e1c9914","null","<p> <font color=""red"" size=""4vw""> Wrong category! </font> </p>","null","feedback","","","","","0"
"","","","","","html-keyboard-response","49","81448","0.0-4.0-0.9","60f556d6227ebf234b6ce294","6554bfa13ac4b6a0ab00b03a","6554c0eb75bb323c0e1c9914","565","
            
        <div style=""text-align: center; position: fixed; top: 5vh; left: 40vw;"">
            <div style=""margin:0 auto; width: 20vw; top: 8vh; font-size: 1vw""> 
            <font color=""green""> Bonus : $0 </font>
            </div>
        </div>
    
            <div> Please press any button to continue to the next trial.</div>
        ","arrowright","ITI","","","","",""
"","","","","","html-keyboard-response","50","82055","0.0-4.0-1.9","60f556d6227ebf234b6ce294","6554bfa13ac4b6a0ab00b03a","6554c0eb75bb323c0e1c9914","null","
        
        <div style=""text-align: center; position: fixed; top: 5vh; left: 40vw;"">
            <div style=""margin:0 auto; width: 20vw; top: 8vh; font-size: 1vw""> 
            <font color=""green""> Bonus : $0 </font>
            </div>
        </div>
    
        <img class=""stim"" src=./stimuli//pack_shapes/cat_1/ex_1_75.png></img>
    ","null","stimulus","","","","",""
"","","","","","html-keyboard-response","51","83072","0.0-4.0-2.9","60f556d6227ebf234b6ce294","6554bfa13ac4b6a0ab00b03a","6554c0eb75bb323c0e1c9914","null","
        <div style=""text-align: center; position: fixed; top: 5vh; left: 40vw;"">
            <div style=""margin:0 auto; width: 20vw; top: 8vh; font-size: 1vw""> 
            <font color=""green""> Bonus : $0 </font>
            </div>
        </div>
    ","null","","","","","",""
"","","","","","html-keyboard-response","52","83221","0.0-4.0-3.9","60f556d6227ebf234b6ce294","6554bfa13ac4b6a0ab00b03a","6554c0eb75bb323c0e1c9914","146","./stimuli//pack_shapes/cat_1/ex_1_75.png","arrowright","response","ArrowLeft","75","1","false",""
"","","","","","html-keyboard-response","53","84731","0.0-4.0-4.9","60f556d6227ebf234b6ce294","6554bfa13ac4b6a0ab00b03a","6554c0eb75bb323c0e1c9914","null","<p> <font color=""red"" size=""4vw""> Wrong category! </font> </p>","null","feedback","","","","","0"
"","","","","","html-keyboard-response","54","87699","0.0-5.0","60f556d6227ebf234b6ce294","6554bfa13ac4b6a0ab00b03a","6554c0eb75bb323c0e1c9914","2967","
            <b> <p> The practice round has finished.</p>
            <b> For the rest of the experiment you will receive a $0.05 bonus for each correct answer!</b>
            <p> Press any key to begin the test. </p>
            ","arrowright","intermission","","","","",""
"","","","","","html-keyboard-response","55","88476","0.0-6.0-0.0","60f556d6227ebf234b6ce294","6554bfa13ac4b6a0ab00b03a","6554c0eb75bb323c0e1c9914","776","
            
        <div style=""text-align: center; position: fixed; top: 5vh; left: 40vw;"">
            <div style=""margin:0 auto; width: 20vw; top: 8vh; font-size: 1vw""> 
            <font color=""green""> Bonus : $0 </font>
            </div>
        </div>
    
            <div> Please press any button to continue to the next trial.</div>
        ","arrowright","ITI","","","","",""
"","","","","","html-keyboard-response","56","89081","0.0-6.0-1.0","60f556d6227ebf234b6ce294","6554bfa13ac4b6a0ab00b03a","6554c0eb75bb323c0e1c9914","null","
        
        <div style=""text-align: center; position: fixed; top: 5vh; left: 40vw;"">
            <div style=""margin:0 auto; width: 20vw; top: 8vh; font-size: 1vw""> 
            <font color=""green""> Bonus : $0 </font>
            </div>
        </div>
    
        <img class=""stim"" src=./stimuli//pack_shapes/cat_2/ex_2_38.png></img>
    ","null","stimulus","","","","",""
"","","","","","html-keyboard-response","57","90097","0.0-6.0-2.0","60f556d6227ebf234b6ce294","6554bfa13ac4b6a0ab00b03a","6554c0eb75bb323c0e1c9914","null","
        <div style=""text-align: center; position: fixed; top: 5vh; left: 40vw;"">
            <div style=""margin:0 auto; width: 20vw; top: 8vh; font-size: 1vw""> 
            <font color=""green""> Bonus : $0 </font>
            </div>
        </div>
    ","null","","","","","",""
"","","","","","html-keyboard-response","58","90442","0.0-6.0-3.0","60f556d6227ebf234b6ce294","6554bfa13ac4b6a0ab00b03a","6554c0eb75bb323c0e1c9914","343","./stimuli//pack_shapes/cat_2/ex_2_38.png","arrowright","response","ArrowRight","38","2","true",""
"","","","","","html-keyboard-response","59","91957","0.0-6.0-4.0","60f556d6227ebf234b6ce294","6554bfa13ac4b6a0ab00b03a","6554c0eb75bb323c0e1c9914","null","<p> <font color=""green"" size=""4vw""> Correct category! </font> <br> <br> <font color=""green"" size=""7vw""> + $0.05 </font> </p>","null","feedback","","","","","0.05"
"","","","","","html-keyboard-response","60","92676","0.0-6.0-0.1","60f556d6227ebf234b6ce294","6554bfa13ac4b6a0ab00b03a","6554c0eb75bb323c0e1c9914","717","
            
        <div style=""text-align: center; position: fixed; top: 5vh; left: 40vw;"">
            <div style=""margin:0 auto; width: 20vw; top: 8vh; font-size: 1vw""> 
            <font color=""green""> Bonus : $0.05 </font>
            </div>
        </div>
    
            <div> Please press any button to continue to the next trial.</div>
        ","arrowright","ITI","","","","",""
"","","","","","html-keyboard-response","61","93291","0.0-6.0-1.1","60f556d6227ebf234b6ce294","6554bfa13ac4b6a0ab00b03a","6554c0eb75bb323c0e1c9914","null","
        
        <div style=""text-align: center; position: fixed; top: 5vh; left: 40vw;"">
            <div style=""margin:0 auto; width: 20vw; top: 8vh; font-size: 1vw""> 
            <font color=""green""> Bonus : $0.05 </font>
            </div>
        </div>
    
        <img class=""stim"" src=./stimuli//pack_shapes/cat_1/ex_1_46.png></img>
    ","null","stimulus","","","","",""
"","","","","","html-keyboard-response","62","94307","0.0-6.0-2.1","60f556d6227ebf234b6ce294","6554bfa13ac4b6a0ab00b03a","6554c0eb75bb323c0e1c9914","null","
        <div style=""text-align: center; position: fixed; top: 5vh; left: 40vw;"">
            <div style=""margin:0 auto; width: 20vw; top: 8vh; font-size: 1vw""> 
            <font color=""green""> Bonus : $0.05 </font>
            </div>
        </div>
    ","null","","","","","",""
"","","","","","html-keyboard-response","63","94717","0.0-6.0-3.1","60f556d6227ebf234b6ce294","6554bfa13ac4b6a0ab00b03a","6554c0eb75bb323c0e1c9914","408","./stimuli//pack_shapes/cat_1/ex_1_46.png","arrowleft","response","ArrowLeft","46","1","true",""
"","","","","","html-keyboard-response","64","96232","0.0-6.0-4.1","60f556d6227ebf234b6ce294","6554bfa13ac4b6a0ab00b03a","6554c0eb75bb323c0e1c9914","null","<p> <font color=""green"" size=""4vw""> Correct category! </font> <br> <br> <font color=""green"" size=""7vw""> + $0.05 </font> </p>","null","feedback","","","","","0.1"
"","","","","","html-keyboard-response","65","96992","0.0-6.0-0.2","60f556d6227ebf234b6ce294","6554bfa13ac4b6a0ab00b03a","6554c0eb75bb323c0e1c9914","759","
            
        <div style=""text-align: center; position: fixed; top: 5vh; left: 40vw;"">
            <div style=""margin:0 auto; width: 20vw; top: 8vh; font-size: 1vw""> 
            <font color=""green""> Bonus : $0.1 </font>
            </div>
        </div>
    
            <div> Please press any button to continue to the next trial.</div>
        ","arrowleft","ITI","","","","",""
"","","","","","html-keyboard-response","66","97604","0.0-6.0-1.2","60f556d6227ebf234b6ce294","6554bfa13ac4b6a0ab00b03a","6554c0eb75bb323c0e1c9914","null","
        
        <div style=""text-align: center; position: fixed; top: 5vh; left: 40vw;"">
            <div style=""margin:0 auto; width: 20vw; top: 8vh; font-size: 1vw""> 
            <font color=""green""> Bonus : $0.1 </font>
            </div>
        </div>
    
        <img class=""stim"" src=./stimuli//pack_shapes/cat_2/ex_2_68.png></img>
    ","null","stimulus","","","","",""
"","","","","","html-keyboard-response","67","98610","0.0-6.0-2.2","60f556d6227ebf234b6ce294","6554bfa13ac4b6a0ab00b03a","6554c0eb75bb323c0e1c9914","null","
        <div style=""text-align: center; position: fixed; top: 5vh; left: 40vw;"">
            <div style=""margin:0 auto; width: 20vw; top: 8vh; font-size: 1vw""> 
            <font color=""green""> Bonus : $0.1 </font>
            </div>
        </div>
    ","null","","","","","",""
"","","","","","html-keyboard-response","68","98935","0.0-6.0-3.2","60f556d6227ebf234b6ce294","6554bfa13ac4b6a0ab00b03a","6554c0eb75bb323c0e1c9914","321","./stimuli//pack_shapes/cat_2/ex_2_68.png","arrowright","response","ArrowRight","68","2","true",""
"","","","","","html-keyboard-response","69","100440","0.0-6.0-4.2","60f556d6227ebf234b6ce294","6554bfa13ac4b6a0ab00b03a","6554c0eb75bb323c0e1c9914","null","<p> <font color=""green"" size=""4vw""> Correct category! </font> <br> <br> <font color=""green"" size=""7vw""> + $0.05 </font> </p>","null","feedback","","","","","0.15"
"","","","","","html-keyboard-response","70","100920","0.0-6.0-0.3","60f556d6227ebf234b6ce294","6554bfa13ac4b6a0ab00b03a","6554c0eb75bb323c0e1c9914","479","
            
        <div style=""text-align: center; position: fixed; top: 5vh; left: 40vw;"">
            <div style=""margin:0 auto; width: 20vw; top: 8vh; font-size: 1vw""> 
            <font color=""green""> Bonus : $0.15 </font>
            </div>
        </div>
    
            <div> Please press any button to continue to the next trial.</div>
        ","arrowright","ITI","","","","",""
"","","","","","html-keyboard-response","71","101528","0.0-6.0-1.3","60f556d6227ebf234b6ce294","6554bfa13ac4b6a0ab00b03a","6554c0eb75bb323c0e1c9914","null","
        
        <div style=""text-align: center; position: fixed; top: 5vh; left: 40vw;"">
            <div style=""margin:0 auto; width: 20vw; top: 8vh; font-size: 1vw""> 
            <font color=""green""> Bonus : $0.15 </font>
            </div>
        </div>
    
        <img class=""stim"" src=./stimuli//pack_shapes/cat_1/ex_1_25.png></img>
    ","null","stimulus","","","","",""
"","","","","","html-keyboard-response","72","102536","0.0-6.0-2.3","60f556d6227ebf234b6ce294","6554bfa13ac4b6a0ab00b03a","6554c0eb75bb323c0e1c9914","null","
        <div style=""text-align: center; position: fixed; top: 5vh; left: 40vw;"">
            <div style=""margin:0 auto; width: 20vw; top: 8vh; font-size: 1vw""> 
            <font color=""green""> Bonus : $0.15 </font>
            </div>
        </div>
    ","null","","","","","",""
"","","","","","html-keyboard-response","73","102821","0.0-6.0-3.3","60f556d6227ebf234b6ce294","6554bfa13ac4b6a0ab00b03a","6554c0eb75bb323c0e1c9914","283","./stimuli//pack_shapes/cat_1/ex_1_25.png","arrowleft","response","ArrowLeft","25","1","true",""
"","","","","","html-keyboard-response","74","104336","0.0-6.0-4.3","60f556d6227ebf234b6ce294","6554bfa13ac4b6a0ab00b03a","6554c0eb75bb323c0e1c9914","null","<p> <font color=""green"" size=""4vw""> Correct category! </font> <br> <br> <font color=""green"" size=""7vw""> + $0.05 </font> </p>","null","feedback","","","","","0.2"
"","","","","","html-keyboard-response","75","104956","0.0-6.0-0.4","60f556d6227ebf234b6ce294","6554bfa13ac4b6a0ab00b03a","6554c0eb75bb323c0e1c9914","619","
            
        <div style=""text-align: center; position: fixed; top: 5vh; left: 40vw;"">
            <div style=""margin:0 auto; width: 20vw; top: 8vh; font-size: 1vw""> 
            <font color=""green""> Bonus : $0.2 </font>
            </div>
        </div>
    
            <div> Please press any button to continue to the next trial.</div>
        ","arrowleft","ITI","","","","",""
"","","","","","html-keyboard-response","76","105559","0.0-6.0-1.4","60f556d6227ebf234b6ce294","6554bfa13ac4b6a0ab00b03a","6554c0eb75bb323c0e1c9914","null","
        
        <div style=""text-align: center; position: fixed; top: 5vh; left: 40vw;"">
            <div style=""margin:0 auto; width: 20vw; top: 8vh; font-size: 1vw""> 
            <font color=""green""> Bonus : $0.2 </font>
            </div>
        </div>
    
        <img class=""stim"" src=./stimuli//pack_shapes/cat_2/ex_2_17.png></img>
    ","null","stimulus","","","","",""
"","","","","","html-keyboard-response","77","106575","0.0-6.0-2.4","60f556d6227ebf234b6ce294","6554bfa13ac4b6a0ab00b03a","6554c0eb75bb323c0e1c9914","null","
        <div style=""text-align: center; position: fixed; top: 5vh; left: 40vw;"">
            <div style=""margin:0 auto; width: 20vw; top: 8vh; font-size: 1vw""> 
            <font color=""green""> Bonus : $0.2 </font>
            </div>
        </div>
    ","null","","","","","",""
"","","","","","html-keyboard-response","78","106838","0.0-6.0-3.4","60f556d6227ebf234b6ce294","6554bfa13ac4b6a0ab00b03a","6554c0eb75bb323c0e1c9914","261","./stimuli//pack_shapes/cat_2/ex_2_17.png","arrowright","response","ArrowRight","17","2","true",""
"","","","","","html-keyboard-response","79","108344","0.0-6.0-4.4","60f556d6227ebf234b6ce294","6554bfa13ac4b6a0ab00b03a","6554c0eb75bb323c0e1c9914","null","<p> <font color=""green"" size=""4vw""> Correct category! </font> <br> <br> <font color=""green"" size=""7vw""> + $0.05 </font> </p>","null","feedback","","","","","0.25"
"","","","","","html-keyboard-response","80","108790","0.0-6.0-0.5","60f556d6227ebf234b6ce294","6554bfa13ac4b6a0ab00b03a","6554c0eb75bb323c0e1c9914","445","
            
        <div style=""text-align: center; position: fixed; top: 5vh; left: 40vw;"">
            <div style=""margin:0 auto; width: 20vw; top: 8vh; font-size: 1vw""> 
            <font color=""green""> Bonus : $0.25 </font>
            </div>
        </div>
    
            <div> Please press any button to continue to the next trial.</div>
        ","arrowright","ITI","","","","",""
"","","","","","html-keyboard-response","81","109409","0.0-6.0-1.5","60f556d6227ebf234b6ce294","6554bfa13ac4b6a0ab00b03a","6554c0eb75bb323c0e1c9914","null","
        
        <div style=""text-align: center; position: fixed; top: 5vh; left: 40vw;"">
            <div style=""margin:0 auto; width: 20vw; top: 8vh; font-size: 1vw""> 
            <font color=""green""> Bonus : $0.25 </font>
            </div>
        </div>
    
        <img class=""stim"" src=./stimuli//pack_shapes/cat_1/ex_1_10.png></img>
    ","null","stimulus","","","","",""
"","","","","","html-keyboard-response","82","110427","0.0-6.0-2.5","60f556d6227ebf234b6ce294","6554bfa13ac4b6a0ab00b03a","6554c0eb75bb323c0e1c9914","null","
        <div style=""text-align: center; position: fixed; top: 5vh; left: 40vw;"">
            <div style=""margin:0 auto; width: 20vw; top: 8vh; font-size: 1vw""> 
            <font color=""green""> Bonus : $0.25 </font>
            </div>
        </div>
    ","null","","","","","",""
"","","","","","html-keyboard-response","83","110804","0.0-6.0-3.5","60f556d6227ebf234b6ce294","6554bfa13ac4b6a0ab00b03a","6554c0eb75bb323c0e1c9914","375","./stimuli//pack_shapes/cat_1/ex_1_10.png","arrowleft","response","ArrowLeft","10","1","true",""
"","","","","","html-keyboard-response","84","112317","0.0-6.0-4.5","60f556d6227ebf234b6ce294","6554bfa13ac4b6a0ab00b03a","6554c0eb75bb323c0e1c9914","null","<p> <font color=""green"" size=""4vw""> Correct category! </font> <br> <br> <font color=""green"" size=""7vw""> + $0.05 </font> </p>","null","feedback","","","","","0.3"
"","","","","","html-keyboard-response","85","112991","0.0-6.0-0.6","60f556d6227ebf234b6ce294","6554bfa13ac4b6a0ab00b03a","6554c0eb75bb323c0e1c9914","673","
            
        <div style=""text-align: center; position: fixed; top: 5vh; left: 40vw;"">
            <div style=""margin:0 auto; width: 20vw; top: 8vh; font-size: 1vw""> 
            <font color=""green""> Bonus : $0.3 </font>
            </div>
        </div>
    
            <div> Please press any button to continue to the next trial.</div>
        ","arrowleft","ITI","","","","",""
"","","","","","html-keyboard-response","86","113601","0.0-6.0-1.6","60f556d6227ebf234b6ce294","6554bfa13ac4b6a0ab00b03a","6554c0eb75bb323c0e1c9914","null","
        
        <div style=""text-align: center; position: fixed; top: 5vh; left: 40vw;"">
            <div style=""margin:0 auto; width: 20vw; top: 8vh; font-size: 1vw""> 
            <font color=""green""> Bonus : $0.3 </font>
            </div>
        </div>
    
        <img class=""stim"" src=./stimuli//pack_shapes/cat_2/ex_2_7.png></img>
    ","null","stimulus","","","","",""
"","","","","","html-keyboard-response","87","114619","0.0-6.0-2.6","60f556d6227ebf234b6ce294","6554bfa13ac4b6a0ab00b03a","6554c0eb75bb323c0e1c9914","null","
        <div style=""text-align: center; position: fixed; top: 5vh; left: 40vw;"">
            <div style=""margin:0 auto; width: 20vw; top: 8vh; font-size: 1vw""> 
            <font color=""green""> Bonus : $0.3 </font>
            </div>
        </div>
    ","null","","","","","",""
"","","","","","html-keyboard-response","88","114897","0.0-6.0-3.6","60f556d6227ebf234b6ce294","6554bfa13ac4b6a0ab00b03a","6554c0eb75bb323c0e1c9914","276","./stimuli//pack_shapes/cat_2/ex_2_7.png","arrowright","response","ArrowRight","7","2","true",""
"","","","","","html-keyboard-response","89","116401","0.0-6.0-4.6","60f556d6227ebf234b6ce294","6554bfa13ac4b6a0ab00b03a","6554c0eb75bb323c0e1c9914","null","<p> <font color=""green"" size=""4vw""> Correct category! </font> <br> <br> <font color=""green"" size=""7vw""> + $0.05 </font> </p>","null","feedback","","","","","0.35"
"","","","","","html-keyboard-response","90","116936","0.0-6.0-0.7","60f556d6227ebf234b6ce294","6554bfa13ac4b6a0ab00b03a","6554c0eb75bb323c0e1c9914","534","
            
        <div style=""text-align: center; position: fixed; top: 5vh; left: 40vw;"">
            <div style=""margin:0 auto; width: 20vw; top: 8vh; font-size: 1vw""> 
            <font color=""green""> Bonus : $0.35 </font>
            </div>
        </div>
    
            <div> Please press any button to continue to the next trial.</div>
        ","arrowright","ITI","","","","",""
"","","","","","html-keyboard-response","91","117542","0.0-6.0-1.7","60f556d6227ebf234b6ce294","6554bfa13ac4b6a0ab00b03a","6554c0eb75bb323c0e1c9914","null","
        
        <div style=""text-align: center; position: fixed; top: 5vh; left: 40vw;"">
            <div style=""margin:0 auto; width: 20vw; top: 8vh; font-size: 1vw""> 
            <font color=""green""> Bonus : $0.35 </font>
            </div>
        </div>
    
        <img class=""stim"" src=./stimuli//pack_shapes/cat_1/ex_1_58.png></img>
    ","null","stimulus","","","","",""
"","","","","","html-keyboard-response","92","118549","0.0-6.0-2.7","60f556d6227ebf234b6ce294","6554bfa13ac4b6a0ab00b03a","6554c0eb75bb323c0e1c9914","null","
        <div style=""text-align: center; position: fixed; top: 5vh; left: 40vw;"">
            <div style=""margin:0 auto; width: 20vw; top: 8vh; font-size: 1vw""> 
            <font color=""green""> Bonus : $0.35 </font>
            </div>
        </div>
    ","null","","","","","",""
"","","","","","html-keyboard-response","93","118912","0.0-6.0-3.7","60f556d6227ebf234b6ce294","6554bfa13ac4b6a0ab00b03a","6554c0eb75bb323c0e1c9914","362","./stimuli//pack_shapes/cat_1/ex_1_58.png","arrowleft","response","ArrowLeft","58","1","true",""
"","","","","","html-keyboard-response","94","120422","0.0-6.0-4.7","60f556d6227ebf234b6ce294","6554bfa13ac4b6a0ab00b03a","6554c0eb75bb323c0e1c9914","null","<p> <font color=""green"" size=""4vw""> Correct category! </font> <br> <br> <font color=""green"" size=""7vw""> + $0.05 </font> </p>","null","feedback","","","","","0.4"
"","","","","","html-keyboard-response","95","120983","0.0-6.0-0.8","60f556d6227ebf234b6ce294","6554bfa13ac4b6a0ab00b03a","6554c0eb75bb323c0e1c9914","560","
            
        <div style=""text-align: center; position: fixed; top: 5vh; left: 40vw;"">
            <div style=""margin:0 auto; width: 20vw; top: 8vh; font-size: 1vw""> 
            <font color=""green""> Bonus : $0.4 </font>
            </div>
        </div>
    
            <div> Please press any button to continue to the next trial.</div>
        ","arrowleft","ITI","","","","",""
"","","","","","html-keyboard-response","96","121591","0.0-6.0-1.8","60f556d6227ebf234b6ce294","6554bfa13ac4b6a0ab00b03a","6554c0eb75bb323c0e1c9914","null","
        
        <div style=""text-align: center; position: fixed; top: 5vh; left: 40vw;"">
            <div style=""margin:0 auto; width: 20vw; top: 8vh; font-size: 1vw""> 
            <font color=""green""> Bonus : $0.4 </font>
            </div>
        </div>
    
        <img class=""stim"" src=./stimuli//pack_shapes/cat_2/ex_2_19.png></img>
    ","null","stimulus","","","","",""
"","","","","","html-keyboard-response","97","122598","0.0-6.0-2.8","60f556d6227ebf234b6ce294","6554bfa13ac4b6a0ab00b03a","6554c0eb75bb323c0e1c9914","null","
        <div style=""text-align: center; position: fixed; top: 5vh; left: 40vw;"">
            <div style=""margin:0 auto; width: 20vw; top: 8vh; font-size: 1vw""> 
            <font color=""green""> Bonus : $0.4 </font>
            </div>
        </div>
    ","null","","","","","",""
"","","","","","html-keyboard-response","98","122882","0.0-6.0-3.8","60f556d6227ebf234b6ce294","6554bfa13ac4b6a0ab00b03a","6554c0eb75bb323c0e1c9914","282","./stimuli//pack_shapes/cat_2/ex_2_19.png","arrowright","response","ArrowRight","19","2","true",""
"","","","","","html-keyboard-response","99","124398","0.0-6.0-4.8","60f556d6227ebf234b6ce294","6554bfa13ac4b6a0ab00b03a","6554c0eb75bb323c0e1c9914","null","<p> <font color=""green"" size=""4vw""> Correct category! </font> <br> <br> <font color=""green"" size=""7vw""> + $0.05 </font> </p>","null","feedback","","","","","0.45"
"","","","","","html-keyboard-response","100","124765","0.0-6.0-0.9","60f556d6227ebf234b6ce294","6554bfa13ac4b6a0ab00b03a","6554c0eb75bb323c0e1c9914","366","
            
        <div style=""text-align: center; position: fixed; top: 5vh; left: 40vw;"">
            <div style=""margin:0 auto; width: 20vw; top: 8vh; font-size: 1vw""> 
            <font color=""green""> Bonus : $0.45 </font>
            </div>
        </div>
    
            <div> Please press any button to continue to the next trial.</div>
        ","arrowright","ITI","","","","",""
"","","","","","html-keyboard-response","101","125374","0.0-6.0-1.9","60f556d6227ebf234b6ce294","6554bfa13ac4b6a0ab00b03a","6554c0eb75bb323c0e1c9914","null","
        
        <div style=""text-align: center; position: fixed; top: 5vh; left: 40vw;"">
            <div style=""margin:0 auto; width: 20vw; top: 8vh; font-size: 1vw""> 
            <font color=""green""> Bonus : $0.45 </font>
            </div>
        </div>
    
        <img class=""stim"" src=./stimuli//pack_shapes/cat_1/ex_1_59.png></img>
    ","null","stimulus","","","","",""
"","","","","","html-keyboard-response","102","126385","0.0-6.0-2.9","60f556d6227ebf234b6ce294","6554bfa13ac4b6a0ab00b03a","6554c0eb75bb323c0e1c9914","null","
        <div style=""text-align: center; position: fixed; top: 5vh; left: 40vw;"">
            <div style=""margin:0 auto; width: 20vw; top: 8vh; font-size: 1vw""> 
            <font color=""green""> Bonus : $0.45 </font>
            </div>
        </div>
    ","null","","","","","",""
"","","","","","html-keyboard-response","103","126762","0.0-6.0-3.9","60f556d6227ebf234b6ce294","6554bfa13ac4b6a0ab00b03a","6554c0eb75bb323c0e1c9914","375","./stimuli//pack_shapes/cat_1/ex_1_59.png","arrowleft","response","ArrowLeft","59","1","true",""
"","","","","","html-keyboard-response","104","128277","0.0-6.0-4.9","60f556d6227ebf234b6ce294","6554bfa13ac4b6a0ab00b03a","6554c0eb75bb323c0e1c9914","null","<p> <font color=""green"" size=""4vw""> Correct category! </font> <br> <br> <font color=""green"" size=""7vw""> + $0.05 </font> </p>","null","feedback","","","","","0.5"
"","","","","","html-keyboard-response","105","128597","0.0-6.0-0.10","60f556d6227ebf234b6ce294","6554bfa13ac4b6a0ab00b03a","6554c0eb75bb323c0e1c9914","319","
            
        <div style=""text-align: center; position: fixed; top: 5vh; left: 40vw;"">
            <div style=""margin:0 auto; width: 20vw; top: 8vh; font-size: 1vw""> 
            <font color=""green""> Bonus : $0.5 </font>
            </div>
        </div>
    
            <div> Please press any button to continue to the next trial.</div>
        ","arrowleft","ITI","","","","",""
"","","","","","html-keyboard-response","106","129208","0.0-6.0-1.10","60f556d6227ebf234b6ce294","6554bfa13ac4b6a0ab00b03a","6554c0eb75bb323c0e1c9914","null","
        
        <div style=""text-align: center; position: fixed; top: 5vh; left: 40vw;"">
            <div style=""margin:0 auto; width: 20vw; top: 8vh; font-size: 1vw""> 
            <font color=""green""> Bonus : $0.5 </font>
            </div>
        </div>
    
        <img class=""stim"" src=./stimuli//pack_shapes/cat_2/ex_2_71.png></img>
    ","null","stimulus","","","","",""
"","","","","","html-keyboard-response","107","130217","0.0-6.0-2.10","60f556d6227ebf234b6ce294","6554bfa13ac4b6a0ab00b03a","6554c0eb75bb323c0e1c9914","null","
        <div style=""text-align: center; position: fixed; top: 5vh; left: 40vw;"">
            <div style=""margin:0 auto; width: 20vw; top: 8vh; font-size: 1vw""> 
            <font color=""green""> Bonus : $0.5 </font>
            </div>
        </div>
    ","null","","","","","",""
"","","","","","html-keyboard-response","108","130499","0.0-6.0-3.10","60f556d6227ebf234b6ce294","6554bfa13ac4b6a0ab00b03a","6554c0eb75bb323c0e1c9914","280","./stimuli//pack_shapes/cat_2/ex_2_71.png","arrowright","response","ArrowRight","71","2","true",""
"","","","","","html-keyboard-response","109","132000","0.0-6.0-4.10","60f556d6227ebf234b6ce294","6554bfa13ac4b6a0ab00b03a","6554c0eb75bb323c0e1c9914","null","<p> <font color=""green"" size=""4vw""> Correct category! </font> <br> <br> <font color=""green"" size=""7vw""> + $0.05 </font> </p>","null","feedback","","","","","0.55"
"","","","","","html-keyboard-response","110","132380","0.0-6.0-0.11","60f556d6227ebf234b6ce294","6554bfa13ac4b6a0ab00b03a","6554c0eb75bb323c0e1c9914","378","
            
        <div style=""text-align: center; position: fixed; top: 5vh; left: 40vw;"">
            <div style=""margin:0 auto; width: 20vw; top: 8vh; font-size: 1vw""> 
            <font color=""green""> Bonus : $0.55 </font>
            </div>
        </div>
    
            <div> Please press any button to continue to the next trial.</div>
        ","arrowright","ITI","","","","",""
"","","","","","html-keyboard-response","111","132986","0.0-6.0-1.11","60f556d6227ebf234b6ce294","6554bfa13ac4b6a0ab00b03a","6554c0eb75bb323c0e1c9914","null","
        
        <div style=""text-align: center; position: fixed; top: 5vh; left: 40vw;"">
            <div style=""margin:0 auto; width: 20vw; top: 8vh; font-size: 1vw""> 
            <font color=""green""> Bonus : $0.55 </font>
            </div>
        </div>
    
        <img class=""stim"" src=./stimuli//pack_shapes/cat_2/ex_2_59.png></img>
    ","null","stimulus","","","","",""
"","","","","","html-keyboard-response","112","133989","0.0-6.0-2.11","60f556d6227ebf234b6ce294","6554bfa13ac4b6a0ab00b03a","6554c0eb75bb323c0e1c9914","null","
        <div style=""text-align: center; position: fixed; top: 5vh; left: 40vw;"">
            <div style=""margin:0 auto; width: 20vw; top: 8vh; font-size: 1vw""> 
            <font color=""green""> Bonus : $0.55 </font>
            </div>
        </div>
    ","null","","","","","",""
"","","","","","html-keyboard-response","113","134278","0.0-6.0-3.11","60f556d6227ebf234b6ce294","6554bfa13ac4b6a0ab00b03a","6554c0eb75bb323c0e1c9914","288","./stimuli//pack_shapes/cat_2/ex_2_59.png","arrowright","response","ArrowRight","59","2","true",""
"","","","","","html-keyboard-response","114","135786","0.0-6.0-4.11","60f556d6227ebf234b6ce294","6554bfa13ac4b6a0ab00b03a","6554c0eb75bb323c0e1c9914","null","<p> <font color=""green"" size=""4vw""> Correct category! </font> <br> <br> <font color=""green"" size=""7vw""> + $0.05 </font> </p>","null","feedback","","","","","0.6"
"","","","","","html-keyboard-response","115","136189","0.0-6.0-0.12","60f556d6227ebf234b6ce294","6554bfa13ac4b6a0ab00b03a","6554c0eb75bb323c0e1c9914","402","
            
        <div style=""text-align: center; position: fixed; top: 5vh; left: 40vw;"">
            <div style=""margin:0 auto; width: 20vw; top: 8vh; font-size: 1vw""> 
            <font color=""green""> Bonus : $0.6 </font>
            </div>
        </div>
    
            <div> Please press any button to continue to the next trial.</div>
        ","arrowright","ITI","","","","",""
"","","","","","html-keyboard-response","116","136792","0.0-6.0-1.12","60f556d6227ebf234b6ce294","6554bfa13ac4b6a0ab00b03a","6554c0eb75bb323c0e1c9914","null","
        
        <div style=""text-align: center; position: fixed; top: 5vh; left: 40vw;"">
            <div style=""margin:0 auto; width: 20vw; top: 8vh; font-size: 1vw""> 
            <font color=""green""> Bonus : $0.6 </font>
            </div>
        </div>
    
        <img class=""stim"" src=./stimuli//pack_shapes/cat_1/ex_1_44.png></img>
    ","null","stimulus","","","","",""
"","","","","","html-keyboard-response","117","137804","0.0-6.0-2.12","60f556d6227ebf234b6ce294","6554bfa13ac4b6a0ab00b03a","6554c0eb75bb323c0e1c9914","null","
        <div style=""text-align: center; position: fixed; top: 5vh; left: 40vw;"">
            <div style=""margin:0 auto; width: 20vw; top: 8vh; font-size: 1vw""> 
            <font color=""green""> Bonus : $0.6 </font>
            </div>
        </div>
    ","null","","","","","",""
"","","","","","html-keyboard-response","118","138106","0.0-6.0-3.12","60f556d6227ebf234b6ce294","6554bfa13ac4b6a0ab00b03a","6554c0eb75bb323c0e1c9914","300","./stimuli//pack_shapes/cat_1/ex_1_44.png","arrowleft","response","ArrowLeft","44","1","true",""
"","","","","","html-keyboard-response","119","139619","0.0-6.0-4.12","60f556d6227ebf234b6ce294","6554bfa13ac4b6a0ab00b03a","6554c0eb75bb323c0e1c9914","null","<p> <font color=""green"" size=""4vw""> Correct category! </font> <br> <br> <font color=""green"" size=""7vw""> + $0.05 </font> </p>","null","feedback","","","","","0.65"
"","","","","","html-keyboard-response","120","141315","0.0-6.0-0.13","60f556d6227ebf234b6ce294","6554bfa13ac4b6a0ab00b03a","6554c0eb75bb323c0e1c9914","1694","
            
        <div style=""text-align: center; position: fixed; top: 5vh; left: 40vw;"">
            <div style=""margin:0 auto; width: 20vw; top: 8vh; font-size: 1vw""> 
            <font color=""green""> Bonus : $0.65 </font>
            </div>
        </div>
    
            <div> Please press any button to continue to the next trial.</div>
        ","arrowleft","ITI","","","","",""
"","","","","","html-keyboard-response","121","141924","0.0-6.0-1.13","60f556d6227ebf234b6ce294","6554bfa13ac4b6a0ab00b03a","6554c0eb75bb323c0e1c9914","null","
        
        <div style=""text-align: center; position: fixed; top: 5vh; left: 40vw;"">
            <div style=""margin:0 auto; width: 20vw; top: 8vh; font-size: 1vw""> 
            <font color=""green""> Bonus : $0.65 </font>
            </div>
        </div>
    
        <img class=""stim"" src=./stimuli//pack_shapes/cat_1/ex_1_64.png></img>
    ","null","stimulus","","","","",""
"","","","","","html-keyboard-response","122","142930","0.0-6.0-2.13","60f556d6227ebf234b6ce294","6554bfa13ac4b6a0ab00b03a","6554c0eb75bb323c0e1c9914","null","
        <div style=""text-align: center; position: fixed; top: 5vh; left: 40vw;"">
            <div style=""margin:0 auto; width: 20vw; top: 8vh; font-size: 1vw""> 
            <font color=""green""> Bonus : $0.65 </font>
            </div>
        </div>
    ","null","","","","","",""
"","","","","","html-keyboard-response","123","143163","0.0-6.0-3.13","60f556d6227ebf234b6ce294","6554bfa13ac4b6a0ab00b03a","6554c0eb75bb323c0e1c9914","232","./stimuli//pack_shapes/cat_1/ex_1_64.png","arrowleft","response","ArrowLeft","64","1","true",""
"","","","","","html-keyboard-response","124","144674","0.0-6.0-4.13","60f556d6227ebf234b6ce294","6554bfa13ac4b6a0ab00b03a","6554c0eb75bb323c0e1c9914","null","<p> <font color=""green"" size=""4vw""> Correct category! </font> <br> <br> <font color=""green"" size=""7vw""> + $0.05 </font> </p>","null","feedback","","","","","0.7"
"","","","","","html-keyboard-response","125","145203","0.0-6.0-0.14","60f556d6227ebf234b6ce294","6554bfa13ac4b6a0ab00b03a","6554c0eb75bb323c0e1c9914","528","
            
        <div style=""text-align: center; position: fixed; top: 5vh; left: 40vw;"">
            <div style=""margin:0 auto; width: 20vw; top: 8vh; font-size: 1vw""> 
            <font color=""green""> Bonus : $0.7 </font>
            </div>
        </div>
    
            <div> Please press any button to continue to the next trial.</div>
        ","arrowleft","ITI","","","","",""
"","","","","","html-keyboard-response","126","145808","0.0-6.0-1.14","60f556d6227ebf234b6ce294","6554bfa13ac4b6a0ab00b03a","6554c0eb75bb323c0e1c9914","null","
        
        <div style=""text-align: center; position: fixed; top: 5vh; left: 40vw;"">
            <div style=""margin:0 auto; width: 20vw; top: 8vh; font-size: 1vw""> 
            <font color=""green""> Bonus : $0.7 </font>
            </div>
        </div>
    
        <img class=""stim"" src=./stimuli//pack_shapes/cat_2/ex_2_32.png></img>
    ","null","stimulus","","","","",""
"","","","","","html-keyboard-response","127","146817","0.0-6.0-2.14","60f556d6227ebf234b6ce294","6554bfa13ac4b6a0ab00b03a","6554c0eb75bb323c0e1c9914","null","
        <div style=""text-align: center; position: fixed; top: 5vh; left: 40vw;"">
            <div style=""margin:0 auto; width: 20vw; top: 8vh; font-size: 1vw""> 
            <font color=""green""> Bonus : $0.7 </font>
            </div>
        </div>
    ","null","","","","","",""
"","","","","","html-keyboard-response","128","146941","0.0-6.0-3.14","60f556d6227ebf234b6ce294","6554bfa13ac4b6a0ab00b03a","6554c0eb75bb323c0e1c9914","123","./stimuli//pack_shapes/cat_2/ex_2_32.png","arrowright","response","ArrowRight","32","2","true",""
"","","","","","html-keyboard-response","129","148445","0.0-6.0-4.14","60f556d6227ebf234b6ce294","6554bfa13ac4b6a0ab00b03a","6554c0eb75bb323c0e1c9914","null","<p> <font color=""green"" size=""4vw""> Correct category! </font> <br> <br> <font color=""green"" size=""7vw""> + $0.05 </font> </p>","null","feedback","","","","","0.75"
"","","","","","html-keyboard-response","130","148964","0.0-6.0-0.15","60f556d6227ebf234b6ce294","6554bfa13ac4b6a0ab00b03a","6554c0eb75bb323c0e1c9914","518","
            
        <div style=""text-align: center; position: fixed; top: 5vh; left: 40vw;"">
            <div style=""margin:0 auto; width: 20vw; top: 8vh; font-size: 1vw""> 
            <font color=""green""> Bonus : $0.75 </font>
            </div>
        </div>
    
            <div> Please press any button to continue to the next trial.</div>
        ","arrowright","ITI","","","","",""
"","","","","","html-keyboard-response","131","149575","0.0-6.0-1.15","60f556d6227ebf234b6ce294","6554bfa13ac4b6a0ab00b03a","6554c0eb75bb323c0e1c9914","null","
        
        <div style=""text-align: center; position: fixed; top: 5vh; left: 40vw;"">
            <div style=""margin:0 auto; width: 20vw; top: 8vh; font-size: 1vw""> 
            <font color=""green""> Bonus : $0.75 </font>
            </div>
        </div>
    
        <img class=""stim"" src=./stimuli//pack_shapes/cat_2/ex_2_55.png></img>
    ","null","stimulus","","","","",""
"","","","","","html-keyboard-response","132","150589","0.0-6.0-2.15","60f556d6227ebf234b6ce294","6554bfa13ac4b6a0ab00b03a","6554c0eb75bb323c0e1c9914","null","
        <div style=""text-align: center; position: fixed; top: 5vh; left: 40vw;"">
            <div style=""margin:0 auto; width: 20vw; top: 8vh; font-size: 1vw""> 
            <font color=""green""> Bonus : $0.75 </font>
            </div>
        </div>
    ","null","","","","","",""
"","","","","","html-keyboard-response","133","150821","0.0-6.0-3.15","60f556d6227ebf234b6ce294","6554bfa13ac4b6a0ab00b03a","6554c0eb75bb323c0e1c9914","230","./stimuli//pack_shapes/cat_2/ex_2_55.png","arrowright","response","ArrowRight","55","2","true",""
"","","","","","html-keyboard-response","134","152325","0.0-6.0-4.15","60f556d6227ebf234b6ce294","6554bfa13ac4b6a0ab00b03a","6554c0eb75bb323c0e1c9914","null","<p> <font color=""green"" size=""4vw""> Correct category! </font> <br> <br> <font color=""green"" size=""7vw""> + $0.05 </font> </p>","null","feedback","","","","","0.8"
"","","","","","html-keyboard-response","135","153396","0.0-6.0-0.16","60f556d6227ebf234b6ce294","6554bfa13ac4b6a0ab00b03a","6554c0eb75bb323c0e1c9914","1069","
            
        <div style=""text-align: center; position: fixed; top: 5vh; left: 40vw;"">
            <div style=""margin:0 auto; width: 20vw; top: 8vh; font-size: 1vw""> 
            <font color=""green""> Bonus : $0.8 </font>
            </div>
        </div>
    
            <div> Please press any button to continue to the next trial.</div>
        ","arrowright","ITI","","","","",""
"","","","","","html-keyboard-response","136","154009","0.0-6.0-1.16","60f556d6227ebf234b6ce294","6554bfa13ac4b6a0ab00b03a","6554c0eb75bb323c0e1c9914","null","
        
        <div style=""text-align: center; position: fixed; top: 5vh; left: 40vw;"">
            <div style=""margin:0 auto; width: 20vw; top: 8vh; font-size: 1vw""> 
            <font color=""green""> Bonus : $0.8 </font>
            </div>
        </div>
    
        <img class=""stim"" src=./stimuli//pack_shapes/cat_2/ex_2_21.png></img>
    ","null","stimulus","","","","",""
"","","","","","html-keyboard-response","137","155018","0.0-6.0-2.16","60f556d6227ebf234b6ce294","6554bfa13ac4b6a0ab00b03a","6554c0eb75bb323c0e1c9914","null","
        <div style=""text-align: center; position: fixed; top: 5vh; left: 40vw;"">
            <div style=""margin:0 auto; width: 20vw; top: 8vh; font-size: 1vw""> 
            <font color=""green""> Bonus : $0.8 </font>
            </div>
        </div>
    ","null","","","","","",""
"","","","","","html-keyboard-response","138","155267","0.0-6.0-3.16","60f556d6227ebf234b6ce294","6554bfa13ac4b6a0ab00b03a","6554c0eb75bb323c0e1c9914","248","./stimuli//pack_shapes/cat_2/ex_2_21.png","arrowright","response","ArrowRight","21","2","true",""
"","","","","","html-keyboard-response","139","156784","0.0-6.0-4.16","60f556d6227ebf234b6ce294","6554bfa13ac4b6a0ab00b03a","6554c0eb75bb323c0e1c9914","null","<p> <font color=""green"" size=""4vw""> Correct category! </font> <br> <br> <font color=""green"" size=""7vw""> + $0.05 </font> </p>","null","feedback","","","","","0.85"
"","","","","","html-keyboard-response","140","157190","0.0-6.0-0.17","60f556d6227ebf234b6ce294","6554bfa13ac4b6a0ab00b03a","6554c0eb75bb323c0e1c9914","405","
            
        <div style=""text-align: center; position: fixed; top: 5vh; left: 40vw;"">
            <div style=""margin:0 auto; width: 20vw; top: 8vh; font-size: 1vw""> 
            <font color=""green""> Bonus : $0.85 </font>
            </div>
        </div>
    
            <div> Please press any button to continue to the next trial.</div>
        ","arrowright","ITI","","","","",""
"","","","","","html-keyboard-response","141","157793","0.0-6.0-1.17","60f556d6227ebf234b6ce294","6554bfa13ac4b6a0ab00b03a","6554c0eb75bb323c0e1c9914","null","
        
        <div style=""text-align: center; position: fixed; top: 5vh; left: 40vw;"">
            <div style=""margin:0 auto; width: 20vw; top: 8vh; font-size: 1vw""> 
            <font color=""green""> Bonus : $0.85 </font>
            </div>
        </div>
    
        <img class=""stim"" src=./stimuli//pack_shapes/cat_2/ex_2_9.png></img>
    ","null","stimulus","","","","",""
"","","","","","html-keyboard-response","142","158801","0.0-6.0-2.17","60f556d6227ebf234b6ce294","6554bfa13ac4b6a0ab00b03a","6554c0eb75bb323c0e1c9914","null","
        <div style=""text-align: center; position: fixed; top: 5vh; left: 40vw;"">
            <div style=""margin:0 auto; width: 20vw; top: 8vh; font-size: 1vw""> 
            <font color=""green""> Bonus : $0.85 </font>
            </div>
        </div>
    ","null","","","","","",""
"","","","","","html-keyboard-response","143","159098","0.0-6.0-3.17","60f556d6227ebf234b6ce294","6554bfa13ac4b6a0ab00b03a","6554c0eb75bb323c0e1c9914","295","./stimuli//pack_shapes/cat_2/ex_2_9.png","arrowright","response","ArrowRight","9","2","true",""
"","","","","","html-keyboard-response","144","160603","0.0-6.0-4.17","60f556d6227ebf234b6ce294","6554bfa13ac4b6a0ab00b03a","6554c0eb75bb323c0e1c9914","null","<p> <font color=""green"" size=""4vw""> Correct category! </font> <br> <br> <font color=""green"" size=""7vw""> + $0.05 </font> </p>","null","feedback","","","","","0.9"
"","","","","","html-keyboard-response","145","160972","0.0-6.0-0.18","60f556d6227ebf234b6ce294","6554bfa13ac4b6a0ab00b03a","6554c0eb75bb323c0e1c9914","368","
            
        <div style=""text-align: center; position: fixed; top: 5vh; left: 40vw;"">
            <div style=""margin:0 auto; width: 20vw; top: 8vh; font-size: 1vw""> 
            <font color=""green""> Bonus : $0.9 </font>
            </div>
        </div>
    
            <div> Please press any button to continue to the next trial.</div>
        ","arrowright","ITI","","","","",""
"","","","","","html-keyboard-response","146","161588","0.0-6.0-1.18","60f556d6227ebf234b6ce294","6554bfa13ac4b6a0ab00b03a","6554c0eb75bb323c0e1c9914","null","
        
        <div style=""text-align: center; position: fixed; top: 5vh; left: 40vw;"">
            <div style=""margin:0 auto; width: 20vw; top: 8vh; font-size: 1vw""> 
            <font color=""green""> Bonus : $0.9 </font>
            </div>
        </div>
    
        <img class=""stim"" src=./stimuli//pack_shapes/cat_2/ex_2_28.png></img>
    ","null","stimulus","","","","",""
"","","","","","html-keyboard-response","147","162604","0.0-6.0-2.18","60f556d6227ebf234b6ce294","6554bfa13ac4b6a0ab00b03a","6554c0eb75bb323c0e1c9914","null","
        <div style=""text-align: center; position: fixed; top: 5vh; left: 40vw;"">
            <div style=""margin:0 auto; width: 20vw; top: 8vh; font-size: 1vw""> 
            <font color=""green""> Bonus : $0.9 </font>
            </div>
        </div>
    ","null","","","","","",""
"","","","","","html-keyboard-response","148","162879","0.0-6.0-3.18","60f556d6227ebf234b6ce294","6554bfa13ac4b6a0ab00b03a","6554c0eb75bb323c0e1c9914","273","./stimuli//pack_shapes/cat_2/ex_2_28.png","arrowright","response","ArrowRight","28","2","true",""
"","","","","","html-keyboard-response","149","164387","0.0-6.0-4.18","60f556d6227ebf234b6ce294","6554bfa13ac4b6a0ab00b03a","6554c0eb75bb323c0e1c9914","null","<p> <font color=""green"" size=""4vw""> Correct category! </font> <br> <br> <font color=""green"" size=""7vw""> + $0.05 </font> </p>","null","feedback","","","","","0.95"
"","","","","","html-keyboard-response","150","164846","0.0-6.0-0.19","60f556d6227ebf234b6ce294","6554bfa13ac4b6a0ab00b03a","6554c0eb75bb323c0e1c9914","458","
            
        <div style=""text-align: center; position: fixed; top: 5vh; left: 40vw;"">
            <div style=""margin:0 auto; width: 20vw; top: 8vh; font-size: 1vw""> 
            <font color=""green""> Bonus : $0.95 </font>
            </div>
        </div>
    
            <div> Please press any button to continue to the next trial.</div>
        ","arrowright","ITI","","","","",""
"","","","","","html-keyboard-response","151","165458","0.0-6.0-1.19","60f556d6227ebf234b6ce294","6554bfa13ac4b6a0ab00b03a","6554c0eb75bb323c0e1c9914","null","
        
        <div style=""text-align: center; position: fixed; top: 5vh; left: 40vw;"">
            <div style=""margin:0 auto; width: 20vw; top: 8vh; font-size: 1vw""> 
            <font color=""green""> Bonus : $0.95 </font>
            </div>
        </div>
    
        <img class=""stim"" src=./stimuli//pack_shapes/cat_1/ex_1_28.png></img>
    ","null","stimulus","","","","",""
"","","","","","html-keyboard-response","152","166469","0.0-6.0-2.19","60f556d6227ebf234b6ce294","6554bfa13ac4b6a0ab00b03a","6554c0eb75bb323c0e1c9914","null","
        <div style=""text-align: center; position: fixed; top: 5vh; left: 40vw;"">
            <div style=""margin:0 auto; width: 20vw; top: 8vh; font-size: 1vw""> 
            <font color=""green""> Bonus : $0.95 </font>
            </div>
        </div>
    ","null","","","","","",""
"","","","","","html-keyboard-response","153","166757","0.0-6.0-3.19","60f556d6227ebf234b6ce294","6554bfa13ac4b6a0ab00b03a","6554c0eb75bb323c0e1c9914","286","./stimuli//pack_shapes/cat_1/ex_1_28.png","arrowleft","response","ArrowLeft","28","1","true",""
"","","","","","html-keyboard-response","154","168267","0.0-6.0-4.19","60f556d6227ebf234b6ce294","6554bfa13ac4b6a0ab00b03a","6554c0eb75bb323c0e1c9914","null","<p> <font color=""green"" size=""4vw""> Correct category! </font> <br> <br> <font color=""green"" size=""7vw""> + $0.05 </font> </p>","null","feedback","","","","","1"
"","","","","","html-keyboard-response","155","168865","0.0-6.0-0.20","60f556d6227ebf234b6ce294","6554bfa13ac4b6a0ab00b03a","6554c0eb75bb323c0e1c9914","597","
            
        <div style=""text-align: center; position: fixed; top: 5vh; left: 40vw;"">
            <div style=""margin:0 auto; width: 20vw; top: 8vh; font-size: 1vw""> 
            <font color=""green""> Bonus : $1 </font>
            </div>
        </div>
    
            <div> Please press any button to continue to the next trial.</div>
        ","arrowleft","ITI","","","","",""
"","","","","","html-keyboard-response","156","169476","0.0-6.0-1.20","60f556d6227ebf234b6ce294","6554bfa13ac4b6a0ab00b03a","6554c0eb75bb323c0e1c9914","null","
        
        <div style=""text-align: center; position: fixed; top: 5vh; left: 40vw;"">
            <div style=""margin:0 auto; width: 20vw; top: 8vh; font-size: 1vw""> 
            <font color=""green""> Bonus : $1 </font>
            </div>
        </div>
    
        <img class=""stim"" src=./stimuli//pack_shapes/cat_2/ex_2_48.png></img>
    ","null","stimulus","","","","",""
"","","","","","html-keyboard-response","157","170488","0.0-6.0-2.20","60f556d6227ebf234b6ce294","6554bfa13ac4b6a0ab00b03a","6554c0eb75bb323c0e1c9914","null","
        <div style=""text-align: center; position: fixed; top: 5vh; left: 40vw;"">
            <div style=""margin:0 auto; width: 20vw; top: 8vh; font-size: 1vw""> 
            <font color=""green""> Bonus : $1 </font>
            </div>
        </div>
    ","null","","","","","",""
"","","","","","html-keyboard-response","158","170572","0.0-6.0-3.20","60f556d6227ebf234b6ce294","6554bfa13ac4b6a0ab00b03a","6554c0eb75bb323c0e1c9914","82","./stimuli//pack_shapes/cat_2/ex_2_48.png","arrowright","response","ArrowRight","48","2","true",""
"","","","","","html-keyboard-response","159","172085","0.0-6.0-4.20","60f556d6227ebf234b6ce294","6554bfa13ac4b6a0ab00b03a","6554c0eb75bb323c0e1c9914","null","<p> <font color=""green"" size=""4vw""> Correct category! </font> <br> <br> <font color=""green"" size=""7vw""> + $0.05 </font> </p>","null","feedback","","","","","1.05"
"","","","","","html-keyboard-response","160","172495","0.0-6.0-0.21","60f556d6227ebf234b6ce294","6554bfa13ac4b6a0ab00b03a","6554c0eb75bb323c0e1c9914","409","
            
        <div style=""text-align: center; position: fixed; top: 5vh; left: 40vw;"">
            <div style=""margin:0 auto; width: 20vw; top: 8vh; font-size: 1vw""> 
            <font color=""green""> Bonus : $1.05 </font>
            </div>
        </div>
    
            <div> Please press any button to continue to the next trial.</div>
        ","arrowright","ITI","","","","",""
"","","","","","html-keyboard-response","161","173109","0.0-6.0-1.21","60f556d6227ebf234b6ce294","6554bfa13ac4b6a0ab00b03a","6554c0eb75bb323c0e1c9914","null","
        
        <div style=""text-align: center; position: fixed; top: 5vh; left: 40vw;"">
            <div style=""margin:0 auto; width: 20vw; top: 8vh; font-size: 1vw""> 
            <font color=""green""> Bonus : $1.05 </font>
            </div>
        </div>
    
        <img class=""stim"" src=./stimuli//pack_shapes/cat_1/ex_1_20.png></img>
    ","null","stimulus","","","","",""
"","","","","","html-keyboard-response","162","174118","0.0-6.0-2.21","60f556d6227ebf234b6ce294","6554bfa13ac4b6a0ab00b03a","6554c0eb75bb323c0e1c9914","null","
        <div style=""text-align: center; position: fixed; top: 5vh; left: 40vw;"">
            <div style=""margin:0 auto; width: 20vw; top: 8vh; font-size: 1vw""> 
            <font color=""green""> Bonus : $1.05 </font>
            </div>
        </div>
    ","null","","","","","",""
"","","","","","html-keyboard-response","163","174266","0.0-6.0-3.21","60f556d6227ebf234b6ce294","6554bfa13ac4b6a0ab00b03a","6554c0eb75bb323c0e1c9914","146","./stimuli//pack_shapes/cat_1/ex_1_20.png","arrowleft","response","ArrowLeft","20","1","true",""
"","","","","","html-keyboard-response","164","175778","0.0-6.0-4.21","60f556d6227ebf234b6ce294","6554bfa13ac4b6a0ab00b03a","6554c0eb75bb323c0e1c9914","null","<p> <font color=""green"" size=""4vw""> Correct category! </font> <br> <br> <font color=""green"" size=""7vw""> + $0.05 </font> </p>","null","feedback","","","","","1.1"
"","","","","","html-keyboard-response","165","176353","0.0-6.0-0.22","60f556d6227ebf234b6ce294","6554bfa13ac4b6a0ab00b03a","6554c0eb75bb323c0e1c9914","574","
            
        <div style=""text-align: center; position: fixed; top: 5vh; left: 40vw;"">
            <div style=""margin:0 auto; width: 20vw; top: 8vh; font-size: 1vw""> 
            <font color=""green""> Bonus : $1.1 </font>
            </div>
        </div>
    
            <div> Please press any button to continue to the next trial.</div>
        ","arrowleft","ITI","","","","",""
"","","","","","html-keyboard-response","166","176966","0.0-6.0-1.22","60f556d6227ebf234b6ce294","6554bfa13ac4b6a0ab00b03a","6554c0eb75bb323c0e1c9914","null","
        
        <div style=""text-align: center; position: fixed; top: 5vh; left: 40vw;"">
            <div style=""margin:0 auto; width: 20vw; top: 8vh; font-size: 1vw""> 
            <font color=""green""> Bonus : $1.1 </font>
            </div>
        </div>
    
        <img class=""stim"" src=./stimuli//pack_shapes/cat_1/ex_1_35.png></img>
    ","null","stimulus","","","","",""
"","","","","","html-keyboard-response","167","177983","0.0-6.0-2.22","60f556d6227ebf234b6ce294","6554bfa13ac4b6a0ab00b03a","6554c0eb75bb323c0e1c9914","null","
        <div style=""text-align: center; position: fixed; top: 5vh; left: 40vw;"">
            <div style=""margin:0 auto; width: 20vw; top: 8vh; font-size: 1vw""> 
            <font color=""green""> Bonus : $1.1 </font>
            </div>
        </div>
    ","null","","","","","",""
"","","","","","html-keyboard-response","168","178218","0.0-6.0-3.22","60f556d6227ebf234b6ce294","6554bfa13ac4b6a0ab00b03a","6554c0eb75bb323c0e1c9914","233","./stimuli//pack_shapes/cat_1/ex_1_35.png","arrowleft","response","ArrowLeft","35","1","true",""
"","","","","","html-keyboard-response","169","179733","0.0-6.0-4.22","60f556d6227ebf234b6ce294","6554bfa13ac4b6a0ab00b03a","6554c0eb75bb323c0e1c9914","null","<p> <font color=""green"" size=""4vw""> Correct category! </font> <br> <br> <font color=""green"" size=""7vw""> + $0.05 </font> </p>","null","feedback","","","","","1.15"
"","","","","","html-keyboard-response","170","180420","0.0-6.0-0.23","60f556d6227ebf234b6ce294","6554bfa13ac4b6a0ab00b03a","6554c0eb75bb323c0e1c9914","686","
            
        <div style=""text-align: center; position: fixed; top: 5vh; left: 40vw;"">
            <div style=""margin:0 auto; width: 20vw; top: 8vh; font-size: 1vw""> 
            <font color=""green""> Bonus : $1.15 </font>
            </div>
        </div>
    
            <div> Please press any button to continue to the next trial.</div>
        ","arrowleft","ITI","","","","",""
"","","","","","html-keyboard-response","171","181035","0.0-6.0-1.23","60f556d6227ebf234b6ce294","6554bfa13ac4b6a0ab00b03a","6554c0eb75bb323c0e1c9914","null","
        
        <div style=""text-align: center; position: fixed; top: 5vh; left: 40vw;"">
            <div style=""margin:0 auto; width: 20vw; top: 8vh; font-size: 1vw""> 
            <font color=""green""> Bonus : $1.15 </font>
            </div>
        </div>
    
        <img class=""stim"" src=./stimuli//pack_shapes/cat_2/ex_2_56.png></img>
    ","null","stimulus","","","","",""
"","","","","","html-keyboard-response","172","182037","0.0-6.0-2.23","60f556d6227ebf234b6ce294","6554bfa13ac4b6a0ab00b03a","6554c0eb75bb323c0e1c9914","null","
        <div style=""text-align: center; position: fixed; top: 5vh; left: 40vw;"">
            <div style=""margin:0 auto; width: 20vw; top: 8vh; font-size: 1vw""> 
            <font color=""green""> Bonus : $1.15 </font>
            </div>
        </div>
    ","null","","","","","",""
"","","","","","html-keyboard-response","173","182323","0.0-6.0-3.23","60f556d6227ebf234b6ce294","6554bfa13ac4b6a0ab00b03a","6554c0eb75bb323c0e1c9914","284","./stimuli//pack_shapes/cat_2/ex_2_56.png","arrowright","response","ArrowRight","56","2","true",""
"","","","","","html-keyboard-response","174","183827","0.0-6.0-4.23","60f556d6227ebf234b6ce294","6554bfa13ac4b6a0ab00b03a","6554c0eb75bb323c0e1c9914","null","<p> <font color=""green"" size=""4vw""> Correct category! </font> <br> <br> <font color=""green"" size=""7vw""> + $0.05 </font> </p>","null","feedback","","","","","1.2"
"","","","","","html-keyboard-response","175","185136","0.0-6.0-0.24","60f556d6227ebf234b6ce294","6554bfa13ac4b6a0ab00b03a","6554c0eb75bb323c0e1c9914","1308","
            
        <div style=""text-align: center; position: fixed; top: 5vh; left: 40vw;"">
            <div style=""margin:0 auto; width: 20vw; top: 8vh; font-size: 1vw""> 
            <font color=""green""> Bonus : $1.2 </font>
            </div>
        </div>
    
            <div> Please press any button to continue to the next trial.</div>
        ","arrowright","ITI","","","","",""
"","","","","","html-keyboard-response","176","185743","0.0-6.0-1.24","60f556d6227ebf234b6ce294","6554bfa13ac4b6a0ab00b03a","6554c0eb75bb323c0e1c9914","null","
        
        <div style=""text-align: center; position: fixed; top: 5vh; left: 40vw;"">
            <div style=""margin:0 auto; width: 20vw; top: 8vh; font-size: 1vw""> 
            <font color=""green""> Bonus : $1.2 </font>
            </div>
        </div>
    
        <img class=""stim"" src=./stimuli//pack_shapes/cat_2/ex_2_75.png></img>
    ","null","stimulus","","","","",""
"","","","","","html-keyboard-response","177","186760","0.0-6.0-2.24","60f556d6227ebf234b6ce294","6554bfa13ac4b6a0ab00b03a","6554c0eb75bb323c0e1c9914","null","
        <div style=""text-align: center; position: fixed; top: 5vh; left: 40vw;"">
            <div style=""margin:0 auto; width: 20vw; top: 8vh; font-size: 1vw""> 
            <font color=""green""> Bonus : $1.2 </font>
            </div>
        </div>
    ","null","","","","","",""
"","","","","","html-keyboard-response","178","187178","0.0-6.0-3.24","60f556d6227ebf234b6ce294","6554bfa13ac4b6a0ab00b03a","6554c0eb75bb323c0e1c9914","417","./stimuli//pack_shapes/cat_2/ex_2_75.png","arrowright","response","ArrowRight","75","2","true",""
"","","","","","html-keyboard-response","179","188685","0.0-6.0-4.24","60f556d6227ebf234b6ce294","6554bfa13ac4b6a0ab00b03a","6554c0eb75bb323c0e1c9914","null","<p> <font color=""green"" size=""4vw""> Correct category! </font> <br> <br> <font color=""green"" size=""7vw""> + $0.05 </font> </p>","null","feedback","","","","","1.25"
"","","","","","html-keyboard-response","180","188990","0.0-6.0-0.25","60f556d6227ebf234b6ce294","6554bfa13ac4b6a0ab00b03a","6554c0eb75bb323c0e1c9914","304","
            
        <div style=""text-align: center; position: fixed; top: 5vh; left: 40vw;"">
            <div style=""margin:0 auto; width: 20vw; top: 8vh; font-size: 1vw""> 
            <font color=""green""> Bonus : $1.25 </font>
            </div>
        </div>
    
            <div> Please press any button to continue to the next trial.</div>
        ","arrowright","ITI","","","","",""
"","","","","","html-keyboard-response","181","189591","0.0-6.0-1.25","60f556d6227ebf234b6ce294","6554bfa13ac4b6a0ab00b03a","6554c0eb75bb323c0e1c9914","null","
        
        <div style=""text-align: center; position: fixed; top: 5vh; left: 40vw;"">
            <div style=""margin:0 auto; width: 20vw; top: 8vh; font-size: 1vw""> 
            <font color=""green""> Bonus : $1.25 </font>
            </div>
        </div>
    
        <img class=""stim"" src=./stimuli//pack_shapes/cat_1/ex_1_33.png></img>
    ","null","stimulus","","","","",""
"","","","","","html-keyboard-response","182","190608","0.0-6.0-2.25","60f556d6227ebf234b6ce294","6554bfa13ac4b6a0ab00b03a","6554c0eb75bb323c0e1c9914","null","
        <div style=""text-align: center; position: fixed; top: 5vh; left: 40vw;"">
            <div style=""margin:0 auto; width: 20vw; top: 8vh; font-size: 1vw""> 
            <font color=""green""> Bonus : $1.25 </font>
            </div>
        </div>
    ","null","","","","","",""
"","","","","","html-keyboard-response","183","190957","0.0-6.0-3.25","60f556d6227ebf234b6ce294","6554bfa13ac4b6a0ab00b03a","6554c0eb75bb323c0e1c9914","348","./stimuli//pack_shapes/cat_1/ex_1_33.png","arrowleft","response","ArrowLeft","33","1","true",""
"","","","","","html-keyboard-response","184","192470","0.0-6.0-4.25","60f556d6227ebf234b6ce294","6554bfa13ac4b6a0ab00b03a","6554c0eb75bb323c0e1c9914","null","<p> <font color=""green"" size=""4vw""> Correct category! </font> <br> <br> <font color=""green"" size=""7vw""> + $0.05 </font> </p>","null","feedback","","","","","1.3"
"","","","","","html-keyboard-response","185","194314","0.0-6.0-0.26","60f556d6227ebf234b6ce294","6554bfa13ac4b6a0ab00b03a","6554c0eb75bb323c0e1c9914","1843","
            
        <div style=""text-align: center; position: fixed; top: 5vh; left: 40vw;"">
            <div style=""margin:0 auto; width: 20vw; top: 8vh; font-size: 1vw""> 
            <font color=""green""> Bonus : $1.3 </font>
            </div>
        </div>
    
            <div> Please press any button to continue to the next trial.</div>
        ","arrowleft","ITI","","","","",""
"","","","","","html-keyboard-response","186","194928","0.0-6.0-1.26","60f556d6227ebf234b6ce294","6554bfa13ac4b6a0ab00b03a","6554c0eb75bb323c0e1c9914","null","
        
        <div style=""text-align: center; position: fixed; top: 5vh; left: 40vw;"">
            <div style=""margin:0 auto; width: 20vw; top: 8vh; font-size: 1vw""> 
            <font color=""green""> Bonus : $1.3 </font>
            </div>
        </div>
    
        <img class=""stim"" src=./stimuli//pack_shapes/cat_2/ex_2_36.png></img>
    ","null","stimulus","","","","",""
"","","","","","html-keyboard-response","187","195941","0.0-6.0-2.26","60f556d6227ebf234b6ce294","6554bfa13ac4b6a0ab00b03a","6554c0eb75bb323c0e1c9914","null","
        <div style=""text-align: center; position: fixed; top: 5vh; left: 40vw;"">
            <div style=""margin:0 auto; width: 20vw; top: 8vh; font-size: 1vw""> 
            <font color=""green""> Bonus : $1.3 </font>
            </div>
        </div>
    ","null","","","","","",""
"","","","","","html-keyboard-response","188","196257","0.0-6.0-3.26","60f556d6227ebf234b6ce294","6554bfa13ac4b6a0ab00b03a","6554c0eb75bb323c0e1c9914","315","./stimuli//pack_shapes/cat_2/ex_2_36.png","arrowright","response","ArrowRight","36","2","true",""
"","","","","","html-keyboard-response","189","197772","0.0-6.0-4.26","60f556d6227ebf234b6ce294","6554bfa13ac4b6a0ab00b03a","6554c0eb75bb323c0e1c9914","null","<p> <font color=""green"" size=""4vw""> Correct category! </font> <br> <br> <font color=""green"" size=""7vw""> + $0.05 </font> </p>","null","feedback","","","","","1.35"
"","","","","","html-keyboard-response","190","198274","0.0-6.0-0.27","60f556d6227ebf234b6ce294","6554bfa13ac4b6a0ab00b03a","6554c0eb75bb323c0e1c9914","501","
            
        <div style=""text-align: center; position: fixed; top: 5vh; left: 40vw;"">
            <div style=""margin:0 auto; width: 20vw; top: 8vh; font-size: 1vw""> 
            <font color=""green""> Bonus : $1.35 </font>
            </div>
        </div>
    
            <div> Please press any button to continue to the next trial.</div>
        ","arrowright","ITI","","","","",""
"","","","","","html-keyboard-response","191","198878","0.0-6.0-1.27","60f556d6227ebf234b6ce294","6554bfa13ac4b6a0ab00b03a","6554c0eb75bb323c0e1c9914","null","
        
        <div style=""text-align: center; position: fixed; top: 5vh; left: 40vw;"">
            <div style=""margin:0 auto; width: 20vw; top: 8vh; font-size: 1vw""> 
            <font color=""green""> Bonus : $1.35 </font>
            </div>
        </div>
    
        <img class=""stim"" src=./stimuli//pack_shapes/cat_2/ex_2_63.png></img>
    ","null","stimulus","","","","",""
"","","","","","html-keyboard-response","192","199884","0.0-6.0-2.27","60f556d6227ebf234b6ce294","6554bfa13ac4b6a0ab00b03a","6554c0eb75bb323c0e1c9914","null","
        <div style=""text-align: center; position: fixed; top: 5vh; left: 40vw;"">
            <div style=""margin:0 auto; width: 20vw; top: 8vh; font-size: 1vw""> 
            <font color=""green""> Bonus : $1.35 </font>
            </div>
        </div>
    ","null","","","","","",""
"","","","","","html-keyboard-response","193","200113","0.0-6.0-3.27","60f556d6227ebf234b6ce294","6554bfa13ac4b6a0ab00b03a","6554c0eb75bb323c0e1c9914","228","./stimuli//pack_shapes/cat_2/ex_2_63.png","arrowright","response","ArrowRight","63","2","true",""
"","","","","","html-keyboard-response","194","201620","0.0-6.0-4.27","60f556d6227ebf234b6ce294","6554bfa13ac4b6a0ab00b03a","6554c0eb75bb323c0e1c9914","null","<p> <font color=""green"" size=""4vw""> Correct category! </font> <br> <br> <font color=""green"" size=""7vw""> + $0.05 </font> </p>","null","feedback","","","","","1.4"
"","","","","","html-keyboard-response","195","201967","0.0-6.0-0.28","60f556d6227ebf234b6ce294","6554bfa13ac4b6a0ab00b03a","6554c0eb75bb323c0e1c9914","345","
            
        <div style=""text-align: center; position: fixed; top: 5vh; left: 40vw;"">
            <div style=""margin:0 auto; width: 20vw; top: 8vh; font-size: 1vw""> 
            <font color=""green""> Bonus : $1.4 </font>
            </div>
        </div>
    
            <div> Please press any button to continue to the next trial.</div>
        ","arrowright","ITI","","","","",""
"","","","","","html-keyboard-response","196","202580","0.0-6.0-1.28","60f556d6227ebf234b6ce294","6554bfa13ac4b6a0ab00b03a","6554c0eb75bb323c0e1c9914","null","
        
        <div style=""text-align: center; position: fixed; top: 5vh; left: 40vw;"">
            <div style=""margin:0 auto; width: 20vw; top: 8vh; font-size: 1vw""> 
            <font color=""green""> Bonus : $1.4 </font>
            </div>
        </div>
    
        <img class=""stim"" src=./stimuli//pack_shapes/cat_2/ex_2_22.png></img>
    ","null","stimulus","","","","",""
"","","","","","html-keyboard-response","197","203591","0.0-6.0-2.28","60f556d6227ebf234b6ce294","6554bfa13ac4b6a0ab00b03a","6554c0eb75bb323c0e1c9914","null","
        <div style=""text-align: center; position: fixed; top: 5vh; left: 40vw;"">
            <div style=""margin:0 auto; width: 20vw; top: 8vh; font-size: 1vw""> 
            <font color=""green""> Bonus : $1.4 </font>
            </div>
        </div>
    ","null","","","","","",""
"","","","","","html-keyboard-response","198","204161","0.0-6.0-3.28","60f556d6227ebf234b6ce294","6554bfa13ac4b6a0ab00b03a","6554c0eb75bb323c0e1c9914","568","./stimuli//pack_shapes/cat_2/ex_2_22.png","arrowright","response","ArrowRight","22","2","true",""
"","","","","","html-keyboard-response","199","205671","0.0-6.0-4.28","60f556d6227ebf234b6ce294","6554bfa13ac4b6a0ab00b03a","6554c0eb75bb323c0e1c9914","null","<p> <font color=""green"" size=""4vw""> Correct category! </font> <br> <br> <font color=""green"" size=""7vw""> + $0.05 </font> </p>","null","feedback","","","","","1.45"
"","","","","","html-keyboard-response","200","206026","0.0-6.0-0.29","60f556d6227ebf234b6ce294","6554bfa13ac4b6a0ab00b03a","6554c0eb75bb323c0e1c9914","354","
            
        <div style=""text-align: center; position: fixed; top: 5vh; left: 40vw;"">
            <div style=""margin:0 auto; width: 20vw; top: 8vh; font-size: 1vw""> 
            <font color=""green""> Bonus : $1.45 </font>
            </div>
        </div>
    
            <div> Please press any button to continue to the next trial.</div>
        ","arrowright","ITI","","","","",""
"","","","","","html-keyboard-response","201","206643","0.0-6.0-1.29","60f556d6227ebf234b6ce294","6554bfa13ac4b6a0ab00b03a","6554c0eb75bb323c0e1c9914","null","
        
        <div style=""text-align: center; position: fixed; top: 5vh; left: 40vw;"">
            <div style=""margin:0 auto; width: 20vw; top: 8vh; font-size: 1vw""> 
            <font color=""green""> Bonus : $1.45 </font>
            </div>
        </div>
    
        <img class=""stim"" src=./stimuli//pack_shapes/cat_2/ex_2_43.png></img>
    ","null","stimulus","","","","",""
"","","","","","html-keyboard-response","202","207658","0.0-6.0-2.29","60f556d6227ebf234b6ce294","6554bfa13ac4b6a0ab00b03a","6554c0eb75bb323c0e1c9914","null","
        <div style=""text-align: center; position: fixed; top: 5vh; left: 40vw;"">
            <div style=""margin:0 auto; width: 20vw; top: 8vh; font-size: 1vw""> 
            <font color=""green""> Bonus : $1.45 </font>
            </div>
        </div>
    ","null","","","","","",""
"","","","","","html-keyboard-response","203","208040","0.0-6.0-3.29","60f556d6227ebf234b6ce294","6554bfa13ac4b6a0ab00b03a","6554c0eb75bb323c0e1c9914","380","./stimuli//pack_shapes/cat_2/ex_2_43.png","arrowright","response","ArrowRight","43","2","true",""
"","","","","","html-keyboard-response","204","209551","0.0-6.0-4.29","60f556d6227ebf234b6ce294","6554bfa13ac4b6a0ab00b03a","6554c0eb75bb323c0e1c9914","null","<p> <font color=""green"" size=""4vw""> Correct category! </font> <br> <br> <font color=""green"" size=""7vw""> + $0.05 </font> </p>","null","feedback","","","","","1.5"
"","","","","","html-keyboard-response","205","210138","0.0-6.0-0.30","60f556d6227ebf234b6ce294","6554bfa13ac4b6a0ab00b03a","6554c0eb75bb323c0e1c9914","586","
            
        <div style=""text-align: center; position: fixed; top: 5vh; left: 40vw;"">
            <div style=""margin:0 auto; width: 20vw; top: 8vh; font-size: 1vw""> 
            <font color=""green""> Bonus : $1.5 </font>
            </div>
        </div>
    
            <div> Please press any button to continue to the next trial.</div>
        ","arrowright","ITI","","","","",""
"","","","","","html-keyboard-response","206","210744","0.0-6.0-1.30","60f556d6227ebf234b6ce294","6554bfa13ac4b6a0ab00b03a","6554c0eb75bb323c0e1c9914","null","
        
        <div style=""text-align: center; position: fixed; top: 5vh; left: 40vw;"">
            <div style=""margin:0 auto; width: 20vw; top: 8vh; font-size: 1vw""> 
            <font color=""green""> Bonus : $1.5 </font>
            </div>
        </div>
    
        <img class=""stim"" src=./stimuli//pack_shapes/cat_1/ex_1_74.png></img>
    ","null","stimulus","","","","",""
"","","","","","html-keyboard-response","207","211758","0.0-6.0-2.30","60f556d6227ebf234b6ce294","6554bfa13ac4b6a0ab00b03a","6554c0eb75bb323c0e1c9914","null","
        <div style=""text-align: center; position: fixed; top: 5vh; left: 40vw;"">
            <div style=""margin:0 auto; width: 20vw; top: 8vh; font-size: 1vw""> 
            <font color=""green""> Bonus : $1.5 </font>
            </div>
        </div>
    ","null","","","","","",""
"","","","","","html-keyboard-response","208","212231","0.0-6.0-3.30","60f556d6227ebf234b6ce294","6554bfa13ac4b6a0ab00b03a","6554c0eb75bb323c0e1c9914","471","./stimuli//pack_shapes/cat_1/ex_1_74.png","arrowleft","response","ArrowLeft","74","1","true",""
"","","","","","html-keyboard-response","209","213744","0.0-6.0-4.30","60f556d6227ebf234b6ce294","6554bfa13ac4b6a0ab00b03a","6554c0eb75bb323c0e1c9914","null","<p> <font color=""green"" size=""4vw""> Correct category! </font> <br> <br> <font color=""green"" size=""7vw""> + $0.05 </font> </p>","null","feedback","","","","","1.55"
"","","","","","html-keyboard-response","210","214356","0.0-6.0-0.31","60f556d6227ebf234b6ce294","6554bfa13ac4b6a0ab00b03a","6554c0eb75bb323c0e1c9914","611","
            
        <div style=""text-align: center; position: fixed; top: 5vh; left: 40vw;"">
            <div style=""margin:0 auto; width: 20vw; top: 8vh; font-size: 1vw""> 
            <font color=""green""> Bonus : $1.55 </font>
            </div>
        </div>
    
            <div> Please press any button to continue to the next trial.</div>
        ","arrowleft","ITI","","","","",""
"","","","","","html-keyboard-response","211","214964","0.0-6.0-1.31","60f556d6227ebf234b6ce294","6554bfa13ac4b6a0ab00b03a","6554c0eb75bb323c0e1c9914","null","
        
        <div style=""text-align: center; position: fixed; top: 5vh; left: 40vw;"">
            <div style=""margin:0 auto; width: 20vw; top: 8vh; font-size: 1vw""> 
            <font color=""green""> Bonus : $1.55 </font>
            </div>
        </div>
    
        <img class=""stim"" src=./stimuli//pack_shapes/cat_1/ex_1_38.png></img>
    ","null","stimulus","","","","",""
"","","","","","html-keyboard-response","212","215981","0.0-6.0-2.31","60f556d6227ebf234b6ce294","6554bfa13ac4b6a0ab00b03a","6554c0eb75bb323c0e1c9914","null","
        <div style=""text-align: center; position: fixed; top: 5vh; left: 40vw;"">
            <div style=""margin:0 auto; width: 20vw; top: 8vh; font-size: 1vw""> 
            <font color=""green""> Bonus : $1.55 </font>
            </div>
        </div>
    ","null","","","","","",""
"","","","","","html-keyboard-response","213","216458","0.0-6.0-3.31","60f556d6227ebf234b6ce294","6554bfa13ac4b6a0ab00b03a","6554c0eb75bb323c0e1c9914","475","./stimuli//pack_shapes/cat_1/ex_1_38.png","arrowleft","response","ArrowLeft","38","1","true",""
"","","","","","html-keyboard-response","214","217969","0.0-6.0-4.31","60f556d6227ebf234b6ce294","6554bfa13ac4b6a0ab00b03a","6554c0eb75bb323c0e1c9914","null","<p> <font color=""green"" size=""4vw""> Correct category! </font> <br> <br> <font color=""green"" size=""7vw""> + $0.05 </font> </p>","null","feedback","","","","","1.6"
"","","","","","html-keyboard-response","215","218489","0.0-6.0-0.32","60f556d6227ebf234b6ce294","6554bfa13ac4b6a0ab00b03a","6554c0eb75bb323c0e1c9914","519","
            
        <div style=""text-align: center; position: fixed; top: 5vh; left: 40vw;"">
            <div style=""margin:0 auto; width: 20vw; top: 8vh; font-size: 1vw""> 
            <font color=""green""> Bonus : $1.6 </font>
            </div>
        </div>
    
            <div> Please press any button to continue to the next trial.</div>
        ","arrowleft","ITI","","","","",""
"","","","","","html-keyboard-response","216","219096","0.0-6.0-1.32","60f556d6227ebf234b6ce294","6554bfa13ac4b6a0ab00b03a","6554c0eb75bb323c0e1c9914","null","
        
        <div style=""text-align: center; position: fixed; top: 5vh; left: 40vw;"">
            <div style=""margin:0 auto; width: 20vw; top: 8vh; font-size: 1vw""> 
            <font color=""green""> Bonus : $1.6 </font>
            </div>
        </div>
    
        <img class=""stim"" src=./stimuli//pack_shapes/cat_1/ex_1_2.png></img>
    ","null","stimulus","","","","",""
"","","","","","html-keyboard-response","217","220112","0.0-6.0-2.32","60f556d6227ebf234b6ce294","6554bfa13ac4b6a0ab00b03a","6554c0eb75bb323c0e1c9914","null","
        <div style=""text-align: center; position: fixed; top: 5vh; left: 40vw;"">
            <div style=""margin:0 auto; width: 20vw; top: 8vh; font-size: 1vw""> 
            <font color=""green""> Bonus : $1.6 </font>
            </div>
        </div>
    ","null","","","","","",""
"","","","","","html-keyboard-response","218","220574","0.0-6.0-3.32","60f556d6227ebf234b6ce294","6554bfa13ac4b6a0ab00b03a","6554c0eb75bb323c0e1c9914","460","./stimuli//pack_shapes/cat_1/ex_1_2.png","arrowleft","response","ArrowLeft","2","1","true",""
"","","","","","html-keyboard-response","219","222082","0.0-6.0-4.32","60f556d6227ebf234b6ce294","6554bfa13ac4b6a0ab00b03a","6554c0eb75bb323c0e1c9914","null","<p> <font color=""green"" size=""4vw""> Correct category! </font> <br> <br> <font color=""green"" size=""7vw""> + $0.05 </font> </p>","null","feedback","","","","","1.65"
"","","","","","html-keyboard-response","220","222661","0.0-6.0-0.33","60f556d6227ebf234b6ce294","6554bfa13ac4b6a0ab00b03a","6554c0eb75bb323c0e1c9914","578","
            
        <div style=""text-align: center; position: fixed; top: 5vh; left: 40vw;"">
            <div style=""margin:0 auto; width: 20vw; top: 8vh; font-size: 1vw""> 
            <font color=""green""> Bonus : $1.65 </font>
            </div>
        </div>
    
            <div> Please press any button to continue to the next trial.</div>
        ","arrowleft","ITI","","","","",""
"","","","","","html-keyboard-response","221","223271","0.0-6.0-1.33","60f556d6227ebf234b6ce294","6554bfa13ac4b6a0ab00b03a","6554c0eb75bb323c0e1c9914","null","
        
        <div style=""text-align: center; position: fixed; top: 5vh; left: 40vw;"">
            <div style=""margin:0 auto; width: 20vw; top: 8vh; font-size: 1vw""> 
            <font color=""green""> Bonus : $1.65 </font>
            </div>
        </div>
    
        <img class=""stim"" src=./stimuli//pack_shapes/cat_2/ex_2_33.png></img>
    ","null","stimulus","","","","",""
"","","","","","html-keyboard-response","222","224288","0.0-6.0-2.33","60f556d6227ebf234b6ce294","6554bfa13ac4b6a0ab00b03a","6554c0eb75bb323c0e1c9914","null","
        <div style=""text-align: center; position: fixed; top: 5vh; left: 40vw;"">
            <div style=""margin:0 auto; width: 20vw; top: 8vh; font-size: 1vw""> 
            <font color=""green""> Bonus : $1.65 </font>
            </div>
        </div>
    ","null","","","","","",""
"","","","","","html-keyboard-response","223","224765","0.0-6.0-3.33","60f556d6227ebf234b6ce294","6554bfa13ac4b6a0ab00b03a","6554c0eb75bb323c0e1c9914","475","./stimuli//pack_shapes/cat_2/ex_2_33.png","arrowright","response","ArrowRight","33","2","true",""
"","","","","","html-keyboard-response","224","226275","0.0-6.0-4.33","60f556d6227ebf234b6ce294","6554bfa13ac4b6a0ab00b03a","6554c0eb75bb323c0e1c9914","null","<p> <font color=""green"" size=""4vw""> Correct category! </font> <br> <br> <font color=""green"" size=""7vw""> + $0.05 </font> </p>","null","feedback","","","","","1.7"
"","","","","","html-keyboard-response","225","227113","0.0-6.0-0.34","60f556d6227ebf234b6ce294","6554bfa13ac4b6a0ab00b03a","6554c0eb75bb323c0e1c9914","837","
            
        <div style=""text-align: center; position: fixed; top: 5vh; left: 40vw;"">
            <div style=""margin:0 auto; width: 20vw; top: 8vh; font-size: 1vw""> 
            <font color=""green""> Bonus : $1.7 </font>
            </div>
        </div>
    
            <div> Please press any button to continue to the next trial.</div>
        ","arrowright","ITI","","","","",""
"","","","","","html-keyboard-response","226","227714","0.0-6.0-1.34","60f556d6227ebf234b6ce294","6554bfa13ac4b6a0ab00b03a","6554c0eb75bb323c0e1c9914","null","
        
        <div style=""text-align: center; position: fixed; top: 5vh; left: 40vw;"">
            <div style=""margin:0 auto; width: 20vw; top: 8vh; font-size: 1vw""> 
            <font color=""green""> Bonus : $1.7 </font>
            </div>
        </div>
    
        <img class=""stim"" src=./stimuli//pack_shapes/cat_2/ex_2_67.png></img>
    ","null","stimulus","","","","",""
"","","","","","html-keyboard-response","227","228718","0.0-6.0-2.34","60f556d6227ebf234b6ce294","6554bfa13ac4b6a0ab00b03a","6554c0eb75bb323c0e1c9914","null","
        <div style=""text-align: center; position: fixed; top: 5vh; left: 40vw;"">
            <div style=""margin:0 auto; width: 20vw; top: 8vh; font-size: 1vw""> 
            <font color=""green""> Bonus : $1.7 </font>
            </div>
        </div>
    ","null","","","","","",""
"","","","","","html-keyboard-response","228","229108","0.0-6.0-3.34","60f556d6227ebf234b6ce294","6554bfa13ac4b6a0ab00b03a","6554c0eb75bb323c0e1c9914","388","./stimuli//pack_shapes/cat_2/ex_2_67.png","arrowright","response","ArrowRight","67","2","true",""
"","","","","","html-keyboard-response","229","230623","0.0-6.0-4.34","60f556d6227ebf234b6ce294","6554bfa13ac4b6a0ab00b03a","6554c0eb75bb323c0e1c9914","null","<p> <font color=""green"" size=""4vw""> Correct category! </font> <br> <br> <font color=""green"" size=""7vw""> + $0.05 </font> </p>","null","feedback","","","","","1.75"
"","","","","","html-keyboard-response","230","231585","0.0-6.0-0.35","60f556d6227ebf234b6ce294","6554bfa13ac4b6a0ab00b03a","6554c0eb75bb323c0e1c9914","961","
            
        <div style=""text-align: center; position: fixed; top: 5vh; left: 40vw;"">
            <div style=""margin:0 auto; width: 20vw; top: 8vh; font-size: 1vw""> 
            <font color=""green""> Bonus : $1.75 </font>
            </div>
        </div>
    
            <div> Please press any button to continue to the next trial.</div>
        ","arrowright","ITI","","","","",""
"","","","","","html-keyboard-response","231","232196","0.0-6.0-1.35","60f556d6227ebf234b6ce294","6554bfa13ac4b6a0ab00b03a","6554c0eb75bb323c0e1c9914","null","
        
        <div style=""text-align: center; position: fixed; top: 5vh; left: 40vw;"">
            <div style=""margin:0 auto; width: 20vw; top: 8vh; font-size: 1vw""> 
            <font color=""green""> Bonus : $1.75 </font>
            </div>
        </div>
    
        <img class=""stim"" src=./stimuli//pack_shapes/cat_1/ex_1_43.png></img>
    ","null","stimulus","","","","",""
"","","","","","html-keyboard-response","232","233207","0.0-6.0-2.35","60f556d6227ebf234b6ce294","6554bfa13ac4b6a0ab00b03a","6554c0eb75bb323c0e1c9914","null","
        <div style=""text-align: center; position: fixed; top: 5vh; left: 40vw;"">
            <div style=""margin:0 auto; width: 20vw; top: 8vh; font-size: 1vw""> 
            <font color=""green""> Bonus : $1.75 </font>
            </div>
        </div>
    ","null","","","","","",""
"","","","","","html-keyboard-response","233","233560","0.0-6.0-3.35","60f556d6227ebf234b6ce294","6554bfa13ac4b6a0ab00b03a","6554c0eb75bb323c0e1c9914","352","./stimuli//pack_shapes/cat_1/ex_1_43.png","arrowleft","response","ArrowLeft","43","1","true",""
"","","","","","html-keyboard-response","234","235069","0.0-6.0-4.35","60f556d6227ebf234b6ce294","6554bfa13ac4b6a0ab00b03a","6554c0eb75bb323c0e1c9914","null","<p> <font color=""green"" size=""4vw""> Correct category! </font> <br> <br> <font color=""green"" size=""7vw""> + $0.05 </font> </p>","null","feedback","","","","","1.8"
"","","","","","html-keyboard-response","235","235961","0.0-6.0-0.36","60f556d6227ebf234b6ce294","6554bfa13ac4b6a0ab00b03a","6554c0eb75bb323c0e1c9914","895","
            
        <div style=""text-align: center; position: fixed; top: 5vh; left: 40vw;"">
