"success","timeout","failed_images","failed_audio","failed_video","trial_type","trial_index","time_elapsed","internal_node_id","subject_id","study_id","session_id","rt","stimulus","response","task","correct_response","exemplar_ID","category","difficulty","phase","correct","bonus"
"true","false","[]","[]","[]","preload","0","3","0.0-0.0","60abeb39f19c987b605c5524","65576f040411c2a4be0341a4","65576f2efd957729ff3f41d2","","","","","","","","","","",""
"","","","","","html-keyboard-response","1","2993","0.0-1.0","60abeb39f19c987b605c5524","65576f040411c2a4be0341a4","65576f2efd957729ff3f41d2","2988","Welcome to the Category Learning experiment! Press any key to continue."," ","welcome","","","","","","",""
"","","","","","html-keyboard-response","2","40565","0.0-2.0","60abeb39f19c987b605c5524","65576f040411c2a4be0341a4","65576f2efd957729ff3f41d2","37571","
            <p>You will be shown images of black shapes. Some are category A, some are category B.
            <br>You will not know in advance which category a specific shape belongs to.</p>
            <p>After you see an image, you will be asked to guess its category <b>(left arrow for category A, right arrow for category B)</b></p>
            <p>After you choose, the screen will show you whether you were correct or not.</p>
            <p><b>You will receive a bonus payment of $0.05 for each correct answer!</b></p>
            <p> So you can increase your bonus by guessing correctly, and by guessing as quickly as possible so you move on to the next image sooner.</p>
            <p>Press any key to continue.</p>
            "," ","introduction_1","","","","","","",""
"","","","","","html-keyboard-response","3","48400","0.0-3.0","60abeb39f19c987b605c5524","65576f040411c2a4be0341a4","65576f2efd957729ff3f41d2","7835","
            <p> <b>The first 10 trials are a practice round that will not count towards your bonus payment.</b></p>
            <p> You will be notified when practice finishes and the test begins. </p>
            <p> Press any key to begin the practice round.</p>
            "," ","introduction_2","","","","","","",""
"","","","","","html-keyboard-response","4","51023","0.0-4.0-0.0","60abeb39f19c987b605c5524","65576f040411c2a4be0341a4","65576f2efd957729ff3f41d2","2622","
            
        <div style=""text-align: center; position: fixed; top: 5vh; left: 40vw;"">
            <div style=""margin:0 auto; width: 20vw; top: 8vh; font-size: 2vw""> 
            <font color=""green""> Bonus : $0 </font>
            </div>
        </div>
    
            <div> Please press any button to continue to the next trial.</div>
        ","arrowleft","ITI","","","","","","",""
"","","","","","html-keyboard-response","5","51639","0.0-4.0-1.0","60abeb39f19c987b605c5524","65576f040411c2a4be0341a4","65576f2efd957729ff3f41d2","null","
        
        <div style=""text-align: center; position: fixed; top: 5vh; left: 40vw;"">
            <div style=""margin:0 auto; width: 20vw; top: 8vh; font-size: 2vw""> 
            <font color=""green""> Bonus : $0 </font>
            </div>
        </div>
    
        <img class=""stim"" src=./stimuli//pack_shapes_diff/cat_2/diff_2/ex_2_2_9.png></img>
    ","null","stimulus","","","","","","",""
"","","","","","html-keyboard-response","6","52641","0.0-4.0-2.0","60abeb39f19c987b605c5524","65576f040411c2a4be0341a4","65576f2efd957729ff3f41d2","null","
        <div style=""text-align: center; position: fixed; top: 5vh; left: 40vw;"">
            <div style=""margin:0 auto; width: 20vw; top: 8vh; font-size: 2vw""> 
            <font color=""green""> Bonus : $0 </font>
            </div>
        </div>
    ","null","","","","","","","",""
"","","","","","html-keyboard-response","7","53501","0.0-4.0-3.0","60abeb39f19c987b605c5524","65576f040411c2a4be0341a4","65576f2efd957729ff3f41d2","859","./stimuli//pack_shapes_diff/cat_2/diff_2/ex_2_2_9.png","arrowleft","response","ArrowRight","9","2","2","train","false",""
"","","","","","html-keyboard-response","8","55012","0.0-4.0-4.0","60abeb39f19c987b605c5524","65576f040411c2a4be0341a4","65576f2efd957729ff3f41d2","null","<p> <font color=""red"" size=""5vw""> Wrong category! </font> </p>","null","feedback","","","","","","","0"
"","","","","","html-keyboard-response","9","56437","0.0-4.0-0.1","60abeb39f19c987b605c5524","65576f040411c2a4be0341a4","65576f2efd957729ff3f41d2","1424","
            
        <div style=""text-align: center; position: fixed; top: 5vh; left: 40vw;"">
            <div style=""margin:0 auto; width: 20vw; top: 8vh; font-size: 2vw""> 
            <font color=""green""> Bonus : $0 </font>
            </div>
        </div>
    
            <div> Please press any button to continue to the next trial.</div>
        ","arrowright","ITI","","","","","","",""
"","","","","","html-keyboard-response","10","57051","0.0-4.0-1.1","60abeb39f19c987b605c5524","65576f040411c2a4be0341a4","65576f2efd957729ff3f41d2","null","
        
        <div style=""text-align: center; position: fixed; top: 5vh; left: 40vw;"">
            <div style=""margin:0 auto; width: 20vw; top: 8vh; font-size: 2vw""> 
            <font color=""green""> Bonus : $0 </font>
            </div>
        </div>
    
        <img class=""stim"" src=./stimuli//pack_shapes_diff/cat_1/diff_2/ex_1_2_10.png></img>
    ","null","stimulus","","","","","","",""
"","","","","","html-keyboard-response","11","58051","0.0-4.0-2.1","60abeb39f19c987b605c5524","65576f040411c2a4be0341a4","65576f2efd957729ff3f41d2","null","
        <div style=""text-align: center; position: fixed; top: 5vh; left: 40vw;"">
            <div style=""margin:0 auto; width: 20vw; top: 8vh; font-size: 2vw""> 
            <font color=""green""> Bonus : $0 </font>
            </div>
        </div>
    ","null","","","","","","","",""
"","","","","","html-keyboard-response","12","58223","0.0-4.0-3.1","60abeb39f19c987b605c5524","65576f040411c2a4be0341a4","65576f2efd957729ff3f41d2","171","./stimuli//pack_shapes_diff/cat_1/diff_2/ex_1_2_10.png","arrowright","response","ArrowLeft","10","1","2","train","false",""
"","","","","","html-keyboard-response","13","59736","0.0-4.0-4.1","60abeb39f19c987b605c5524","65576f040411c2a4be0341a4","65576f2efd957729ff3f41d2","null","<p> <font color=""red"" size=""5vw""> Wrong category! </font> </p>","null","feedback","","","","","","","0"
"","","","","","html-keyboard-response","14","62017","0.0-4.0-0.2","60abeb39f19c987b605c5524","65576f040411c2a4be0341a4","65576f2efd957729ff3f41d2","2280","
            
        <div style=""text-align: center; position: fixed; top: 5vh; left: 40vw;"">
            <div style=""margin:0 auto; width: 20vw; top: 8vh; font-size: 2vw""> 
            <font color=""green""> Bonus : $0 </font>
            </div>
        </div>
    
            <div> Please press any button to continue to the next trial.</div>
        ","arrowright","ITI","","","","","","",""
"","","","","","html-keyboard-response","15","62632","0.0-4.0-1.2","60abeb39f19c987b605c5524","65576f040411c2a4be0341a4","65576f2efd957729ff3f41d2","null","
        
        <div style=""text-align: center; position: fixed; top: 5vh; left: 40vw;"">
            <div style=""margin:0 auto; width: 20vw; top: 8vh; font-size: 2vw""> 
            <font color=""green""> Bonus : $0 </font>
            </div>
        </div>
    
        <img class=""stim"" src=./stimuli//pack_shapes_diff/cat_1/diff_2/ex_1_2_9.png></img>
    ","null","stimulus","","","","","","",""
"","","","","","html-keyboard-response","16","63635","0.0-4.0-2.2","60abeb39f19c987b605c5524","65576f040411c2a4be0341a4","65576f2efd957729ff3f41d2","null","
        <div style=""text-align: center; position: fixed; top: 5vh; left: 40vw;"">
            <div style=""margin:0 auto; width: 20vw; top: 8vh; font-size: 2vw""> 
            <font color=""green""> Bonus : $0 </font>
            </div>
        </div>
    ","null","","","","","","","",""
"","","","","","html-keyboard-response","17","63937","0.0-4.0-3.2","60abeb39f19c987b605c5524","65576f040411c2a4be0341a4","65576f2efd957729ff3f41d2","301","./stimuli//pack_shapes_diff/cat_1/diff_2/ex_1_2_9.png","arrowleft","response","ArrowLeft","9","1","2","train","true",""
"","","","","","html-keyboard-response","18","65441","0.0-4.0-4.2","60abeb39f19c987b605c5524","65576f040411c2a4be0341a4","65576f2efd957729ff3f41d2","null","<p> <font color=""green"" size=""5vw""> Correct category! </font> </p>","null","feedback","","","","","","","0"
"","","","","","html-keyboard-response","19","66223","0.0-4.0-0.3","60abeb39f19c987b605c5524","65576f040411c2a4be0341a4","65576f2efd957729ff3f41d2","782","
            
        <div style=""text-align: center; position: fixed; top: 5vh; left: 40vw;"">
            <div style=""margin:0 auto; width: 20vw; top: 8vh; font-size: 2vw""> 
            <font color=""green""> Bonus : $0 </font>
            </div>
        </div>
    
            <div> Please press any button to continue to the next trial.</div>
        ","arrowleft","ITI","","","","","","",""
"","","","","","html-keyboard-response","20","66835","0.0-4.0-1.3","60abeb39f19c987b605c5524","65576f040411c2a4be0341a4","65576f2efd957729ff3f41d2","null","
        
        <div style=""text-align: center; position: fixed; top: 5vh; left: 40vw;"">
            <div style=""margin:0 auto; width: 20vw; top: 8vh; font-size: 2vw""> 
            <font color=""green""> Bonus : $0 </font>
            </div>
        </div>
    
        <img class=""stim"" src=./stimuli//pack_shapes_diff/cat_2/diff_2/ex_2_2_11.png></img>
    ","null","stimulus","","","","","","",""
"","","","","","html-keyboard-response","21","67836","0.0-4.0-2.3","60abeb39f19c987b605c5524","65576f040411c2a4be0341a4","65576f2efd957729ff3f41d2","null","
        <div style=""text-align: center; position: fixed; top: 5vh; left: 40vw;"">
            <div style=""margin:0 auto; width: 20vw; top: 8vh; font-size: 2vw""> 
            <font color=""green""> Bonus : $0 </font>
            </div>
        </div>
    ","null","","","","","","","",""
"","","","","","html-keyboard-response","22","67925","0.0-4.0-3.3","60abeb39f19c987b605c5524","65576f040411c2a4be0341a4","65576f2efd957729ff3f41d2","88","./stimuli//pack_shapes_diff/cat_2/diff_2/ex_2_2_11.png","arrowleft","response","ArrowRight","11","2","2","train","false",""
"","","","","","html-keyboard-response","23","69432","0.0-4.0-4.3","60abeb39f19c987b605c5524","65576f040411c2a4be0341a4","65576f2efd957729ff3f41d2","null","<p> <font color=""red"" size=""5vw""> Wrong category! </font> </p>","null","feedback","","","","","","","0"
"","","","","","html-keyboard-response","24","70762","0.0-4.0-0.4","60abeb39f19c987b605c5524","65576f040411c2a4be0341a4","65576f2efd957729ff3f41d2","1330","
            
        <div style=""text-align: center; position: fixed; top: 5vh; left: 40vw;"">
            <div style=""margin:0 auto; width: 20vw; top: 8vh; font-size: 2vw""> 
            <font color=""green""> Bonus : $0 </font>
            </div>
        </div>
    
            <div> Please press any button to continue to the next trial.</div>
        ","arrowleft","ITI","","","","","","",""
"","","","","","html-keyboard-response","25","71367","0.0-4.0-1.4","60abeb39f19c987b605c5524","65576f040411c2a4be0341a4","65576f2efd957729ff3f41d2","null","
        
        <div style=""text-align: center; position: fixed; top: 5vh; left: 40vw;"">
            <div style=""margin:0 auto; width: 20vw; top: 8vh; font-size: 2vw""> 
            <font color=""green""> Bonus : $0 </font>
            </div>
        </div>
    
        <img class=""stim"" src=./stimuli//pack_shapes_diff/cat_1/diff_1/ex_1_1_13.png></img>
    ","null","stimulus","","","","","","",""
"","","","","","html-keyboard-response","26","72384","0.0-4.0-2.4","60abeb39f19c987b605c5524","65576f040411c2a4be0341a4","65576f2efd957729ff3f41d2","null","
        <div style=""text-align: center; position: fixed; top: 5vh; left: 40vw;"">
            <div style=""margin:0 auto; width: 20vw; top: 8vh; font-size: 2vw""> 
            <font color=""green""> Bonus : $0 </font>
            </div>
        </div>
    ","null","","","","","","","",""
"","","","","","html-keyboard-response","27","72468","0.0-4.0-3.4","60abeb39f19c987b605c5524","65576f040411c2a4be0341a4","65576f2efd957729ff3f41d2","84","./stimuli//pack_shapes_diff/cat_1/diff_1/ex_1_1_13.png","arrowleft","response","ArrowLeft","13","1","1","train","true",""
"","","","","","html-keyboard-response","28","73983","0.0-4.0-4.4","60abeb39f19c987b605c5524","65576f040411c2a4be0341a4","65576f2efd957729ff3f41d2","null","<p> <font color=""green"" size=""5vw""> Correct category! </font> </p>","null","feedback","","","","","","","0"
"","","","","","html-keyboard-response","29","75462","0.0-4.0-0.5","60abeb39f19c987b605c5524","65576f040411c2a4be0341a4","65576f2efd957729ff3f41d2","1479","
            
        <div style=""text-align: center; position: fixed; top: 5vh; left: 40vw;"">
            <div style=""margin:0 auto; width: 20vw; top: 8vh; font-size: 2vw""> 
            <font color=""green""> Bonus : $0 </font>
            </div>
        </div>
    
            <div> Please press any button to continue to the next trial.</div>
        ","arrowleft","ITI","","","","","","",""
"","","","","","html-keyboard-response","30","76066","0.0-4.0-1.5","60abeb39f19c987b605c5524","65576f040411c2a4be0341a4","65576f2efd957729ff3f41d2","null","
        
        <div style=""text-align: center; position: fixed; top: 5vh; left: 40vw;"">
            <div style=""margin:0 auto; width: 20vw; top: 8vh; font-size: 2vw""> 
            <font color=""green""> Bonus : $0 </font>
            </div>
        </div>
    
        <img class=""stim"" src=./stimuli//pack_shapes_diff/cat_1/diff_1/ex_1_1_11.png></img>
    ","null","stimulus","","","","","","",""
"","","","","","html-keyboard-response","31","77081","0.0-4.0-2.5","60abeb39f19c987b605c5524","65576f040411c2a4be0341a4","65576f2efd957729ff3f41d2","null","
        <div style=""text-align: center; position: fixed; top: 5vh; left: 40vw;"">
            <div style=""margin:0 auto; width: 20vw; top: 8vh; font-size: 2vw""> 
            <font color=""green""> Bonus : $0 </font>
            </div>
        </div>
    ","null","","","","","","","",""
"","","","","","html-keyboard-response","32","77486","0.0-4.0-3.5","60abeb39f19c987b605c5524","65576f040411c2a4be0341a4","65576f2efd957729ff3f41d2","404","./stimuli//pack_shapes_diff/cat_1/diff_1/ex_1_1_11.png","arrowright","response","ArrowLeft","11","1","1","train","false",""
"","","","","","html-keyboard-response","33","78122","0.0-4.0-4.5","60abeb39f19c987b605c5524","65576f040411c2a4be0341a4","65576f2efd957729ff3f41d2","636","<p> <font color=""red"" size=""5vw""> Wrong category! </font> </p>","arrowleft","feedback","","","","","","","0"
"","","","","","html-keyboard-response","34","80034","0.0-4.0-0.6","60abeb39f19c987b605c5524","65576f040411c2a4be0341a4","65576f2efd957729ff3f41d2","1911","
            
        <div style=""text-align: center; position: fixed; top: 5vh; left: 40vw;"">
            <div style=""margin:0 auto; width: 20vw; top: 8vh; font-size: 2vw""> 
            <font color=""green""> Bonus : $0 </font>
            </div>
        </div>
    
            <div> Please press any button to continue to the next trial.</div>
        ","arrowleft","ITI","","","","","","",""
"","","","","","html-keyboard-response","35","80645","0.0-4.0-1.6","60abeb39f19c987b605c5524","65576f040411c2a4be0341a4","65576f2efd957729ff3f41d2","null","
        
        <div style=""text-align: center; position: fixed; top: 5vh; left: 40vw;"">
            <div style=""margin:0 auto; width: 20vw; top: 8vh; font-size: 2vw""> 
            <font color=""green""> Bonus : $0 </font>
            </div>
        </div>
    
        <img class=""stim"" src=./stimuli//pack_shapes_diff/cat_2/diff_1/ex_2_1_8.png></img>
    ","null","stimulus","","","","","","",""
"","","","","","html-keyboard-response","36","81657","0.0-4.0-2.6","60abeb39f19c987b605c5524","65576f040411c2a4be0341a4","65576f2efd957729ff3f41d2","null","
        <div style=""text-align: center; position: fixed; top: 5vh; left: 40vw;"">
            <div style=""margin:0 auto; width: 20vw; top: 8vh; font-size: 2vw""> 
            <font color=""green""> Bonus : $0 </font>
            </div>
        </div>
    ","null","","","","","","","",""
"","","","","","html-keyboard-response","37","81715","0.0-4.0-3.6","60abeb39f19c987b605c5524","65576f040411c2a4be0341a4","65576f2efd957729ff3f41d2","57","./stimuli//pack_shapes_diff/cat_2/diff_1/ex_2_1_8.png","arrowright","response","ArrowRight","8","2","1","train","true",""
"","","","","","html-keyboard-response","38","83220","0.0-4.0-4.6","60abeb39f19c987b605c5524","65576f040411c2a4be0341a4","65576f2efd957729ff3f41d2","null","<p> <font color=""green"" size=""5vw""> Correct category! </font> </p>","null","feedback","","","","","","","0"
"","","","","","html-keyboard-response","39","83702","0.0-4.0-0.7","60abeb39f19c987b605c5524","65576f040411c2a4be0341a4","65576f2efd957729ff3f41d2","481","
            
        <div style=""text-align: center; position: fixed; top: 5vh; left: 40vw;"">
            <div style=""margin:0 auto; width: 20vw; top: 8vh; font-size: 2vw""> 
            <font color=""green""> Bonus : $0 </font>
            </div>
        </div>
    
            <div> Please press any button to continue to the next trial.</div>
        ","arrowleft","ITI","","","","","","",""
"","","","","","html-keyboard-response","40","84313","0.0-4.0-1.7","60abeb39f19c987b605c5524","65576f040411c2a4be0341a4","65576f2efd957729ff3f41d2","null","
        
        <div style=""text-align: center; position: fixed; top: 5vh; left: 40vw;"">
            <div style=""margin:0 auto; width: 20vw; top: 8vh; font-size: 2vw""> 
            <font color=""green""> Bonus : $0 </font>
            </div>
        </div>
    
        <img class=""stim"" src=./stimuli//pack_shapes_diff/cat_2/diff_1/ex_2_1_14.png></img>
    ","null","stimulus","","","","","","",""
"","","","","","html-keyboard-response","41","85314","0.0-4.0-2.7","60abeb39f19c987b605c5524","65576f040411c2a4be0341a4","65576f2efd957729ff3f41d2","null","
        <div style=""text-align: center; position: fixed; top: 5vh; left: 40vw;"">
            <div style=""margin:0 auto; width: 20vw; top: 8vh; font-size: 2vw""> 
            <font color=""green""> Bonus : $0 </font>
            </div>
        </div>
    ","null","","","","","","","",""
"","","","","","html-keyboard-response","42","85435","0.0-4.0-3.7","60abeb39f19c987b605c5524","65576f040411c2a4be0341a4","65576f2efd957729ff3f41d2","120","./stimuli//pack_shapes_diff/cat_2/diff_1/ex_2_1_14.png","arrowright","response","ArrowRight","14","2","1","train","true",""
"","","","","","html-keyboard-response","43","86936","0.0-4.0-4.7","60abeb39f19c987b605c5524","65576f040411c2a4be0341a4","65576f2efd957729ff3f41d2","null","<p> <font color=""green"" size=""5vw""> Correct category! </font> </p>","null","feedback","","","","","","","0"
"","","","","","html-keyboard-response","44","87915","0.0-4.0-0.8","60abeb39f19c987b605c5524","65576f040411c2a4be0341a4","65576f2efd957729ff3f41d2","979","
            
        <div style=""text-align: center; position: fixed; top: 5vh; left: 40vw;"">
            <div style=""margin:0 auto; width: 20vw; top: 8vh; font-size: 2vw""> 
            <font color=""green""> Bonus : $0 </font>
            </div>
        </div>
    
            <div> Please press any button to continue to the next trial.</div>
        ","arrowright","ITI","","","","","","",""
"","","","","","html-keyboard-response","45","88530","0.0-4.0-1.8","60abeb39f19c987b605c5524","65576f040411c2a4be0341a4","65576f2efd957729ff3f41d2","null","
        
        <div style=""text-align: center; position: fixed; top: 5vh; left: 40vw;"">
            <div style=""margin:0 auto; width: 20vw; top: 8vh; font-size: 2vw""> 
            <font color=""green""> Bonus : $0 </font>
            </div>
        </div>
    
        <img class=""stim"" src=./stimuli//pack_shapes_diff/cat_1/diff_1/ex_1_1_5.png></img>
    ","null","stimulus","","","","","","",""
"","","","","","html-keyboard-response","46","89545","0.0-4.0-2.8","60abeb39f19c987b605c5524","65576f040411c2a4be0341a4","65576f2efd957729ff3f41d2","null","
        <div style=""text-align: center; position: fixed; top: 5vh; left: 40vw;"">
            <div style=""margin:0 auto; width: 20vw; top: 8vh; font-size: 2vw""> 
            <font color=""green""> Bonus : $0 </font>
            </div>
        </div>
    ","null","","","","","","","",""
"","","","","","html-keyboard-response","47","89579","0.0-4.0-3.8","60abeb39f19c987b605c5524","65576f040411c2a4be0341a4","65576f2efd957729ff3f41d2","33","./stimuli//pack_shapes_diff/cat_1/diff_1/ex_1_1_5.png","arrowleft","response","ArrowLeft","5","1","1","train","true",""
"","","","","","html-keyboard-response","48","89788","0.0-4.0-4.8","60abeb39f19c987b605c5524","65576f040411c2a4be0341a4","65576f2efd957729ff3f41d2","209","<p> <font color=""green"" size=""5vw""> Correct category! </font> </p>","arrowleft","feedback","","","","","","","0"
"","","","","","html-keyboard-response","49","90707","0.0-4.0-0.9","60abeb39f19c987b605c5524","65576f040411c2a4be0341a4","65576f2efd957729ff3f41d2","918","
            
        <div style=""text-align: center; position: fixed; top: 5vh; left: 40vw;"">
            <div style=""margin:0 auto; width: 20vw; top: 8vh; font-size: 2vw""> 
            <font color=""green""> Bonus : $0 </font>
            </div>
        </div>
    
            <div> Please press any button to continue to the next trial.</div>
        ","arrowleft","ITI","","","","","","",""
"","","","","","html-keyboard-response","50","91309","0.0-4.0-1.9","60abeb39f19c987b605c5524","65576f040411c2a4be0341a4","65576f2efd957729ff3f41d2","null","
        
        <div style=""text-align: center; position: fixed; top: 5vh; left: 40vw;"">
            <div style=""margin:0 auto; width: 20vw; top: 8vh; font-size: 2vw""> 
            <font color=""green""> Bonus : $0 </font>
            </div>
        </div>
    
        <img class=""stim"" src=./stimuli//pack_shapes_diff/cat_2/diff_1/ex_2_1_12.png></img>
    ","null","stimulus","","","","","","",""
"","","","","","html-keyboard-response","51","92323","0.0-4.0-2.9","60abeb39f19c987b605c5524","65576f040411c2a4be0341a4","65576f2efd957729ff3f41d2","null","
        <div style=""text-align: center; position: fixed; top: 5vh; left: 40vw;"">
            <div style=""margin:0 auto; width: 20vw; top: 8vh; font-size: 2vw""> 
            <font color=""green""> Bonus : $0 </font>
            </div>
        </div>
    ","null","","","","","","","",""
"","","","","","html-keyboard-response","52","92438","0.0-4.0-3.9","60abeb39f19c987b605c5524","65576f040411c2a4be0341a4","65576f2efd957729ff3f41d2","114","./stimuli//pack_shapes_diff/cat_2/diff_1/ex_2_1_12.png","arrowright","response","ArrowRight","12","2","1","train","true",""
"","","","","","html-keyboard-response","53","93953","0.0-4.0-4.9","60abeb39f19c987b605c5524","65576f040411c2a4be0341a4","65576f2efd957729ff3f41d2","null","<p> <font color=""green"" size=""5vw""> Correct category! </font> </p>","null","feedback","","","","","","","0"
"","","","","","html-keyboard-response","54","94309","0.0-5.0","60abeb39f19c987b605c5524","65576f040411c2a4be0341a4","65576f2efd957729ff3f41d2","356","
            <b> <p> The practice round has finished.</p>
            <b> For the rest of the experiment you will receive a $0.05 bonus for each correct answer!</b>
            <p> Press any key to begin the test. </p>
            ","arrowright","intermission","","","","","","",""
"","","","","","html-keyboard-response","55","97813","0.0-6.0-0.0","60abeb39f19c987b605c5524","65576f040411c2a4be0341a4","65576f2efd957729ff3f41d2","3503","
            
        <div style=""text-align: center; position: fixed; top: 5vh; left: 40vw;"">
            <div style=""margin:0 auto; width: 20vw; top: 8vh; font-size: 2vw""> 
            <font color=""green""> Bonus : $0 </font>
            </div>
        </div>
    
            <div> Please press any button to continue to the next trial.</div>
        ","arrowright","ITI","","","","","","",""
"","","","","","html-keyboard-response","56","98422","0.0-6.0-1.0","60abeb39f19c987b605c5524","65576f040411c2a4be0341a4","65576f2efd957729ff3f41d2","null","
        
        <div style=""text-align: center; position: fixed; top: 5vh; left: 40vw;"">
            <div style=""margin:0 auto; width: 20vw; top: 8vh; font-size: 2vw""> 
            <font color=""green""> Bonus : $0 </font>
            </div>
        </div>
    
        <img class=""stim"" src=./stimuli//pack_shapes_diff/cat_2/diff_1/ex_2_1_17.png></img>
    ","null","stimulus","","","","","","",""
"","","","","","html-keyboard-response","57","99426","0.0-6.0-2.0","60abeb39f19c987b605c5524","65576f040411c2a4be0341a4","65576f2efd957729ff3f41d2","null","
        <div style=""text-align: center; position: fixed; top: 5vh; left: 40vw;"">
            <div style=""margin:0 auto; width: 20vw; top: 8vh; font-size: 2vw""> 
            <font color=""green""> Bonus : $0 </font>
            </div>
        </div>
    ","null","","","","","","","",""
"","","","","","html-keyboard-response","58","99797","0.0-6.0-3.0","60abeb39f19c987b605c5524","65576f040411c2a4be0341a4","65576f2efd957729ff3f41d2","370","./stimuli//pack_shapes_diff/cat_2/diff_1/ex_2_1_17.png","arrowright","response","ArrowRight","17","2","1","test","true",""
"","","","","","html-keyboard-response","59","101310","0.0-6.0-4.0","60abeb39f19c987b605c5524","65576f040411c2a4be0341a4","65576f2efd957729ff3f41d2","null","<p> <font color=""green"" size=""5vw""> Correct category! </font> <br> <br> <font color=""green"" size=""8vw""> + $0.05 </font> </p>","null","feedback","","","","","","","0.05"
"","","","","","html-keyboard-response","60","102307","0.0-6.1-0.1","60abeb39f19c987b605c5524","65576f040411c2a4be0341a4","65576f2efd957729ff3f41d2","996","
            
        <div style=""text-align: center; position: fixed; top: 5vh; left: 40vw;"">
            <div style=""margin:0 auto; width: 20vw; top: 8vh; font-size: 2vw""> 
            <font color=""green""> Bonus : $0.05 </font>
            </div>
        </div>
    
            <div> Please press any button to continue to the next trial.</div>
        ","arrowright","ITI","","","","","","",""
"","","","","","html-keyboard-response","61","102917","0.0-6.1-1.1","60abeb39f19c987b605c5524","65576f040411c2a4be0341a4","65576f2efd957729ff3f41d2","null","
        
        <div style=""text-align: center; position: fixed; top: 5vh; left: 40vw;"">
            <div style=""margin:0 auto; width: 20vw; top: 8vh; font-size: 2vw""> 
            <font color=""green""> Bonus : $0.05 </font>
            </div>
        </div>
    
        <img class=""stim"" src=./stimuli//pack_shapes_diff/cat_1/diff_1/ex_1_1_9.png></img>
    ","null","stimulus","","","","","","",""
"","","","","","html-keyboard-response","62","103930","0.0-6.1-2.1","60abeb39f19c987b605c5524","65576f040411c2a4be0341a4","65576f2efd957729ff3f41d2","null","
        <div style=""text-align: center; position: fixed; top: 5vh; left: 40vw;"">
            <div style=""margin:0 auto; width: 20vw; top: 8vh; font-size: 2vw""> 
            <font color=""green""> Bonus : $0.05 </font>
            </div>
        </div>
    ","null","","","","","","","",""
"","","","","","html-keyboard-response","63","104116","0.0-6.1-3.1","60abeb39f19c987b605c5524","65576f040411c2a4be0341a4","65576f2efd957729ff3f41d2","185","./stimuli//pack_shapes_diff/cat_1/diff_1/ex_1_1_9.png","arrowleft","response","ArrowLeft","9","1","1","test","true",""
"","","","","","html-keyboard-response","64","105617","0.0-6.1-4.1","60abeb39f19c987b605c5524","65576f040411c2a4be0341a4","65576f2efd957729ff3f41d2","null","<p> <font color=""green"" size=""5vw""> Correct category! </font> <br> <br> <font color=""green"" size=""8vw""> + $0.05 </font> </p>","null","feedback","","","","","","","0.1"
"","","","","","html-keyboard-response","65","106610","0.0-6.2-0.2","60abeb39f19c987b605c5524","65576f040411c2a4be0341a4","65576f2efd957729ff3f41d2","992","
            
        <div style=""text-align: center; position: fixed; top: 5vh; left: 40vw;"">
            <div style=""margin:0 auto; width: 20vw; top: 8vh; font-size: 2vw""> 
            <font color=""green""> Bonus : $0.1 </font>
            </div>
        </div>
    
            <div> Please press any button to continue to the next trial.</div>
        ","arrowright","ITI","","","","","","",""
"","","","","","html-keyboard-response","66","107215","0.0-6.2-1.2","60abeb39f19c987b605c5524","65576f040411c2a4be0341a4","65576f2efd957729ff3f41d2","null","
        
        <div style=""text-align: center; position: fixed; top: 5vh; left: 40vw;"">
            <div style=""margin:0 auto; width: 20vw; top: 8vh; font-size: 2vw""> 
            <font color=""green""> Bonus : $0.1 </font>
            </div>
        </div>
    
        <img class=""stim"" src=./stimuli//pack_shapes_diff/cat_1/diff_1/ex_1_1_17.png></img>
    ","null","stimulus","","","","","","",""
"","","","","","html-keyboard-response","67","108217","0.0-6.2-2.2","60abeb39f19c987b605c5524","65576f040411c2a4be0341a4","65576f2efd957729ff3f41d2","null","
        <div style=""text-align: center; position: fixed; top: 5vh; left: 40vw;"">
            <div style=""margin:0 auto; width: 20vw; top: 8vh; font-size: 2vw""> 
            <font color=""green""> Bonus : $0.1 </font>
            </div>
        </div>
    ","null","","","","","","","",""
"","","","","","html-keyboard-response","68","108405","0.0-6.2-3.2","60abeb39f19c987b605c5524","65576f040411c2a4be0341a4","65576f2efd957729ff3f41d2","187","./stimuli//pack_shapes_diff/cat_1/diff_1/ex_1_1_17.png","arrowleft","response","ArrowLeft","17","1","1","test","true",""
"","","","","","html-keyboard-response","69","109920","0.0-6.2-4.2","60abeb39f19c987b605c5524","65576f040411c2a4be0341a4","65576f2efd957729ff3f41d2","null","<p> <font color=""green"" size=""5vw""> Correct category! </font> <br> <br> <font color=""green"" size=""8vw""> + $0.05 </font> </p>","null","feedback","","","","","","","0.15"
"","","","","","html-keyboard-response","70","110315","0.0-6.3-0.3","60abeb39f19c987b605c5524","65576f040411c2a4be0341a4","65576f2efd957729ff3f41d2","394","
            
        <div style=""text-align: center; position: fixed; top: 5vh; left: 40vw;"">
            <div style=""margin:0 auto; width: 20vw; top: 8vh; font-size: 2vw""> 
            <font color=""green""> Bonus : $0.15 </font>
            </div>
        </div>
    
            <div> Please press any button to continue to the next trial.</div>
        ","arrowright","ITI","","","","","","",""
"","","","","","html-keyboard-response","71","110921","0.0-6.3-1.3","60abeb39f19c987b605c5524","65576f040411c2a4be0341a4","65576f2efd957729ff3f41d2","null","
        
        <div style=""text-align: center; position: fixed; top: 5vh; left: 40vw;"">
            <div style=""margin:0 auto; width: 20vw; top: 8vh; font-size: 2vw""> 
            <font color=""green""> Bonus : $0.15 </font>
            </div>
        </div>
    
        <img class=""stim"" src=./stimuli//pack_shapes_diff/cat_2/diff_1/ex_2_1_5.png></img>
    ","null","stimulus","","","","","","",""
"","","","","","html-keyboard-response","72","111935","0.0-6.3-2.3","60abeb39f19c987b605c5524","65576f040411c2a4be0341a4","65576f2efd957729ff3f41d2","null","
        <div style=""text-align: center; position: fixed; top: 5vh; left: 40vw;"">
            <div style=""margin:0 auto; width: 20vw; top: 8vh; font-size: 2vw""> 
            <font color=""green""> Bonus : $0.15 </font>
            </div>
        </div>
    ","null","","","","","","","",""
"","","","","","html-keyboard-response","73","112024","0.0-6.3-3.3","60abeb39f19c987b605c5524","65576f040411c2a4be0341a4","65576f2efd957729ff3f41d2","89","./stimuli//pack_shapes_diff/cat_2/diff_1/ex_2_1_5.png","arrowright","response","ArrowRight","5","2","1","test","true",""
"","","","","","html-keyboard-response","74","113526","0.0-6.3-4.3","60abeb39f19c987b605c5524","65576f040411c2a4be0341a4","65576f2efd957729ff3f41d2","null","<p> <font color=""green"" size=""5vw""> Correct category! </font> <br> <br> <font color=""green"" size=""8vw""> + $0.05 </font> </p>","null","feedback","","","","","","","0.2"
"","","","","","html-keyboard-response","75","114573","0.0-6.4-0.4","60abeb39f19c987b605c5524","65576f040411c2a4be0341a4","65576f2efd957729ff3f41d2","1046","
            
        <div style=""text-align: center; position: fixed; top: 5vh; left: 40vw;"">
            <div style=""margin:0 auto; width: 20vw; top: 8vh; font-size: 2vw""> 
            <font color=""green""> Bonus : $0.2 </font>
            </div>
        </div>
    
            <div> Please press any button to continue to the next trial.</div>
        ","arrowright","ITI","","","","","","",""
"","","","","","html-keyboard-response","76","115188","0.0-6.4-1.4","60abeb39f19c987b605c5524","65576f040411c2a4be0341a4","65576f2efd957729ff3f41d2","null","
        
        <div style=""text-align: center; position: fixed; top: 5vh; left: 40vw;"">
            <div style=""margin:0 auto; width: 20vw; top: 8vh; font-size: 2vw""> 
            <font color=""green""> Bonus : $0.2 </font>
            </div>
        </div>
    
        <img class=""stim"" src=./stimuli//pack_shapes_diff/cat_1/diff_1/ex_1_1_17.png></img>
    ","null","stimulus","","","","","","",""
"","","","","","html-keyboard-response","77","116201","0.0-6.4-2.4","60abeb39f19c987b605c5524","65576f040411c2a4be0341a4","65576f2efd957729ff3f41d2","null","
        <div style=""text-align: center; position: fixed; top: 5vh; left: 40vw;"">
            <div style=""margin:0 auto; width: 20vw; top: 8vh; font-size: 2vw""> 
            <font color=""green""> Bonus : $0.2 </font>
            </div>
        </div>
    ","null","","","","","","","",""
"","","","","","html-keyboard-response","78","116238","0.0-6.4-3.4","60abeb39f19c987b605c5524","65576f040411c2a4be0341a4","65576f2efd957729ff3f41d2","36","./stimuli//pack_shapes_diff/cat_1/diff_1/ex_1_1_17.png","arrowleft","response","ArrowLeft","17","1","1","test","true",""
"","","","","","html-keyboard-response","79","116405","0.0-6.4-4.4","60abeb39f19c987b605c5524","65576f040411c2a4be0341a4","65576f2efd957729ff3f41d2","166","<p> <font color=""green"" size=""5vw""> Correct category! </font> <br> <br> <font color=""green"" size=""8vw""> + $0.05 </font> </p>","arrowleft","feedback","","","","","","","0.25"
"","","","","","html-keyboard-response","80","117053","0.0-6.5-0.5","60abeb39f19c987b605c5524","65576f040411c2a4be0341a4","65576f2efd957729ff3f41d2","647","
            
        <div style=""text-align: center; position: fixed; top: 5vh; left: 40vw;"">
            <div style=""margin:0 auto; width: 20vw; top: 8vh; font-size: 2vw""> 
            <font color=""green""> Bonus : $0.25 </font>
            </div>
        </div>
    
            <div> Please press any button to continue to the next trial.</div>
        ","arrowleft","ITI","","","","","","",""
"","","","","","html-keyboard-response","81","117669","0.0-6.5-1.5","60abeb39f19c987b605c5524","65576f040411c2a4be0341a4","65576f2efd957729ff3f41d2","null","
        
        <div style=""text-align: center; position: fixed; top: 5vh; left: 40vw;"">
            <div style=""margin:0 auto; width: 20vw; top: 8vh; font-size: 2vw""> 
            <font color=""green""> Bonus : $0.25 </font>
            </div>
        </div>
    
        <img class=""stim"" src=./stimuli//pack_shapes_diff/cat_2/diff_2/ex_2_2_10.png></img>
    ","null","stimulus","","","","","","",""
"","","","","","html-keyboard-response","82","118681","0.0-6.5-2.5","60abeb39f19c987b605c5524","65576f040411c2a4be0341a4","65576f2efd957729ff3f41d2","null","
        <div style=""text-align: center; position: fixed; top: 5vh; left: 40vw;"">
            <div style=""margin:0 auto; width: 20vw; top: 8vh; font-size: 2vw""> 
            <font color=""green""> Bonus : $0.25 </font>
            </div>
        </div>
    ","null","","","","","","","",""
"","","","","","html-keyboard-response","83","118709","0.0-6.5-3.5","60abeb39f19c987b605c5524","65576f040411c2a4be0341a4","65576f2efd957729ff3f41d2","28","./stimuli//pack_shapes_diff/cat_2/diff_2/ex_2_2_10.png","arrowright","response","ArrowRight","10","2","2","test","true",""
"","","","","","html-keyboard-response","84","118879","0.0-6.5-4.5","60abeb39f19c987b605c5524","65576f040411c2a4be0341a4","65576f2efd957729ff3f41d2","169","<p> <font color=""green"" size=""5vw""> Correct category! </font> <br> <br> <font color=""green"" size=""8vw""> + $0.05 </font> </p>","arrowright","feedback","","","","","","","0.3"
"","","","","","html-keyboard-response","85","120137","0.0-6.6-0.6","60abeb39f19c987b605c5524","65576f040411c2a4be0341a4","65576f2efd957729ff3f41d2","1258","
            
        <div style=""text-align: center; position: fixed; top: 5vh; left: 40vw;"">
            <div style=""margin:0 auto; width: 20vw; top: 8vh; font-size: 2vw""> 
            <font color=""green""> Bonus : $0.3 </font>
            </div>
        </div>
    
            <div> Please press any button to continue to the next trial.</div>
        ","arrowleft","ITI","","","","","","",""
"","","","","","html-keyboard-response","86","120743","0.0-6.6-1.6","60abeb39f19c987b605c5524","65576f040411c2a4be0341a4","65576f2efd957729ff3f41d2","null","
        
        <div style=""text-align: center; position: fixed; top: 5vh; left: 40vw;"">
            <div style=""margin:0 auto; width: 20vw; top: 8vh; font-size: 2vw""> 
            <font color=""green""> Bonus : $0.3 </font>
            </div>
        </div>
    
        <img class=""stim"" src=./stimuli//pack_shapes_diff/cat_1/diff_2/ex_1_2_12.png></img>
    ","null","stimulus","","","","","","",""
"","","","","","html-keyboard-response","87","121757","0.0-6.6-2.6","60abeb39f19c987b605c5524","65576f040411c2a4be0341a4","65576f2efd957729ff3f41d2","null","
        <div style=""text-align: center; position: fixed; top: 5vh; left: 40vw;"">
            <div style=""margin:0 auto; width: 20vw; top: 8vh; font-size: 2vw""> 
            <font color=""green""> Bonus : $0.3 </font>
            </div>
        </div>
    ","null","","","","","","","",""
"","","","","","html-keyboard-response","88","121968","0.0-6.6-3.6","60abeb39f19c987b605c5524","65576f040411c2a4be0341a4","65576f2efd957729ff3f41d2","210","./stimuli//pack_shapes_diff/cat_1/diff_2/ex_1_2_12.png","arrowleft","response","ArrowLeft","12","1","2","test","true",""
"","","","","","html-keyboard-response","89","123475","0.0-6.6-4.6","60abeb39f19c987b605c5524","65576f040411c2a4be0341a4","65576f2efd957729ff3f41d2","null","<p> <font color=""green"" size=""5vw""> Correct category! </font> <br> <br> <font color=""green"" size=""8vw""> + $0.05 </font> </p>","null","feedback","","","","","","","0.35"
"","","","","","html-keyboard-response","90","124085","0.0-6.7-0.7","60abeb39f19c987b605c5524","65576f040411c2a4be0341a4","65576f2efd957729ff3f41d2","610","
            
        <div style=""text-align: center; position: fixed; top: 5vh; left: 40vw;"">
            <div style=""margin:0 auto; width: 20vw; top: 8vh; font-size: 2vw""> 
            <font color=""green""> Bonus : $0.35 </font>
            </div>
        </div>
    
            <div> Please press any button to continue to the next trial.</div>
        ","arrowright","ITI","","","","","","",""
"","","","","","html-keyboard-response","91","124690","0.0-6.7-1.7","60abeb39f19c987b605c5524","65576f040411c2a4be0341a4","65576f2efd957729ff3f41d2","null","
        
        <div style=""text-align: center; position: fixed; top: 5vh; left: 40vw;"">
            <div style=""margin:0 auto; width: 20vw; top: 8vh; font-size: 2vw""> 
            <font color=""green""> Bonus : $0.35 </font>
            </div>
        </div>
    
        <img class=""stim"" src=./stimuli//pack_shapes_diff/cat_1/diff_2/ex_1_2_4.png></img>
    ","null","stimulus","","","","","","",""
"","","","","","html-keyboard-response","92","125703","0.0-6.7-2.7","60abeb39f19c987b605c5524","65576f040411c2a4be0341a4","65576f2efd957729ff3f41d2","null","
        <div style=""text-align: center; position: fixed; top: 5vh; left: 40vw;"">
            <div style=""margin:0 auto; width: 20vw; top: 8vh; font-size: 2vw""> 
            <font color=""green""> Bonus : $0.35 </font>
            </div>
        </div>
    ","null","","","","","","","",""
"","","","","","html-keyboard-response","93","125868","0.0-6.7-3.7","60abeb39f19c987b605c5524","65576f040411c2a4be0341a4","65576f2efd957729ff3f41d2","164","./stimuli//pack_shapes_diff/cat_1/diff_2/ex_1_2_4.png","arrowleft","response","ArrowLeft","4","1","2","test","true",""
"","","","","","html-keyboard-response","94","126069","0.0-6.7-4.7","60abeb39f19c987b605c5524","65576f040411c2a4be0341a4","65576f2efd957729ff3f41d2","201","<p> <font color=""green"" size=""5vw""> Correct category! </font> <br> <br> <font color=""green"" size=""8vw""> + $0.05 </font> </p>","arrowleft","feedback","","","","","","","0.4"
"","","","","","html-keyboard-response","95","126675","0.0-6.8-0.8","60abeb39f19c987b605c5524","65576f040411c2a4be0341a4","65576f2efd957729ff3f41d2","605","
            
        <div style=""text-align: center; position: fixed; top: 5vh; left: 40vw;"">
            <div style=""margin:0 auto; width: 20vw; top: 8vh; font-size: 2vw""> 
            <font color=""green""> Bonus : $0.4 </font>
            </div>
        </div>
    
            <div> Please press any button to continue to the next trial.</div>
        ","arrowleft","ITI","","","","","","",""
"","","","","","html-keyboard-response","96","127280","0.0-6.8-1.8","60abeb39f19c987b605c5524","65576f040411c2a4be0341a4","65576f2efd957729ff3f41d2","null","
        
        <div style=""text-align: center; position: fixed; top: 5vh; left: 40vw;"">
            <div style=""margin:0 auto; width: 20vw; top: 8vh; font-size: 2vw""> 
            <font color=""green""> Bonus : $0.4 </font>
            </div>
        </div>
    
        <img class=""stim"" src=./stimuli//pack_shapes_diff/cat_1/diff_2/ex_1_2_12.png></img>
    ","null","stimulus","","","","","","",""
"","","","","","html-keyboard-response","97","128281","0.0-6.8-2.8","60abeb39f19c987b605c5524","65576f040411c2a4be0341a4","65576f2efd957729ff3f41d2","null","
        <div style=""text-align: center; position: fixed; top: 5vh; left: 40vw;"">
            <div style=""margin:0 auto; width: 20vw; top: 8vh; font-size: 2vw""> 
            <font color=""green""> Bonus : $0.4 </font>
            </div>
        </div>
    ","null","","","","","","","",""
"","","","","","html-keyboard-response","98","128617","0.0-6.8-3.8","60abeb39f19c987b605c5524","65576f040411c2a4be0341a4","65576f2efd957729ff3f41d2","335","./stimuli//pack_shapes_diff/cat_1/diff_2/ex_1_2_12.png","arrowleft","response","ArrowLeft","12","1","2","test","true",""
"","","","","","html-keyboard-response","99","129114","0.0-6.8-4.8","60abeb39f19c987b605c5524","65576f040411c2a4be0341a4","65576f2efd957729ff3f41d2","496","<p> <font color=""green"" size=""5vw""> Correct category! </font> <br> <br> <font color=""green"" size=""8vw""> + $0.05 </font> </p>","arrowleft","feedback","","","","","","","0.45"
"","","","","","html-keyboard-response","100","129750","0.0-6.9-0.9","60abeb39f19c987b605c5524","65576f040411c2a4be0341a4","65576f2efd957729ff3f41d2","636","
            
        <div style=""text-align: center; position: fixed; top: 5vh; left: 40vw;"">
            <div style=""margin:0 auto; width: 20vw; top: 8vh; font-size: 2vw""> 
            <font color=""green""> Bonus : $0.45 </font>
            </div>
        </div>
    
            <div> Please press any button to continue to the next trial.</div>
        ","arrowleft","ITI","","","","","","",""
"","","","","","html-keyboard-response","101","130352","0.0-6.9-1.9","60abeb39f19c987b605c5524","65576f040411c2a4be0341a4","65576f2efd957729ff3f41d2","null","
        
        <div style=""text-align: center; position: fixed; top: 5vh; left: 40vw;"">
            <div style=""margin:0 auto; width: 20vw; top: 8vh; font-size: 2vw""> 
            <font color=""green""> Bonus : $0.45 </font>
            </div>
        </div>
    
        <img class=""stim"" src=./stimuli//pack_shapes_diff/cat_2/diff_2/ex_2_2_17.png></img>
    ","null","stimulus","","","","","","",""
"","","","","","html-keyboard-response","102","131357","0.0-6.9-2.9","60abeb39f19c987b605c5524","65576f040411c2a4be0341a4","65576f2efd957729ff3f41d2","null","
        <div style=""text-align: center; position: fixed; top: 5vh; left: 40vw;"">
            <div style=""margin:0 auto; width: 20vw; top: 8vh; font-size: 2vw""> 
            <font color=""green""> Bonus : $0.45 </font>
            </div>
        </div>
    ","null","","","","","","","",""
"","","","","","html-keyboard-response","103","131583","0.0-6.9-3.9","60abeb39f19c987b605c5524","65576f040411c2a4be0341a4","65576f2efd957729ff3f41d2","226","./stimuli//pack_shapes_diff/cat_2/diff_2/ex_2_2_17.png","arrowright","response","ArrowRight","17","2","2","test","true",""
"","","","","","html-keyboard-response","104","132643","0.0-6.9-4.9","60abeb39f19c987b605c5524","65576f040411c2a4be0341a4","65576f2efd957729ff3f41d2","1060","<p> <font color=""green"" size=""5vw""> Correct category! </font> <br> <br> <font color=""green"" size=""8vw""> + $0.05 </font> </p>","arrowleft","feedback","","","","","","","0.5"
"","","","","","html-keyboard-response","105","133076","0.0-6.10-0.10","60abeb39f19c987b605c5524","65576f040411c2a4be0341a4","65576f2efd957729ff3f41d2","432","
            
        <div style=""text-align: center; position: fixed; top: 5vh; left: 40vw;"">
            <div style=""margin:0 auto; width: 20vw; top: 8vh; font-size: 2vw""> 
            <font color=""green""> Bonus : $0.5 </font>
            </div>
        </div>
    
            <div> Please press any button to continue to the next trial.</div>
        ","arrowleft","ITI","","","","","","",""
"","","","","","html-keyboard-response","106","133692","0.0-6.10-1.10","60abeb39f19c987b605c5524","65576f040411c2a4be0341a4","65576f2efd957729ff3f41d2","null","
        
        <div style=""text-align: center; position: fixed; top: 5vh; left: 40vw;"">
            <div style=""margin:0 auto; width: 20vw; top: 8vh; font-size: 2vw""> 
            <font color=""green""> Bonus : $0.5 </font>
            </div>
        </div>
    
        <img class=""stim"" src=./stimuli//pack_shapes_diff/cat_2/diff_3/ex_2_3_3.png></img>
    ","null","stimulus","","","","","","",""
"","","","","","html-keyboard-response","107","134705","0.0-6.10-2.10","60abeb39f19c987b605c5524","65576f040411c2a4be0341a4","65576f2efd957729ff3f41d2","null","
        <div style=""text-align: center; position: fixed; top: 5vh; left: 40vw;"">
            <div style=""margin:0 auto; width: 20vw; top: 8vh; font-size: 2vw""> 
            <font color=""green""> Bonus : $0.5 </font>
            </div>
        </div>
    ","null","","","","","","","",""
"","","","","","html-keyboard-response","108","134743","0.0-6.10-3.10","60abeb39f19c987b605c5524","65576f040411c2a4be0341a4","65576f2efd957729ff3f41d2","37","./stimuli//pack_shapes_diff/cat_2/diff_3/ex_2_3_3.png","arrowright","response","ArrowRight","3","2","3","test","true",""
"","","","","","html-keyboard-response","109","135607","0.0-6.10-4.10","60abeb39f19c987b605c5524","65576f040411c2a4be0341a4","65576f2efd957729ff3f41d2","864","<p> <font color=""green"" size=""5vw""> Correct category! </font> <br> <br> <font color=""green"" size=""8vw""> + $0.05 </font> </p>","arrowleft","feedback","","","","","","","0.55"
"","","","","","html-keyboard-response","110","136358","0.0-6.11-0.11","60abeb39f19c987b605c5524","65576f040411c2a4be0341a4","65576f2efd957729ff3f41d2","751","
            
        <div style=""text-align: center; position: fixed; top: 5vh; left: 40vw;"">
            <div style=""margin:0 auto; width: 20vw; top: 8vh; font-size: 2vw""> 
            <font color=""green""> Bonus : $0.55 </font>
            </div>
        </div>
    
            <div> Please press any button to continue to the next trial.</div>
        ","arrowright","ITI","","","","","","",""
"","","","","","html-keyboard-response","111","136972","0.0-6.11-1.11","60abeb39f19c987b605c5524","65576f040411c2a4be0341a4","65576f2efd957729ff3f41d2","null","
        
        <div style=""text-align: center; position: fixed; top: 5vh; left: 40vw;"">
            <div style=""margin:0 auto; width: 20vw; top: 8vh; font-size: 2vw""> 
            <font color=""green""> Bonus : $0.55 </font>
            </div>
        </div>
    
        <img class=""stim"" src=./stimuli//pack_shapes_diff/cat_2/diff_3/ex_2_3_10.png></img>
    ","null","stimulus","","","","","","",""
"","","","","","html-keyboard-response","112","137989","0.0-6.11-2.11","60abeb39f19c987b605c5524","65576f040411c2a4be0341a4","65576f2efd957729ff3f41d2","null","
        <div style=""text-align: center; position: fixed; top: 5vh; left: 40vw;"">
            <div style=""margin:0 auto; width: 20vw; top: 8vh; font-size: 2vw""> 
            <font color=""green""> Bonus : $0.55 </font>
            </div>
        </div>
    ","null","","","","","","","",""
"","","","","","html-keyboard-response","113","138131","0.0-6.11-3.11","60abeb39f19c987b605c5524","65576f040411c2a4be0341a4","65576f2efd957729ff3f41d2","142","./stimuli//pack_shapes_diff/cat_2/diff_3/ex_2_3_10.png","arrowright","response","ArrowRight","10","2","3","test","true",""
"","","","","","html-keyboard-response","114","138972","0.0-6.11-4.11","60abeb39f19c987b605c5524","65576f040411c2a4be0341a4","65576f2efd957729ff3f41d2","840","<p> <font color=""green"" size=""5vw""> Correct category! </font> <br> <br> <font color=""green"" size=""8vw""> + $0.05 </font> </p>","arrowleft","feedback","","","","","","","0.6"
"","","","","","html-keyboard-response","115","139378","0.0-6.12-0.12","60abeb39f19c987b605c5524","65576f040411c2a4be0341a4","65576f2efd957729ff3f41d2","405","
            
        <div style=""text-align: center; position: fixed; top: 5vh; left: 40vw;"">
            <div style=""margin:0 auto; width: 20vw; top: 8vh; font-size: 2vw""> 
            <font color=""green""> Bonus : $0.6 </font>
            </div>
        </div>
    
            <div> Please press any button to continue to the next trial.</div>
        ","arrowleft","ITI","","","","","","",""
"","","","","","html-keyboard-response","116","139989","0.0-6.12-1.12","60abeb39f19c987b605c5524","65576f040411c2a4be0341a4","65576f2efd957729ff3f41d2","null","
        
        <div style=""text-align: center; position: fixed; top: 5vh; left: 40vw;"">
            <div style=""margin:0 auto; width: 20vw; top: 8vh; font-size: 2vw""> 
            <font color=""green""> Bonus : $0.6 </font>
            </div>
        </div>
    
        <img class=""stim"" src=./stimuli//pack_shapes_diff/cat_1/diff_3/ex_1_3_10.png></img>
    ","null","stimulus","","","","","","",""
"","","","","","html-keyboard-response","117","141000","0.0-6.12-2.12","60abeb39f19c987b605c5524","65576f040411c2a4be0341a4","65576f2efd957729ff3f41d2","null","
        <div style=""text-align: center; position: fixed; top: 5vh; left: 40vw;"">
            <div style=""margin:0 auto; width: 20vw; top: 8vh; font-size: 2vw""> 
            <font color=""green""> Bonus : $0.6 </font>
            </div>
        </div>
    ","null","","","","","","","",""
"","","","","","html-keyboard-response","118","141147","0.0-6.12-3.12","60abeb39f19c987b605c5524","65576f040411c2a4be0341a4","65576f2efd957729ff3f41d2","146","./stimuli//pack_shapes_diff/cat_1/diff_3/ex_1_3_10.png","arrowleft","response","ArrowLeft","10","1","3","test","true",""
"","","","","","html-keyboard-response","119","141723","0.0-6.12-4.12","60abeb39f19c987b605c5524","65576f040411c2a4be0341a4","65576f2efd957729ff3f41d2","576","<p> <font color=""green"" size=""5vw""> Correct category! </font> <br> <br> <font color=""green"" size=""8vw""> + $0.05 </font> </p>","arrowleft","feedback","","","","","","","0.65"
"","","","","","html-keyboard-response","120","142385","0.0-6.13-0.13","60abeb39f19c987b605c5524","65576f040411c2a4be0341a4","65576f2efd957729ff3f41d2","662","
            
        <div style=""text-align: center; position: fixed; top: 5vh; left: 40vw;"">
            <div style=""margin:0 auto; width: 20vw; top: 8vh; font-size: 2vw""> 
            <font color=""green""> Bonus : $0.65 </font>
            </div>
        </div>
    
            <div> Please press any button to continue to the next trial.</div>
        ","arrowright","ITI","","","","","","",""
"","","","","","html-keyboard-response","121","142999","0.0-6.13-1.13","60abeb39f19c987b605c5524","65576f040411c2a4be0341a4","65576f2efd957729ff3f41d2","null","
        
        <div style=""text-align: center; position: fixed; top: 5vh; left: 40vw;"">
            <div style=""margin:0 auto; width: 20vw; top: 8vh; font-size: 2vw""> 
            <font color=""green""> Bonus : $0.65 </font>
            </div>
        </div>
    
        <img class=""stim"" src=./stimuli//pack_shapes_diff/cat_1/diff_3/ex_1_3_6.png></img>
    ","null","stimulus","","","","","","",""
"","","","","","html-keyboard-response","122","144011","0.0-6.13-2.13","60abeb39f19c987b605c5524","65576f040411c2a4be0341a4","65576f2efd957729ff3f41d2","null","
        <div style=""text-align: center; position: fixed; top: 5vh; left: 40vw;"">
            <div style=""margin:0 auto; width: 20vw; top: 8vh; font-size: 2vw""> 
            <font color=""green""> Bonus : $0.65 </font>
            </div>
        </div>
    ","null","","","","","","","",""
"","","","","","html-keyboard-response","123","144064","0.0-6.13-3.13","60abeb39f19c987b605c5524","65576f040411c2a4be0341a4","65576f2efd957729ff3f41d2","53","./stimuli//pack_shapes_diff/cat_1/diff_3/ex_1_3_6.png","arrowleft","response","ArrowLeft","6","1","3","test","true",""
"","","","","","html-keyboard-response","124","145574","0.0-6.13-4.13","60abeb39f19c987b605c5524","65576f040411c2a4be0341a4","65576f2efd957729ff3f41d2","null","<p> <font color=""green"" size=""5vw""> Correct category! </font> <br> <br> <font color=""green"" size=""8vw""> + $0.05 </font> </p>","null","feedback","","","","","","","0.7"
"","","","","","html-keyboard-response","125","146070","0.0-6.14-0.14","60abeb39f19c987b605c5524","65576f040411c2a4be0341a4","65576f2efd957729ff3f41d2","495","
            
        <div style=""text-align: center; position: fixed; top: 5vh; left: 40vw;"">
            <div style=""margin:0 auto; width: 20vw; top: 8vh; font-size: 2vw""> 
            <font color=""green""> Bonus : $0.7 </font>
            </div>
        </div>
    
            <div> Please press any button to continue to the next trial.</div>
        ","arrowleft","ITI","","","","","","",""
"","","","","","html-keyboard-response","126","146682","0.0-6.14-1.14","60abeb39f19c987b605c5524","65576f040411c2a4be0341a4","65576f2efd957729ff3f41d2","null","
        
        <div style=""text-align: center; position: fixed; top: 5vh; left: 40vw;"">
            <div style=""margin:0 auto; width: 20vw; top: 8vh; font-size: 2vw""> 
            <font color=""green""> Bonus : $0.7 </font>
            </div>
        </div>
    
        <img class=""stim"" src=./stimuli//pack_shapes_diff/cat_2/diff_3/ex_2_3_4.png></img>
    ","null","stimulus","","","","","","",""
"","","","","","html-keyboard-response","127","147696","0.0-6.14-2.14","60abeb39f19c987b605c5524","65576f040411c2a4be0341a4","65576f2efd957729ff3f41d2","null","
        <div style=""text-align: center; position: fixed; top: 5vh; left: 40vw;"">
            <div style=""margin:0 auto; width: 20vw; top: 8vh; font-size: 2vw""> 
            <font color=""green""> Bonus : $0.7 </font>
            </div>
        </div>
    ","null","","","","","","","",""
"","","","","","html-keyboard-response","128","147849","0.0-6.14-3.14","60abeb39f19c987b605c5524","65576f040411c2a4be0341a4","65576f2efd957729ff3f41d2","153","./stimuli//pack_shapes_diff/cat_2/diff_3/ex_2_3_4.png","arrowright","response","ArrowRight","4","2","3","test","true",""
"","","","","","html-keyboard-response","129","149362","0.0-6.14-4.14","60abeb39f19c987b605c5524","65576f040411c2a4be0341a4","65576f2efd957729ff3f41d2","null","<p> <font color=""green"" size=""5vw""> Correct category! </font> <br> <br> <font color=""green"" size=""8vw""> + $0.05 </font> </p>","null","feedback","","","","","","","0.75"
"","","","","","html-keyboard-response","130","150189","0.0-6.15-0.15","60abeb39f19c987b605c5524","65576f040411c2a4be0341a4","65576f2efd957729ff3f41d2","826","
            
        <div style=""text-align: center; position: fixed; top: 5vh; left: 40vw;"">
            <div style=""margin:0 auto; width: 20vw; top: 8vh; font-size: 2vw""> 
            <font color=""green""> Bonus : $0.75 </font>
            </div>
        </div>
    
            <div> Please press any button to continue to the next trial.</div>
        ","arrowleft","ITI","","","","","","",""
"","","","","","html-keyboard-response","131","150799","0.0-6.15-1.15","60abeb39f19c987b605c5524","65576f040411c2a4be0341a4","65576f2efd957729ff3f41d2","null","
        
        <div style=""text-align: center; position: fixed; top: 5vh; left: 40vw;"">
            <div style=""margin:0 auto; width: 20vw; top: 8vh; font-size: 2vw""> 
            <font color=""green""> Bonus : $0.75 </font>
            </div>
        </div>
    
        <img class=""stim"" src=./stimuli//pack_shapes_diff/cat_2/diff_4/ex_2_4_10.png></img>
    ","null","stimulus","","","","","","",""
"","","","","","html-keyboard-response","132","151811","0.0-6.15-2.15","60abeb39f19c987b605c5524","65576f040411c2a4be0341a4","65576f2efd957729ff3f41d2","null","
        <div style=""text-align: center; position: fixed; top: 5vh; left: 40vw;"">
            <div style=""margin:0 auto; width: 20vw; top: 8vh; font-size: 2vw""> 
            <font color=""green""> Bonus : $0.75 </font>
            </div>
        </div>
    ","null","","","","","","","",""
"","","","","","html-keyboard-response","133","151976","0.0-6.15-3.15","60abeb39f19c987b605c5524","65576f040411c2a4be0341a4","65576f2efd957729ff3f41d2","164","./stimuli//pack_shapes_diff/cat_2/diff_4/ex_2_4_10.png","arrowright","response","ArrowRight","10","2","4","test","true",""
"","","","","","html-keyboard-response","134","153482","0.0-6.15-4.15","60abeb39f19c987b605c5524","65576f040411c2a4be0341a4","65576f2efd957729ff3f41d2","null","<p> <font color=""green"" size=""5vw""> Correct category! </font> <br> <br> <font color=""green"" size=""8vw""> + $0.05 </font> </p>","null","feedback","","","","","","","0.8"
"","","","","","html-keyboard-response","135","153997","0.0-6.16-0.16","60abeb39f19c987b605c5524","65576f040411c2a4be0341a4","65576f2efd957729ff3f41d2","514","
            
        <div style=""text-align: center; position: fixed; top: 5vh; left: 40vw;"">
            <div style=""margin:0 auto; width: 20vw; top: 8vh; font-size: 2vw""> 
            <font color=""green""> Bonus : $0.8 </font>
            </div>
        </div>
    
            <div> Please press any button to continue to the next trial.</div>
        ","arrowright","ITI","","","","","","",""
"","","","","","html-keyboard-response","136","154603","0.0-6.16-1.16","60abeb39f19c987b605c5524","65576f040411c2a4be0341a4","65576f2efd957729ff3f41d2","null","
        
        <div style=""text-align: center; position: fixed; top: 5vh; left: 40vw;"">
            <div style=""margin:0 auto; width: 20vw; top: 8vh; font-size: 2vw""> 
            <font color=""green""> Bonus : $0.8 </font>
            </div>
        </div>
    
        <img class=""stim"" src=./stimuli//pack_shapes_diff/cat_1/diff_4/ex_1_4_17.png></img>
    ","null","stimulus","","","","","","",""
"","","","","","html-keyboard-response","137","155605","0.0-6.16-2.16","60abeb39f19c987b605c5524","65576f040411c2a4be0341a4","65576f2efd957729ff3f41d2","null","
        <div style=""text-align: center; position: fixed; top: 5vh; left: 40vw;"">
            <div style=""margin:0 auto; width: 20vw; top: 8vh; font-size: 2vw""> 
            <font color=""green""> Bonus : $0.8 </font>
            </div>
        </div>
    ","null","","","","","","","",""
"","","","","","html-keyboard-response","138","155783","0.0-6.16-3.16","60abeb39f19c987b605c5524","65576f040411c2a4be0341a4","65576f2efd957729ff3f41d2","178","./stimuli//pack_shapes_diff/cat_1/diff_4/ex_1_4_17.png","arrowleft","response","ArrowLeft","17","1","4","test","true",""
"","","","","","html-keyboard-response","139","157290","0.0-6.16-4.16","60abeb39f19c987b605c5524","65576f040411c2a4be0341a4","65576f2efd957729ff3f41d2","null","<p> <font color=""green"" size=""5vw""> Correct category! </font> <br> <br> <font color=""green"" size=""8vw""> + $0.05 </font> </p>","null","feedback","","","","","","","0.85"
"","","","","","html-keyboard-response","140","157785","0.0-6.17-0.17","60abeb39f19c987b605c5524","65576f040411c2a4be0341a4","65576f2efd957729ff3f41d2","494","
            
        <div style=""text-align: center; position: fixed; top: 5vh; left: 40vw;"">
            <div style=""margin:0 auto; width: 20vw; top: 8vh; font-size: 2vw""> 
            <font color=""green""> Bonus : $0.85 </font>
            </div>
        </div>
    
            <div> Please press any button to continue to the next trial.</div>
        ","arrowleft","ITI","","","","","","",""
"","","","","","html-keyboard-response","141","158401","0.0-6.17-1.17","60abeb39f19c987b605c5524","65576f040411c2a4be0341a4","65576f2efd957729ff3f41d2","null","
        
        <div style=""text-align: center; position: fixed; top: 5vh; left: 40vw;"">
            <div style=""margin:0 auto; width: 20vw; top: 8vh; font-size: 2vw""> 
            <font color=""green""> Bonus : $0.85 </font>
            </div>
        </div>
    
        <img class=""stim"" src=./stimuli//pack_shapes_diff/cat_2/diff_4/ex_2_4_15.png></img>
    ","null","stimulus","","","","","","",""
"","","","","","html-keyboard-response","142","159405","0.0-6.17-2.17","60abeb39f19c987b605c5524","65576f040411c2a4be0341a4","65576f2efd957729ff3f41d2","null","
        <div style=""text-align: center; position: fixed; top: 5vh; left: 40vw;"">
            <div style=""margin:0 auto; width: 20vw; top: 8vh; font-size: 2vw""> 
            <font color=""green""> Bonus : $0.85 </font>
            </div>
        </div>
    ","null","","","","","","","",""
"","","","","","html-keyboard-response","143","159564","0.0-6.17-3.17","60abeb39f19c987b605c5524","65576f040411c2a4be0341a4","65576f2efd957729ff3f41d2","158","./stimuli//pack_shapes_diff/cat_2/diff_4/ex_2_4_15.png","arrowright","response","ArrowRight","15","2","4","test","true",""
"","","","","","html-keyboard-response","144","160366","0.0-6.17-4.17","60abeb39f19c987b605c5524","65576f040411c2a4be0341a4","65576f2efd957729ff3f41d2","801","<p> <font color=""green"" size=""5vw""> Correct category! </font> <br> <br> <font color=""green"" size=""8vw""> + $0.05 </font> </p>","arrowleft","feedback","","","","","","","0.9"
"","","","","","html-keyboard-response","145","160934","0.0-6.18-0.18","60abeb39f19c987b605c5524","65576f040411c2a4be0341a4","65576f2efd957729ff3f41d2","568","
            
        <div style=""text-align: center; position: fixed; top: 5vh; left: 40vw;"">
            <div style=""margin:0 auto; width: 20vw; top: 8vh; font-size: 2vw""> 
            <font color=""green""> Bonus : $0.9 </font>
            </div>
        </div>
    
            <div> Please press any button to continue to the next trial.</div>
        ","arrowright","ITI","","","","","","",""
"","","","","","html-keyboard-response","146","161549","0.0-6.18-1.18","60abeb39f19c987b605c5524","65576f040411c2a4be0341a4","65576f2efd957729ff3f41d2","null","
        
        <div style=""text-align: center; position: fixed; top: 5vh; left: 40vw;"">
            <div style=""margin:0 auto; width: 20vw; top: 8vh; font-size: 2vw""> 
            <font color=""green""> Bonus : $0.9 </font>
            </div>
        </div>
    
        <img class=""stim"" src=./stimuli//pack_shapes_diff/cat_2/diff_4/ex_2_4_11.png></img>
    ","null","stimulus","","","","","","",""
"","","","","","html-keyboard-response","147","162562","0.0-6.18-2.18","60abeb39f19c987b605c5524","65576f040411c2a4be0341a4","65576f2efd957729ff3f41d2","null","
        <div style=""text-align: center; position: fixed; top: 5vh; left: 40vw;"">
            <div style=""margin:0 auto; width: 20vw; top: 8vh; font-size: 2vw""> 
            <font color=""green""> Bonus : $0.9 </font>
            </div>
        </div>
    ","null","","","","","","","",""
"","","","","","html-keyboard-response","148","162608","0.0-6.18-3.18","60abeb39f19c987b605c5524","65576f040411c2a4be0341a4","65576f2efd957729ff3f41d2","45","./stimuli//pack_shapes_diff/cat_2/diff_4/ex_2_4_11.png","arrowright","response","ArrowRight","11","2","4","test","true",""
"","","","","","html-keyboard-response","149","164111","0.0-6.18-4.18","60abeb39f19c987b605c5524","65576f040411c2a4be0341a4","65576f2efd957729ff3f41d2","null","<p> <font color=""green"" size=""5vw""> Correct category! </font> <br> <br> <font color=""green"" size=""8vw""> + $0.05 </font> </p>","null","feedback","","","","","","","0.95"
"","","","","","html-keyboard-response","150","165014","0.0-6.19-0.19","60abeb39f19c987b605c5524","65576f040411c2a4be0341a4","65576f2efd957729ff3f41d2","903","
            
        <div style=""text-align: center; position: fixed; top: 5vh; left: 40vw;"">
            <div style=""margin:0 auto; width: 20vw; top: 8vh; font-size: 2vw""> 
            <font color=""green""> Bonus : $0.95 </font>
            </div>
        </div>
    
            <div> Please press any button to continue to the next trial.</div>
        ","arrowright","ITI","","","","","","",""
"","","","","","html-keyboard-response","151","165625","0.0-6.19-1.19","60abeb39f19c987b605c5524","65576f040411c2a4be0341a4","65576f2efd957729ff3f41d2","null","
        
        <div style=""text-align: center; position: fixed; top: 5vh; left: 40vw;"">
            <div style=""margin:0 auto; width: 20vw; top: 8vh; font-size: 2vw""> 
            <font color=""green""> Bonus : $0.95 </font>
            </div>
        </div>
    
        <img class=""stim"" src=./stimuli//pack_shapes_diff/cat_2/diff_4/ex_2_4_2.png></img>
    ","null","stimulus","","","","","","",""
"","","","","","html-keyboard-response","152","166639","0.0-6.19-2.19","60abeb39f19c987b605c5524","65576f040411c2a4be0341a4","65576f2efd957729ff3f41d2","null","
        <div style=""text-align: center; position: fixed; top: 5vh; left: 40vw;"">
            <div style=""margin:0 auto; width: 20vw; top: 8vh; font-size: 2vw""> 
            <font color=""green""> Bonus : $0.95 </font>
            </div>
        </div>
    ","null","","","","","","","",""
"","","","","","html-keyboard-response","153","166669","0.0-6.19-3.19","60abeb39f19c987b605c5524","65576f040411c2a4be0341a4","65576f2efd957729ff3f41d2","29","./stimuli//pack_shapes_diff/cat_2/diff_4/ex_2_4_2.png","arrowright","response","ArrowRight","2","2","4","test","true",""
"","","","","","html-keyboard-response","154","166850","0.0-6.19-4.19","60abeb39f19c987b605c5524","65576f040411c2a4be0341a4","65576f2efd957729ff3f41d2","180","<p> <font color=""green"" size=""5vw""> Correct category! </font> <br> <br> <font color=""green"" size=""8vw""> + $0.05 </font> </p>","arrowright","feedback","","","","","","","1"
"","","","","","html-keyboard-response","155","168060","0.0-6.20-0.20","60abeb39f19c987b605c5524","65576f040411c2a4be0341a4","65576f2efd957729ff3f41d2","1209","
            
        <div style=""text-align: center; position: fixed; top: 5vh; left: 40vw;"">
            <div style=""margin:0 auto; width: 20vw; top: 8vh; font-size: 2vw""> 
            <font color=""green""> Bonus : $1 </font>
            </div>
        </div>
    
            <div> Please press any button to continue to the next trial.</div>
        ","arrowright","ITI","","","","","","",""
"","","","","","html-keyboard-response","156","168675","0.0-6.20-1.20","60abeb39f19c987b605c5524","65576f040411c2a4be0341a4","65576f2efd957729ff3f41d2","null","
        
        <div style=""text-align: center; position: fixed; top: 5vh; left: 40vw;"">
            <div style=""margin:0 auto; width: 20vw; top: 8vh; font-size: 2vw""> 
            <font color=""green""> Bonus : $1 </font>
            </div>
        </div>
    
        <img class=""stim"" src=./stimuli//pack_shapes_diff/cat_1/diff_5/ex_1_5_8.png></img>
    ","null","stimulus","","","","","","",""
"","","","","","html-keyboard-response","157","169677","0.0-6.20-2.20","60abeb39f19c987b605c5524","65576f040411c2a4be0341a4","65576f2efd957729ff3f41d2","null","
        <div style=""text-align: center; position: fixed; top: 5vh; left: 40vw;"">
            <div style=""margin:0 auto; width: 20vw; top: 8vh; font-size: 2vw""> 
            <font color=""green""> Bonus : $1 </font>
            </div>
        </div>
    ","null","","","","","","","",""
"","","","","","html-keyboard-response","158","169942","0.0-6.20-3.20","60abeb39f19c987b605c5524","65576f040411c2a4be0341a4","65576f2efd957729ff3f41d2","265","./stimuli//pack_shapes_diff/cat_1/diff_5/ex_1_5_8.png","arrowleft","response","ArrowLeft","8","1","5","test","true",""
"","","","","","html-keyboard-response","159","170644","0.0-6.20-4.20","60abeb39f19c987b605c5524","65576f040411c2a4be0341a4","65576f2efd957729ff3f41d2","701","<p> <font color=""green"" size=""5vw""> Correct category! </font> <br> <br> <font color=""green"" size=""8vw""> + $0.05 </font> </p>","arrowright","feedback","","","","","","","1.05"
"","","","","","html-keyboard-response","160","171204","0.0-6.21-0.21","60abeb39f19c987b605c5524","65576f040411c2a4be0341a4","65576f2efd957729ff3f41d2","560","
            
        <div style=""text-align: center; position: fixed; top: 5vh; left: 40vw;"">
            <div style=""margin:0 auto; width: 20vw; top: 8vh; font-size: 2vw""> 
            <font color=""green""> Bonus : $1.05 </font>
            </div>
        </div>
    
            <div> Please press any button to continue to the next trial.</div>
        ","arrowright","ITI","","","","","","",""
"","","","","","html-keyboard-response","161","171816","0.0-6.21-1.21","60abeb39f19c987b605c5524","65576f040411c2a4be0341a4","65576f2efd957729ff3f41d2","null","
        
        <div style=""text-align: center; position: fixed; top: 5vh; left: 40vw;"">
            <div style=""margin:0 auto; width: 20vw; top: 8vh; font-size: 2vw""> 
            <font color=""green""> Bonus : $1.05 </font>
            </div>
        </div>
    
        <img class=""stim"" src=./stimuli//pack_shapes_diff/cat_2/diff_5/ex_2_5_14.png></img>
    ","null","stimulus","","","","","","",""
"","","","","","html-keyboard-response","162","172827","0.0-6.21-2.21","60abeb39f19c987b605c5524","65576f040411c2a4be0341a4","65576f2efd957729ff3f41d2","null","
        <div style=""text-align: center; position: fixed; top: 5vh; left: 40vw;"">
            <div style=""margin:0 auto; width: 20vw; top: 8vh; font-size: 2vw""> 
            <font color=""green""> Bonus : $1.05 </font>
            </div>
        </div>
    ","null","","","","","","","",""
"","","","","","html-keyboard-response","163","172975","0.0-6.21-3.21","60abeb39f19c987b605c5524","65576f040411c2a4be0341a4","65576f2efd957729ff3f41d2","147","./stimuli//pack_shapes_diff/cat_2/diff_5/ex_2_5_14.png","arrowleft","response","ArrowRight","14","2","5","test","false",""
"","","","","","html-keyboard-response","164","174161","0.0-6.21-4.21","60abeb39f19c987b605c5524","65576f040411c2a4be0341a4","65576f2efd957729ff3f41d2","1185","<p> <font color=""red"" size=""5vw""> Wrong category! </font> </p>","arrowright","feedback","","","","","","","1.05"
"","","","","","html-keyboard-response","165","174530","0.0-6.22-0.22","60abeb39f19c987b605c5524","65576f040411c2a4be0341a4","65576f2efd957729ff3f41d2","369","
            
        <div style=""text-align: center; position: fixed; top: 5vh; left: 40vw;"">
            <div style=""margin:0 auto; width: 20vw; top: 8vh; font-size: 2vw""> 
            <font color=""green""> Bonus : $1.05 </font>
            </div>
        </div>
    
            <div> Please press any button to continue to the next trial.</div>
        ","arrowright","ITI","","","","","","",""
"","","","","","html-keyboard-response","166","175140","0.0-6.22-1.22","60abeb39f19c987b605c5524","65576f040411c2a4be0341a4","65576f2efd957729ff3f41d2","null","
        
        <div style=""text-align: center; position: fixed; top: 5vh; left: 40vw;"">
            <div style=""margin:0 auto; width: 20vw; top: 8vh; font-size: 2vw""> 
            <font color=""green""> Bonus : $1.05 </font>
            </div>
        </div>
    
        <img class=""stim"" src=./stimuli//pack_shapes_diff/cat_2/diff_5/ex_2_5_2.png></img>
    ","null","stimulus","","","","","","",""
"","","","","","html-keyboard-response","167","176143","0.0-6.22-2.22","60abeb39f19c987b605c5524","65576f040411c2a4be0341a4","65576f2efd957729ff3f41d2","null","
        <div style=""text-align: center; position: fixed; top: 5vh; left: 40vw;"">
            <div style=""margin:0 auto; width: 20vw; top: 8vh; font-size: 2vw""> 
            <font color=""green""> Bonus : $1.05 </font>
            </div>
        </div>
    ","null","","","","","","","",""
"","","","","","html-keyboard-response","168","176399","0.0-6.22-3.22","60abeb39f19c987b605c5524","65576f040411c2a4be0341a4","65576f2efd957729ff3f41d2","256","./stimuli//pack_shapes_diff/cat_2/diff_5/ex_2_5_2.png","arrowright","response","ArrowRight","2","2","5","test","true",""
"","","","","","html-keyboard-response","169","176910","0.0-6.22-4.22","60abeb39f19c987b605c5524","65576f040411c2a4be0341a4","65576f2efd957729ff3f41d2","511","<p> <font color=""green"" size=""5vw""> Correct category! </font> <br> <br> <font color=""green"" size=""8vw""> + $0.05 </font> </p>","arrowright","feedback","","","","","","","1.1"
"","","","","","html-keyboard-response","170","177635","0.0-6.23-0.23","60abeb39f19c987b605c5524","65576f040411c2a4be0341a4","65576f2efd957729ff3f41d2","724","
            
        <div style=""text-align: center; position: fixed; top: 5vh; left: 40vw;"">
            <div style=""margin:0 auto; width: 20vw; top: 8vh; font-size: 2vw""> 
            <font color=""green""> Bonus : $1.1 </font>
            </div>
        </div>
    
            <div> Please press any button to continue to the next trial.</div>
        ","arrowright","ITI","","","","","","",""
"","","","","","html-keyboard-response","171","178249","0.0-6.23-1.23","60abeb39f19c987b605c5524","65576f040411c2a4be0341a4","65576f2efd957729ff3f41d2","null","
        
        <div style=""text-align: center; position: fixed; top: 5vh; left: 40vw;"">
            <div style=""margin:0 auto; width: 20vw; top: 8vh; font-size: 2vw""> 
            <font color=""green""> Bonus : $1.1 </font>
            </div>
        </div>
    
        <img class=""stim"" src=./stimuli//pack_shapes_diff/cat_1/diff_5/ex_1_5_14.png></img>
    ","null","stimulus","","","","","","",""
"","","","","","html-keyboard-response","172","179257","0.0-6.23-2.23","60abeb39f19c987b605c5524","65576f040411c2a4be0341a4","65576f2efd957729ff3f41d2","null","
        <div style=""text-align: center; position: fixed; top: 5vh; left: 40vw;"">
            <div style=""margin:0 auto; width: 20vw; top: 8vh; font-size: 2vw""> 
            <font color=""green""> Bonus : $1.1 </font>
            </div>
        </div>
    ","null","","","","","","","",""
"","","","","","html-keyboard-response","173","179444","0.0-6.23-3.23","60abeb39f19c987b605c5524","65576f040411c2a4be0341a4","65576f2efd957729ff3f41d2","186","./stimuli//pack_shapes_diff/cat_1/diff_5/ex_1_5_14.png","arrowleft","response","ArrowLeft","14","1","5","test","true",""
"","","","","","html-keyboard-response","174","180952","0.0-6.23-4.23","60abeb39f19c987b605c5524","65576f040411c2a4be0341a4","65576f2efd957729ff3f41d2","null","<p> <font color=""green"" size=""5vw""> Correct category! </font> <br> <br> <font color=""green"" size=""8vw""> + $0.05 </font> </p>","null","feedback","","","","","","","1.15"
"","","","","","html-keyboard-response","175","181293","0.0-6.24-0.24","60abeb39f19c987b605c5524","65576f040411c2a4be0341a4","65576f2efd957729ff3f41d2","341","
            
        <div style=""text-align: center; position: fixed; top: 5vh; left: 40vw;"">
            <div style=""margin:0 auto; width: 20vw; top: 8vh; font-size: 2vw""> 
            <font color=""green""> Bonus : $1.15 </font>
            </div>
        </div>
    
            <div> Please press any button to continue to the next trial.</div>
        ","arrowleft","ITI","","","","","","",""
"","","","","","html-keyboard-response","176","181904","0.0-6.24-1.24","60abeb39f19c987b605c5524","65576f040411c2a4be0341a4","65576f2efd957729ff3f41d2","null","
        
        <div style=""text-align: center; position: fixed; top: 5vh; left: 40vw;"">
            <div style=""margin:0 auto; width: 20vw; top: 8vh; font-size: 2vw""> 
            <font color=""green""> Bonus : $1.15 </font>
            </div>
        </div>
    
        <img class=""stim"" src=./stimuli//pack_shapes_diff/cat_1/diff_5/ex_1_5_14.png></img>
    ","null","stimulus","","","","","","",""
"","","","","","html-keyboard-response","177","182920","0.0-6.24-2.24","60abeb39f19c987b605c5524","65576f040411c2a4be0341a4","65576f2efd957729ff3f41d2","null","
        <div style=""text-align: center; position: fixed; top: 5vh; left: 40vw;"">
            <div style=""margin:0 auto; width: 20vw; top: 8vh; font-size: 2vw""> 
            <font color=""green""> Bonus : $1.15 </font>
            </div>
        </div>
    ","null","","","","","","","",""
"","","","","","html-keyboard-response","178","182976","0.0-6.24-3.24","60abeb39f19c987b605c5524","65576f040411c2a4be0341a4","65576f2efd957729ff3f41d2","56","./stimuli//pack_shapes_diff/cat_1/diff_5/ex_1_5_14.png","arrowleft","response","ArrowLeft","14","1","5","test","true",""
"","","","","","html-keyboard-response","179","183162","0.0-6.24-4.24","60abeb39f19c987b605c5524","65576f040411c2a4be0341a4","65576f2efd957729ff3f41d2","185","<p> <font color=""green"" size=""5vw""> Correct category! </font> <br> <br> <font color=""green"" size=""8vw""> + $0.05 </font> </p>","arrowleft","feedback","","","","","","","1.2"
"","","","","","html-keyboard-response","180","183634","0.0-6.25-0.25","60abeb39f19c987b605c5524","65576f040411c2a4be0341a4","65576f2efd957729ff3f41d2","472","
            
        <div style=""text-align: center; position: fixed; top: 5vh; left: 40vw;"">
            <div style=""margin:0 auto; width: 20vw; top: 8vh; font-size: 2vw""> 
            <font color=""green""> Bonus : $1.2 </font>
            </div>
        </div>
    
            <div> Please press any button to continue to the next trial.</div>
        ","arrowleft","ITI","","","","","","",""
"","","","","","html-keyboard-response","181","184246","0.0-6.25-1.25","60abeb39f19c987b605c5524","65576f040411c2a4be0341a4","65576f2efd957729ff3f41d2","null","
        
        <div style=""text-align: center; position: fixed; top: 5vh; left: 40vw;"">
            <div style=""margin:0 auto; width: 20vw; top: 8vh; font-size: 2vw""> 
            <font color=""green""> Bonus : $1.2 </font>
            </div>
        </div>
    
        <img class=""stim"" src=./stimuli//pack_shapes_diff/cat_1/diff_5/ex_1_5_17.png></img>
    ","null","stimulus","","","","","","",""
"","","","","","html-keyboard-response","182","185261","0.0-6.25-2.25","60abeb39f19c987b605c5524","65576f040411c2a4be0341a4","65576f2efd957729ff3f41d2","null","
        <div style=""text-align: center; position: fixed; top: 5vh; left: 40vw;"">
            <div style=""margin:0 auto; width: 20vw; top: 8vh; font-size: 2vw""> 
            <font color=""green""> Bonus : $1.2 </font>
            </div>
        </div>
    ","null","","","","","","","",""
"","","","","","html-keyboard-response","183","185382","0.0-6.25-3.25","60abeb39f19c987b605c5524","65576f040411c2a4be0341a4","65576f2efd957729ff3f41d2","120","./stimuli//pack_shapes_diff/cat_1/diff_5/ex_1_5_17.png","arrowleft","response","ArrowLeft","17","1","5","test","true",""
"","","","","","html-keyboard-response","184","185903","0.0-6.25-4.25","60abeb39f19c987b605c5524","65576f040411c2a4be0341a4","65576f2efd957729ff3f41d2","521","<p> <font color=""green"" size=""5vw""> Correct category! </font> <br> <br> <font color=""green"" size=""8vw""> + $0.05 </font> </p>","arrowleft","feedback","","","","","","","1.25"
"","","","","","html-keyboard-response","185","186564","0.0-6.26-0.26","60abeb39f19c987b605c5524","65576f040411c2a4be0341a4","65576f2efd957729ff3f41d2","660","
            
        <div style=""text-align: center; position: fixed; top: 5vh; left: 40vw;"">
            <div style=""margin:0 auto; width: 20vw; top: 8vh; font-size: 2vw""> 
            <font color=""green""> Bonus : $1.25 </font>
            </div>
        </div>
    
            <div> Please press any button to continue to the next trial.</div>
        ","arrowleft","ITI","","","","","","",""
"","","","","","html-keyboard-response","186","187177","0.0-6.26-1.26","60abeb39f19c987b605c5524","65576f040411c2a4be0341a4","65576f2efd957729ff3f41d2","null","
        
        <div style=""text-align: center; position: fixed; top: 5vh; left: 40vw;"">
            <div style=""margin:0 auto; width: 20vw; top: 8vh; font-size: 2vw""> 
            <font color=""green""> Bonus : $1.25 </font>
            </div>
        </div>
    
        <img class=""stim"" src=./stimuli//pack_shapes_diff/cat_1/diff_5/ex_1_5_11.png></img>
    ","null","stimulus","","","","","","",""
"","","","","","html-keyboard-response","187","188192","0.0-6.26-2.26","60abeb39f19c987b605c5524","65576f040411c2a4be0341a4","65576f2efd957729ff3f41d2","null","
        <div style=""text-align: center; position: fixed; top: 5vh; left: 40vw;"">
            <div style=""margin:0 auto; width: 20vw; top: 8vh; font-size: 2vw""> 
            <font color=""green""> Bonus : $1.25 </font>
            </div>
        </div>
    ","null","","","","","","","",""
"","","","","","html-keyboard-response","188","188399","0.0-6.26-3.26","60abeb39f19c987b605c5524","65576f040411c2a4be0341a4","65576f2efd957729ff3f41d2","207","./stimuli//pack_shapes_diff/cat_1/diff_5/ex_1_5_11.png","arrowleft","response","ArrowLeft","11","1","5","test","true",""
"","","","","","html-keyboard-response","189","188870","0.0-6.26-4.26","60abeb39f19c987b605c5524","65576f040411c2a4be0341a4","65576f2efd957729ff3f41d2","470","<p> <font color=""green"" size=""5vw""> Correct category! </font> <br> <br> <font color=""green"" size=""8vw""> + $0.05 </font> </p>","arrowright","feedback","","","","","","","1.3"
"","","","","","html-keyboard-response","190","188958","0.0-6.27-0.27","60abeb39f19c987b605c5524","65576f040411c2a4be0341a4","65576f2efd957729ff3f41d2","87","
            
        <div style=""text-align: center; position: fixed; top: 5vh; left: 40vw;"">
            <div style=""margin:0 auto; width: 20vw; top: 8vh; font-size: 2vw""> 
            <font color=""green""> Bonus : $1.3 </font>
            </div>
        </div>
    
            <div> Please press any button to continue to the next trial.</div>
        ","arrowleft","ITI","","","","","","",""
"","","","","","html-keyboard-response","191","189567","0.0-6.27-1.27","60abeb39f19c987b605c5524","65576f040411c2a4be0341a4","65576f2efd957729ff3f41d2","null","
        
        <div style=""text-align: center; position: fixed; top: 5vh; left: 40vw;"">
            <div style=""margin:0 auto; width: 20vw; top: 8vh; font-size: 2vw""> 
            <font color=""green""> Bonus : $1.3 </font>
            </div>
        </div>
    
        <img class=""stim"" src=./stimuli//pack_shapes_diff/cat_1/diff_5/ex_1_5_7.png></img>
    ","null","stimulus","","","","","","",""
"","","","","","html-keyboard-response","192","190582","0.0-6.27-2.27","60abeb39f19c987b605c5524","65576f040411c2a4be0341a4","65576f2efd957729ff3f41d2","null","
        <div style=""text-align: center; position: fixed; top: 5vh; left: 40vw;"">
            <div style=""margin:0 auto; width: 20vw; top: 8vh; font-size: 2vw""> 
            <font color=""green""> Bonus : $1.3 </font>
            </div>
        </div>
    ","null","","","","","","","",""
"","","","","","html-keyboard-response","193","190756","0.0-6.27-3.27","60abeb39f19c987b605c5524","65576f040411c2a4be0341a4","65576f2efd957729ff3f41d2","173","./stimuli//pack_shapes_diff/cat_1/diff_5/ex_1_5_7.png","arrowright","response","ArrowLeft","7","1","5","test","false",""
"","","","","","html-keyboard-response","194","191302","0.0-6.27-4.27","60abeb39f19c987b605c5524","65576f040411c2a4be0341a4","65576f2efd957729ff3f41d2","546","<p> <font color=""red"" size=""5vw""> Wrong category! </font> </p>","arrowleft","feedback","","","","","","","1.3"
"","","","","","html-keyboard-response","195","191772","0.0-6.28-0.28","60abeb39f19c987b605c5524","65576f040411c2a4be0341a4","65576f2efd957729ff3f41d2","469","
            
        <div style=""text-align: center; position: fixed; top: 5vh; left: 40vw;"">
            <div style=""margin:0 auto; width: 20vw; top: 8vh; font-size: 2vw""> 
            <font color=""green""> Bonus : $1.3 </font>
            </div>
        </div>
    
            <div> Please press any button to continue to the next trial.</div>
        ","arrowleft","ITI","","","","","","",""
"","","","","","html-keyboard-response","196","192377","0.0-6.28-1.28","60abeb39f19c987b605c5524","65576f040411c2a4be0341a4","65576f2efd957729ff3f41d2","null","
        
        <div style=""text-align: center; position: fixed; top: 5vh; left: 40vw;"">
            <div style=""margin:0 auto; width: 20vw; top: 8vh; font-size: 2vw""> 
            <font color=""green""> Bonus : $1.3 </font>
            </div>
        </div>
    
        <img class=""stim"" src=./stimuli//pack_shapes_diff/cat_1/diff_5/ex_1_5_13.png></img>
    ","null","stimulus","","","","","","",""
"","","","","","html-keyboard-response","197","193381","0.0-6.28-2.28","60abeb39f19c987b605c5524","65576f040411c2a4be0341a4","65576f2efd957729ff3f41d2","null","
        <div style=""text-align: center; position: fixed; top: 5vh; left: 40vw;"">
            <div style=""margin:0 auto; width: 20vw; top: 8vh; font-size: 2vw""> 
            <font color=""green""> Bonus : $1.3 </font>
            </div>
        </div>
    ","null","","","","","","","",""
"","","","","","html-keyboard-response","198","193490","0.0-6.28-3.28","60abeb39f19c987b605c5524","65576f040411c2a4be0341a4","65576f2efd957729ff3f41d2","108","./stimuli//pack_shapes_diff/cat_1/diff_5/ex_1_5_13.png","arrowleft","response","ArrowLeft","13","1","5","test","true",""
"","","","","","html-keyboard-response","199","193999","0.0-6.28-4.28","60abeb39f19c987b605c5524","65576f040411c2a4be0341a4","65576f2efd957729ff3f41d2","509","<p> <font color=""green"" size=""5vw""> Correct category! </font> <br> <br> <font color=""green"" size=""8vw""> + $0.05 </font> </p>","arrowleft","feedback","","","","","","","1.35"
"","","","","","html-keyboard-response","200","194408","0.0-6.29-0.29","60abeb39f19c987b605c5524","65576f040411c2a4be0341a4","65576f2efd957729ff3f41d2","408","
            
        <div style=""text-align: center; position: fixed; top: 5vh; left: 40vw;"">
            <div style=""margin:0 auto; width: 20vw; top: 8vh; font-size: 2vw""> 
            <font color=""green""> Bonus : $1.35 </font>
            </div>
        </div>
    
            <div> Please press any button to continue to the next trial.</div>
        ","arrowleft","ITI","","","","","","",""
"","","","","","html-keyboard-response","201","195018","0.0-6.29-1.29","60abeb39f19c987b605c5524","65576f040411c2a4be0341a4","65576f2efd957729ff3f41d2","null","
        
        <div style=""text-align: center; position: fixed; top: 5vh; left: 40vw;"">
            <div style=""margin:0 auto; width: 20vw; top: 8vh; font-size: 2vw""> 
            <font color=""green""> Bonus : $1.35 </font>
            </div>
        </div>
    
        <img class=""stim"" src=./stimuli//pack_shapes_diff/cat_1/diff_5/ex_1_5_2.png></img>
    ","null","stimulus","","","","","","",""
"","","","","","html-keyboard-response","202","196019","0.0-6.29-2.29","60abeb39f19c987b605c5524","65576f040411c2a4be0341a4","65576f2efd957729ff3f41d2","null","
        <div style=""text-align: center; position: fixed; top: 5vh; left: 40vw;"">
            <div style=""margin:0 auto; width: 20vw; top: 8vh; font-size: 2vw""> 
            <font color=""green""> Bonus : $1.35 </font>
            </div>
        </div>
    ","null","","","","","","","",""
"","","","","","html-keyboard-response","203","196106","0.0-6.29-3.29","60abeb39f19c987b605c5524","65576f040411c2a4be0341a4","65576f2efd957729ff3f41d2","87","./stimuli//pack_shapes_diff/cat_1/diff_5/ex_1_5_2.png","arrowright","response","ArrowLeft","2","1","5","test","false",""
"","","","","","html-keyboard-response","204","196614","0.0-6.29-4.29","60abeb39f19c987b605c5524","65576f040411c2a4be0341a4","65576f2efd957729ff3f41d2","507","<p> <font color=""red"" size=""5vw""> Wrong category! </font> </p>","arrowleft","feedback","","","","","","","1.35"
"","","","","","html-keyboard-response","205","196883","0.0-6.30-0.30","60abeb39f19c987b605c5524","65576f040411c2a4be0341a4","65576f2efd957729ff3f41d2","268","
            
        <div style=""text-align: center; position: fixed; top: 5vh; left: 40vw;"">
            <div style=""margin:0 auto; width: 20vw; top: 8vh; font-size: 2vw""> 
            <font color=""green""> Bonus : $1.35 </font>
            </div>
        </div>
    
            <div> Please press any button to continue to the next trial.</div>
        ","arrowleft","ITI","","","","","","",""
"","","","","","html-keyboard-response","206","197487","0.0-6.30-1.30","60abeb39f19c987b605c5524","65576f040411c2a4be0341a4","65576f2efd957729ff3f41d2","null","
        
        <div style=""text-align: center; position: fixed; top: 5vh; left: 40vw;"">
            <div style=""margin:0 auto; width: 20vw; top: 8vh; font-size: 2vw""> 
            <font color=""green""> Bonus : $1.35 </font>
            </div>
        </div>
    
        <img class=""stim"" src=./stimuli//pack_shapes_diff/cat_2/diff_4/ex_2_4_7.png></img>
    ","null","stimulus","","","","","","",""
"","","","","","html-keyboard-response","207","198490","0.0-6.30-2.30","60abeb39f19c987b605c5524","65576f040411c2a4be0341a4","65576f2efd957729ff3f41d2","null","
        <div style=""text-align: center; position: fixed; top: 5vh; left: 40vw;"">
            <div style=""margin:0 auto; width: 20vw; top: 8vh; font-size: 2vw""> 
            <font color=""green""> Bonus : $1.35 </font>
            </div>
        </div>
    ","null","","","","","","","",""
"","","","","","html-keyboard-response","208","198584","0.0-6.30-3.30","60abeb39f19c987b605c5524","65576f040411c2a4be0341a4","65576f2efd957729ff3f41d2","94","./stimuli//pack_shapes_diff/cat_2/diff_4/ex_2_4_7.png","arrowleft","response","ArrowRight","7","2","4","test","false",""
"","","","","","html-keyboard-response","209","199465","0.0-6.30-4.30","60abeb39f19c987b605c5524","65576f040411c2a4be0341a4","65576f2efd957729ff3f41d2","880","<p> <font color=""red"" size=""5vw""> Wrong category! </font> </p>","arrowright","feedback","","","","","","","1.35"
"","","","","","html-keyboard-response","210","200104","0.0-6.31-0.31","60abeb39f19c987b605c5524","65576f040411c2a4be0341a4","65576f2efd957729ff3f41d2","638","
            
        <div style=""text-align: center; position: fixed; top: 5vh; left: 40vw;"">
            <div style=""margin:0 auto; width: 20vw; top: 8vh; font-size: 2vw""> 
            <font color=""green""> Bonus : $1.35 </font>
            </div>
        </div>
    
            <div> Please press any button to continue to the next trial.</div>
        ","arrowleft","ITI","","","","","","",""
"","","","","","html-keyboard-response","211","200706","0.0-6.31-1.31","60abeb39f19c987b605c5524","65576f040411c2a4be0341a4","65576f2efd957729ff3f41d2","null","
        
        <div style=""text-align: center; position: fixed; top: 5vh; left: 40vw;"">
            <div style=""margin:0 auto; width: 20vw; top: 8vh; font-size: 2vw""> 
            <font color=""green""> Bonus : $1.35 </font>
            </div>
        </div>
    
        <img class=""stim"" src=./stimuli//pack_shapes_diff/cat_1/diff_4/ex_1_4_6.png></img>
    ","null","stimulus","","","","","","",""
"","","","","","html-keyboard-response","212","201707","0.0-6.31-2.31","60abeb39f19c987b605c5524","65576f040411c2a4be0341a4","65576f2efd957729ff3f41d2","null","
        <div style=""text-align: center; position: fixed; top: 5vh; left: 40vw;"">
            <div style=""margin:0 auto; width: 20vw; top: 8vh; font-size: 2vw""> 
            <font color=""green""> Bonus : $1.35 </font>
            </div>
        </div>
    ","null","","","","","","","",""
"","","","","","html-keyboard-response","213","201809","0.0-6.31-3.31","60abeb39f19c987b605c5524","65576f040411c2a4be0341a4","65576f2efd957729ff3f41d2","101","./stimuli//pack_shapes_diff/cat_1/diff_4/ex_1_4_6.png","arrowleft","response","ArrowLeft","6","1","4","test","true",""
"","","","","","html-keyboard-response","214","202281","0.0-6.31-4.31","60abeb39f19c987b605c5524","65576f040411c2a4be0341a4","65576f2efd957729ff3f41d2","471","<p> <font color=""green"" size=""5vw""> Correct category! </font> <br> <br> <font color=""green"" size=""8vw""> + $0.05 </font> </p>","arrowleft","feedback","","","","","","","1.4"
"","","","","","html-keyboard-response","215","202548","0.0-6.32-0.32","60abeb39f19c987b605c5524","65576f040411c2a4be0341a4","65576f2efd957729ff3f41d2","267","
            
        <div style=""text-align: center; position: fixed; top: 5vh; left: 40vw;"">
            <div style=""margin:0 auto; width: 20vw; top: 8vh; font-size: 2vw""> 
            <font color=""green""> Bonus : $1.4 </font>
            </div>
        </div>
    
            <div> Please press any button to continue to the next trial.</div>
        ","arrowleft","ITI","","","","","","",""
"","","","","","html-keyboard-response","216","203162","0.0-6.32-1.32","60abeb39f19c987b605c5524","65576f040411c2a4be0341a4","65576f2efd957729ff3f41d2","null","
        
        <div style=""text-align: center; position: fixed; top: 5vh; left: 40vw;"">
            <div style=""margin:0 auto; width: 20vw; top: 8vh; font-size: 2vw""> 
            <font color=""green""> Bonus : $1.4 </font>
            </div>
        </div>
    
        <img class=""stim"" src=./stimuli//pack_shapes_diff/cat_2/diff_4/ex_2_4_6.png></img>
    ","null","stimulus","","","","","","",""
"","","","","","html-keyboard-response","217","204176","0.0-6.32-2.32","60abeb39f19c987b605c5524","65576f040411c2a4be0341a4","65576f2efd957729ff3f41d2","null","
        <div style=""text-align: center; position: fixed; top: 5vh; left: 40vw;"">
            <div style=""margin:0 auto; width: 20vw; top: 8vh; font-size: 2vw""> 
            <font color=""green""> Bonus : $1.4 </font>
            </div>
        </div>
    ","null","","","","","","","",""
"","","","","","html-keyboard-response","218","204293","0.0-6.32-3.32","60abeb39f19c987b605c5524","65576f040411c2a4be0341a4","65576f2efd957729ff3f41d2","116","./stimuli//pack_shapes_diff/cat_2/diff_4/ex_2_4_6.png","arrowright","response","ArrowRight","6","2","4","test","true",""
"","","","","","html-keyboard-response","219","204928","0.0-6.32-4.32","60abeb39f19c987b605c5524","65576f040411c2a4be0341a4","65576f2efd957729ff3f41d2","634","<p> <font color=""green"" size=""5vw""> Correct category! </font> <br> <br> <font color=""green"" size=""8vw""> + $0.05 </font> </p>","arrowleft","feedback","","","","","","","1.45"
"","","","","","html-keyboard-response","220","205284","0.0-6.33-0.33","60abeb39f19c987b605c5524","65576f040411c2a4be0341a4","65576f2efd957729ff3f41d2","356","
            
        <div style=""text-align: center; position: fixed; top: 5vh; left: 40vw;"">
            <div style=""margin:0 auto; width: 20vw; top: 8vh; font-size: 2vw""> 
            <font color=""green""> Bonus : $1.45 </font>
            </div>
        </div>
    
            <div> Please press any button to continue to the next trial.</div>
        ","arrowleft","ITI","","","","","","",""
"","","","","","html-keyboard-response","221","205895","0.0-6.33-1.33","60abeb39f19c987b605c5524","65576f040411c2a4be0341a4","65576f2efd957729ff3f41d2","null","
        
        <div style=""text-align: center; position: fixed; top: 5vh; left: 40vw;"">
            <div style=""margin:0 auto; width: 20vw; top: 8vh; font-size: 2vw""> 
            <font color=""green""> Bonus : $1.45 </font>
            </div>
        </div>
    
        <img class=""stim"" src=./stimuli//pack_shapes_diff/cat_2/diff_4/ex_2_4_8.png></img>
    ","null","stimulus","","","","","","",""
"","","","","","html-keyboard-response","222","206901","0.0-6.33-2.33","60abeb39f19c987b605c5524","65576f040411c2a4be0341a4","65576f2efd957729ff3f41d2","null","
        <div style=""text-align: center; position: fixed; top: 5vh; left: 40vw;"">
            <div style=""margin:0 auto; width: 20vw; top: 8vh; font-size: 2vw""> 
            <font color=""green""> Bonus : $1.45 </font>
            </div>
        </div>
    ","null","","","","","","","",""
"","","","","","html-keyboard-response","223","207184","0.0-6.33-3.33","60abeb39f19c987b605c5524","65576f040411c2a4be0341a4","65576f2efd957729ff3f41d2","283","./stimuli//pack_shapes_diff/cat_2/diff_4/ex_2_4_8.png","arrowright","response","ArrowRight","8","2","4","test","true",""
"","","","","","html-keyboard-response","224","207665","0.0-6.33-4.33","60abeb39f19c987b605c5524","65576f040411c2a4be0341a4","65576f2efd957729ff3f41d2","480","<p> <font color=""green"" size=""5vw""> Correct category! </font> <br> <br> <font color=""green"" size=""8vw""> + $0.05 </font> </p>","arrowleft","feedback","","","","","","","1.5"
"","","","","","html-keyboard-response","225","208112","0.0-6.34-0.34","60abeb39f19c987b605c5524","65576f040411c2a4be0341a4","65576f2efd957729ff3f41d2","446","
            
        <div style=""text-align: center; position: fixed; top: 5vh; left: 40vw;"">
            <div style=""margin:0 auto; width: 20vw; top: 8vh; font-size: 2vw""> 
            <font color=""green""> Bonus : $1.5 </font>
            </div>
        </div>
    
            <div> Please press any button to continue to the next trial.</div>
        ","arrowleft","ITI","","","","","","",""
"","","","","","html-keyboard-response","226","208722","0.0-6.34-1.34","60abeb39f19c987b605c5524","65576f040411c2a4be0341a4","65576f2efd957729ff3f41d2","null","
        
        <div style=""text-align: center; position: fixed; top: 5vh; left: 40vw;"">
            <div style=""margin:0 auto; width: 20vw; top: 8vh; font-size: 2vw""> 
            <font color=""green""> Bonus : $1.5 </font>
            </div>
        </div>
    
        <img class=""stim"" src=./stimuli//pack_shapes_diff/cat_2/diff_4/ex_2_4_16.png></img>
    ","null","stimulus","","","","","","",""
"","","","","","html-keyboard-response","227","209738","0.0-6.34-2.34","60abeb39f19c987b605c5524","65576f040411c2a4be0341a4","65576f2efd957729ff3f41d2","null","
        <div style=""text-align: center; position: fixed; top: 5vh; left: 40vw;"">
            <div style=""margin:0 auto; width: 20vw; top: 8vh; font-size: 2vw""> 
            <font color=""green""> Bonus : $1.5 </font>
            </div>
        </div>
    ","null","","","","","","","",""
