"success","timeout","failed_images","failed_audio","failed_video","trial_type","trial_index","time_elapsed","internal_node_id","subject_id","study_id","session_id","rt","stimulus","response","task","correct_response","exemplar_ID","category","difficulty","phase","correct","bonus"
"true","false","[]","[]","[]","preload","0","5","0.0-0.0","615bc62f5029b0346f4ece99","65576f040411c2a4be0341a4","65576f7c483ede03e090bdd9","","","","","","","","","","",""
"","","","","","html-keyboard-response","1","1295","0.0-1.0","615bc62f5029b0346f4ece99","65576f040411c2a4be0341a4","65576f7c483ede03e090bdd9","1288","Welcome to the Category Learning experiment! Press any key to continue."," ","welcome","","","","","","",""
"","","","","","html-keyboard-response","2","40008","0.0-2.0","615bc62f5029b0346f4ece99","65576f040411c2a4be0341a4","65576f7c483ede03e090bdd9","38291","
            <p>You will be shown images of black shapes. Some are category A, some are category B.
            <br>You will not know in advance which category a specific shape belongs to.</p>
            <p>After you see an image, you will be asked to guess its category <b>(left arrow for category A, right arrow for category B)</b></p>
            <p>After you choose, the screen will show you whether you were correct or not.</p>
            <p><b>You will receive a bonus payment of $0.05 for each correct answer!</b></p>
            <p> So you can increase your bonus by guessing correctly, and by guessing as quickly as possible so you move on to the next image sooner.</p>
            <p>Press any key to continue.</p>
            "," ","introduction_1","","","","","","",""
"","","","","","html-keyboard-response","3","50931","0.0-3.0","615bc62f5029b0346f4ece99","65576f040411c2a4be0341a4","65576f7c483ede03e090bdd9","10921","
            <p> <b>The first 10 trials are a practice round that will not count towards your bonus payment.</b></p>
            <p> You will be notified when practice finishes and the test begins. </p>
            <p> Press any key to begin the practice round.</p>
            "," ","introduction_2","","","","","","",""
"","","","","","html-keyboard-response","4","54911","0.0-4.0-0.0","615bc62f5029b0346f4ece99","65576f040411c2a4be0341a4","65576f7c483ede03e090bdd9","3979","
            
        <div style=""text-align: center; position: fixed; top: 5vh; left: 40vw;"">
            <div style=""margin:0 auto; width: 20vw; top: 8vh; font-size: 2vw""> 
            <font color=""green""> Bonus : $0 </font>
            </div>
        </div>
    
            <div> Please press any button to continue to the next trial.</div>
        "," ","ITI","","","","","","",""
"","","","","","html-keyboard-response","5","55528","0.0-4.0-1.0","615bc62f5029b0346f4ece99","65576f040411c2a4be0341a4","65576f7c483ede03e090bdd9","null","
        
        <div style=""text-align: center; position: fixed; top: 5vh; left: 40vw;"">
            <div style=""margin:0 auto; width: 20vw; top: 8vh; font-size: 2vw""> 
            <font color=""green""> Bonus : $0 </font>
            </div>
        </div>
    
        <img class=""stim"" src=./stimuli//pack_shapes_diff/cat_1/diff_1/ex_1_1_5.png></img>
    ","null","stimulus","","","","","","",""
"","","","","","html-keyboard-response","6","56532","0.0-4.0-2.0","615bc62f5029b0346f4ece99","65576f040411c2a4be0341a4","65576f7c483ede03e090bdd9","null","
        <div style=""text-align: center; position: fixed; top: 5vh; left: 40vw;"">
            <div style=""margin:0 auto; width: 20vw; top: 8vh; font-size: 2vw""> 
            <font color=""green""> Bonus : $0 </font>
            </div>
        </div>
    ","null","","","","","","","",""
"","","","","","html-keyboard-response","7","57508","0.0-4.0-3.0","615bc62f5029b0346f4ece99","65576f040411c2a4be0341a4","65576f7c483ede03e090bdd9","974","./stimuli//pack_shapes_diff/cat_1/diff_1/ex_1_1_5.png","arrowleft","response","ArrowLeft","5","1","1","train","true",""
"","","","","","html-keyboard-response","8","59025","0.0-4.0-4.0","615bc62f5029b0346f4ece99","65576f040411c2a4be0341a4","65576f7c483ede03e090bdd9","null","<p> <font color=""green"" size=""5vw""> Correct category! </font> </p>","null","feedback","","","","","","","0"
"","","","","","html-keyboard-response","9","60925","0.0-4.0-0.1","615bc62f5029b0346f4ece99","65576f040411c2a4be0341a4","65576f7c483ede03e090bdd9","1899","
            
        <div style=""text-align: center; position: fixed; top: 5vh; left: 40vw;"">
            <div style=""margin:0 auto; width: 20vw; top: 8vh; font-size: 2vw""> 
            <font color=""green""> Bonus : $0 </font>
            </div>
        </div>
    
            <div> Please press any button to continue to the next trial.</div>
        ","arrowleft","ITI","","","","","","",""
"","","","","","html-keyboard-response","10","61533","0.0-4.0-1.1","615bc62f5029b0346f4ece99","65576f040411c2a4be0341a4","65576f7c483ede03e090bdd9","null","
        
        <div style=""text-align: center; position: fixed; top: 5vh; left: 40vw;"">
            <div style=""margin:0 auto; width: 20vw; top: 8vh; font-size: 2vw""> 
            <font color=""green""> Bonus : $0 </font>
            </div>
        </div>
    
        <img class=""stim"" src=./stimuli//pack_shapes_diff/cat_2/diff_1/ex_2_1_12.png></img>
    ","null","stimulus","","","","","","",""
"","","","","","html-keyboard-response","11","62546","0.0-4.0-2.1","615bc62f5029b0346f4ece99","65576f040411c2a4be0341a4","65576f7c483ede03e090bdd9","null","
        <div style=""text-align: center; position: fixed; top: 5vh; left: 40vw;"">
            <div style=""margin:0 auto; width: 20vw; top: 8vh; font-size: 2vw""> 
            <font color=""green""> Bonus : $0 </font>
            </div>
        </div>
    ","null","","","","","","","",""
"","","","","","html-keyboard-response","12","63380","0.0-4.0-3.1","615bc62f5029b0346f4ece99","65576f040411c2a4be0341a4","65576f7c483ede03e090bdd9","833","./stimuli//pack_shapes_diff/cat_2/diff_1/ex_2_1_12.png","arrowleft","response","ArrowRight","12","2","1","train","false",""
"","","","","","html-keyboard-response","13","63448","0.0-4.0-4.1","615bc62f5029b0346f4ece99","65576f040411c2a4be0341a4","65576f7c483ede03e090bdd9","66","<p> <font color=""red"" size=""5vw""> Wrong category! </font> </p>","arrowright","feedback","","","","","","","0"
"","","","","","html-keyboard-response","14","65239","0.0-4.0-0.2","615bc62f5029b0346f4ece99","65576f040411c2a4be0341a4","65576f7c483ede03e090bdd9","1790","
            
        <div style=""text-align: center; position: fixed; top: 5vh; left: 40vw;"">
            <div style=""margin:0 auto; width: 20vw; top: 8vh; font-size: 2vw""> 
            <font color=""green""> Bonus : $0 </font>
            </div>
        </div>
    
            <div> Please press any button to continue to the next trial.</div>
        ","arrowleft","ITI","","","","","","",""
"","","","","","html-keyboard-response","15","65973","0.0-4.0-1.2","615bc62f5029b0346f4ece99","65576f040411c2a4be0341a4","65576f7c483ede03e090bdd9","null","
        
        <div style=""text-align: center; position: fixed; top: 5vh; left: 40vw;"">
            <div style=""margin:0 auto; width: 20vw; top: 8vh; font-size: 2vw""> 
            <font color=""green""> Bonus : $0 </font>
            </div>
        </div>
    
        <img class=""stim"" src=./stimuli//pack_shapes_diff/cat_2/diff_1/ex_2_1_10.png></img>
    ","null","stimulus","","","","","","",""
"","","","","","html-keyboard-response","16","66981","0.0-4.0-2.2","615bc62f5029b0346f4ece99","65576f040411c2a4be0341a4","65576f7c483ede03e090bdd9","null","
        <div style=""text-align: center; position: fixed; top: 5vh; left: 40vw;"">
            <div style=""margin:0 auto; width: 20vw; top: 8vh; font-size: 2vw""> 
            <font color=""green""> Bonus : $0 </font>
            </div>
        </div>
    ","null","","","","","","","",""
"","","","","","html-keyboard-response","17","67440","0.0-4.0-3.2","615bc62f5029b0346f4ece99","65576f040411c2a4be0341a4","65576f7c483ede03e090bdd9","457","./stimuli//pack_shapes_diff/cat_2/diff_1/ex_2_1_10.png","arrowleft","response","ArrowRight","10","2","1","train","false",""
"","","","","","html-keyboard-response","18","68949","0.0-4.0-4.2","615bc62f5029b0346f4ece99","65576f040411c2a4be0341a4","65576f7c483ede03e090bdd9","null","<p> <font color=""red"" size=""5vw""> Wrong category! </font> </p>","null","feedback","","","","","","","0"
"","","","","","html-keyboard-response","19","69432","0.0-4.0-0.3","615bc62f5029b0346f4ece99","65576f040411c2a4be0341a4","65576f7c483ede03e090bdd9","481","
            
        <div style=""text-align: center; position: fixed; top: 5vh; left: 40vw;"">
            <div style=""margin:0 auto; width: 20vw; top: 8vh; font-size: 2vw""> 
            <font color=""green""> Bonus : $0 </font>
            </div>
        </div>
    
            <div> Please press any button to continue to the next trial.</div>
        ","arrowleft","ITI","","","","","","",""
"","","","","","html-keyboard-response","20","70049","0.0-4.0-1.3","615bc62f5029b0346f4ece99","65576f040411c2a4be0341a4","65576f7c483ede03e090bdd9","null","
        
        <div style=""text-align: center; position: fixed; top: 5vh; left: 40vw;"">
            <div style=""margin:0 auto; width: 20vw; top: 8vh; font-size: 2vw""> 
            <font color=""green""> Bonus : $0 </font>
            </div>
        </div>
    
        <img class=""stim"" src=./stimuli//pack_shapes_diff/cat_1/diff_1/ex_1_1_8.png></img>
    ","null","stimulus","","","","","","",""
"","","","","","html-keyboard-response","21","71433","0.0-4.0-2.3","615bc62f5029b0346f4ece99","65576f040411c2a4be0341a4","65576f7c483ede03e090bdd9","null","
        <div style=""text-align: center; position: fixed; top: 5vh; left: 40vw;"">
            <div style=""margin:0 auto; width: 20vw; top: 8vh; font-size: 2vw""> 
            <font color=""green""> Bonus : $0 </font>
            </div>
        </div>
    ","null","","","","","","","",""
"","","","","","html-keyboard-response","22","71890","0.0-4.0-3.3","615bc62f5029b0346f4ece99","65576f040411c2a4be0341a4","65576f7c483ede03e090bdd9","455","./stimuli//pack_shapes_diff/cat_1/diff_1/ex_1_1_8.png","arrowright","response","ArrowLeft","8","1","1","train","false",""
"","","","","","html-keyboard-response","23","73401","0.0-4.0-4.3","615bc62f5029b0346f4ece99","65576f040411c2a4be0341a4","65576f7c483ede03e090bdd9","null","<p> <font color=""red"" size=""5vw""> Wrong category! </font> </p>","null","feedback","","","","","","","0"
"","","","","","html-keyboard-response","24","73590","0.0-4.0-0.4","615bc62f5029b0346f4ece99","65576f040411c2a4be0341a4","65576f7c483ede03e090bdd9","187","
            
        <div style=""text-align: center; position: fixed; top: 5vh; left: 40vw;"">
            <div style=""margin:0 auto; width: 20vw; top: 8vh; font-size: 2vw""> 
            <font color=""green""> Bonus : $0 </font>
            </div>
        </div>
    
            <div> Please press any button to continue to the next trial.</div>
        "," ","ITI","","","","","","",""
"","","","","","html-keyboard-response","25","74200","0.0-4.0-1.4","615bc62f5029b0346f4ece99","65576f040411c2a4be0341a4","65576f7c483ede03e090bdd9","null","
        
        <div style=""text-align: center; position: fixed; top: 5vh; left: 40vw;"">
            <div style=""margin:0 auto; width: 20vw; top: 8vh; font-size: 2vw""> 
            <font color=""green""> Bonus : $0 </font>
            </div>
        </div>
    
        <img class=""stim"" src=./stimuli//pack_shapes_diff/cat_1/diff_2/ex_1_2_15.png></img>
    ","null","stimulus","","","","","","",""
"","","","","","html-keyboard-response","26","75215","0.0-4.0-2.4","615bc62f5029b0346f4ece99","65576f040411c2a4be0341a4","65576f7c483ede03e090bdd9","null","
        <div style=""text-align: center; position: fixed; top: 5vh; left: 40vw;"">
            <div style=""margin:0 auto; width: 20vw; top: 8vh; font-size: 2vw""> 
            <font color=""green""> Bonus : $0 </font>
            </div>
        </div>
    ","null","","","","","","","",""
"","","","","","html-keyboard-response","27","75532","0.0-4.0-3.4","615bc62f5029b0346f4ece99","65576f040411c2a4be0341a4","65576f7c483ede03e090bdd9","316","./stimuli//pack_shapes_diff/cat_1/diff_2/ex_1_2_15.png","arrowleft","response","ArrowLeft","15","1","2","train","true",""
"","","","","","html-keyboard-response","28","77040","0.0-4.0-4.4","615bc62f5029b0346f4ece99","65576f040411c2a4be0341a4","65576f7c483ede03e090bdd9","null","<p> <font color=""green"" size=""5vw""> Correct category! </font> </p>","null","feedback","","","","","","","0"
"","","","","","html-keyboard-response","29","78188","0.0-4.0-0.5","615bc62f5029b0346f4ece99","65576f040411c2a4be0341a4","65576f7c483ede03e090bdd9","1146","
            
        <div style=""text-align: center; position: fixed; top: 5vh; left: 40vw;"">
            <div style=""margin:0 auto; width: 20vw; top: 8vh; font-size: 2vw""> 
            <font color=""green""> Bonus : $0 </font>
            </div>
        </div>
    
            <div> Please press any button to continue to the next trial.</div>
        "," ","ITI","","","","","","",""
"","","","","","html-keyboard-response","30","78955","0.0-4.0-1.5","615bc62f5029b0346f4ece99","65576f040411c2a4be0341a4","65576f7c483ede03e090bdd9","null","
        
        <div style=""text-align: center; position: fixed; top: 5vh; left: 40vw;"">
            <div style=""margin:0 auto; width: 20vw; top: 8vh; font-size: 2vw""> 
            <font color=""green""> Bonus : $0 </font>
            </div>
        </div>
    
        <img class=""stim"" src=./stimuli//pack_shapes_diff/cat_2/diff_1/ex_2_1_8.png></img>
    ","null","stimulus","","","","","","",""
"","","","","","html-keyboard-response","31","79957","0.0-4.0-2.5","615bc62f5029b0346f4ece99","65576f040411c2a4be0341a4","65576f7c483ede03e090bdd9","null","
        <div style=""text-align: center; position: fixed; top: 5vh; left: 40vw;"">
            <div style=""margin:0 auto; width: 20vw; top: 8vh; font-size: 2vw""> 
            <font color=""green""> Bonus : $0 </font>
            </div>
        </div>
    ","null","","","","","","","",""
"","","","","","html-keyboard-response","32","80067","0.0-4.0-3.5","615bc62f5029b0346f4ece99","65576f040411c2a4be0341a4","65576f7c483ede03e090bdd9","109","./stimuli//pack_shapes_diff/cat_2/diff_1/ex_2_1_8.png","arrowleft","response","ArrowRight","8","2","1","train","false",""
"","","","","","html-keyboard-response","33","81573","0.0-4.0-4.5","615bc62f5029b0346f4ece99","65576f040411c2a4be0341a4","65576f7c483ede03e090bdd9","null","<p> <font color=""red"" size=""5vw""> Wrong category! </font> </p>","null","feedback","","","","","","","0"
"","","","","","html-keyboard-response","34","82308","0.0-4.0-0.6","615bc62f5029b0346f4ece99","65576f040411c2a4be0341a4","65576f7c483ede03e090bdd9","734","
            
        <div style=""text-align: center; position: fixed; top: 5vh; left: 40vw;"">
            <div style=""margin:0 auto; width: 20vw; top: 8vh; font-size: 2vw""> 
            <font color=""green""> Bonus : $0 </font>
            </div>
        </div>
    
            <div> Please press any button to continue to the next trial.</div>
        "," ","ITI","","","","","","",""
"","","","","","html-keyboard-response","35","82917","0.0-4.0-1.6","615bc62f5029b0346f4ece99","65576f040411c2a4be0341a4","65576f7c483ede03e090bdd9","null","
        
        <div style=""text-align: center; position: fixed; top: 5vh; left: 40vw;"">
            <div style=""margin:0 auto; width: 20vw; top: 8vh; font-size: 2vw""> 
            <font color=""green""> Bonus : $0 </font>
            </div>
        </div>
    
        <img class=""stim"" src=./stimuli//pack_shapes_diff/cat_1/diff_1/ex_1_1_15.png></img>
    ","null","stimulus","","","","","","",""
"","","","","","html-keyboard-response","36","83922","0.0-4.0-2.6","615bc62f5029b0346f4ece99","65576f040411c2a4be0341a4","65576f7c483ede03e090bdd9","null","
        <div style=""text-align: center; position: fixed; top: 5vh; left: 40vw;"">
            <div style=""margin:0 auto; width: 20vw; top: 8vh; font-size: 2vw""> 
            <font color=""green""> Bonus : $0 </font>
            </div>
        </div>
    ","null","","","","","","","",""
"","","","","","html-keyboard-response","37","85413","0.0-4.0-3.6","615bc62f5029b0346f4ece99","65576f040411c2a4be0341a4","65576f7c483ede03e090bdd9","1489","./stimuli//pack_shapes_diff/cat_1/diff_1/ex_1_1_15.png","arrowleft","response","ArrowLeft","15","1","1","train","true",""
"","","","","","html-keyboard-response","38","86557","0.0-4.0-4.6","615bc62f5029b0346f4ece99","65576f040411c2a4be0341a4","65576f7c483ede03e090bdd9","1143","<p> <font color=""green"" size=""5vw""> Correct category! </font> </p>"," ","feedback","","","","","","","0"
"","","","","","html-keyboard-response","39","89044","0.0-4.0-0.7","615bc62f5029b0346f4ece99","65576f040411c2a4be0341a4","65576f7c483ede03e090bdd9","2486","
            
        <div style=""text-align: center; position: fixed; top: 5vh; left: 40vw;"">
            <div style=""margin:0 auto; width: 20vw; top: 8vh; font-size: 2vw""> 
            <font color=""green""> Bonus : $0 </font>
            </div>
        </div>
    
            <div> Please press any button to continue to the next trial.</div>
        "," ","ITI","","","","","","",""
"","","","","","html-keyboard-response","40","89661","0.0-4.0-1.7","615bc62f5029b0346f4ece99","65576f040411c2a4be0341a4","65576f7c483ede03e090bdd9","null","
        
        <div style=""text-align: center; position: fixed; top: 5vh; left: 40vw;"">
            <div style=""margin:0 auto; width: 20vw; top: 8vh; font-size: 2vw""> 
            <font color=""green""> Bonus : $0 </font>
            </div>
        </div>
    
        <img class=""stim"" src=./stimuli//pack_shapes_diff/cat_1/diff_2/ex_1_2_11.png></img>
    ","null","stimulus","","","","","","",""
"","","","","","html-keyboard-response","41","90669","0.0-4.0-2.7","615bc62f5029b0346f4ece99","65576f040411c2a4be0341a4","65576f7c483ede03e090bdd9","null","
        <div style=""text-align: center; position: fixed; top: 5vh; left: 40vw;"">
            <div style=""margin:0 auto; width: 20vw; top: 8vh; font-size: 2vw""> 
            <font color=""green""> Bonus : $0 </font>
            </div>
        </div>
    ","null","","","","","","","",""
"","","","","","html-keyboard-response","42","92525","0.0-4.0-3.7","615bc62f5029b0346f4ece99","65576f040411c2a4be0341a4","65576f7c483ede03e090bdd9","1853","./stimuli//pack_shapes_diff/cat_1/diff_2/ex_1_2_11.png","arrowright","response","ArrowLeft","11","1","2","train","false",""
"","","","","","html-keyboard-response","43","94035","0.0-4.0-4.7","615bc62f5029b0346f4ece99","65576f040411c2a4be0341a4","65576f7c483ede03e090bdd9","null","<p> <font color=""red"" size=""5vw""> Wrong category! </font> </p>","null","feedback","","","","","","","0"
"","","","","","html-keyboard-response","44","94062","0.0-4.0-0.8","615bc62f5029b0346f4ece99","65576f040411c2a4be0341a4","65576f7c483ede03e090bdd9","25","
            
        <div style=""text-align: center; position: fixed; top: 5vh; left: 40vw;"">
            <div style=""margin:0 auto; width: 20vw; top: 8vh; font-size: 2vw""> 
            <font color=""green""> Bonus : $0 </font>
            </div>
        </div>
    
            <div> Please press any button to continue to the next trial.</div>
        "," ","ITI","","","","","","",""
"","","","","","html-keyboard-response","45","94680","0.0-4.0-1.8","615bc62f5029b0346f4ece99","65576f040411c2a4be0341a4","65576f7c483ede03e090bdd9","null","
        
        <div style=""text-align: center; position: fixed; top: 5vh; left: 40vw;"">
            <div style=""margin:0 auto; width: 20vw; top: 8vh; font-size: 2vw""> 
            <font color=""green""> Bonus : $0 </font>
            </div>
        </div>
    
        <img class=""stim"" src=./stimuli//pack_shapes_diff/cat_2/diff_2/ex_2_2_9.png></img>
    ","null","stimulus","","","","","","",""
"","","","","","html-keyboard-response","46","95689","0.0-4.0-2.8","615bc62f5029b0346f4ece99","65576f040411c2a4be0341a4","65576f7c483ede03e090bdd9","null","
        <div style=""text-align: center; position: fixed; top: 5vh; left: 40vw;"">
            <div style=""margin:0 auto; width: 20vw; top: 8vh; font-size: 2vw""> 
            <font color=""green""> Bonus : $0 </font>
            </div>
        </div>
    ","null","","","","","","","",""
"","","","","","html-keyboard-response","47","97360","0.0-4.0-3.8","615bc62f5029b0346f4ece99","65576f040411c2a4be0341a4","65576f7c483ede03e090bdd9","1669","./stimuli//pack_shapes_diff/cat_2/diff_2/ex_2_2_9.png","arrowleft","response","ArrowRight","9","2","2","train","false",""
"","","","","","html-keyboard-response","48","98538","0.0-4.0-4.8","615bc62f5029b0346f4ece99","65576f040411c2a4be0341a4","65576f7c483ede03e090bdd9","1176","<p> <font color=""red"" size=""5vw""> Wrong category! </font> </p>"," ","feedback","","","","","","","0"
"","","","","","html-keyboard-response","49","100793","0.0-4.0-0.9","615bc62f5029b0346f4ece99","65576f040411c2a4be0341a4","65576f7c483ede03e090bdd9","2254","
            
        <div style=""text-align: center; position: fixed; top: 5vh; left: 40vw;"">
            <div style=""margin:0 auto; width: 20vw; top: 8vh; font-size: 2vw""> 
            <font color=""green""> Bonus : $0 </font>
            </div>
        </div>
    
            <div> Please press any button to continue to the next trial.</div>
        "," ","ITI","","","","","","",""
"","","","","","html-keyboard-response","50","101397","0.0-4.0-1.9","615bc62f5029b0346f4ece99","65576f040411c2a4be0341a4","65576f7c483ede03e090bdd9","null","
        
        <div style=""text-align: center; position: fixed; top: 5vh; left: 40vw;"">
            <div style=""margin:0 auto; width: 20vw; top: 8vh; font-size: 2vw""> 
            <font color=""green""> Bonus : $0 </font>
            </div>
        </div>
    
        <img class=""stim"" src=./stimuli//pack_shapes_diff/cat_2/diff_2/ex_2_2_11.png></img>
    ","null","stimulus","","","","","","",""
"","","","","","html-keyboard-response","51","102412","0.0-4.0-2.9","615bc62f5029b0346f4ece99","65576f040411c2a4be0341a4","65576f7c483ede03e090bdd9","null","
        <div style=""text-align: center; position: fixed; top: 5vh; left: 40vw;"">
            <div style=""margin:0 auto; width: 20vw; top: 8vh; font-size: 2vw""> 
            <font color=""green""> Bonus : $0 </font>
            </div>
        </div>
    ","null","","","","","","","",""
"","","","","","html-keyboard-response","52","103856","0.0-4.0-3.9","615bc62f5029b0346f4ece99","65576f040411c2a4be0341a4","65576f7c483ede03e090bdd9","1443","./stimuli//pack_shapes_diff/cat_2/diff_2/ex_2_2_11.png","arrowleft","response","ArrowRight","11","2","2","train","false",""
"","","","","","html-keyboard-response","53","105374","0.0-4.0-4.9","615bc62f5029b0346f4ece99","65576f040411c2a4be0341a4","65576f7c483ede03e090bdd9","null","<p> <font color=""red"" size=""5vw""> Wrong category! </font> </p>","null","feedback","","","","","","","0"
"","","","","","html-keyboard-response","54","112076","0.0-5.0","615bc62f5029b0346f4ece99","65576f040411c2a4be0341a4","65576f7c483ede03e090bdd9","6619","
            <b> <p> The practice round has finished.</p>
            <b> For the rest of the experiment you will receive a $0.05 bonus for each correct answer!</b>
            <p> Press any key to begin the test. </p>
            "," ","intermission","","","","","","",""
"","","","","","html-keyboard-response","55","113594","0.0-6.0-0.0","615bc62f5029b0346f4ece99","65576f040411c2a4be0341a4","65576f7c483ede03e090bdd9","1517","
            
        <div style=""text-align: center; position: fixed; top: 5vh; left: 40vw;"">
            <div style=""margin:0 auto; width: 20vw; top: 8vh; font-size: 2vw""> 
            <font color=""green""> Bonus : $0 </font>
            </div>
        </div>
    
            <div> Please press any button to continue to the next trial.</div>
        "," ","ITI","","","","","","",""
"","","","","","html-keyboard-response","56","114202","0.0-6.0-1.0","615bc62f5029b0346f4ece99","65576f040411c2a4be0341a4","65576f7c483ede03e090bdd9","null","
        
        <div style=""text-align: center; position: fixed; top: 5vh; left: 40vw;"">
            <div style=""margin:0 auto; width: 20vw; top: 8vh; font-size: 2vw""> 
            <font color=""green""> Bonus : $0 </font>
            </div>
        </div>
    
        <img class=""stim"" src=./stimuli//pack_shapes_diff/cat_1/diff_1/ex_1_1_17.png></img>
    ","null","stimulus","","","","","","",""
"","","","","","html-keyboard-response","57","115211","0.0-6.0-2.0","615bc62f5029b0346f4ece99","65576f040411c2a4be0341a4","65576f7c483ede03e090bdd9","null","
        <div style=""text-align: center; position: fixed; top: 5vh; left: 40vw;"">
            <div style=""margin:0 auto; width: 20vw; top: 8vh; font-size: 2vw""> 
            <font color=""green""> Bonus : $0 </font>
            </div>
        </div>
    ","null","","","","","","","",""
"","","","","","html-keyboard-response","58","117096","0.0-6.0-3.0","615bc62f5029b0346f4ece99","65576f040411c2a4be0341a4","65576f7c483ede03e090bdd9","1882","./stimuli//pack_shapes_diff/cat_1/diff_1/ex_1_1_17.png","arrowleft","response","ArrowLeft","17","1","1","test","true",""
"","","","","","html-keyboard-response","59","118600","0.0-6.0-4.0","615bc62f5029b0346f4ece99","65576f040411c2a4be0341a4","65576f7c483ede03e090bdd9","null","<p> <font color=""green"" size=""5vw""> Correct category! </font> <br> <br> <font color=""green"" size=""8vw""> + $0.05 </font> </p>","null","feedback","","","","","","","0.05"
"","","","","","html-keyboard-response","60","120380","0.0-6.1-0.1","615bc62f5029b0346f4ece99","65576f040411c2a4be0341a4","65576f7c483ede03e090bdd9","1777","
            
        <div style=""text-align: center; position: fixed; top: 5vh; left: 40vw;"">
            <div style=""margin:0 auto; width: 20vw; top: 8vh; font-size: 2vw""> 
            <font color=""green""> Bonus : $0.05 </font>
            </div>
        </div>
    
            <div> Please press any button to continue to the next trial.</div>
        "," ","ITI","","","","","","",""
"","","","","","html-keyboard-response","61","120987","0.0-6.1-1.1","615bc62f5029b0346f4ece99","65576f040411c2a4be0341a4","65576f7c483ede03e090bdd9","null","
        
        <div style=""text-align: center; position: fixed; top: 5vh; left: 40vw;"">
            <div style=""margin:0 auto; width: 20vw; top: 8vh; font-size: 2vw""> 
            <font color=""green""> Bonus : $0.05 </font>
            </div>
        </div>
    
        <img class=""stim"" src=./stimuli//pack_shapes_diff/cat_1/diff_1/ex_1_1_16.png></img>
    ","null","stimulus","","","","","","",""
"","","","","","html-keyboard-response","62","121994","0.0-6.1-2.1","615bc62f5029b0346f4ece99","65576f040411c2a4be0341a4","65576f7c483ede03e090bdd9","null","
        <div style=""text-align: center; position: fixed; top: 5vh; left: 40vw;"">
            <div style=""margin:0 auto; width: 20vw; top: 8vh; font-size: 2vw""> 
            <font color=""green""> Bonus : $0.05 </font>
            </div>
        </div>
    ","null","","","","","","","",""
"","","","","","html-keyboard-response","63","122492","0.0-6.1-3.1","615bc62f5029b0346f4ece99","65576f040411c2a4be0341a4","65576f7c483ede03e090bdd9","495","./stimuli//pack_shapes_diff/cat_1/diff_1/ex_1_1_16.png","arrowright","response","ArrowLeft","16","1","1","test","false",""
"","","","","","html-keyboard-response","64","124000","0.0-6.1-4.1","615bc62f5029b0346f4ece99","65576f040411c2a4be0341a4","65576f7c483ede03e090bdd9","null","<p> <font color=""red"" size=""5vw""> Wrong category! </font> </p>","null","feedback","","","","","","","0.05"
"","","","","","html-keyboard-response","65","124584","0.0-6.2-0.2","615bc62f5029b0346f4ece99","65576f040411c2a4be0341a4","65576f7c483ede03e090bdd9","582","
            
        <div style=""text-align: center; position: fixed; top: 5vh; left: 40vw;"">
            <div style=""margin:0 auto; width: 20vw; top: 8vh; font-size: 2vw""> 
            <font color=""green""> Bonus : $0.05 </font>
            </div>
        </div>
    
            <div> Please press any button to continue to the next trial.</div>
        "," ","ITI","","","","","","",""
"","","","","","html-keyboard-response","66","125210","0.0-6.2-1.2","615bc62f5029b0346f4ece99","65576f040411c2a4be0341a4","65576f7c483ede03e090bdd9","null","
        
        <div style=""text-align: center; position: fixed; top: 5vh; left: 40vw;"">
            <div style=""margin:0 auto; width: 20vw; top: 8vh; font-size: 2vw""> 
            <font color=""green""> Bonus : $0.05 </font>
            </div>
        </div>
    
        <img class=""stim"" src=./stimuli//pack_shapes_diff/cat_2/diff_1/ex_2_1_1.png></img>
    ","null","stimulus","","","","","","",""
"","","","","","html-keyboard-response","67","126219","0.0-6.2-2.2","615bc62f5029b0346f4ece99","65576f040411c2a4be0341a4","65576f7c483ede03e090bdd9","null","
        <div style=""text-align: center; position: fixed; top: 5vh; left: 40vw;"">
            <div style=""margin:0 auto; width: 20vw; top: 8vh; font-size: 2vw""> 
            <font color=""green""> Bonus : $0.05 </font>
            </div>
        </div>
    ","null","","","","","","","",""
"","","","","","html-keyboard-response","68","126831","0.0-6.2-3.2","615bc62f5029b0346f4ece99","65576f040411c2a4be0341a4","65576f7c483ede03e090bdd9","611","./stimuli//pack_shapes_diff/cat_2/diff_1/ex_2_1_1.png","arrowleft","response","ArrowRight","1","2","1","test","false",""
"","","","","","html-keyboard-response","69","128334","0.0-6.2-4.2","615bc62f5029b0346f4ece99","65576f040411c2a4be0341a4","65576f7c483ede03e090bdd9","null","<p> <font color=""red"" size=""5vw""> Wrong category! </font> </p>","null","feedback","","","","","","","0.05"
"","","","","","html-keyboard-response","70","129092","0.0-6.3-0.3","615bc62f5029b0346f4ece99","65576f040411c2a4be0341a4","65576f7c483ede03e090bdd9","756","
            
        <div style=""text-align: center; position: fixed; top: 5vh; left: 40vw;"">
            <div style=""margin:0 auto; width: 20vw; top: 8vh; font-size: 2vw""> 
            <font color=""green""> Bonus : $0.05 </font>
            </div>
        </div>
    
            <div> Please press any button to continue to the next trial.</div>
        "," ","ITI","","","","","","",""
"","","","","","html-keyboard-response","71","129708","0.0-6.3-1.3","615bc62f5029b0346f4ece99","65576f040411c2a4be0341a4","65576f7c483ede03e090bdd9","null","
        
        <div style=""text-align: center; position: fixed; top: 5vh; left: 40vw;"">
            <div style=""margin:0 auto; width: 20vw; top: 8vh; font-size: 2vw""> 
            <font color=""green""> Bonus : $0.05 </font>
            </div>
        </div>
    
        <img class=""stim"" src=./stimuli//pack_shapes_diff/cat_1/diff_1/ex_1_1_2.png></img>
    ","null","stimulus","","","","","","",""
"","","","","","html-keyboard-response","72","130722","0.0-6.3-2.3","615bc62f5029b0346f4ece99","65576f040411c2a4be0341a4","65576f7c483ede03e090bdd9","null","
        <div style=""text-align: center; position: fixed; top: 5vh; left: 40vw;"">
            <div style=""margin:0 auto; width: 20vw; top: 8vh; font-size: 2vw""> 
            <font color=""green""> Bonus : $0.05 </font>
            </div>
        </div>
    ","null","","","","","","","",""
"","","","","","html-keyboard-response","73","131498","0.0-6.3-3.3","615bc62f5029b0346f4ece99","65576f040411c2a4be0341a4","65576f7c483ede03e090bdd9","775","./stimuli//pack_shapes_diff/cat_1/diff_1/ex_1_1_2.png","arrowleft","response","ArrowLeft","2","1","1","test","true",""
"","","","","","html-keyboard-response","74","133011","0.0-6.3-4.3","615bc62f5029b0346f4ece99","65576f040411c2a4be0341a4","65576f7c483ede03e090bdd9","null","<p> <font color=""green"" size=""5vw""> Correct category! </font> <br> <br> <font color=""green"" size=""8vw""> + $0.05 </font> </p>","null","feedback","","","","","","","0.1"
"","","","","","html-keyboard-response","75","134165","0.0-6.4-0.4","615bc62f5029b0346f4ece99","65576f040411c2a4be0341a4","65576f7c483ede03e090bdd9","1152","
            
        <div style=""text-align: center; position: fixed; top: 5vh; left: 40vw;"">
            <div style=""margin:0 auto; width: 20vw; top: 8vh; font-size: 2vw""> 
            <font color=""green""> Bonus : $0.1 </font>
            </div>
        </div>
    
            <div> Please press any button to continue to the next trial.</div>
        "," ","ITI","","","","","","",""
"","","","","","html-keyboard-response","76","134777","0.0-6.4-1.4","615bc62f5029b0346f4ece99","65576f040411c2a4be0341a4","65576f7c483ede03e090bdd9","null","
        
        <div style=""text-align: center; position: fixed; top: 5vh; left: 40vw;"">
            <div style=""margin:0 auto; width: 20vw; top: 8vh; font-size: 2vw""> 
            <font color=""green""> Bonus : $0.1 </font>
            </div>
        </div>
    
        <img class=""stim"" src=./stimuli//pack_shapes_diff/cat_2/diff_1/ex_2_1_4.png></img>
    ","null","stimulus","","","","","","",""
"","","","","","html-keyboard-response","77","135788","0.0-6.4-2.4","615bc62f5029b0346f4ece99","65576f040411c2a4be0341a4","65576f7c483ede03e090bdd9","null","
        <div style=""text-align: center; position: fixed; top: 5vh; left: 40vw;"">
            <div style=""margin:0 auto; width: 20vw; top: 8vh; font-size: 2vw""> 
            <font color=""green""> Bonus : $0.1 </font>
            </div>
        </div>
    ","null","","","","","","","",""
"","","","","","html-keyboard-response","78","136715","0.0-6.4-3.4","615bc62f5029b0346f4ece99","65576f040411c2a4be0341a4","65576f7c483ede03e090bdd9","925","./stimuli//pack_shapes_diff/cat_2/diff_1/ex_2_1_4.png","arrowleft","response","ArrowRight","4","2","1","test","false",""
"","","","","","html-keyboard-response","79","137950","0.0-6.4-4.4","615bc62f5029b0346f4ece99","65576f040411c2a4be0341a4","65576f7c483ede03e090bdd9","1234","<p> <font color=""red"" size=""5vw""> Wrong category! </font> </p>"," ","feedback","","","","","","","0.1"
"","","","","","html-keyboard-response","80","139798","0.0-6.5-0.5","615bc62f5029b0346f4ece99","65576f040411c2a4be0341a4","65576f7c483ede03e090bdd9","1847","
            
        <div style=""text-align: center; position: fixed; top: 5vh; left: 40vw;"">
            <div style=""margin:0 auto; width: 20vw; top: 8vh; font-size: 2vw""> 
            <font color=""green""> Bonus : $0.1 </font>
            </div>
        </div>
    
            <div> Please press any button to continue to the next trial.</div>
        "," ","ITI","","","","","","",""
"","","","","","html-keyboard-response","81","140405","0.0-6.5-1.5","615bc62f5029b0346f4ece99","65576f040411c2a4be0341a4","65576f7c483ede03e090bdd9","null","
        
        <div style=""text-align: center; position: fixed; top: 5vh; left: 40vw;"">
            <div style=""margin:0 auto; width: 20vw; top: 8vh; font-size: 2vw""> 
            <font color=""green""> Bonus : $0.1 </font>
            </div>
        </div>
    
        <img class=""stim"" src=./stimuli//pack_shapes_diff/cat_1/diff_1/ex_1_1_16.png></img>
    ","null","stimulus","","","","","","",""
"","","","","","html-keyboard-response","82","141416","0.0-6.5-2.5","615bc62f5029b0346f4ece99","65576f040411c2a4be0341a4","65576f7c483ede03e090bdd9","null","
        <div style=""text-align: center; position: fixed; top: 5vh; left: 40vw;"">
            <div style=""margin:0 auto; width: 20vw; top: 8vh; font-size: 2vw""> 
            <font color=""green""> Bonus : $0.1 </font>
            </div>
        </div>
    ","null","","","","","","","",""
"","","","","","html-keyboard-response","83","141761","0.0-6.5-3.5","615bc62f5029b0346f4ece99","65576f040411c2a4be0341a4","65576f7c483ede03e090bdd9","342","./stimuli//pack_shapes_diff/cat_1/diff_1/ex_1_1_16.png","arrowright","response","ArrowLeft","16","1","1","test","false",""
"","","","","","html-keyboard-response","84","142534","0.0-6.5-4.5","615bc62f5029b0346f4ece99","65576f040411c2a4be0341a4","65576f7c483ede03e090bdd9","773","<p> <font color=""red"" size=""5vw""> Wrong category! </font> </p>"," ","feedback","","","","","","","0.1"
"","","","","","html-keyboard-response","85","144259","0.0-6.6-0.6","615bc62f5029b0346f4ece99","65576f040411c2a4be0341a4","65576f7c483ede03e090bdd9","1721","
            
        <div style=""text-align: center; position: fixed; top: 5vh; left: 40vw;"">
            <div style=""margin:0 auto; width: 20vw; top: 8vh; font-size: 2vw""> 
            <font color=""green""> Bonus : $0.1 </font>
            </div>
        </div>
    
            <div> Please press any button to continue to the next trial.</div>
        "," ","ITI","","","","","","",""
"","","","","","html-keyboard-response","86","144864","0.0-6.6-1.6","615bc62f5029b0346f4ece99","65576f040411c2a4be0341a4","65576f7c483ede03e090bdd9","null","
        
        <div style=""text-align: center; position: fixed; top: 5vh; left: 40vw;"">
            <div style=""margin:0 auto; width: 20vw; top: 8vh; font-size: 2vw""> 
            <font color=""green""> Bonus : $0.1 </font>
            </div>
        </div>
    
        <img class=""stim"" src=./stimuli//pack_shapes_diff/cat_1/diff_1/ex_1_1_1.png></img>
    ","null","stimulus","","","","","","",""
"","","","","","html-keyboard-response","87","145875","0.0-6.6-2.6","615bc62f5029b0346f4ece99","65576f040411c2a4be0341a4","65576f7c483ede03e090bdd9","null","
        <div style=""text-align: center; position: fixed; top: 5vh; left: 40vw;"">
            <div style=""margin:0 auto; width: 20vw; top: 8vh; font-size: 2vw""> 
            <font color=""green""> Bonus : $0.1 </font>
            </div>
        </div>
    ","null","","","","","","","",""
"","","","","","html-keyboard-response","88","146426","0.0-6.6-3.6","615bc62f5029b0346f4ece99","65576f040411c2a4be0341a4","65576f7c483ede03e090bdd9","549","./stimuli//pack_shapes_diff/cat_1/diff_1/ex_1_1_1.png","arrowleft","response","ArrowLeft","1","1","1","test","true",""
"","","","","","html-keyboard-response","89","147936","0.0-6.6-4.6","615bc62f5029b0346f4ece99","65576f040411c2a4be0341a4","65576f7c483ede03e090bdd9","null","<p> <font color=""green"" size=""5vw""> Correct category! </font> <br> <br> <font color=""green"" size=""8vw""> + $0.05 </font> </p>","null","feedback","","","","","","","0.15"
"","","","","","html-keyboard-response","90","148845","0.0-6.7-0.7","615bc62f5029b0346f4ece99","65576f040411c2a4be0341a4","65576f7c483ede03e090bdd9","906","
            
        <div style=""text-align: center; position: fixed; top: 5vh; left: 40vw;"">
            <div style=""margin:0 auto; width: 20vw; top: 8vh; font-size: 2vw""> 
            <font color=""green""> Bonus : $0.15 </font>
            </div>
        </div>
    
            <div> Please press any button to continue to the next trial.</div>
        "," ","ITI","","","","","","",""
"","","","","","html-keyboard-response","91","149454","0.0-6.7-1.7","615bc62f5029b0346f4ece99","65576f040411c2a4be0341a4","65576f7c483ede03e090bdd9","null","
        
        <div style=""text-align: center; position: fixed; top: 5vh; left: 40vw;"">
            <div style=""margin:0 auto; width: 20vw; top: 8vh; font-size: 2vw""> 
            <font color=""green""> Bonus : $0.15 </font>
            </div>
        </div>
    
        <img class=""stim"" src=./stimuli//pack_shapes_diff/cat_1/diff_1/ex_1_1_16.png></img>
    ","null","stimulus","","","","","","",""
"","","","","","html-keyboard-response","92","150455","0.0-6.7-2.7","615bc62f5029b0346f4ece99","65576f040411c2a4be0341a4","65576f7c483ede03e090bdd9","null","
        <div style=""text-align: center; position: fixed; top: 5vh; left: 40vw;"">
            <div style=""margin:0 auto; width: 20vw; top: 8vh; font-size: 2vw""> 
            <font color=""green""> Bonus : $0.15 </font>
            </div>
        </div>
    ","null","","","","","","","",""
"","","","","","html-keyboard-response","93","150922","0.0-6.7-3.7","615bc62f5029b0346f4ece99","65576f040411c2a4be0341a4","65576f7c483ede03e090bdd9","466","./stimuli//pack_shapes_diff/cat_1/diff_1/ex_1_1_16.png","arrowleft","response","ArrowLeft","16","1","1","test","true",""
"","","","","","html-keyboard-response","94","152038","0.0-6.7-4.7","615bc62f5029b0346f4ece99","65576f040411c2a4be0341a4","65576f7c483ede03e090bdd9","1114","<p> <font color=""green"" size=""5vw""> Correct category! </font> <br> <br> <font color=""green"" size=""8vw""> + $0.05 </font> </p>"," ","feedback","","","","","","","0.2"
"","","","","","html-keyboard-response","95","152666","0.0-6.8-0.8","615bc62f5029b0346f4ece99","65576f040411c2a4be0341a4","65576f7c483ede03e090bdd9","626","
            
        <div style=""text-align: center; position: fixed; top: 5vh; left: 40vw;"">
            <div style=""margin:0 auto; width: 20vw; top: 8vh; font-size: 2vw""> 
            <font color=""green""> Bonus : $0.2 </font>
            </div>
        </div>
    
            <div> Please press any button to continue to the next trial.</div>
        "," ","ITI","","","","","","",""
"","","","","","html-keyboard-response","96","153278","0.0-6.8-1.8","615bc62f5029b0346f4ece99","65576f040411c2a4be0341a4","65576f7c483ede03e090bdd9","null","
        
        <div style=""text-align: center; position: fixed; top: 5vh; left: 40vw;"">
            <div style=""margin:0 auto; width: 20vw; top: 8vh; font-size: 2vw""> 
            <font color=""green""> Bonus : $0.2 </font>
            </div>
        </div>
    
        <img class=""stim"" src=./stimuli//pack_shapes_diff/cat_2/diff_1/ex_2_1_16.png></img>
    ","null","stimulus","","","","","","",""
"","","","","","html-keyboard-response","97","154291","0.0-6.8-2.8","615bc62f5029b0346f4ece99","65576f040411c2a4be0341a4","65576f7c483ede03e090bdd9","null","
        <div style=""text-align: center; position: fixed; top: 5vh; left: 40vw;"">
            <div style=""margin:0 auto; width: 20vw; top: 8vh; font-size: 2vw""> 
            <font color=""green""> Bonus : $0.2 </font>
            </div>
        </div>
    ","null","","","","","","","",""
"","","","","","html-keyboard-response","98","154997","0.0-6.8-3.8","615bc62f5029b0346f4ece99","65576f040411c2a4be0341a4","65576f7c483ede03e090bdd9","704","./stimuli//pack_shapes_diff/cat_2/diff_1/ex_2_1_16.png","arrowleft","response","ArrowRight","16","2","1","test","false",""
"","","","","","html-keyboard-response","99","155659","0.0-6.8-4.8","615bc62f5029b0346f4ece99","65576f040411c2a4be0341a4","65576f7c483ede03e090bdd9","661","<p> <font color=""red"" size=""5vw""> Wrong category! </font> </p>"," ","feedback","","","","","","","0.2"
"","","","","","html-keyboard-response","100","156755","0.0-6.9-0.9","615bc62f5029b0346f4ece99","65576f040411c2a4be0341a4","65576f7c483ede03e090bdd9","1094","
            
        <div style=""text-align: center; position: fixed; top: 5vh; left: 40vw;"">
            <div style=""margin:0 auto; width: 20vw; top: 8vh; font-size: 2vw""> 
            <font color=""green""> Bonus : $0.2 </font>
            </div>
        </div>
    
            <div> Please press any button to continue to the next trial.</div>
        "," ","ITI","","","","","","",""
"","","","","","html-keyboard-response","101","157374","0.0-6.9-1.9","615bc62f5029b0346f4ece99","65576f040411c2a4be0341a4","65576f7c483ede03e090bdd9","null","
        
        <div style=""text-align: center; position: fixed; top: 5vh; left: 40vw;"">
            <div style=""margin:0 auto; width: 20vw; top: 8vh; font-size: 2vw""> 
            <font color=""green""> Bonus : $0.2 </font>
            </div>
        </div>
    
        <img class=""stim"" src=./stimuli//pack_shapes_diff/cat_2/diff_1/ex_2_1_11.png></img>
    ","null","stimulus","","","","","","",""
"","","","","","html-keyboard-response","102","158377","0.0-6.9-2.9","615bc62f5029b0346f4ece99","65576f040411c2a4be0341a4","65576f7c483ede03e090bdd9","null","
        <div style=""text-align: center; position: fixed; top: 5vh; left: 40vw;"">
            <div style=""margin:0 auto; width: 20vw; top: 8vh; font-size: 2vw""> 
            <font color=""green""> Bonus : $0.2 </font>
            </div>
        </div>
    ","null","","","","","","","",""
"","","","","","html-keyboard-response","103","158855","0.0-6.9-3.9","615bc62f5029b0346f4ece99","65576f040411c2a4be0341a4","65576f7c483ede03e090bdd9","476","./stimuli//pack_shapes_diff/cat_2/diff_1/ex_2_1_11.png","arrowright","response","ArrowRight","11","2","1","test","true",""
"","","","","","html-keyboard-response","104","160115","0.0-6.9-4.9","615bc62f5029b0346f4ece99","65576f040411c2a4be0341a4","65576f7c483ede03e090bdd9","1259","<p> <font color=""green"" size=""5vw""> Correct category! </font> <br> <br> <font color=""green"" size=""8vw""> + $0.05 </font> </p>"," ","feedback","","","","","","","0.25"
"","","","","","html-keyboard-response","105","161652","0.0-6.10-0.10","615bc62f5029b0346f4ece99","65576f040411c2a4be0341a4","65576f7c483ede03e090bdd9","1534","
            
        <div style=""text-align: center; position: fixed; top: 5vh; left: 40vw;"">
            <div style=""margin:0 auto; width: 20vw; top: 8vh; font-size: 2vw""> 
            <font color=""green""> Bonus : $0.25 </font>
            </div>
        </div>
    
            <div> Please press any button to continue to the next trial.</div>
        "," ","ITI","","","","","","",""
"","","","","","html-keyboard-response","106","162269","0.0-6.10-1.10","615bc62f5029b0346f4ece99","65576f040411c2a4be0341a4","65576f7c483ede03e090bdd9","null","
        
        <div style=""text-align: center; position: fixed; top: 5vh; left: 40vw;"">
            <div style=""margin:0 auto; width: 20vw; top: 8vh; font-size: 2vw""> 
            <font color=""green""> Bonus : $0.25 </font>
            </div>
        </div>
    
        <img class=""stim"" src=./stimuli//pack_shapes_diff/cat_1/diff_1/ex_1_1_2.png></img>
    ","null","stimulus","","","","","","",""
"","","","","","html-keyboard-response","107","163283","0.0-6.10-2.10","615bc62f5029b0346f4ece99","65576f040411c2a4be0341a4","65576f7c483ede03e090bdd9","null","
        <div style=""text-align: center; position: fixed; top: 5vh; left: 40vw;"">
            <div style=""margin:0 auto; width: 20vw; top: 8vh; font-size: 2vw""> 
            <font color=""green""> Bonus : $0.25 </font>
            </div>
        </div>
    ","null","","","","","","","",""
"","","","","","html-keyboard-response","108","163421","0.0-6.10-3.10","615bc62f5029b0346f4ece99","65576f040411c2a4be0341a4","65576f7c483ede03e090bdd9","133","./stimuli//pack_shapes_diff/cat_1/diff_1/ex_1_1_2.png","arrowright","response","ArrowLeft","2","1","1","test","false",""
"","","","","","html-keyboard-response","109","164387","0.0-6.10-4.10","615bc62f5029b0346f4ece99","65576f040411c2a4be0341a4","65576f7c483ede03e090bdd9","965","<p> <font color=""red"" size=""5vw""> Wrong category! </font> </p>"," ","feedback","","","","","","","0.25"
"","","","","","html-keyboard-response","110","165233","0.0-6.11-0.11","615bc62f5029b0346f4ece99","65576f040411c2a4be0341a4","65576f7c483ede03e090bdd9","845","
            
        <div style=""text-align: center; position: fixed; top: 5vh; left: 40vw;"">
            <div style=""margin:0 auto; width: 20vw; top: 8vh; font-size: 2vw""> 
            <font color=""green""> Bonus : $0.25 </font>
            </div>
        </div>
    
            <div> Please press any button to continue to the next trial.</div>
        "," ","ITI","","","","","","",""
"","","","","","html-keyboard-response","111","165839","0.0-6.11-1.11","615bc62f5029b0346f4ece99","65576f040411c2a4be0341a4","65576f7c483ede03e090bdd9","null","
        
        <div style=""text-align: center; position: fixed; top: 5vh; left: 40vw;"">
            <div style=""margin:0 auto; width: 20vw; top: 8vh; font-size: 2vw""> 
            <font color=""green""> Bonus : $0.25 </font>
            </div>
        </div>
    
        <img class=""stim"" src=./stimuli//pack_shapes_diff/cat_2/diff_1/ex_2_1_1.png></img>
    ","null","stimulus","","","","","","",""
"","","","","","html-keyboard-response","112","166853","0.0-6.11-2.11","615bc62f5029b0346f4ece99","65576f040411c2a4be0341a4","65576f7c483ede03e090bdd9","null","
        <div style=""text-align: center; position: fixed; top: 5vh; left: 40vw;"">
            <div style=""margin:0 auto; width: 20vw; top: 8vh; font-size: 2vw""> 
            <font color=""green""> Bonus : $0.25 </font>
            </div>
        </div>
    ","null","","","","","","","",""
"","","","","","html-keyboard-response","113","166876","0.0-6.11-3.11","615bc62f5029b0346f4ece99","65576f040411c2a4be0341a4","65576f7c483ede03e090bdd9","21","./stimuli//pack_shapes_diff/cat_2/diff_1/ex_2_1_1.png","arrowleft","response","ArrowRight","1","2","1","test","false",""
"","","","","","html-keyboard-response","114","167659","0.0-6.11-4.11","615bc62f5029b0346f4ece99","65576f040411c2a4be0341a4","65576f7c483ede03e090bdd9","782","<p> <font color=""red"" size=""5vw""> Wrong category! </font> </p>"," ","feedback","","","","","","","0.25"
"","","","","","html-keyboard-response","115","168473","0.0-6.12-0.12","615bc62f5029b0346f4ece99","65576f040411c2a4be0341a4","65576f7c483ede03e090bdd9","812","
            
        <div style=""text-align: center; position: fixed; top: 5vh; left: 40vw;"">
            <div style=""margin:0 auto; width: 20vw; top: 8vh; font-size: 2vw""> 
            <font color=""green""> Bonus : $0.25 </font>
            </div>
        </div>
    
            <div> Please press any button to continue to the next trial.</div>
        "," ","ITI","","","","","","",""
"","","","","","html-keyboard-response","116","169079","0.0-6.12-1.12","615bc62f5029b0346f4ece99","65576f040411c2a4be0341a4","65576f7c483ede03e090bdd9","null","
        
        <div style=""text-align: center; position: fixed; top: 5vh; left: 40vw;"">
            <div style=""margin:0 auto; width: 20vw; top: 8vh; font-size: 2vw""> 
            <font color=""green""> Bonus : $0.25 </font>
            </div>
        </div>
    
        <img class=""stim"" src=./stimuli//pack_shapes_diff/cat_1/diff_1/ex_1_1_7.png></img>
    ","null","stimulus","","","","","","",""
"","","","","","html-keyboard-response","117","170087","0.0-6.12-2.12","615bc62f5029b0346f4ece99","65576f040411c2a4be0341a4","65576f7c483ede03e090bdd9","null","
        <div style=""text-align: center; position: fixed; top: 5vh; left: 40vw;"">
            <div style=""margin:0 auto; width: 20vw; top: 8vh; font-size: 2vw""> 
            <font color=""green""> Bonus : $0.25 </font>
            </div>
        </div>
    ","null","","","","","","","",""
"","","","","","html-keyboard-response","118","170656","0.0-6.12-3.12","615bc62f5029b0346f4ece99","65576f040411c2a4be0341a4","65576f7c483ede03e090bdd9","566","./stimuli//pack_shapes_diff/cat_1/diff_1/ex_1_1_7.png","arrowright","response","ArrowLeft","7","1","1","test","false",""
"","","","","","html-keyboard-response","119","171152","0.0-6.12-4.12","615bc62f5029b0346f4ece99","65576f040411c2a4be0341a4","65576f7c483ede03e090bdd9","494","<p> <font color=""red"" size=""5vw""> Wrong category! </font> </p>","arrowright","feedback","","","","","","","0.25"
"","","","","","html-keyboard-response","120","172175","0.0-6.13-0.13","615bc62f5029b0346f4ece99","65576f040411c2a4be0341a4","65576f7c483ede03e090bdd9","1020","
            
        <div style=""text-align: center; position: fixed; top: 5vh; left: 40vw;"">
            <div style=""margin:0 auto; width: 20vw; top: 8vh; font-size: 2vw""> 
            <font color=""green""> Bonus : $0.25 </font>
            </div>
        </div>
    
            <div> Please press any button to continue to the next trial.</div>
        ","arrowleft","ITI","","","","","","",""
"","","","","","html-keyboard-response","121","172791","0.0-6.13-1.13","615bc62f5029b0346f4ece99","65576f040411c2a4be0341a4","65576f7c483ede03e090bdd9","null","
        
        <div style=""text-align: center; position: fixed; top: 5vh; left: 40vw;"">
            <div style=""margin:0 auto; width: 20vw; top: 8vh; font-size: 2vw""> 
            <font color=""green""> Bonus : $0.25 </font>
            </div>
        </div>
    
        <img class=""stim"" src=./stimuli//pack_shapes_diff/cat_1/diff_1/ex_1_1_9.png></img>
    ","null","stimulus","","","","","","",""
"","","","","","html-keyboard-response","122","173805","0.0-6.13-2.13","615bc62f5029b0346f4ece99","65576f040411c2a4be0341a4","65576f7c483ede03e090bdd9","null","
        <div style=""text-align: center; position: fixed; top: 5vh; left: 40vw;"">
            <div style=""margin:0 auto; width: 20vw; top: 8vh; font-size: 2vw""> 
            <font color=""green""> Bonus : $0.25 </font>
            </div>
        </div>
    ","null","","","","","","","",""
"","","","","","html-keyboard-response","123","174508","0.0-6.13-3.13","615bc62f5029b0346f4ece99","65576f040411c2a4be0341a4","65576f7c483ede03e090bdd9","703","./stimuli//pack_shapes_diff/cat_1/diff_1/ex_1_1_9.png","arrowleft","response","ArrowLeft","9","1","1","test","true",""
"","","","","","html-keyboard-response","124","175612","0.0-6.13-4.13","615bc62f5029b0346f4ece99","65576f040411c2a4be0341a4","65576f7c483ede03e090bdd9","1103","<p> <font color=""green"" size=""5vw""> Correct category! </font> <br> <br> <font color=""green"" size=""8vw""> + $0.05 </font> </p>","arrowleft","feedback","","","","","","","0.3"
"","","","","","html-keyboard-response","125","176245","0.0-6.14-0.14","615bc62f5029b0346f4ece99","65576f040411c2a4be0341a4","65576f7c483ede03e090bdd9","631","
            
        <div style=""text-align: center; position: fixed; top: 5vh; left: 40vw;"">
            <div style=""margin:0 auto; width: 20vw; top: 8vh; font-size: 2vw""> 
            <font color=""green""> Bonus : $0.3 </font>
            </div>
        </div>
    
            <div> Please press any button to continue to the next trial.</div>
        "," ","ITI","","","","","","",""
"","","","","","html-keyboard-response","126","176851","0.0-6.14-1.14","615bc62f5029b0346f4ece99","65576f040411c2a4be0341a4","65576f7c483ede03e090bdd9","null","
        
        <div style=""text-align: center; position: fixed; top: 5vh; left: 40vw;"">
            <div style=""margin:0 auto; width: 20vw; top: 8vh; font-size: 2vw""> 
            <font color=""green""> Bonus : $0.3 </font>
            </div>
        </div>
    
        <img class=""stim"" src=./stimuli//pack_shapes_diff/cat_2/diff_1/ex_2_1_9.png></img>
    ","null","stimulus","","","","","","",""
"","","","","","html-keyboard-response","127","177859","0.0-6.14-2.14","615bc62f5029b0346f4ece99","65576f040411c2a4be0341a4","65576f7c483ede03e090bdd9","null","
        <div style=""text-align: center; position: fixed; top: 5vh; left: 40vw;"">
            <div style=""margin:0 auto; width: 20vw; top: 8vh; font-size: 2vw""> 
            <font color=""green""> Bonus : $0.3 </font>
            </div>
        </div>
    ","null","","","","","","","",""
"","","","","","html-keyboard-response","128","178241","0.0-6.14-3.14","615bc62f5029b0346f4ece99","65576f040411c2a4be0341a4","65576f7c483ede03e090bdd9","380","./stimuli//pack_shapes_diff/cat_2/diff_1/ex_2_1_9.png","arrowright","response","ArrowRight","9","2","1","test","true",""
"","","","","","html-keyboard-response","129","179199","0.0-6.14-4.14","615bc62f5029b0346f4ece99","65576f040411c2a4be0341a4","65576f7c483ede03e090bdd9","957","<p> <font color=""green"" size=""5vw""> Correct category! </font> <br> <br> <font color=""green"" size=""8vw""> + $0.05 </font> </p>"," ","feedback","","","","","","","0.35"
"","","","","","html-keyboard-response","130","180324","0.0-6.15-0.15","615bc62f5029b0346f4ece99","65576f040411c2a4be0341a4","65576f7c483ede03e090bdd9","1123","
            
        <div style=""text-align: center; position: fixed; top: 5vh; left: 40vw;"">
            <div style=""margin:0 auto; width: 20vw; top: 8vh; font-size: 2vw""> 
            <font color=""green""> Bonus : $0.35 </font>
            </div>
        </div>
    
            <div> Please press any button to continue to the next trial.</div>
        "," ","ITI","","","","","","",""
"","","","","","html-keyboard-response","131","180929","0.0-6.15-1.15","615bc62f5029b0346f4ece99","65576f040411c2a4be0341a4","65576f7c483ede03e090bdd9","null","
        
        <div style=""text-align: center; position: fixed; top: 5vh; left: 40vw;"">
            <div style=""margin:0 auto; width: 20vw; top: 8vh; font-size: 2vw""> 
            <font color=""green""> Bonus : $0.35 </font>
            </div>
        </div>
    
        <img class=""stim"" src=./stimuli//pack_shapes_diff/cat_2/diff_1/ex_2_1_1.png></img>
    ","null","stimulus","","","","","","",""
"","","","","","html-keyboard-response","132","181936","0.0-6.15-2.15","615bc62f5029b0346f4ece99","65576f040411c2a4be0341a4","65576f7c483ede03e090bdd9","null","
        <div style=""text-align: center; position: fixed; top: 5vh; left: 40vw;"">
            <div style=""margin:0 auto; width: 20vw; top: 8vh; font-size: 2vw""> 
            <font color=""green""> Bonus : $0.35 </font>
            </div>
        </div>
    ","null","","","","","","","",""
"","","","","","html-keyboard-response","133","182308","0.0-6.15-3.15","615bc62f5029b0346f4ece99","65576f040411c2a4be0341a4","65576f7c483ede03e090bdd9","371","./stimuli//pack_shapes_diff/cat_2/diff_1/ex_2_1_1.png","arrowleft","response","ArrowRight","1","2","1","test","false",""
"","","","","","html-keyboard-response","134","182978","0.0-6.15-4.15","615bc62f5029b0346f4ece99","65576f040411c2a4be0341a4","65576f7c483ede03e090bdd9","669","<p> <font color=""red"" size=""5vw""> Wrong category! </font> </p>"," ","feedback","","","","","","","0.35"
"","","","","","html-keyboard-response","135","183756","0.0-6.16-0.16","615bc62f5029b0346f4ece99","65576f040411c2a4be0341a4","65576f7c483ede03e090bdd9","777","
            
        <div style=""text-align: center; position: fixed; top: 5vh; left: 40vw;"">
            <div style=""margin:0 auto; width: 20vw; top: 8vh; font-size: 2vw""> 
            <font color=""green""> Bonus : $0.35 </font>
            </div>
        </div>
    
            <div> Please press any button to continue to the next trial.</div>
        "," ","ITI","","","","","","",""
"","","","","","html-keyboard-response","136","184358","0.0-6.16-1.16","615bc62f5029b0346f4ece99","65576f040411c2a4be0341a4","65576f7c483ede03e090bdd9","null","
        
        <div style=""text-align: center; position: fixed; top: 5vh; left: 40vw;"">
            <div style=""margin:0 auto; width: 20vw; top: 8vh; font-size: 2vw""> 
            <font color=""green""> Bonus : $0.35 </font>
            </div>
        </div>
    
        <img class=""stim"" src=./stimuli//pack_shapes_diff/cat_2/diff_1/ex_2_1_17.png></img>
    ","null","stimulus","","","","","","",""
"","","","","","html-keyboard-response","137","185364","0.0-6.16-2.16","615bc62f5029b0346f4ece99","65576f040411c2a4be0341a4","65576f7c483ede03e090bdd9","null","
        <div style=""text-align: center; position: fixed; top: 5vh; left: 40vw;"">
            <div style=""margin:0 auto; width: 20vw; top: 8vh; font-size: 2vw""> 
            <font color=""green""> Bonus : $0.35 </font>
            </div>
        </div>
    ","null","","","","","","","",""
"","","","","","html-keyboard-response","138","186069","0.0-6.16-3.16","615bc62f5029b0346f4ece99","65576f040411c2a4be0341a4","65576f7c483ede03e090bdd9","704","./stimuli//pack_shapes_diff/cat_2/diff_1/ex_2_1_17.png","arrowleft","response","ArrowRight","17","2","1","test","false",""
"","","","","","html-keyboard-response","139","186640","0.0-6.16-4.16","615bc62f5029b0346f4ece99","65576f040411c2a4be0341a4","65576f7c483ede03e090bdd9","570","<p> <font color=""red"" size=""5vw""> Wrong category! </font> </p>"," ","feedback","","","","","","","0.35"
"","","","","","html-keyboard-response","140","187102","0.0-6.17-0.17","615bc62f5029b0346f4ece99","65576f040411c2a4be0341a4","65576f7c483ede03e090bdd9","460","
            
        <div style=""text-align: center; position: fixed; top: 5vh; left: 40vw;"">
            <div style=""margin:0 auto; width: 20vw; top: 8vh; font-size: 2vw""> 
            <font color=""green""> Bonus : $0.35 </font>
            </div>
        </div>
    
            <div> Please press any button to continue to the next trial.</div>
        "," ","ITI","","","","","","",""
"","","","","","html-keyboard-response","141","187717","0.0-6.17-1.17","615bc62f5029b0346f4ece99","65576f040411c2a4be0341a4","65576f7c483ede03e090bdd9","null","
        
        <div style=""text-align: center; position: fixed; top: 5vh; left: 40vw;"">
            <div style=""margin:0 auto; width: 20vw; top: 8vh; font-size: 2vw""> 
            <font color=""green""> Bonus : $0.35 </font>
            </div>
        </div>
    
        <img class=""stim"" src=./stimuli//pack_shapes_diff/cat_1/diff_1/ex_1_1_9.png></img>
    ","null","stimulus","","","","","","",""
"","","","","","html-keyboard-response","142","188721","0.0-6.17-2.17","615bc62f5029b0346f4ece99","65576f040411c2a4be0341a4","65576f7c483ede03e090bdd9","null","
        <div style=""text-align: center; position: fixed; top: 5vh; left: 40vw;"">
            <div style=""margin:0 auto; width: 20vw; top: 8vh; font-size: 2vw""> 
            <font color=""green""> Bonus : $0.35 </font>
            </div>
        </div>
    ","null","","","","","","","",""
"","","","","","html-keyboard-response","143","188821","0.0-6.17-3.17","615bc62f5029b0346f4ece99","65576f040411c2a4be0341a4","65576f7c483ede03e090bdd9","99","./stimuli//pack_shapes_diff/cat_1/diff_1/ex_1_1_9.png","arrowleft","response","ArrowLeft","9","1","1","test","true",""
"","","","","","html-keyboard-response","144","190160","0.0-6.17-4.17","615bc62f5029b0346f4ece99","65576f040411c2a4be0341a4","65576f7c483ede03e090bdd9","1338","<p> <font color=""green"" size=""5vw""> Correct category! </font> <br> <br> <font color=""green"" size=""8vw""> + $0.05 </font> </p>"," ","feedback","","","","","","","0.4"
"","","","","","html-keyboard-response","145","191023","0.0-6.18-0.18","615bc62f5029b0346f4ece99","65576f040411c2a4be0341a4","65576f7c483ede03e090bdd9","861","
            
        <div style=""text-align: center; position: fixed; top: 5vh; left: 40vw;"">
            <div style=""margin:0 auto; width: 20vw; top: 8vh; font-size: 2vw""> 
            <font color=""green""> Bonus : $0.4 </font>
            </div>
        </div>
    
            <div> Please press any button to continue to the next trial.</div>
        "," ","ITI","","","","","","",""
"","","","","","html-keyboard-response","146","191635","0.0-6.18-1.18","615bc62f5029b0346f4ece99","65576f040411c2a4be0341a4","65576f7c483ede03e090bdd9","null","
        
        <div style=""text-align: center; position: fixed; top: 5vh; left: 40vw;"">
            <div style=""margin:0 auto; width: 20vw; top: 8vh; font-size: 2vw""> 
            <font color=""green""> Bonus : $0.4 </font>
            </div>
        </div>
    
        <img class=""stim"" src=./stimuli//pack_shapes_diff/cat_2/diff_1/ex_2_1_16.png></img>
    ","null","stimulus","","","","","","",""
"","","","","","html-keyboard-response","147","192641","0.0-6.18-2.18","615bc62f5029b0346f4ece99","65576f040411c2a4be0341a4","65576f7c483ede03e090bdd9","null","
        <div style=""text-align: center; position: fixed; top: 5vh; left: 40vw;"">
            <div style=""margin:0 auto; width: 20vw; top: 8vh; font-size: 2vw""> 
            <font color=""green""> Bonus : $0.4 </font>
            </div>
        </div>
    ","null","","","","","","","",""
"","","","","","html-keyboard-response","148","193143","0.0-6.18-3.18","615bc62f5029b0346f4ece99","65576f040411c2a4be0341a4","65576f7c483ede03e090bdd9","501","./stimuli//pack_shapes_diff/cat_2/diff_1/ex_2_1_16.png","arrowright","response","ArrowRight","16","2","1","test","true",""
"","","","","","html-keyboard-response","149","193902","0.0-6.18-4.18","615bc62f5029b0346f4ece99","65576f040411c2a4be0341a4","65576f7c483ede03e090bdd9","758","<p> <font color=""green"" size=""5vw""> Correct category! </font> <br> <br> <font color=""green"" size=""8vw""> + $0.05 </font> </p>"," ","feedback","","","","","","","0.45"
"","","","","","html-keyboard-response","150","194491","0.0-6.19-0.19","615bc62f5029b0346f4ece99","65576f040411c2a4be0341a4","65576f7c483ede03e090bdd9","587","
            
        <div style=""text-align: center; position: fixed; top: 5vh; left: 40vw;"">
            <div style=""margin:0 auto; width: 20vw; top: 8vh; font-size: 2vw""> 
            <font color=""green""> Bonus : $0.45 </font>
            </div>
        </div>
    
            <div> Please press any button to continue to the next trial.</div>
        "," ","ITI","","","","","","",""
"","","","","","html-keyboard-response","151","195098","0.0-6.19-1.19","615bc62f5029b0346f4ece99","65576f040411c2a4be0341a4","65576f7c483ede03e090bdd9","null","
        
        <div style=""text-align: center; position: fixed; top: 5vh; left: 40vw;"">
            <div style=""margin:0 auto; width: 20vw; top: 8vh; font-size: 2vw""> 
            <font color=""green""> Bonus : $0.45 </font>
            </div>
        </div>
    
        <img class=""stim"" src=./stimuli//pack_shapes_diff/cat_2/diff_1/ex_2_1_16.png></img>
    ","null","stimulus","","","","","","",""
"","","","","","html-keyboard-response","152","196107","0.0-6.19-2.19","615bc62f5029b0346f4ece99","65576f040411c2a4be0341a4","65576f7c483ede03e090bdd9","null","
        <div style=""text-align: center; position: fixed; top: 5vh; left: 40vw;"">
            <div style=""margin:0 auto; width: 20vw; top: 8vh; font-size: 2vw""> 
            <font color=""green""> Bonus : $0.45 </font>
            </div>
        </div>
    ","null","","","","","","","",""
"","","","","","html-keyboard-response","153","196611","0.0-6.19-3.19","615bc62f5029b0346f4ece99","65576f040411c2a4be0341a4","65576f7c483ede03e090bdd9","502","./stimuli//pack_shapes_diff/cat_2/diff_1/ex_2_1_16.png","arrowright","response","ArrowRight","16","2","1","test","true",""
"","","","","","html-keyboard-response","154","197281","0.0-6.19-4.19","615bc62f5029b0346f4ece99","65576f040411c2a4be0341a4","65576f7c483ede03e090bdd9","669","<p> <font color=""green"" size=""5vw""> Correct category! </font> <br> <br> <font color=""green"" size=""8vw""> + $0.05 </font> </p>"," ","feedback","","","","","","","0.5"
"","","","","","html-keyboard-response","155","197890","0.0-6.20-0.20","615bc62f5029b0346f4ece99","65576f040411c2a4be0341a4","65576f7c483ede03e090bdd9","608","
            
        <div style=""text-align: center; position: fixed; top: 5vh; left: 40vw;"">
            <div style=""margin:0 auto; width: 20vw; top: 8vh; font-size: 2vw""> 
            <font color=""green""> Bonus : $0.5 </font>
            </div>
        </div>
    
            <div> Please press any button to continue to the next trial.</div>
        "," ","ITI","","","","","","",""
"","","","","","html-keyboard-response","156","198504","0.0-6.20-1.20","615bc62f5029b0346f4ece99","65576f040411c2a4be0341a4","65576f7c483ede03e090bdd9","null","
        
        <div style=""text-align: center; position: fixed; top: 5vh; left: 40vw;"">
            <div style=""margin:0 auto; width: 20vw; top: 8vh; font-size: 2vw""> 
            <font color=""green""> Bonus : $0.5 </font>
            </div>
        </div>
    
        <img class=""stim"" src=./stimuli//pack_shapes_diff/cat_1/diff_1/ex_1_1_9.png></img>
    ","null","stimulus","","","","","","",""
"","","","","","html-keyboard-response","157","199508","0.0-6.20-2.20","615bc62f5029b0346f4ece99","65576f040411c2a4be0341a4","65576f7c483ede03e090bdd9","null","
        <div style=""text-align: center; position: fixed; top: 5vh; left: 40vw;"">
            <div style=""margin:0 auto; width: 20vw; top: 8vh; font-size: 2vw""> 
            <font color=""green""> Bonus : $0.5 </font>
            </div>
        </div>
    ","null","","","","","","","",""
"","","","","","html-keyboard-response","158","199913","0.0-6.20-3.20","615bc62f5029b0346f4ece99","65576f040411c2a4be0341a4","65576f7c483ede03e090bdd9","404","./stimuli//pack_shapes_diff/cat_1/diff_1/ex_1_1_9.png","arrowleft","response","ArrowLeft","9","1","1","test","true",""
"","","","","","html-keyboard-response","159","200531","0.0-6.20-4.20","615bc62f5029b0346f4ece99","65576f040411c2a4be0341a4","65576f7c483ede03e090bdd9","617","<p> <font color=""green"" size=""5vw""> Correct category! </font> <br> <br> <font color=""green"" size=""8vw""> + $0.05 </font> </p>"," ","feedback","","","","","","","0.55"
"","","","","","html-keyboard-response","160","201014","0.0-6.21-0.21","615bc62f5029b0346f4ece99","65576f040411c2a4be0341a4","65576f7c483ede03e090bdd9","481","
            
        <div style=""text-align: center; position: fixed; top: 5vh; left: 40vw;"">
            <div style=""margin:0 auto; width: 20vw; top: 8vh; font-size: 2vw""> 
            <font color=""green""> Bonus : $0.55 </font>
            </div>
        </div>
    
            <div> Please press any button to continue to the next trial.</div>
        "," ","ITI","","","","","","",""
"","","","","","html-keyboard-response","161","201617","0.0-6.21-1.21","615bc62f5029b0346f4ece99","65576f040411c2a4be0341a4","65576f7c483ede03e090bdd9","null","
        
        <div style=""text-align: center; position: fixed; top: 5vh; left: 40vw;"">
            <div style=""margin:0 auto; width: 20vw; top: 8vh; font-size: 2vw""> 
            <font color=""green""> Bonus : $0.55 </font>
            </div>
        </div>
    
        <img class=""stim"" src=./stimuli//pack_shapes_diff/cat_2/diff_2/ex_2_2_10.png></img>
    ","null","stimulus","","","","","","",""
"","","","","","html-keyboard-response","162","202639","0.0-6.21-2.21","615bc62f5029b0346f4ece99","65576f040411c2a4be0341a4","65576f7c483ede03e090bdd9","null","
        <div style=""text-align: center; position: fixed; top: 5vh; left: 40vw;"">
            <div style=""margin:0 auto; width: 20vw; top: 8vh; font-size: 2vw""> 
            <font color=""green""> Bonus : $0.55 </font>
            </div>
        </div>
    ","null","","","","","","","",""
"","","","","","html-keyboard-response","163","203383","0.0-6.21-3.21","615bc62f5029b0346f4ece99","65576f040411c2a4be0341a4","65576f7c483ede03e090bdd9","743","./stimuli//pack_shapes_diff/cat_2/diff_2/ex_2_2_10.png","arrowleft","response","ArrowRight","10","2","2","test","false",""
"","","","","","html-keyboard-response","164","203967","0.0-6.21-4.21","615bc62f5029b0346f4ece99","65576f040411c2a4be0341a4","65576f7c483ede03e090bdd9","583","<p> <font color=""red"" size=""5vw""> Wrong category! </font> </p>"," ","feedback","","","","","","","0.55"
"","","","","","html-keyboard-response","165","204599","0.0-6.22-0.22","615bc62f5029b0346f4ece99","65576f040411c2a4be0341a4","65576f7c483ede03e090bdd9","630","
            
        <div style=""text-align: center; position: fixed; top: 5vh; left: 40vw;"">
            <div style=""margin:0 auto; width: 20vw; top: 8vh; font-size: 2vw""> 
            <font color=""green""> Bonus : $0.55 </font>
            </div>
        </div>
    
            <div> Please press any button to continue to the next trial.</div>
        "," ","ITI","","","","","","",""
"","","","","","html-keyboard-response","166","205215","0.0-6.22-1.22","615bc62f5029b0346f4ece99","65576f040411c2a4be0341a4","65576f7c483ede03e090bdd9","null","
        
        <div style=""text-align: center; position: fixed; top: 5vh; left: 40vw;"">
            <div style=""margin:0 auto; width: 20vw; top: 8vh; font-size: 2vw""> 
            <font color=""green""> Bonus : $0.55 </font>
            </div>
        </div>
    
        <img class=""stim"" src=./stimuli//pack_shapes_diff/cat_1/diff_2/ex_1_2_17.png></img>
    ","null","stimulus","","","","","","",""
"","","","","","html-keyboard-response","167","206225","0.0-6.22-2.22","615bc62f5029b0346f4ece99","65576f040411c2a4be0341a4","65576f7c483ede03e090bdd9","null","
        <div style=""text-align: center; position: fixed; top: 5vh; left: 40vw;"">
            <div style=""margin:0 auto; width: 20vw; top: 8vh; font-size: 2vw""> 
            <font color=""green""> Bonus : $0.55 </font>
            </div>
        </div>
    ","null","","","","","","","",""
"","","","","","html-keyboard-response","168","207304","0.0-6.22-3.22","615bc62f5029b0346f4ece99","65576f040411c2a4be0341a4","65576f7c483ede03e090bdd9","1078","./stimuli//pack_shapes_diff/cat_1/diff_2/ex_1_2_17.png","arrowleft","response","ArrowLeft","17","1","2","test","true",""
"","","","","","html-keyboard-response","169","207852","0.0-6.22-4.22","615bc62f5029b0346f4ece99","65576f040411c2a4be0341a4","65576f7c483ede03e090bdd9","545","<p> <font color=""green"" size=""5vw""> Correct category! </font> <br> <br> <font color=""green"" size=""8vw""> + $0.05 </font> </p>"," ","feedback","","","","","","","0.6"
"","","","","","html-keyboard-response","170","208833","0.0-6.23-0.23","615bc62f5029b0346f4ece99","65576f040411c2a4be0341a4","65576f7c483ede03e090bdd9","980","
            
        <div style=""text-align: center; position: fixed; top: 5vh; left: 40vw;"">
            <div style=""margin:0 auto; width: 20vw; top: 8vh; font-size: 2vw""> 
            <font color=""green""> Bonus : $0.6 </font>
            </div>
        </div>
    
            <div> Please press any button to continue to the next trial.</div>
        "," ","ITI","","","","","","",""
"","","","","","html-keyboard-response","171","209449","0.0-6.23-1.23","615bc62f5029b0346f4ece99","65576f040411c2a4be0341a4","65576f7c483ede03e090bdd9","null","
        
        <div style=""text-align: center; position: fixed; top: 5vh; left: 40vw;"">
            <div style=""margin:0 auto; width: 20vw; top: 8vh; font-size: 2vw""> 
            <font color=""green""> Bonus : $0.6 </font>
            </div>
        </div>
    
        <img class=""stim"" src=./stimuli//pack_shapes_diff/cat_1/diff_2/ex_1_2_2.png></img>
    ","null","stimulus","","","","","","",""
"","","","","","html-keyboard-response","172","210456","0.0-6.23-2.23","615bc62f5029b0346f4ece99","65576f040411c2a4be0341a4","65576f7c483ede03e090bdd9","null","
        <div style=""text-align: center; position: fixed; top: 5vh; left: 40vw;"">
            <div style=""margin:0 auto; width: 20vw; top: 8vh; font-size: 2vw""> 
            <font color=""green""> Bonus : $0.6 </font>
            </div>
        </div>
    ","null","","","","","","","",""
"","","","","","html-keyboard-response","173","211162","0.0-6.23-3.23","615bc62f5029b0346f4ece99","65576f040411c2a4be0341a4","65576f7c483ede03e090bdd9","702","./stimuli//pack_shapes_diff/cat_1/diff_2/ex_1_2_2.png","arrowleft","response","ArrowLeft","2","1","2","test","true",""
"","","","","","html-keyboard-response","174","211748","0.0-6.23-4.23","615bc62f5029b0346f4ece99","65576f040411c2a4be0341a4","65576f7c483ede03e090bdd9","585","<p> <font color=""green"" size=""5vw""> Correct category! </font> <br> <br> <font color=""green"" size=""8vw""> + $0.05 </font> </p>"," ","feedback","","","","","","","0.65"
"","","","","","html-keyboard-response","175","212855","0.0-6.24-0.24","615bc62f5029b0346f4ece99","65576f040411c2a4be0341a4","65576f7c483ede03e090bdd9","1105","
            
        <div style=""text-align: center; position: fixed; top: 5vh; left: 40vw;"">
            <div style=""margin:0 auto; width: 20vw; top: 8vh; font-size: 2vw""> 
            <font color=""green""> Bonus : $0.65 </font>
            </div>
        </div>
    
            <div> Please press any button to continue to the next trial.</div>
        "," ","ITI","","","","","","",""
"","","","","","html-keyboard-response","176","213470","0.0-6.24-1.24","615bc62f5029b0346f4ece99","65576f040411c2a4be0341a4","65576f7c483ede03e090bdd9","null","
        
        <div style=""text-align: center; position: fixed; top: 5vh; left: 40vw;"">
            <div style=""margin:0 auto; width: 20vw; top: 8vh; font-size: 2vw""> 
            <font color=""green""> Bonus : $0.65 </font>
            </div>
        </div>
    
        <img class=""stim"" src=./stimuli//pack_shapes_diff/cat_2/diff_2/ex_2_2_17.png></img>
    ","null","stimulus","","","","","","",""
"","","","","","html-keyboard-response","177","214478","0.0-6.24-2.24","615bc62f5029b0346f4ece99","65576f040411c2a4be0341a4","65576f7c483ede03e090bdd9","null","
        <div style=""text-align: center; position: fixed; top: 5vh; left: 40vw;"">
            <div style=""margin:0 auto; width: 20vw; top: 8vh; font-size: 2vw""> 
            <font color=""green""> Bonus : $0.65 </font>
            </div>
        </div>
    ","null","","","","","","","",""
"","","","","","html-keyboard-response","178","218487","0.0-6.24-3.24","615bc62f5029b0346f4ece99","65576f040411c2a4be0341a4","65576f7c483ede03e090bdd9","null","./stimuli//pack_shapes_diff/cat_2/diff_2/ex_2_2_17.png","null","response","ArrowRight","17","2","2","test","false",""
"","","","","","html-keyboard-response","179","219990","0.0-6.24-4.24","615bc62f5029b0346f4ece99","65576f040411c2a4be0341a4","65576f7c483ede03e090bdd9","null","<p> <font color=""red"" size=""5vw""> Time out! </font> <br> Please try to respond as quickly as possible. </p>","null","feedback","","","","","","","0.65"
"","","","","","html-keyboard-response","180","230797","0.0-6.25-0.25","615bc62f5029b0346f4ece99","65576f040411c2a4be0341a4","65576f7c483ede03e090bdd9","10805","
            
        <div style=""text-align: center; position: fixed; top: 5vh; left: 40vw;"">
            <div style=""margin:0 auto; width: 20vw; top: 8vh; font-size: 2vw""> 
            <font color=""green""> Bonus : $0.65 </font>
            </div>
        </div>
    
            <div> Please press any button to continue to the next trial.</div>
        "," ","ITI","","","","","","",""
"","","","","","html-keyboard-response","181","231414","0.0-6.25-1.25","615bc62f5029b0346f4ece99","65576f040411c2a4be0341a4","65576f7c483ede03e090bdd9","null","
        
        <div style=""text-align: center; position: fixed; top: 5vh; left: 40vw;"">
            <div style=""margin:0 auto; width: 20vw; top: 8vh; font-size: 2vw""> 
            <font color=""green""> Bonus : $0.65 </font>
            </div>
        </div>
    
        <img class=""stim"" src=./stimuli//pack_shapes_diff/cat_1/diff_2/ex_1_2_16.png></img>
    ","null","stimulus","","","","","","",""
"","","","","","html-keyboard-response","182","232423","0.0-6.25-2.25","615bc62f5029b0346f4ece99","65576f040411c2a4be0341a4","65576f7c483ede03e090bdd9","null","
        <div style=""text-align: center; position: fixed; top: 5vh; left: 40vw;"">
            <div style=""margin:0 auto; width: 20vw; top: 8vh; font-size: 2vw""> 
            <font color=""green""> Bonus : $0.65 </font>
            </div>
        </div>
    ","null","","","","","","","",""
"","","","","","html-keyboard-response","183","232961","0.0-6.25-3.25","615bc62f5029b0346f4ece99","65576f040411c2a4be0341a4","65576f7c483ede03e090bdd9","536","./stimuli//pack_shapes_diff/cat_1/diff_2/ex_1_2_16.png","arrowleft","response","ArrowLeft","16","1","2","test","true",""
"","","","","","html-keyboard-response","184","233830","0.0-6.25-4.25","615bc62f5029b0346f4ece99","65576f040411c2a4be0341a4","65576f7c483ede03e090bdd9","868","<p> <font color=""green"" size=""5vw""> Correct category! </font> <br> <br> <font color=""green"" size=""8vw""> + $0.05 </font> </p>"," ","feedback","","","","","","","0.7"
"","","","","","html-keyboard-response","185","234691","0.0-6.26-0.26","615bc62f5029b0346f4ece99","65576f040411c2a4be0341a4","65576f7c483ede03e090bdd9","860","
            
        <div style=""text-align: center; position: fixed; top: 5vh; left: 40vw;"">
            <div style=""margin:0 auto; width: 20vw; top: 8vh; font-size: 2vw""> 
            <font color=""green""> Bonus : $0.7 </font>
            </div>
        </div>
    
            <div> Please press any button to continue to the next trial.</div>
        ","arrowleft","ITI","","","","","","",""
"","","","","","html-keyboard-response","186","235299","0.0-6.26-1.26","615bc62f5029b0346f4ece99","65576f040411c2a4be0341a4","65576f7c483ede03e090bdd9","null","
        
        <div style=""text-align: center; position: fixed; top: 5vh; left: 40vw;"">
            <div style=""margin:0 auto; width: 20vw; top: 8vh; font-size: 2vw""> 
            <font color=""green""> Bonus : $0.7 </font>
            </div>
        </div>
    
        <img class=""stim"" src=./stimuli//pack_shapes_diff/cat_1/diff_1/ex_1_1_11.png></img>
    ","null","stimulus","","","","","","",""
"","","","","","html-keyboard-response","187","236305","0.0-6.26-2.26","615bc62f5029b0346f4ece99","65576f040411c2a4be0341a4","65576f7c483ede03e090bdd9","null","
        <div style=""text-align: center; position: fixed; top: 5vh; left: 40vw;"">
            <div style=""margin:0 auto; width: 20vw; top: 8vh; font-size: 2vw""> 
            <font color=""green""> Bonus : $0.7 </font>
            </div>
        </div>
    ","null","","","","","","","",""
"","","","","","html-keyboard-response","188","236673","0.0-6.26-3.26","615bc62f5029b0346f4ece99","65576f040411c2a4be0341a4","65576f7c483ede03e090bdd9","366","./stimuli//pack_shapes_diff/cat_1/diff_1/ex_1_1_11.png","arrowleft","response","ArrowLeft","11","1","1","test","true",""
"","","","","","html-keyboard-response","189","237217","0.0-6.26-4.26","615bc62f5029b0346f4ece99","65576f040411c2a4be0341a4","65576f7c483ede03e090bdd9","543","<p> <font color=""green"" size=""5vw""> Correct category! </font> <br> <br> <font color=""green"" size=""8vw""> + $0.05 </font> </p>","arrowleft","feedback","","","","","","","0.75"
"","","","","","html-keyboard-response","190","237776","0.0-6.27-0.27","615bc62f5029b0346f4ece99","65576f040411c2a4be0341a4","65576f7c483ede03e090bdd9","559","
            
        <div style=""text-align: center; position: fixed; top: 5vh; left: 40vw;"">
            <div style=""margin:0 auto; width: 20vw; top: 8vh; font-size: 2vw""> 
            <font color=""green""> Bonus : $0.75 </font>
            </div>
        </div>
    
            <div> Please press any button to continue to the next trial.</div>
        ","arrowleft","ITI","","","","","","",""
"","","","","","html-keyboard-response","191","238386","0.0-6.27-1.27","615bc62f5029b0346f4ece99","65576f040411c2a4be0341a4","65576f7c483ede03e090bdd9","null","
        
        <div style=""text-align: center; position: fixed; top: 5vh; left: 40vw;"">
            <div style=""margin:0 auto; width: 20vw; top: 8vh; font-size: 2vw""> 
            <font color=""green""> Bonus : $0.75 </font>
            </div>
        </div>
    
        <img class=""stim"" src=./stimuli//pack_shapes_diff/cat_1/diff_1/ex_1_1_6.png></img>
    ","null","stimulus","","","","","","",""
"","","","","","html-keyboard-response","192","239390","0.0-6.27-2.27","615bc62f5029b0346f4ece99","65576f040411c2a4be0341a4","65576f7c483ede03e090bdd9","null","
        <div style=""text-align: center; position: fixed; top: 5vh; left: 40vw;"">
            <div style=""margin:0 auto; width: 20vw; top: 8vh; font-size: 2vw""> 
            <font color=""green""> Bonus : $0.75 </font>
            </div>
        </div>
    ","null","","","","","","","",""
"","","","","","html-keyboard-response","193","239871","0.0-6.27-3.27","615bc62f5029b0346f4ece99","65576f040411c2a4be0341a4","65576f7c483ede03e090bdd9","478","./stimuli//pack_shapes_diff/cat_1/diff_1/ex_1_1_6.png","arrowright","response","ArrowLeft","6","1","1","test","false",""
"","","","","","html-keyboard-response","194","240869","0.0-6.27-4.27","615bc62f5029b0346f4ece99","65576f040411c2a4be0341a4","65576f7c483ede03e090bdd9","997","<p> <font color=""red"" size=""5vw""> Wrong category! </font> </p>","arrowleft","feedback","","","","","","","0.75"
"","","","","","html-keyboard-response","195","241647","0.0-6.28-0.28","615bc62f5029b0346f4ece99","65576f040411c2a4be0341a4","65576f7c483ede03e090bdd9","777","
            
        <div style=""text-align: center; position: fixed; top: 5vh; left: 40vw;"">
            <div style=""margin:0 auto; width: 20vw; top: 8vh; font-size: 2vw""> 
            <font color=""green""> Bonus : $0.75 </font>
            </div>
        </div>
    
            <div> Please press any button to continue to the next trial.</div>
        ","arrowleft","ITI","","","","","","",""
"","","","","","html-keyboard-response","196","242264","0.0-6.28-1.28","615bc62f5029b0346f4ece99","65576f040411c2a4be0341a4","65576f7c483ede03e090bdd9","null","
        
        <div style=""text-align: center; position: fixed; top: 5vh; left: 40vw;"">
            <div style=""margin:0 auto; width: 20vw; top: 8vh; font-size: 2vw""> 
            <font color=""green""> Bonus : $0.75 </font>
            </div>
        </div>
    
        <img class=""stim"" src=./stimuli//pack_shapes_diff/cat_2/diff_1/ex_2_1_2.png></img>
    ","null","stimulus","","","","","","",""
"","","","","","html-keyboard-response","197","243273","0.0-6.28-2.28","615bc62f5029b0346f4ece99","65576f040411c2a4be0341a4","65576f7c483ede03e090bdd9","null","
        <div style=""text-align: center; position: fixed; top: 5vh; left: 40vw;"">
            <div style=""margin:0 auto; width: 20vw; top: 8vh; font-size: 2vw""> 
            <font color=""green""> Bonus : $0.75 </font>
            </div>
        </div>
    ","null","","","","","","","",""
"","","","","","html-keyboard-response","198","243727","0.0-6.28-3.28","615bc62f5029b0346f4ece99","65576f040411c2a4be0341a4","65576f7c483ede03e090bdd9","453","./stimuli//pack_shapes_diff/cat_2/diff_1/ex_2_1_2.png","arrowleft","response","ArrowRight","2","2","1","test","false",""
"","","","","","html-keyboard-response","199","244375","0.0-6.28-4.28","615bc62f5029b0346f4ece99","65576f040411c2a4be0341a4","65576f7c483ede03e090bdd9","646","<p> <font color=""red"" size=""5vw""> Wrong category! </font> </p>","arrowleft","feedback","","","","","","","0.75"
"","","","","","html-keyboard-response","200","244830","0.0-6.29-0.29","615bc62f5029b0346f4ece99","65576f040411c2a4be0341a4","65576f7c483ede03e090bdd9","455","
            
        <div style=""text-align: center; position: fixed; top: 5vh; left: 40vw;"">
            <div style=""margin:0 auto; width: 20vw; top: 8vh; font-size: 2vw""> 
            <font color=""green""> Bonus : $0.75 </font>
            </div>
        </div>
    
            <div> Please press any button to continue to the next trial.</div>
        "," ","ITI","","","","","","",""
"","","","","","html-keyboard-response","201","245434","0.0-6.29-1.29","615bc62f5029b0346f4ece99","65576f040411c2a4be0341a4","65576f7c483ede03e090bdd9","null","
        
        <div style=""text-align: center; position: fixed; top: 5vh; left: 40vw;"">
            <div style=""margin:0 auto; width: 20vw; top: 8vh; font-size: 2vw""> 
            <font color=""green""> Bonus : $0.75 </font>
            </div>
        </div>
    
        <img class=""stim"" src=./stimuli//pack_shapes_diff/cat_1/diff_1/ex_1_1_12.png></img>
    ","null","stimulus","","","","","","",""
"","","","","","html-keyboard-response","202","246439","0.0-6.29-2.29","615bc62f5029b0346f4ece99","65576f040411c2a4be0341a4","65576f7c483ede03e090bdd9","null","
        <div style=""text-align: center; position: fixed; top: 5vh; left: 40vw;"">
            <div style=""margin:0 auto; width: 20vw; top: 8vh; font-size: 2vw""> 
            <font color=""green""> Bonus : $0.75 </font>
            </div>
        </div>
    ","null","","","","","","","",""
"","","","","","html-keyboard-response","203","246582","0.0-6.29-3.29","615bc62f5029b0346f4ece99","65576f040411c2a4be0341a4","65576f7c483ede03e090bdd9","141","./stimuli//pack_shapes_diff/cat_1/diff_1/ex_1_1_12.png","arrowright","response","ArrowLeft","12","1","1","test","false",""
"","","","","","html-keyboard-response","204","247520","0.0-6.29-4.29","615bc62f5029b0346f4ece99","65576f040411c2a4be0341a4","65576f7c483ede03e090bdd9","937","<p> <font color=""red"" size=""5vw""> Wrong category! </font> </p>"," ","feedback","","","","","","","0.75"
"","","","","","html-keyboard-response","205","248125","0.0-6.30-0.30","615bc62f5029b0346f4ece99","65576f040411c2a4be0341a4","65576f7c483ede03e090bdd9","604","
            
        <div style=""text-align: center; position: fixed; top: 5vh; left: 40vw;"">
            <div style=""margin:0 auto; width: 20vw; top: 8vh; font-size: 2vw""> 
            <font color=""green""> Bonus : $0.75 </font>
            </div>
        </div>
    
            <div> Please press any button to continue to the next trial.</div>
        "," ","ITI","","","","","","",""
"","","","","","html-keyboard-response","206","248736","0.0-6.30-1.30","615bc62f5029b0346f4ece99","65576f040411c2a4be0341a4","65576f7c483ede03e090bdd9","null","
        
        <div style=""text-align: center; position: fixed; top: 5vh; left: 40vw;"">
            <div style=""margin:0 auto; width: 20vw; top: 8vh; font-size: 2vw""> 
            <font color=""green""> Bonus : $0.75 </font>
            </div>
        </div>
    
        <img class=""stim"" src=./stimuli//pack_shapes_diff/cat_1/diff_1/ex_1_1_4.png></img>
    ","null","stimulus","","","","","","",""
"","","","","","html-keyboard-response","207","249740","0.0-6.30-2.30","615bc62f5029b0346f4ece99","65576f040411c2a4be0341a4","65576f7c483ede03e090bdd9","null","
        <div style=""text-align: center; position: fixed; top: 5vh; left: 40vw;"">
            <div style=""margin:0 auto; width: 20vw; top: 8vh; font-size: 2vw""> 
            <font color=""green""> Bonus : $0.75 </font>
            </div>
        </div>
    ","null","","","","","","","",""
"","","","","","html-keyboard-response","208","250019","0.0-6.30-3.30","615bc62f5029b0346f4ece99","65576f040411c2a4be0341a4","65576f7c483ede03e090bdd9","278","./stimuli//pack_shapes_diff/cat_1/diff_1/ex_1_1_4.png","arrowleft","response","ArrowLeft","4","1","1","test","true",""
"","","","","","html-keyboard-response","209","250733","0.0-6.30-4.30","615bc62f5029b0346f4ece99","65576f040411c2a4be0341a4","65576f7c483ede03e090bdd9","713","<p> <font color=""green"" size=""5vw""> Correct category! </font> <br> <br> <font color=""green"" size=""8vw""> + $0.05 </font> </p>"," ","feedback","","","","","","","0.8"
"","","","","","html-keyboard-response","210","251547","0.0-6.31-0.31","615bc62f5029b0346f4ece99","65576f040411c2a4be0341a4","65576f7c483ede03e090bdd9","813","
            
        <div style=""text-align: center; position: fixed; top: 5vh; left: 40vw;"">
            <div style=""margin:0 auto; width: 20vw; top: 8vh; font-size: 2vw""> 
            <font color=""green""> Bonus : $0.8 </font>
            </div>
        </div>
    
            <div> Please press any button to continue to the next trial.</div>
        "," ","ITI","","","","","","",""
"","","","","","html-keyboard-response","211","252164","0.0-6.31-1.31","615bc62f5029b0346f4ece99","65576f040411c2a4be0341a4","65576f7c483ede03e090bdd9","null","
        
        <div style=""text-align: center; position: fixed; top: 5vh; left: 40vw;"">
            <div style=""margin:0 auto; width: 20vw; top: 8vh; font-size: 2vw""> 
            <font color=""green""> Bonus : $0.8 </font>
            </div>
        </div>
    
        <img class=""stim"" src=./stimuli//pack_shapes_diff/cat_2/diff_1/ex_2_1_16.png></img>
    ","null","stimulus","","","","","","",""
"","","","","","html-keyboard-response","212","253173","0.0-6.31-2.31","615bc62f5029b0346f4ece99","65576f040411c2a4be0341a4","65576f7c483ede03e090bdd9","null","
        <div style=""text-align: center; position: fixed; top: 5vh; left: 40vw;"">
            <div style=""margin:0 auto; width: 20vw; top: 8vh; font-size: 2vw""> 
            <font color=""green""> Bonus : $0.8 </font>
            </div>
        </div>
    ","null","","","","","","","",""
"","","","","","html-keyboard-response","213","253479","0.0-6.31-3.31","615bc62f5029b0346f4ece99","65576f040411c2a4be0341a4","65576f7c483ede03e090bdd9","305","./stimuli//pack_shapes_diff/cat_2/diff_1/ex_2_1_16.png","arrowright","response","ArrowRight","16","2","1","test","true",""
"","","","","","html-keyboard-response","214","254132","0.0-6.31-4.31","615bc62f5029b0346f4ece99","65576f040411c2a4be0341a4","65576f7c483ede03e090bdd9","651","<p> <font color=""green"" size=""5vw""> Correct category! </font> <br> <br> <font color=""green"" size=""8vw""> + $0.05 </font> </p>"," ","feedback","","","","","","","0.85"
"","","","","","html-keyboard-response","215","254671","0.0-6.32-0.32","615bc62f5029b0346f4ece99","65576f040411c2a4be0341a4","65576f7c483ede03e090bdd9","538","
            
        <div style=""text-align: center; position: fixed; top: 5vh; left: 40vw;"">
            <div style=""margin:0 auto; width: 20vw; top: 8vh; font-size: 2vw""> 
            <font color=""green""> Bonus : $0.85 </font>
            </div>
        </div>
    
            <div> Please press any button to continue to the next trial.</div>
        "," ","ITI","","","","","","",""
"","","","","","html-keyboard-response","216","255281","0.0-6.32-1.32","615bc62f5029b0346f4ece99","65576f040411c2a4be0341a4","65576f7c483ede03e090bdd9","null","
        
        <div style=""text-align: center; position: fixed; top: 5vh; left: 40vw;"">
            <div style=""margin:0 auto; width: 20vw; top: 8vh; font-size: 2vw""> 
            <font color=""green""> Bonus : $0.85 </font>
            </div>
        </div>
    
        <img class=""stim"" src=./stimuli//pack_shapes_diff/cat_1/diff_1/ex_1_1_11.png></img>
    ","null","stimulus","","","","","","",""
"","","","","","html-keyboard-response","217","256289","0.0-6.32-2.32","615bc62f5029b0346f4ece99","65576f040411c2a4be0341a4","65576f7c483ede03e090bdd9","null","
        <div style=""text-align: center; position: fixed; top: 5vh; left: 40vw;"">
            <div style=""margin:0 auto; width: 20vw; top: 8vh; font-size: 2vw""> 
            <font color=""green""> Bonus : $0.85 </font>
            </div>
        </div>
    ","null","","","","","","","",""
"","","","","","html-keyboard-response","218","256576","0.0-6.32-3.32","615bc62f5029b0346f4ece99","65576f040411c2a4be0341a4","65576f7c483ede03e090bdd9","285","./stimuli//pack_shapes_diff/cat_1/diff_1/ex_1_1_11.png","arrowleft","response","ArrowLeft","11","1","1","test","true",""
"","","","","","html-keyboard-response","219","257098","0.0-6.32-4.32","615bc62f5029b0346f4ece99","65576f040411c2a4be0341a4","65576f7c483ede03e090bdd9","521","<p> <font color=""green"" size=""5vw""> Correct category! </font> <br> <br> <font color=""green"" size=""8vw""> + $0.05 </font> </p>"," ","feedback","","","","","","","0.9"
"","","","","","html-keyboard-response","220","257566","0.0-6.33-0.33","615bc62f5029b0346f4ece99","65576f040411c2a4be0341a4","65576f7c483ede03e090bdd9","467","
            
        <div style=""text-align: center; position: fixed; top: 5vh; left: 40vw;"">
            <div style=""margin:0 auto; width: 20vw; top: 8vh; font-size: 2vw""> 
            <font color=""green""> Bonus : $0.9 </font>
            </div>
        </div>
    
            <div> Please press any button to continue to the next trial.</div>
        "," ","ITI","","","","","","",""
"","","","","","html-keyboard-response","221","258184","0.0-6.33-1.33","615bc62f5029b0346f4ece99","65576f040411c2a4be0341a4","65576f7c483ede03e090bdd9","null","
        
        <div style=""text-align: center; position: fixed; top: 5vh; left: 40vw;"">
            <div style=""margin:0 auto; width: 20vw; top: 8vh; font-size: 2vw""> 
            <font color=""green""> Bonus : $0.9 </font>
            </div>
        </div>
    
        <img class=""stim"" src=./stimuli//pack_shapes_diff/cat_1/diff_1/ex_1_1_13.png></img>
    ","null","stimulus","","","","","","",""
"","","","","","html-keyboard-response","222","259190","0.0-6.33-2.33","615bc62f5029b0346f4ece99","65576f040411c2a4be0341a4","65576f7c483ede03e090bdd9","null","
        <div style=""text-align: center; position: fixed; top: 5vh; left: 40vw;"">
            <div style=""margin:0 auto; width: 20vw; top: 8vh; font-size: 2vw""> 
            <font color=""green""> Bonus : $0.9 </font>
            </div>
        </div>
    ","null","","","","","","","",""
"","","","","","html-keyboard-response","223","260261","0.0-6.33-3.33","615bc62f5029b0346f4ece99","65576f040411c2a4be0341a4","65576f7c483ede03e090bdd9","1071","./stimuli//pack_shapes_diff/cat_1/diff_1/ex_1_1_13.png","arrowright","response","ArrowLeft","13","1","1","test","false",""
"","","","","","html-keyboard-response","224","261033","0.0-6.33-4.33","615bc62f5029b0346f4ece99","65576f040411c2a4be0341a4","65576f7c483ede03e090bdd9","771","<p> <font color=""red"" size=""5vw""> Wrong category! </font> </p>"," ","feedback","","","","","","","0.9"
"","","","","","html-keyboard-response","225","261467","0.0-6.34-0.34","615bc62f5029b0346f4ece99","65576f040411c2a4be0341a4","65576f7c483ede03e090bdd9","434","
            
        <div style=""text-align: center; position: fixed; top: 5vh; left: 40vw;"">
            <div style=""margin:0 auto; width: 20vw; top: 8vh; font-size: 2vw""> 
            <font color=""green""> Bonus : $0.9 </font>
            </div>
        </div>
    
            <div> Please press any button to continue to the next trial.</div>
        "," ","ITI","","","","","","",""
"","","","","","html-keyboard-response","226","262087","0.0-6.34-1.34","615bc62f5029b0346f4ece99","65576f040411c2a4be0341a4","65576f7c483ede03e090bdd9","null","
        
        <div style=""text-align: center; position: fixed; top: 5vh; left: 40vw;"">
            <div style=""margin:0 auto; width: 20vw; top: 8vh; font-size: 2vw""> 
            <font color=""green""> Bonus : $0.9 </font>
            </div>
        </div>
    
        <img class=""stim"" src=./stimuli//pack_shapes_diff/cat_2/diff_1/ex_2_1_13.png></img>
    ","null","stimulus","","","","","","",""
"","","","","","html-keyboard-response","227","263092","0.0-6.34-2.34","615bc62f5029b0346f4ece99","65576f040411c2a4be0341a4","65576f7c483ede03e090bdd9","null","
        <div style=""text-align: center; position: fixed; top: 5vh; left: 40vw;"">
            <div style=""margin:0 auto; width: 20vw; top: 8vh; font-size: 2vw""> 
            <font color=""green""> Bonus : $0.9 </font>
            </div>
        </div>
    ","null","","","","","","","",""
"","","","","","html-keyboard-response","228","263582","0.0-6.34-3.34","615bc62f5029b0346f4ece99","65576f040411c2a4be0341a4","65576f7c483ede03e090bdd9","489","./stimuli//pack_shapes_diff/cat_2/diff_1/ex_2_1_13.png","arrowleft","response","ArrowRight","13","2","1","test","false",""
"","","","","","html-keyboard-response","229","264144","0.0-6.34-4.34","615bc62f5029b0346f4ece99","65576f040411c2a4be0341a4","65576f7c483ede03e090bdd9","561","<p> <font color=""red"" size=""5vw""> Wrong category! </font> </p>"," ","feedback","","","","","","","0.9"
"","","","","","html-keyboard-response","230","264474","0.0-6.35-0.35","615bc62f5029b0346f4ece99","65576f040411c2a4be0341a4","65576f7c483ede03e090bdd9","329","
            
        <div style=""text-align: center; position: fixed; top: 5vh; left: 40vw;"">
            <div style=""margin:0 auto; width: 20vw; top: 8vh; font-size: 2vw""> 
            <font color=""green""> Bonus : $0.9 </font>
            </div>
        </div>
    
            <div> Please press any button to continue to the next trial.</div>
        "," ","ITI","","","","","","",""
"","","","","","html-keyboard-response","231","265082","0.0-6.35-1.35","615bc62f5029b0346f4ece99","65576f040411c2a4be0341a4","65576f7c483ede03e090bdd9","null","
        
        <div style=""text-align: center; position: fixed; top: 5vh; left: 40vw;"">
            <div style=""margin:0 auto; width: 20vw; top: 8vh; font-size: 2vw""> 
