"success","timeout","failed_images","failed_audio","failed_video","trial_type","trial_index","time_elapsed","internal_node_id","subject_id","study_id","session_id","rt","stimulus","response","task","correct_response","exemplar_ID","category","difficulty","phase","correct","bonus"
"true","false","[]","[]","[]","preload","0","2","0.0-0.0","5f27d96875d81b0008db8d5f","65576f040411c2a4be0341a4","65576f888cf726c39b1a259a","","","","","","","","","","",""
"","","","","","html-keyboard-response","1","5681","0.0-1.0","5f27d96875d81b0008db8d5f","65576f040411c2a4be0341a4","65576f888cf726c39b1a259a","5679","Welcome to the Category Learning experiment! Press any key to continue."," ","welcome","","","","","","",""
"","","","","","html-keyboard-response","2","26351","0.0-2.0","5f27d96875d81b0008db8d5f","65576f040411c2a4be0341a4","65576f888cf726c39b1a259a","20669","
            <p>You will be shown images of black shapes. Some are category A, some are category B.
            <br>You will not know in advance which category a specific shape belongs to.</p>
            <p>After you see an image, you will be asked to guess its category <b>(left arrow for category A, right arrow for category B)</b></p>
            <p>After you choose, the screen will show you whether you were correct or not.</p>
            <p><b>You will receive a bonus payment of $0.05 for each correct answer!</b></p>
            <p> So you can increase your bonus by guessing correctly, and by guessing as quickly as possible so you move on to the next image sooner.</p>
            <p>Press any key to continue.</p>
            "," ","introduction_1","","","","","","",""
"","","","","","html-keyboard-response","3","29645","0.0-3.0","5f27d96875d81b0008db8d5f","65576f040411c2a4be0341a4","65576f888cf726c39b1a259a","3294","
            <p> <b>The first 10 trials are a practice round that will not count towards your bonus payment.</b></p>
            <p> You will be notified when practice finishes and the test begins. </p>
            <p> Press any key to begin the practice round.</p>
            "," ","introduction_2","","","","","","",""
"","","","","","html-keyboard-response","4","31592","0.0-4.0-0.0","5f27d96875d81b0008db8d5f","65576f040411c2a4be0341a4","65576f888cf726c39b1a259a","1946","
            
        <div style=""text-align: center; position: fixed; top: 5vh; left: 40vw;"">
            <div style=""margin:0 auto; width: 20vw; top: 8vh; font-size: 2vw""> 
            <font color=""green""> Bonus : $0 </font>
            </div>
        </div>
    
            <div> Please press any button to continue to the next trial.</div>
        "," ","ITI","","","","","","",""
"","","","","","html-keyboard-response","5","32202","0.0-4.0-1.0","5f27d96875d81b0008db8d5f","65576f040411c2a4be0341a4","65576f888cf726c39b1a259a","null","
        
        <div style=""text-align: center; position: fixed; top: 5vh; left: 40vw;"">
            <div style=""margin:0 auto; width: 20vw; top: 8vh; font-size: 2vw""> 
            <font color=""green""> Bonus : $0 </font>
            </div>
        </div>
    
        <img class=""stim"" src=./stimuli//pack_shapes_diff/cat_2/diff_2/ex_2_2_2.png></img>
    ","null","stimulus","","","","","","",""
"","","","","","html-keyboard-response","6","33219","0.0-4.0-2.0","5f27d96875d81b0008db8d5f","65576f040411c2a4be0341a4","65576f888cf726c39b1a259a","null","
        <div style=""text-align: center; position: fixed; top: 5vh; left: 40vw;"">
            <div style=""margin:0 auto; width: 20vw; top: 8vh; font-size: 2vw""> 
            <font color=""green""> Bonus : $0 </font>
            </div>
        </div>
    ","null","","","","","","","",""
"","","","","","html-keyboard-response","7","33806","0.0-4.0-3.0","5f27d96875d81b0008db8d5f","65576f040411c2a4be0341a4","65576f888cf726c39b1a259a","585","./stimuli//pack_shapes_diff/cat_2/diff_2/ex_2_2_2.png","arrowleft","response","ArrowRight","2","2","2","train","false",""
"","","","","","html-keyboard-response","8","35320","0.0-4.0-4.0","5f27d96875d81b0008db8d5f","65576f040411c2a4be0341a4","65576f888cf726c39b1a259a","null","<p> <font color=""red"" size=""5vw""> Wrong category! </font> </p>","null","feedback","","","","","","","0"
"","","","","","html-keyboard-response","9","36410","0.0-4.0-0.1","5f27d96875d81b0008db8d5f","65576f040411c2a4be0341a4","65576f888cf726c39b1a259a","1089","
            
        <div style=""text-align: center; position: fixed; top: 5vh; left: 40vw;"">
            <div style=""margin:0 auto; width: 20vw; top: 8vh; font-size: 2vw""> 
            <font color=""green""> Bonus : $0 </font>
            </div>
        </div>
    
            <div> Please press any button to continue to the next trial.</div>
        ","arrowleft","ITI","","","","","","",""
"","","","","","html-keyboard-response","10","37020","0.0-4.0-1.1","5f27d96875d81b0008db8d5f","65576f040411c2a4be0341a4","65576f888cf726c39b1a259a","null","
        
        <div style=""text-align: center; position: fixed; top: 5vh; left: 40vw;"">
            <div style=""margin:0 auto; width: 20vw; top: 8vh; font-size: 2vw""> 
            <font color=""green""> Bonus : $0 </font>
            </div>
        </div>
    
        <img class=""stim"" src=./stimuli//pack_shapes_diff/cat_2/diff_1/ex_2_1_3.png></img>
    ","null","stimulus","","","","","","",""
"","","","","","html-keyboard-response","11","38043","0.0-4.0-2.1","5f27d96875d81b0008db8d5f","65576f040411c2a4be0341a4","65576f888cf726c39b1a259a","null","
        <div style=""text-align: center; position: fixed; top: 5vh; left: 40vw;"">
            <div style=""margin:0 auto; width: 20vw; top: 8vh; font-size: 2vw""> 
            <font color=""green""> Bonus : $0 </font>
            </div>
        </div>
    ","null","","","","","","","",""
"","","","","","html-keyboard-response","12","38244","0.0-4.0-3.1","5f27d96875d81b0008db8d5f","65576f040411c2a4be0341a4","65576f888cf726c39b1a259a","200","./stimuli//pack_shapes_diff/cat_2/diff_1/ex_2_1_3.png","arrowright","response","ArrowRight","3","2","1","train","true",""
"","","","","","html-keyboard-response","13","39745","0.0-4.0-4.1","5f27d96875d81b0008db8d5f","65576f040411c2a4be0341a4","65576f888cf726c39b1a259a","null","<p> <font color=""green"" size=""5vw""> Correct category! </font> </p>","null","feedback","","","","","","","0"
"","","","","","html-keyboard-response","14","41447","0.0-4.0-0.2","5f27d96875d81b0008db8d5f","65576f040411c2a4be0341a4","65576f888cf726c39b1a259a","1702","
            
        <div style=""text-align: center; position: fixed; top: 5vh; left: 40vw;"">
            <div style=""margin:0 auto; width: 20vw; top: 8vh; font-size: 2vw""> 
            <font color=""green""> Bonus : $0 </font>
            </div>
        </div>
    
            <div> Please press any button to continue to the next trial.</div>
        ","arrowleft","ITI","","","","","","",""
"","","","","","html-keyboard-response","15","42056","0.0-4.0-1.2","5f27d96875d81b0008db8d5f","65576f040411c2a4be0341a4","65576f888cf726c39b1a259a","null","
        
        <div style=""text-align: center; position: fixed; top: 5vh; left: 40vw;"">
            <div style=""margin:0 auto; width: 20vw; top: 8vh; font-size: 2vw""> 
            <font color=""green""> Bonus : $0 </font>
            </div>
        </div>
    
        <img class=""stim"" src=./stimuli//pack_shapes_diff/cat_1/diff_2/ex_1_2_11.png></img>
    ","null","stimulus","","","","","","",""
"","","","","","html-keyboard-response","16","43073","0.0-4.0-2.2","5f27d96875d81b0008db8d5f","65576f040411c2a4be0341a4","65576f888cf726c39b1a259a","null","
        <div style=""text-align: center; position: fixed; top: 5vh; left: 40vw;"">
            <div style=""margin:0 auto; width: 20vw; top: 8vh; font-size: 2vw""> 
            <font color=""green""> Bonus : $0 </font>
            </div>
        </div>
    ","null","","","","","","","",""
"","","","","","html-keyboard-response","17","43353","0.0-4.0-3.2","5f27d96875d81b0008db8d5f","65576f040411c2a4be0341a4","65576f888cf726c39b1a259a","279","./stimuli//pack_shapes_diff/cat_1/diff_2/ex_1_2_11.png","arrowleft","response","ArrowLeft","11","1","2","train","true",""
"","","","","","html-keyboard-response","18","44857","0.0-4.0-4.2","5f27d96875d81b0008db8d5f","65576f040411c2a4be0341a4","65576f888cf726c39b1a259a","null","<p> <font color=""green"" size=""5vw""> Correct category! </font> </p>","null","feedback","","","","","","","0"
"","","","","","html-keyboard-response","19","45539","0.0-4.0-0.3","5f27d96875d81b0008db8d5f","65576f040411c2a4be0341a4","65576f888cf726c39b1a259a","681","
            
        <div style=""text-align: center; position: fixed; top: 5vh; left: 40vw;"">
            <div style=""margin:0 auto; width: 20vw; top: 8vh; font-size: 2vw""> 
            <font color=""green""> Bonus : $0 </font>
            </div>
        </div>
    
            <div> Please press any button to continue to the next trial.</div>
        ","arrowleft","ITI","","","","","","",""
"","","","","","html-keyboard-response","20","46141","0.0-4.0-1.3","5f27d96875d81b0008db8d5f","65576f040411c2a4be0341a4","65576f888cf726c39b1a259a","null","
        
        <div style=""text-align: center; position: fixed; top: 5vh; left: 40vw;"">
            <div style=""margin:0 auto; width: 20vw; top: 8vh; font-size: 2vw""> 
            <font color=""green""> Bonus : $0 </font>
            </div>
        </div>
    
        <img class=""stim"" src=./stimuli//pack_shapes_diff/cat_2/diff_1/ex_2_1_6.png></img>
    ","null","stimulus","","","","","","",""
"","","","","","html-keyboard-response","21","47158","0.0-4.0-2.3","5f27d96875d81b0008db8d5f","65576f040411c2a4be0341a4","65576f888cf726c39b1a259a","null","
        <div style=""text-align: center; position: fixed; top: 5vh; left: 40vw;"">
            <div style=""margin:0 auto; width: 20vw; top: 8vh; font-size: 2vw""> 
            <font color=""green""> Bonus : $0 </font>
            </div>
        </div>
    ","null","","","","","","","",""
"","","","","","html-keyboard-response","22","47291","0.0-4.0-3.3","5f27d96875d81b0008db8d5f","65576f040411c2a4be0341a4","65576f888cf726c39b1a259a","133","./stimuli//pack_shapes_diff/cat_2/diff_1/ex_2_1_6.png","arrowright","response","ArrowRight","6","2","1","train","true",""
"","","","","","html-keyboard-response","23","48808","0.0-4.0-4.3","5f27d96875d81b0008db8d5f","65576f040411c2a4be0341a4","65576f888cf726c39b1a259a","null","<p> <font color=""green"" size=""5vw""> Correct category! </font> </p>","null","feedback","","","","","","","0"
"","","","","","html-keyboard-response","24","49428","0.0-4.0-0.4","5f27d96875d81b0008db8d5f","65576f040411c2a4be0341a4","65576f888cf726c39b1a259a","620","
            
        <div style=""text-align: center; position: fixed; top: 5vh; left: 40vw;"">
            <div style=""margin:0 auto; width: 20vw; top: 8vh; font-size: 2vw""> 
            <font color=""green""> Bonus : $0 </font>
            </div>
        </div>
    
            <div> Please press any button to continue to the next trial.</div>
        ","arrowleft","ITI","","","","","","",""
"","","","","","html-keyboard-response","25","50042","0.0-4.0-1.4","5f27d96875d81b0008db8d5f","65576f040411c2a4be0341a4","65576f888cf726c39b1a259a","null","
        
        <div style=""text-align: center; position: fixed; top: 5vh; left: 40vw;"">
            <div style=""margin:0 auto; width: 20vw; top: 8vh; font-size: 2vw""> 
            <font color=""green""> Bonus : $0 </font>
            </div>
        </div>
    
        <img class=""stim"" src=./stimuli//pack_shapes_diff/cat_2/diff_2/ex_2_2_1.png></img>
    ","null","stimulus","","","","","","",""
"","","","","","html-keyboard-response","26","51059","0.0-4.0-2.4","5f27d96875d81b0008db8d5f","65576f040411c2a4be0341a4","65576f888cf726c39b1a259a","null","
        <div style=""text-align: center; position: fixed; top: 5vh; left: 40vw;"">
            <div style=""margin:0 auto; width: 20vw; top: 8vh; font-size: 2vw""> 
            <font color=""green""> Bonus : $0 </font>
            </div>
        </div>
    ","null","","","","","","","",""
"","","","","","html-keyboard-response","27","51218","0.0-4.0-3.4","5f27d96875d81b0008db8d5f","65576f040411c2a4be0341a4","65576f888cf726c39b1a259a","158","./stimuli//pack_shapes_diff/cat_2/diff_2/ex_2_2_1.png","arrowright","response","ArrowRight","1","2","2","train","true",""
"","","","","","html-keyboard-response","28","52727","0.0-4.0-4.4","5f27d96875d81b0008db8d5f","65576f040411c2a4be0341a4","65576f888cf726c39b1a259a","null","<p> <font color=""green"" size=""5vw""> Correct category! </font> </p>","null","feedback","","","","","","","0"
"","","","","","html-keyboard-response","29","53107","0.0-4.0-0.5","5f27d96875d81b0008db8d5f","65576f040411c2a4be0341a4","65576f888cf726c39b1a259a","380","
            
        <div style=""text-align: center; position: fixed; top: 5vh; left: 40vw;"">
            <div style=""margin:0 auto; width: 20vw; top: 8vh; font-size: 2vw""> 
            <font color=""green""> Bonus : $0 </font>
            </div>
        </div>
    
            <div> Please press any button to continue to the next trial.</div>
        ","arrowright","ITI","","","","","","",""
"","","","","","html-keyboard-response","30","53711","0.0-4.0-1.5","5f27d96875d81b0008db8d5f","65576f040411c2a4be0341a4","65576f888cf726c39b1a259a","null","
        
        <div style=""text-align: center; position: fixed; top: 5vh; left: 40vw;"">
            <div style=""margin:0 auto; width: 20vw; top: 8vh; font-size: 2vw""> 
            <font color=""green""> Bonus : $0 </font>
            </div>
        </div>
    
        <img class=""stim"" src=./stimuli//pack_shapes_diff/cat_1/diff_2/ex_1_2_1.png></img>
    ","null","stimulus","","","","","","",""
"","","","","","html-keyboard-response","31","54728","0.0-4.0-2.5","5f27d96875d81b0008db8d5f","65576f040411c2a4be0341a4","65576f888cf726c39b1a259a","null","
        <div style=""text-align: center; position: fixed; top: 5vh; left: 40vw;"">
            <div style=""margin:0 auto; width: 20vw; top: 8vh; font-size: 2vw""> 
            <font color=""green""> Bonus : $0 </font>
            </div>
        </div>
    ","null","","","","","","","",""
"","","","","","html-keyboard-response","32","54948","0.0-4.0-3.5","5f27d96875d81b0008db8d5f","65576f040411c2a4be0341a4","65576f888cf726c39b1a259a","219","./stimuli//pack_shapes_diff/cat_1/diff_2/ex_1_2_1.png","arrowleft","response","ArrowLeft","1","1","2","train","true",""
"","","","","","html-keyboard-response","33","56462","0.0-4.0-4.5","5f27d96875d81b0008db8d5f","65576f040411c2a4be0341a4","65576f888cf726c39b1a259a","null","<p> <font color=""green"" size=""5vw""> Correct category! </font> </p>","null","feedback","","","","","","","0"
"","","","","","html-keyboard-response","34","56996","0.0-4.0-0.6","5f27d96875d81b0008db8d5f","65576f040411c2a4be0341a4","65576f888cf726c39b1a259a","534","
            
        <div style=""text-align: center; position: fixed; top: 5vh; left: 40vw;"">
            <div style=""margin:0 auto; width: 20vw; top: 8vh; font-size: 2vw""> 
            <font color=""green""> Bonus : $0 </font>
            </div>
        </div>
    
            <div> Please press any button to continue to the next trial.</div>
        ","arrowright","ITI","","","","","","",""
"","","","","","html-keyboard-response","35","57612","0.0-4.0-1.6","5f27d96875d81b0008db8d5f","65576f040411c2a4be0341a4","65576f888cf726c39b1a259a","null","
        
        <div style=""text-align: center; position: fixed; top: 5vh; left: 40vw;"">
            <div style=""margin:0 auto; width: 20vw; top: 8vh; font-size: 2vw""> 
            <font color=""green""> Bonus : $0 </font>
            </div>
        </div>
    
        <img class=""stim"" src=./stimuli//pack_shapes_diff/cat_2/diff_1/ex_2_1_5.png></img>
    ","null","stimulus","","","","","","",""
"","","","","","html-keyboard-response","36","58629","0.0-4.0-2.6","5f27d96875d81b0008db8d5f","65576f040411c2a4be0341a4","65576f888cf726c39b1a259a","null","
        <div style=""text-align: center; position: fixed; top: 5vh; left: 40vw;"">
            <div style=""margin:0 auto; width: 20vw; top: 8vh; font-size: 2vw""> 
            <font color=""green""> Bonus : $0 </font>
            </div>
        </div>
    ","null","","","","","","","",""
"","","","","","html-keyboard-response","37","58838","0.0-4.0-3.6","5f27d96875d81b0008db8d5f","65576f040411c2a4be0341a4","65576f888cf726c39b1a259a","208","./stimuli//pack_shapes_diff/cat_2/diff_1/ex_2_1_5.png","arrowright","response","ArrowRight","5","2","1","train","true",""
"","","","","","html-keyboard-response","38","60346","0.0-4.0-4.6","5f27d96875d81b0008db8d5f","65576f040411c2a4be0341a4","65576f888cf726c39b1a259a","null","<p> <font color=""green"" size=""5vw""> Correct category! </font> </p>","null","feedback","","","","","","","0"
"","","","","","html-keyboard-response","39","61036","0.0-4.0-0.7","5f27d96875d81b0008db8d5f","65576f040411c2a4be0341a4","65576f888cf726c39b1a259a","689","
            
        <div style=""text-align: center; position: fixed; top: 5vh; left: 40vw;"">
            <div style=""margin:0 auto; width: 20vw; top: 8vh; font-size: 2vw""> 
            <font color=""green""> Bonus : $0 </font>
            </div>
        </div>
    
            <div> Please press any button to continue to the next trial.</div>
        ","arrowright","ITI","","","","","","",""
"","","","","","html-keyboard-response","40","61647","0.0-4.0-1.7","5f27d96875d81b0008db8d5f","65576f040411c2a4be0341a4","65576f888cf726c39b1a259a","null","
        
        <div style=""text-align: center; position: fixed; top: 5vh; left: 40vw;"">
            <div style=""margin:0 auto; width: 20vw; top: 8vh; font-size: 2vw""> 
            <font color=""green""> Bonus : $0 </font>
            </div>
        </div>
    
        <img class=""stim"" src=./stimuli//pack_shapes_diff/cat_1/diff_1/ex_1_1_14.png></img>
    ","null","stimulus","","","","","","",""
"","","","","","html-keyboard-response","41","62653","0.0-4.0-2.7","5f27d96875d81b0008db8d5f","65576f040411c2a4be0341a4","65576f888cf726c39b1a259a","null","
        <div style=""text-align: center; position: fixed; top: 5vh; left: 40vw;"">
            <div style=""margin:0 auto; width: 20vw; top: 8vh; font-size: 2vw""> 
            <font color=""green""> Bonus : $0 </font>
            </div>
        </div>
    ","null","","","","","","","",""
"","","","","","html-keyboard-response","42","62789","0.0-4.0-3.7","5f27d96875d81b0008db8d5f","65576f040411c2a4be0341a4","65576f888cf726c39b1a259a","136","./stimuli//pack_shapes_diff/cat_1/diff_1/ex_1_1_14.png","arrowleft","response","ArrowLeft","14","1","1","train","true",""
"","","","","","html-keyboard-response","43","64298","0.0-4.0-4.7","5f27d96875d81b0008db8d5f","65576f040411c2a4be0341a4","65576f888cf726c39b1a259a","null","<p> <font color=""green"" size=""5vw""> Correct category! </font> </p>","null","feedback","","","","","","","0"
"","","","","","html-keyboard-response","44","64753","0.0-4.0-0.8","5f27d96875d81b0008db8d5f","65576f040411c2a4be0341a4","65576f888cf726c39b1a259a","454","
            
        <div style=""text-align: center; position: fixed; top: 5vh; left: 40vw;"">
            <div style=""margin:0 auto; width: 20vw; top: 8vh; font-size: 2vw""> 
            <font color=""green""> Bonus : $0 </font>
            </div>
        </div>
    
            <div> Please press any button to continue to the next trial.</div>
        ","arrowleft","ITI","","","","","","",""
"","","","","","html-keyboard-response","45","65354","0.0-4.0-1.8","5f27d96875d81b0008db8d5f","65576f040411c2a4be0341a4","65576f888cf726c39b1a259a","null","
        
        <div style=""text-align: center; position: fixed; top: 5vh; left: 40vw;"">
            <div style=""margin:0 auto; width: 20vw; top: 8vh; font-size: 2vw""> 
            <font color=""green""> Bonus : $0 </font>
            </div>
        </div>
    
        <img class=""stim"" src=./stimuli//pack_shapes_diff/cat_1/diff_1/ex_1_1_9.png></img>
    ","null","stimulus","","","","","","",""
"","","","","","html-keyboard-response","46","66365","0.0-4.0-2.8","5f27d96875d81b0008db8d5f","65576f040411c2a4be0341a4","65576f888cf726c39b1a259a","null","
        <div style=""text-align: center; position: fixed; top: 5vh; left: 40vw;"">
            <div style=""margin:0 auto; width: 20vw; top: 8vh; font-size: 2vw""> 
            <font color=""green""> Bonus : $0 </font>
            </div>
        </div>
    ","null","","","","","","","",""
"","","","","","html-keyboard-response","47","66605","0.0-4.0-3.8","5f27d96875d81b0008db8d5f","65576f040411c2a4be0341a4","65576f888cf726c39b1a259a","239","./stimuli//pack_shapes_diff/cat_1/diff_1/ex_1_1_9.png","arrowleft","response","ArrowLeft","9","1","1","train","true",""
"","","","","","html-keyboard-response","48","68116","0.0-4.0-4.8","5f27d96875d81b0008db8d5f","65576f040411c2a4be0341a4","65576f888cf726c39b1a259a","null","<p> <font color=""green"" size=""5vw""> Correct category! </font> </p>","null","feedback","","","","","","","0"
"","","","","","html-keyboard-response","49","68564","0.0-4.0-0.9","5f27d96875d81b0008db8d5f","65576f040411c2a4be0341a4","65576f888cf726c39b1a259a","448","
            
        <div style=""text-align: center; position: fixed; top: 5vh; left: 40vw;"">
            <div style=""margin:0 auto; width: 20vw; top: 8vh; font-size: 2vw""> 
            <font color=""green""> Bonus : $0 </font>
            </div>
        </div>
    
            <div> Please press any button to continue to the next trial.</div>
        ","arrowleft","ITI","","","","","","",""
"","","","","","html-keyboard-response","50","69166","0.0-4.0-1.9","5f27d96875d81b0008db8d5f","65576f040411c2a4be0341a4","65576f888cf726c39b1a259a","null","
        
        <div style=""text-align: center; position: fixed; top: 5vh; left: 40vw;"">
            <div style=""margin:0 auto; width: 20vw; top: 8vh; font-size: 2vw""> 
            <font color=""green""> Bonus : $0 </font>
            </div>
        </div>
    
        <img class=""stim"" src=./stimuli//pack_shapes_diff/cat_1/diff_1/ex_1_1_15.png></img>
    ","null","stimulus","","","","","","",""
"","","","","","html-keyboard-response","51","70173","0.0-4.0-2.9","5f27d96875d81b0008db8d5f","65576f040411c2a4be0341a4","65576f888cf726c39b1a259a","null","
        <div style=""text-align: center; position: fixed; top: 5vh; left: 40vw;"">
            <div style=""margin:0 auto; width: 20vw; top: 8vh; font-size: 2vw""> 
            <font color=""green""> Bonus : $0 </font>
            </div>
        </div>
    ","null","","","","","","","",""
"","","","","","html-keyboard-response","52","70187","0.0-4.0-3.9","5f27d96875d81b0008db8d5f","65576f040411c2a4be0341a4","65576f888cf726c39b1a259a","13","./stimuli//pack_shapes_diff/cat_1/diff_1/ex_1_1_15.png","arrowleft","response","ArrowLeft","15","1","1","train","true",""
"","","","","","html-keyboard-response","53","71701","0.0-4.0-4.9","5f27d96875d81b0008db8d5f","65576f040411c2a4be0341a4","65576f888cf726c39b1a259a","null","<p> <font color=""green"" size=""5vw""> Correct category! </font> </p>","null","feedback","","","","","","","0"
"","","","","","html-keyboard-response","54","72025","0.0-5.0","5f27d96875d81b0008db8d5f","65576f040411c2a4be0341a4","65576f888cf726c39b1a259a","324","
            <b> <p> The practice round has finished.</p>
            <b> For the rest of the experiment you will receive a $0.05 bonus for each correct answer!</b>
            <p> Press any key to begin the test. </p>
            ","arrowleft","intermission","","","","","","",""
"","","","","","html-keyboard-response","55","73726","0.0-6.0-0.0","5f27d96875d81b0008db8d5f","65576f040411c2a4be0341a4","65576f888cf726c39b1a259a","1700","
            
        <div style=""text-align: center; position: fixed; top: 5vh; left: 40vw;"">
            <div style=""margin:0 auto; width: 20vw; top: 8vh; font-size: 2vw""> 
            <font color=""green""> Bonus : $0 </font>
            </div>
        </div>
    
            <div> Please press any button to continue to the next trial.</div>
        ","arrowleft","ITI","","","","","","",""
"","","","","","html-keyboard-response","56","74335","0.0-6.0-1.0","5f27d96875d81b0008db8d5f","65576f040411c2a4be0341a4","65576f888cf726c39b1a259a","null","
        
        <div style=""text-align: center; position: fixed; top: 5vh; left: 40vw;"">
            <div style=""margin:0 auto; width: 20vw; top: 8vh; font-size: 2vw""> 
            <font color=""green""> Bonus : $0 </font>
            </div>
        </div>
    
        <img class=""stim"" src=./stimuli//pack_shapes_diff/cat_1/diff_1/ex_1_1_16.png></img>
    ","null","stimulus","","","","","","",""
"","","","","","html-keyboard-response","57","75341","0.0-6.0-2.0","5f27d96875d81b0008db8d5f","65576f040411c2a4be0341a4","65576f888cf726c39b1a259a","null","
        <div style=""text-align: center; position: fixed; top: 5vh; left: 40vw;"">
            <div style=""margin:0 auto; width: 20vw; top: 8vh; font-size: 2vw""> 
            <font color=""green""> Bonus : $0 </font>
            </div>
        </div>
    ","null","","","","","","","",""
"","","","","","html-keyboard-response","58","75770","0.0-6.0-3.0","5f27d96875d81b0008db8d5f","65576f040411c2a4be0341a4","65576f888cf726c39b1a259a","429","./stimuli//pack_shapes_diff/cat_1/diff_1/ex_1_1_16.png","arrowright","response","ArrowLeft","16","1","1","test","false",""
"","","","","","html-keyboard-response","59","77286","0.0-6.0-4.0","5f27d96875d81b0008db8d5f","65576f040411c2a4be0341a4","65576f888cf726c39b1a259a","null","<p> <font color=""red"" size=""5vw""> Wrong category! </font> </p>","null","feedback","","","","","","","0"
"","","","","","html-keyboard-response","60","78535","0.0-6.1-0.1","5f27d96875d81b0008db8d5f","65576f040411c2a4be0341a4","65576f888cf726c39b1a259a","1247","
            
        <div style=""text-align: center; position: fixed; top: 5vh; left: 40vw;"">
            <div style=""margin:0 auto; width: 20vw; top: 8vh; font-size: 2vw""> 
            <font color=""green""> Bonus : $0 </font>
            </div>
        </div>
    
            <div> Please press any button to continue to the next trial.</div>
        ","arrowleft","ITI","","","","","","",""
"","","","","","html-keyboard-response","61","79137","0.0-6.1-1.1","5f27d96875d81b0008db8d5f","65576f040411c2a4be0341a4","65576f888cf726c39b1a259a","null","
        
        <div style=""text-align: center; position: fixed; top: 5vh; left: 40vw;"">
            <div style=""margin:0 auto; width: 20vw; top: 8vh; font-size: 2vw""> 
            <font color=""green""> Bonus : $0 </font>
            </div>
        </div>
    
        <img class=""stim"" src=./stimuli//pack_shapes_diff/cat_2/diff_1/ex_2_1_1.png></img>
    ","null","stimulus","","","","","","",""
"","","","","","html-keyboard-response","62","80143","0.0-6.1-2.1","5f27d96875d81b0008db8d5f","65576f040411c2a4be0341a4","65576f888cf726c39b1a259a","null","
        <div style=""text-align: center; position: fixed; top: 5vh; left: 40vw;"">
            <div style=""margin:0 auto; width: 20vw; top: 8vh; font-size: 2vw""> 
            <font color=""green""> Bonus : $0 </font>
            </div>
        </div>
    ","null","","","","","","","",""
"","","","","","html-keyboard-response","63","80240","0.0-6.1-3.1","5f27d96875d81b0008db8d5f","65576f040411c2a4be0341a4","65576f888cf726c39b1a259a","96","./stimuli//pack_shapes_diff/cat_2/diff_1/ex_2_1_1.png","arrowright","response","ArrowRight","1","2","1","test","true",""
"","","","","","html-keyboard-response","64","81754","0.0-6.1-4.1","5f27d96875d81b0008db8d5f","65576f040411c2a4be0341a4","65576f888cf726c39b1a259a","null","<p> <font color=""green"" size=""5vw""> Correct category! </font> <br> <br> <font color=""green"" size=""8vw""> + $0.05 </font> </p>","null","feedback","","","","","","","0.05"
"","","","","","html-keyboard-response","65","82402","0.0-6.2-0.2","5f27d96875d81b0008db8d5f","65576f040411c2a4be0341a4","65576f888cf726c39b1a259a","647","
            
        <div style=""text-align: center; position: fixed; top: 5vh; left: 40vw;"">
            <div style=""margin:0 auto; width: 20vw; top: 8vh; font-size: 2vw""> 
            <font color=""green""> Bonus : $0.05 </font>
            </div>
        </div>
    
            <div> Please press any button to continue to the next trial.</div>
        ","arrowleft","ITI","","","","","","",""
"","","","","","html-keyboard-response","66","83005","0.0-6.2-1.2","5f27d96875d81b0008db8d5f","65576f040411c2a4be0341a4","65576f888cf726c39b1a259a","null","
        
        <div style=""text-align: center; position: fixed; top: 5vh; left: 40vw;"">
            <div style=""margin:0 auto; width: 20vw; top: 8vh; font-size: 2vw""> 
            <font color=""green""> Bonus : $0.05 </font>
            </div>
        </div>
    
        <img class=""stim"" src=./stimuli//pack_shapes_diff/cat_2/diff_1/ex_2_1_9.png></img>
    ","null","stimulus","","","","","","",""
"","","","","","html-keyboard-response","67","84022","0.0-6.2-2.2","5f27d96875d81b0008db8d5f","65576f040411c2a4be0341a4","65576f888cf726c39b1a259a","null","
        <div style=""text-align: center; position: fixed; top: 5vh; left: 40vw;"">
            <div style=""margin:0 auto; width: 20vw; top: 8vh; font-size: 2vw""> 
            <font color=""green""> Bonus : $0.05 </font>
            </div>
        </div>
    ","null","","","","","","","",""
"","","","","","html-keyboard-response","68","84259","0.0-6.2-3.2","5f27d96875d81b0008db8d5f","65576f040411c2a4be0341a4","65576f888cf726c39b1a259a","236","./stimuli//pack_shapes_diff/cat_2/diff_1/ex_2_1_9.png","arrowright","response","ArrowRight","9","2","1","test","true",""
"","","","","","html-keyboard-response","69","85773","0.0-6.2-4.2","5f27d96875d81b0008db8d5f","65576f040411c2a4be0341a4","65576f888cf726c39b1a259a","null","<p> <font color=""green"" size=""5vw""> Correct category! </font> <br> <br> <font color=""green"" size=""8vw""> + $0.05 </font> </p>","null","feedback","","","","","","","0.1"
"","","","","","html-keyboard-response","70","86229","0.0-6.3-0.3","5f27d96875d81b0008db8d5f","65576f040411c2a4be0341a4","65576f888cf726c39b1a259a","456","
            
        <div style=""text-align: center; position: fixed; top: 5vh; left: 40vw;"">
            <div style=""margin:0 auto; width: 20vw; top: 8vh; font-size: 2vw""> 
            <font color=""green""> Bonus : $0.1 </font>
            </div>
        </div>
    
            <div> Please press any button to continue to the next trial.</div>
        ","arrowright","ITI","","","","","","",""
"","","","","","html-keyboard-response","71","86840","0.0-6.3-1.3","5f27d96875d81b0008db8d5f","65576f040411c2a4be0341a4","65576f888cf726c39b1a259a","null","
        
        <div style=""text-align: center; position: fixed; top: 5vh; left: 40vw;"">
            <div style=""margin:0 auto; width: 20vw; top: 8vh; font-size: 2vw""> 
            <font color=""green""> Bonus : $0.1 </font>
            </div>
        </div>
    
        <img class=""stim"" src=./stimuli//pack_shapes_diff/cat_1/diff_1/ex_1_1_4.png></img>
    ","null","stimulus","","","","","","",""
"","","","","","html-keyboard-response","72","87846","0.0-6.3-2.3","5f27d96875d81b0008db8d5f","65576f040411c2a4be0341a4","65576f888cf726c39b1a259a","null","
        <div style=""text-align: center; position: fixed; top: 5vh; left: 40vw;"">
            <div style=""margin:0 auto; width: 20vw; top: 8vh; font-size: 2vw""> 
            <font color=""green""> Bonus : $0.1 </font>
            </div>
        </div>
    ","null","","","","","","","",""
"","","","","","html-keyboard-response","73","88104","0.0-6.3-3.3","5f27d96875d81b0008db8d5f","65576f040411c2a4be0341a4","65576f888cf726c39b1a259a","257","./stimuli//pack_shapes_diff/cat_1/diff_1/ex_1_1_4.png","arrowleft","response","ArrowLeft","4","1","1","test","true",""
"","","","","","html-keyboard-response","74","89608","0.0-6.3-4.3","5f27d96875d81b0008db8d5f","65576f040411c2a4be0341a4","65576f888cf726c39b1a259a","null","<p> <font color=""green"" size=""5vw""> Correct category! </font> <br> <br> <font color=""green"" size=""8vw""> + $0.05 </font> </p>","null","feedback","","","","","","","0.15"
"","","","","","html-keyboard-response","75","90026","0.0-6.4-0.4","5f27d96875d81b0008db8d5f","65576f040411c2a4be0341a4","65576f888cf726c39b1a259a","417","
            
        <div style=""text-align: center; position: fixed; top: 5vh; left: 40vw;"">
            <div style=""margin:0 auto; width: 20vw; top: 8vh; font-size: 2vw""> 
            <font color=""green""> Bonus : $0.15 </font>
            </div>
        </div>
    
            <div> Please press any button to continue to the next trial.</div>
        ","arrowleft","ITI","","","","","","",""
"","","","","","html-keyboard-response","76","90641","0.0-6.4-1.4","5f27d96875d81b0008db8d5f","65576f040411c2a4be0341a4","65576f888cf726c39b1a259a","null","
        
        <div style=""text-align: center; position: fixed; top: 5vh; left: 40vw;"">
            <div style=""margin:0 auto; width: 20vw; top: 8vh; font-size: 2vw""> 
            <font color=""green""> Bonus : $0.15 </font>
            </div>
        </div>
    
        <img class=""stim"" src=./stimuli//pack_shapes_diff/cat_2/diff_1/ex_2_1_12.png></img>
    ","null","stimulus","","","","","","",""
"","","","","","html-keyboard-response","77","91658","0.0-6.4-2.4","5f27d96875d81b0008db8d5f","65576f040411c2a4be0341a4","65576f888cf726c39b1a259a","null","
        <div style=""text-align: center; position: fixed; top: 5vh; left: 40vw;"">
            <div style=""margin:0 auto; width: 20vw; top: 8vh; font-size: 2vw""> 
            <font color=""green""> Bonus : $0.15 </font>
            </div>
        </div>
    ","null","","","","","","","",""
"","","","","","html-keyboard-response","78","91920","0.0-6.4-3.4","5f27d96875d81b0008db8d5f","65576f040411c2a4be0341a4","65576f888cf726c39b1a259a","261","./stimuli//pack_shapes_diff/cat_2/diff_1/ex_2_1_12.png","arrowright","response","ArrowRight","12","2","1","test","true",""
"","","","","","html-keyboard-response","79","93426","0.0-6.4-4.4","5f27d96875d81b0008db8d5f","65576f040411c2a4be0341a4","65576f888cf726c39b1a259a","null","<p> <font color=""green"" size=""5vw""> Correct category! </font> <br> <br> <font color=""green"" size=""8vw""> + $0.05 </font> </p>","null","feedback","","","","","","","0.2"
"","","","","","html-keyboard-response","80","93849","0.0-6.5-0.5","5f27d96875d81b0008db8d5f","65576f040411c2a4be0341a4","65576f888cf726c39b1a259a","423","
            
        <div style=""text-align: center; position: fixed; top: 5vh; left: 40vw;"">
            <div style=""margin:0 auto; width: 20vw; top: 8vh; font-size: 2vw""> 
            <font color=""green""> Bonus : $0.2 </font>
            </div>
        </div>
    
            <div> Please press any button to continue to the next trial.</div>
        ","arrowright","ITI","","","","","","",""
"","","","","","html-keyboard-response","81","94459","0.0-6.5-1.5","5f27d96875d81b0008db8d5f","65576f040411c2a4be0341a4","65576f888cf726c39b1a259a","null","
        
        <div style=""text-align: center; position: fixed; top: 5vh; left: 40vw;"">
            <div style=""margin:0 auto; width: 20vw; top: 8vh; font-size: 2vw""> 
            <font color=""green""> Bonus : $0.2 </font>
            </div>
        </div>
    
        <img class=""stim"" src=./stimuli//pack_shapes_diff/cat_2/diff_2/ex_2_2_9.png></img>
    ","null","stimulus","","","","","","",""
"","","","","","html-keyboard-response","82","95477","0.0-6.5-2.5","5f27d96875d81b0008db8d5f","65576f040411c2a4be0341a4","65576f888cf726c39b1a259a","null","
        <div style=""text-align: center; position: fixed; top: 5vh; left: 40vw;"">
            <div style=""margin:0 auto; width: 20vw; top: 8vh; font-size: 2vw""> 
            <font color=""green""> Bonus : $0.2 </font>
            </div>
        </div>
    ","null","","","","","","","",""
"","","","","","html-keyboard-response","83","95743","0.0-6.5-3.5","5f27d96875d81b0008db8d5f","65576f040411c2a4be0341a4","65576f888cf726c39b1a259a","266","./stimuli//pack_shapes_diff/cat_2/diff_2/ex_2_2_9.png","arrowleft","response","ArrowRight","9","2","2","test","false",""
"","","","","","html-keyboard-response","84","97261","0.0-6.5-4.5","5f27d96875d81b0008db8d5f","65576f040411c2a4be0341a4","65576f888cf726c39b1a259a","null","<p> <font color=""red"" size=""5vw""> Wrong category! </font> </p>","null","feedback","","","","","","","0.2"
"","","","","","html-keyboard-response","85","97659","0.0-6.6-0.6","5f27d96875d81b0008db8d5f","65576f040411c2a4be0341a4","65576f888cf726c39b1a259a","398","
            
        <div style=""text-align: center; position: fixed; top: 5vh; left: 40vw;"">
            <div style=""margin:0 auto; width: 20vw; top: 8vh; font-size: 2vw""> 
            <font color=""green""> Bonus : $0.2 </font>
            </div>
        </div>
    
            <div> Please press any button to continue to the next trial.</div>
        ","arrowleft","ITI","","","","","","",""
"","","","","","html-keyboard-response","86","98261","0.0-6.6-1.6","5f27d96875d81b0008db8d5f","65576f040411c2a4be0341a4","65576f888cf726c39b1a259a","null","
        
        <div style=""text-align: center; position: fixed; top: 5vh; left: 40vw;"">
            <div style=""margin:0 auto; width: 20vw; top: 8vh; font-size: 2vw""> 
            <font color=""green""> Bonus : $0.2 </font>
            </div>
        </div>
    
        <img class=""stim"" src=./stimuli//pack_shapes_diff/cat_2/diff_2/ex_2_2_8.png></img>
    ","null","stimulus","","","","","","",""
"","","","","","html-keyboard-response","87","99278","0.0-6.6-2.6","5f27d96875d81b0008db8d5f","65576f040411c2a4be0341a4","65576f888cf726c39b1a259a","null","
        <div style=""text-align: center; position: fixed; top: 5vh; left: 40vw;"">
            <div style=""margin:0 auto; width: 20vw; top: 8vh; font-size: 2vw""> 
            <font color=""green""> Bonus : $0.2 </font>
            </div>
        </div>
    ","null","","","","","","","",""
"","","","","","html-keyboard-response","88","99534","0.0-6.6-3.6","5f27d96875d81b0008db8d5f","65576f040411c2a4be0341a4","65576f888cf726c39b1a259a","255","./stimuli//pack_shapes_diff/cat_2/diff_2/ex_2_2_8.png","arrowright","response","ArrowRight","8","2","2","test","true",""
"","","","","","html-keyboard-response","89","101045","0.0-6.6-4.6","5f27d96875d81b0008db8d5f","65576f040411c2a4be0341a4","65576f888cf726c39b1a259a","null","<p> <font color=""green"" size=""5vw""> Correct category! </font> <br> <br> <font color=""green"" size=""8vw""> + $0.05 </font> </p>","null","feedback","","","","","","","0.25"
"","","","","","html-keyboard-response","90","101441","0.0-6.7-0.7","5f27d96875d81b0008db8d5f","65576f040411c2a4be0341a4","65576f888cf726c39b1a259a","394","
            
        <div style=""text-align: center; position: fixed; top: 5vh; left: 40vw;"">
            <div style=""margin:0 auto; width: 20vw; top: 8vh; font-size: 2vw""> 
            <font color=""green""> Bonus : $0.25 </font>
            </div>
        </div>
    
            <div> Please press any button to continue to the next trial.</div>
        ","arrowright","ITI","","","","","","",""
"","","","","","html-keyboard-response","91","102046","0.0-6.7-1.7","5f27d96875d81b0008db8d5f","65576f040411c2a4be0341a4","65576f888cf726c39b1a259a","null","
        
        <div style=""text-align: center; position: fixed; top: 5vh; left: 40vw;"">
            <div style=""margin:0 auto; width: 20vw; top: 8vh; font-size: 2vw""> 
            <font color=""green""> Bonus : $0.25 </font>
            </div>
        </div>
    
        <img class=""stim"" src=./stimuli//pack_shapes_diff/cat_1/diff_2/ex_1_2_6.png></img>
    ","null","stimulus","","","","","","",""
"","","","","","html-keyboard-response","92","103063","0.0-6.7-2.7","5f27d96875d81b0008db8d5f","65576f040411c2a4be0341a4","65576f888cf726c39b1a259a","null","
        <div style=""text-align: center; position: fixed; top: 5vh; left: 40vw;"">
            <div style=""margin:0 auto; width: 20vw; top: 8vh; font-size: 2vw""> 
            <font color=""green""> Bonus : $0.25 </font>
            </div>
        </div>
    ","null","","","","","","","",""
"","","","","","html-keyboard-response","93","103291","0.0-6.7-3.7","5f27d96875d81b0008db8d5f","65576f040411c2a4be0341a4","65576f888cf726c39b1a259a","227","./stimuli//pack_shapes_diff/cat_1/diff_2/ex_1_2_6.png","arrowleft","response","ArrowLeft","6","1","2","test","true",""
"","","","","","html-keyboard-response","94","104797","0.0-6.7-4.7","5f27d96875d81b0008db8d5f","65576f040411c2a4be0341a4","65576f888cf726c39b1a259a","null","<p> <font color=""green"" size=""5vw""> Correct category! </font> <br> <br> <font color=""green"" size=""8vw""> + $0.05 </font> </p>","null","feedback","","","","","","","0.3"
"","","","","","html-keyboard-response","95","105248","0.0-6.8-0.8","5f27d96875d81b0008db8d5f","65576f040411c2a4be0341a4","65576f888cf726c39b1a259a","450","
            
        <div style=""text-align: center; position: fixed; top: 5vh; left: 40vw;"">
            <div style=""margin:0 auto; width: 20vw; top: 8vh; font-size: 2vw""> 
            <font color=""green""> Bonus : $0.3 </font>
            </div>
        </div>
    
            <div> Please press any button to continue to the next trial.</div>
        ","arrowleft","ITI","","","","","","",""
"","","","","","html-keyboard-response","96","105853","0.0-6.8-1.8","5f27d96875d81b0008db8d5f","65576f040411c2a4be0341a4","65576f888cf726c39b1a259a","null","
        
        <div style=""text-align: center; position: fixed; top: 5vh; left: 40vw;"">
            <div style=""margin:0 auto; width: 20vw; top: 8vh; font-size: 2vw""> 
            <font color=""green""> Bonus : $0.3 </font>
            </div>
        </div>
    
        <img class=""stim"" src=./stimuli//pack_shapes_diff/cat_2/diff_2/ex_2_2_15.png></img>
    ","null","stimulus","","","","","","",""
"","","","","","html-keyboard-response","97","106864","0.0-6.8-2.8","5f27d96875d81b0008db8d5f","65576f040411c2a4be0341a4","65576f888cf726c39b1a259a","null","
        <div style=""text-align: center; position: fixed; top: 5vh; left: 40vw;"">
            <div style=""margin:0 auto; width: 20vw; top: 8vh; font-size: 2vw""> 
            <font color=""green""> Bonus : $0.3 </font>
            </div>
        </div>
    ","null","","","","","","","",""
"","","","","","html-keyboard-response","98","107101","0.0-6.8-3.8","5f27d96875d81b0008db8d5f","65576f040411c2a4be0341a4","65576f888cf726c39b1a259a","236","./stimuli//pack_shapes_diff/cat_2/diff_2/ex_2_2_15.png","arrowright","response","ArrowRight","15","2","2","test","true",""
"","","","","","html-keyboard-response","99","108615","0.0-6.8-4.8","5f27d96875d81b0008db8d5f","65576f040411c2a4be0341a4","65576f888cf726c39b1a259a","null","<p> <font color=""green"" size=""5vw""> Correct category! </font> <br> <br> <font color=""green"" size=""8vw""> + $0.05 </font> </p>","null","feedback","","","","","","","0.35"
"","","","","","html-keyboard-response","100","109071","0.0-6.9-0.9","5f27d96875d81b0008db8d5f","65576f040411c2a4be0341a4","65576f888cf726c39b1a259a","455","
            
        <div style=""text-align: center; position: fixed; top: 5vh; left: 40vw;"">
            <div style=""margin:0 auto; width: 20vw; top: 8vh; font-size: 2vw""> 
            <font color=""green""> Bonus : $0.35 </font>
            </div>
        </div>
    
            <div> Please press any button to continue to the next trial.</div>
        ","arrowleft","ITI","","","","","","",""
"","","","","","html-keyboard-response","101","109682","0.0-6.9-1.9","5f27d96875d81b0008db8d5f","65576f040411c2a4be0341a4","65576f888cf726c39b1a259a","null","
        
        <div style=""text-align: center; position: fixed; top: 5vh; left: 40vw;"">
            <div style=""margin:0 auto; width: 20vw; top: 8vh; font-size: 2vw""> 
            <font color=""green""> Bonus : $0.35 </font>
            </div>
        </div>
    
        <img class=""stim"" src=./stimuli//pack_shapes_diff/cat_1/diff_2/ex_1_2_10.png></img>
    ","null","stimulus","","","","","","",""
"","","","","","html-keyboard-response","102","110699","0.0-6.9-2.9","5f27d96875d81b0008db8d5f","65576f040411c2a4be0341a4","65576f888cf726c39b1a259a","null","
        <div style=""text-align: center; position: fixed; top: 5vh; left: 40vw;"">
            <div style=""margin:0 auto; width: 20vw; top: 8vh; font-size: 2vw""> 
            <font color=""green""> Bonus : $0.35 </font>
            </div>
        </div>
    ","null","","","","","","","",""
"","","","","","html-keyboard-response","103","110967","0.0-6.9-3.9","5f27d96875d81b0008db8d5f","65576f040411c2a4be0341a4","65576f888cf726c39b1a259a","267","./stimuli//pack_shapes_diff/cat_1/diff_2/ex_1_2_10.png","arrowleft","response","ArrowLeft","10","1","2","test","true",""
"","","","","","html-keyboard-response","104","112483","0.0-6.9-4.9","5f27d96875d81b0008db8d5f","65576f040411c2a4be0341a4","65576f888cf726c39b1a259a","null","<p> <font color=""green"" size=""5vw""> Correct category! </font> <br> <br> <font color=""green"" size=""8vw""> + $0.05 </font> </p>","null","feedback","","","","","","","0.4"
"","","","","","html-keyboard-response","105","112850","0.0-6.10-0.10","5f27d96875d81b0008db8d5f","65576f040411c2a4be0341a4","65576f888cf726c39b1a259a","367","
            
        <div style=""text-align: center; position: fixed; top: 5vh; left: 40vw;"">
            <div style=""margin:0 auto; width: 20vw; top: 8vh; font-size: 2vw""> 
            <font color=""green""> Bonus : $0.4 </font>
            </div>
        </div>
    
            <div> Please press any button to continue to the next trial.</div>
        ","arrowleft","ITI","","","","","","",""
"","","","","","html-keyboard-response","106","113455","0.0-6.10-1.10","5f27d96875d81b0008db8d5f","65576f040411c2a4be0341a4","65576f888cf726c39b1a259a","null","
        
        <div style=""text-align: center; position: fixed; top: 5vh; left: 40vw;"">
            <div style=""margin:0 auto; width: 20vw; top: 8vh; font-size: 2vw""> 
            <font color=""green""> Bonus : $0.4 </font>
            </div>
        </div>
    
        <img class=""stim"" src=./stimuli//pack_shapes_diff/cat_1/diff_3/ex_1_3_11.png></img>
    ","null","stimulus","","","","","","",""
"","","","","","html-keyboard-response","107","114466","0.0-6.10-2.10","5f27d96875d81b0008db8d5f","65576f040411c2a4be0341a4","65576f888cf726c39b1a259a","null","
        <div style=""text-align: center; position: fixed; top: 5vh; left: 40vw;"">
            <div style=""margin:0 auto; width: 20vw; top: 8vh; font-size: 2vw""> 
            <font color=""green""> Bonus : $0.4 </font>
            </div>
        </div>
    ","null","","","","","","","",""
"","","","","","html-keyboard-response","108","114715","0.0-6.10-3.10","5f27d96875d81b0008db8d5f","65576f040411c2a4be0341a4","65576f888cf726c39b1a259a","248","./stimuli//pack_shapes_diff/cat_1/diff_3/ex_1_3_11.png","arrowleft","response","ArrowLeft","11","1","3","test","true",""
"","","","","","html-keyboard-response","109","116217","0.0-6.10-4.10","5f27d96875d81b0008db8d5f","65576f040411c2a4be0341a4","65576f888cf726c39b1a259a","null","<p> <font color=""green"" size=""5vw""> Correct category! </font> <br> <br> <font color=""green"" size=""8vw""> + $0.05 </font> </p>","null","feedback","","","","","","","0.45"
"","","","","","html-keyboard-response","110","116590","0.0-6.11-0.11","5f27d96875d81b0008db8d5f","65576f040411c2a4be0341a4","65576f888cf726c39b1a259a","372","
            
        <div style=""text-align: center; position: fixed; top: 5vh; left: 40vw;"">
            <div style=""margin:0 auto; width: 20vw; top: 8vh; font-size: 2vw""> 
            <font color=""green""> Bonus : $0.45 </font>
            </div>
        </div>
    
            <div> Please press any button to continue to the next trial.</div>
        ","arrowleft","ITI","","","","","","",""
"","","","","","html-keyboard-response","111","117200","0.0-6.11-1.11","5f27d96875d81b0008db8d5f","65576f040411c2a4be0341a4","65576f888cf726c39b1a259a","null","
        
        <div style=""text-align: center; position: fixed; top: 5vh; left: 40vw;"">
            <div style=""margin:0 auto; width: 20vw; top: 8vh; font-size: 2vw""> 
            <font color=""green""> Bonus : $0.45 </font>
            </div>
        </div>
    
        <img class=""stim"" src=./stimuli//pack_shapes_diff/cat_2/diff_3/ex_2_3_6.png></img>
    ","null","stimulus","","","","","","",""
"","","","","","html-keyboard-response","112","118218","0.0-6.11-2.11","5f27d96875d81b0008db8d5f","65576f040411c2a4be0341a4","65576f888cf726c39b1a259a","null","
        <div style=""text-align: center; position: fixed; top: 5vh; left: 40vw;"">
            <div style=""margin:0 auto; width: 20vw; top: 8vh; font-size: 2vw""> 
            <font color=""green""> Bonus : $0.45 </font>
            </div>
        </div>
    ","null","","","","","","","",""
"","","","","","html-keyboard-response","113","118457","0.0-6.11-3.11","5f27d96875d81b0008db8d5f","65576f040411c2a4be0341a4","65576f888cf726c39b1a259a","239","./stimuli//pack_shapes_diff/cat_2/diff_3/ex_2_3_6.png","arrowright","response","ArrowRight","6","2","3","test","true",""
"","","","","","html-keyboard-response","114","119968","0.0-6.11-4.11","5f27d96875d81b0008db8d5f","65576f040411c2a4be0341a4","65576f888cf726c39b1a259a","null","<p> <font color=""green"" size=""5vw""> Correct category! </font> <br> <br> <font color=""green"" size=""8vw""> + $0.05 </font> </p>","null","feedback","","","","","","","0.5"
"","","","","","html-keyboard-response","115","120244","0.0-6.12-0.12","5f27d96875d81b0008db8d5f","65576f040411c2a4be0341a4","65576f888cf726c39b1a259a","275","
            
        <div style=""text-align: center; position: fixed; top: 5vh; left: 40vw;"">
            <div style=""margin:0 auto; width: 20vw; top: 8vh; font-size: 2vw""> 
            <font color=""green""> Bonus : $0.5 </font>
            </div>
        </div>
    
            <div> Please press any button to continue to the next trial.</div>
        ","arrowleft","ITI","","","","","","",""
"","","","","","html-keyboard-response","116","120854","0.0-6.12-1.12","5f27d96875d81b0008db8d5f","65576f040411c2a4be0341a4","65576f888cf726c39b1a259a","null","
        
        <div style=""text-align: center; position: fixed; top: 5vh; left: 40vw;"">
            <div style=""margin:0 auto; width: 20vw; top: 8vh; font-size: 2vw""> 
            <font color=""green""> Bonus : $0.5 </font>
            </div>
        </div>
    
        <img class=""stim"" src=./stimuli//pack_shapes_diff/cat_1/diff_3/ex_1_3_13.png></img>
    ","null","stimulus","","","","","","",""
"","","","","","html-keyboard-response","117","121858","0.0-6.12-2.12","5f27d96875d81b0008db8d5f","65576f040411c2a4be0341a4","65576f888cf726c39b1a259a","null","
        <div style=""text-align: center; position: fixed; top: 5vh; left: 40vw;"">
            <div style=""margin:0 auto; width: 20vw; top: 8vh; font-size: 2vw""> 
            <font color=""green""> Bonus : $0.5 </font>
            </div>
        </div>
    ","null","","","","","","","",""
"","","","","","html-keyboard-response","118","122070","0.0-6.12-3.12","5f27d96875d81b0008db8d5f","65576f040411c2a4be0341a4","65576f888cf726c39b1a259a","211","./stimuli//pack_shapes_diff/cat_1/diff_3/ex_1_3_13.png","arrowleft","response","ArrowLeft","13","1","3","test","true",""
"","","","","","html-keyboard-response","119","123586","0.0-6.12-4.12","5f27d96875d81b0008db8d5f","65576f040411c2a4be0341a4","65576f888cf726c39b1a259a","null","<p> <font color=""green"" size=""5vw""> Correct category! </font> <br> <br> <font color=""green"" size=""8vw""> + $0.05 </font> </p>","null","feedback","","","","","","","0.55"
"","","","","","html-keyboard-response","120","123939","0.0-6.13-0.13","5f27d96875d81b0008db8d5f","65576f040411c2a4be0341a4","65576f888cf726c39b1a259a","352","
            
        <div style=""text-align: center; position: fixed; top: 5vh; left: 40vw;"">
            <div style=""margin:0 auto; width: 20vw; top: 8vh; font-size: 2vw""> 
            <font color=""green""> Bonus : $0.55 </font>
            </div>
        </div>
    
            <div> Please press any button to continue to the next trial.</div>
        ","arrowleft","ITI","","","","","","",""
"","","","","","html-keyboard-response","121","124543","0.0-6.13-1.13","5f27d96875d81b0008db8d5f","65576f040411c2a4be0341a4","65576f888cf726c39b1a259a","null","
        
        <div style=""text-align: center; position: fixed; top: 5vh; left: 40vw;"">
            <div style=""margin:0 auto; width: 20vw; top: 8vh; font-size: 2vw""> 
            <font color=""green""> Bonus : $0.55 </font>
            </div>
        </div>
    
        <img class=""stim"" src=./stimuli//pack_shapes_diff/cat_1/diff_3/ex_1_3_4.png></img>
    ","null","stimulus","","","","","","",""
"","","","","","html-keyboard-response","122","125554","0.0-6.13-2.13","5f27d96875d81b0008db8d5f","65576f040411c2a4be0341a4","65576f888cf726c39b1a259a","null","
        <div style=""text-align: center; position: fixed; top: 5vh; left: 40vw;"">
            <div style=""margin:0 auto; width: 20vw; top: 8vh; font-size: 2vw""> 
            <font color=""green""> Bonus : $0.55 </font>
            </div>
        </div>
    ","null","","","","","","","",""
"","","","","","html-keyboard-response","123","125768","0.0-6.13-3.13","5f27d96875d81b0008db8d5f","65576f040411c2a4be0341a4","65576f888cf726c39b1a259a","213","./stimuli//pack_shapes_diff/cat_1/diff_3/ex_1_3_4.png","arrowleft","response","ArrowLeft","4","1","3","test","true",""
"","","","","","html-keyboard-response","124","127277","0.0-6.13-4.13","5f27d96875d81b0008db8d5f","65576f040411c2a4be0341a4","65576f888cf726c39b1a259a","null","<p> <font color=""green"" size=""5vw""> Correct category! </font> <br> <br> <font color=""green"" size=""8vw""> + $0.05 </font> </p>","null","feedback","","","","","","","0.6"
"","","","","","html-keyboard-response","125","127605","0.0-6.14-0.14","5f27d96875d81b0008db8d5f","65576f040411c2a4be0341a4","65576f888cf726c39b1a259a","327","
            
        <div style=""text-align: center; position: fixed; top: 5vh; left: 40vw;"">
            <div style=""margin:0 auto; width: 20vw; top: 8vh; font-size: 2vw""> 
            <font color=""green""> Bonus : $0.6 </font>
            </div>
        </div>
    
            <div> Please press any button to continue to the next trial.</div>
        ","arrowleft","ITI","","","","","","",""
"","","","","","html-keyboard-response","126","128221","0.0-6.14-1.14","5f27d96875d81b0008db8d5f","65576f040411c2a4be0341a4","65576f888cf726c39b1a259a","null","
        
        <div style=""text-align: center; position: fixed; top: 5vh; left: 40vw;"">
            <div style=""margin:0 auto; width: 20vw; top: 8vh; font-size: 2vw""> 
            <font color=""green""> Bonus : $0.6 </font>
            </div>
        </div>
    
        <img class=""stim"" src=./stimuli//pack_shapes_diff/cat_1/diff_3/ex_1_3_17.png></img>
    ","null","stimulus","","","","","","",""
"","","","","","html-keyboard-response","127","129238","0.0-6.14-2.14","5f27d96875d81b0008db8d5f","65576f040411c2a4be0341a4","65576f888cf726c39b1a259a","null","
        <div style=""text-align: center; position: fixed; top: 5vh; left: 40vw;"">
            <div style=""margin:0 auto; width: 20vw; top: 8vh; font-size: 2vw""> 
            <font color=""green""> Bonus : $0.6 </font>
            </div>
        </div>
    ","null","","","","","","","",""
"","","","","","html-keyboard-response","128","129492","0.0-6.14-3.14","5f27d96875d81b0008db8d5f","65576f040411c2a4be0341a4","65576f888cf726c39b1a259a","252","./stimuli//pack_shapes_diff/cat_1/diff_3/ex_1_3_17.png","arrowleft","response","ArrowLeft","17","1","3","test","true",""
"","","","","","html-keyboard-response","129","130995","0.0-6.14-4.14","5f27d96875d81b0008db8d5f","65576f040411c2a4be0341a4","65576f888cf726c39b1a259a","null","<p> <font color=""green"" size=""5vw""> Correct category! </font> <br> <br> <font color=""green"" size=""8vw""> + $0.05 </font> </p>","null","feedback","","","","","","","0.65"
"","","","","","html-keyboard-response","130","131357","0.0-6.15-0.15","5f27d96875d81b0008db8d5f","65576f040411c2a4be0341a4","65576f888cf726c39b1a259a","361","
            
        <div style=""text-align: center; position: fixed; top: 5vh; left: 40vw;"">
            <div style=""margin:0 auto; width: 20vw; top: 8vh; font-size: 2vw""> 
            <font color=""green""> Bonus : $0.65 </font>
            </div>
        </div>
    
            <div> Please press any button to continue to the next trial.</div>
        ","arrowleft","ITI","","","","","","",""
"","","","","","html-keyboard-response","131","131973","0.0-6.15-1.15","5f27d96875d81b0008db8d5f","65576f040411c2a4be0341a4","65576f888cf726c39b1a259a","null","
        
        <div style=""text-align: center; position: fixed; top: 5vh; left: 40vw;"">
            <div style=""margin:0 auto; width: 20vw; top: 8vh; font-size: 2vw""> 
            <font color=""green""> Bonus : $0.65 </font>
            </div>
        </div>
    
        <img class=""stim"" src=./stimuli//pack_shapes_diff/cat_1/diff_4/ex_1_4_5.png></img>
    ","null","stimulus","","","","","","",""
"","","","","","html-keyboard-response","132","132990","0.0-6.15-2.15","5f27d96875d81b0008db8d5f","65576f040411c2a4be0341a4","65576f888cf726c39b1a259a","null","
        <div style=""text-align: center; position: fixed; top: 5vh; left: 40vw;"">
            <div style=""margin:0 auto; width: 20vw; top: 8vh; font-size: 2vw""> 
            <font color=""green""> Bonus : $0.65 </font>
            </div>
        </div>
    ","null","","","","","","","",""
"","","","","","html-keyboard-response","133","133218","0.0-6.15-3.15","5f27d96875d81b0008db8d5f","65576f040411c2a4be0341a4","65576f888cf726c39b1a259a","228","./stimuli//pack_shapes_diff/cat_1/diff_4/ex_1_4_5.png","arrowleft","response","ArrowLeft","5","1","4","test","true",""
"","","","","","html-keyboard-response","134","134724","0.0-6.15-4.15","5f27d96875d81b0008db8d5f","65576f040411c2a4be0341a4","65576f888cf726c39b1a259a","null","<p> <font color=""green"" size=""5vw""> Correct category! </font> <br> <br> <font color=""green"" size=""8vw""> + $0.05 </font> </p>","null","feedback","","","","","","","0.7"
"","","","","","html-keyboard-response","135","135005","0.0-6.16-0.16","5f27d96875d81b0008db8d5f","65576f040411c2a4be0341a4","65576f888cf726c39b1a259a","281","
            
        <div style=""text-align: center; position: fixed; top: 5vh; left: 40vw;"">
            <div style=""margin:0 auto; width: 20vw; top: 8vh; font-size: 2vw""> 
            <font color=""green""> Bonus : $0.7 </font>
            </div>
        </div>
    
            <div> Please press any button to continue to the next trial.</div>
        ","arrowleft","ITI","","","","","","",""
"","","","","","html-keyboard-response","136","135608","0.0-6.16-1.16","5f27d96875d81b0008db8d5f","65576f040411c2a4be0341a4","65576f888cf726c39b1a259a","null","
        
        <div style=""text-align: center; position: fixed; top: 5vh; left: 40vw;"">
            <div style=""margin:0 auto; width: 20vw; top: 8vh; font-size: 2vw""> 
            <font color=""green""> Bonus : $0.7 </font>
            </div>
        </div>
    
        <img class=""stim"" src=./stimuli//pack_shapes_diff/cat_1/diff_4/ex_1_4_11.png></img>
    ","null","stimulus","","","","","","",""
"","","","","","html-keyboard-response","137","136614","0.0-6.16-2.16","5f27d96875d81b0008db8d5f","65576f040411c2a4be0341a4","65576f888cf726c39b1a259a","null","
        <div style=""text-align: center; position: fixed; top: 5vh; left: 40vw;"">
            <div style=""margin:0 auto; width: 20vw; top: 8vh; font-size: 2vw""> 
            <font color=""green""> Bonus : $0.7 </font>
            </div>
        </div>
    ","null","","","","","","","",""
"","","","","","html-keyboard-response","138","136858","0.0-6.16-3.16","5f27d96875d81b0008db8d5f","65576f040411c2a4be0341a4","65576f888cf726c39b1a259a","243","./stimuli//pack_shapes_diff/cat_1/diff_4/ex_1_4_11.png","arrowleft","response","ArrowLeft","11","1","4","test","true",""
"","","","","","html-keyboard-response","139","138375","0.0-6.16-4.16","5f27d96875d81b0008db8d5f","65576f040411c2a4be0341a4","65576f888cf726c39b1a259a","null","<p> <font color=""green"" size=""5vw""> Correct category! </font> <br> <br> <font color=""green"" size=""8vw""> + $0.05 </font> </p>","null","feedback","","","","","","","0.75"
"","","","","","html-keyboard-response","140","138701","0.0-6.17-0.17","5f27d96875d81b0008db8d5f","65576f040411c2a4be0341a4","65576f888cf726c39b1a259a","325","
            
        <div style=""text-align: center; position: fixed; top: 5vh; left: 40vw;"">
            <div style=""margin:0 auto; width: 20vw; top: 8vh; font-size: 2vw""> 
            <font color=""green""> Bonus : $0.75 </font>
            </div>
        </div>
    
            <div> Please press any button to continue to the next trial.</div>
        ","arrowleft","ITI","","","","","","",""
"","","","","","html-keyboard-response","141","139309","0.0-6.17-1.17","5f27d96875d81b0008db8d5f","65576f040411c2a4be0341a4","65576f888cf726c39b1a259a","null","
        
        <div style=""text-align: center; position: fixed; top: 5vh; left: 40vw;"">
            <div style=""margin:0 auto; width: 20vw; top: 8vh; font-size: 2vw""> 
            <font color=""green""> Bonus : $0.75 </font>
            </div>
        </div>
    
        <img class=""stim"" src=./stimuli//pack_shapes_diff/cat_1/diff_4/ex_1_4_7.png></img>
    ","null","stimulus","","","","","","",""
"","","","","","html-keyboard-response","142","140315","0.0-6.17-2.17","5f27d96875d81b0008db8d5f","65576f040411c2a4be0341a4","65576f888cf726c39b1a259a","null","
        <div style=""text-align: center; position: fixed; top: 5vh; left: 40vw;"">
            <div style=""margin:0 auto; width: 20vw; top: 8vh; font-size: 2vw""> 
            <font color=""green""> Bonus : $0.75 </font>
            </div>
        </div>
    ","null","","","","","","","",""
"","","","","","html-keyboard-response","143","140555","0.0-6.17-3.17","5f27d96875d81b0008db8d5f","65576f040411c2a4be0341a4","65576f888cf726c39b1a259a","239","./stimuli//pack_shapes_diff/cat_1/diff_4/ex_1_4_7.png","arrowleft","response","ArrowLeft","7","1","4","test","true",""
"","","","","","html-keyboard-response","144","142060","0.0-6.17-4.17","5f27d96875d81b0008db8d5f","65576f040411c2a4be0341a4","65576f888cf726c39b1a259a","null","<p> <font color=""green"" size=""5vw""> Correct category! </font> <br> <br> <font color=""green"" size=""8vw""> + $0.05 </font> </p>","null","feedback","","","","","","","0.8"
"","","","","","html-keyboard-response","145","142351","0.0-6.18-0.18","5f27d96875d81b0008db8d5f","65576f040411c2a4be0341a4","65576f888cf726c39b1a259a","290","
            
        <div style=""text-align: center; position: fixed; top: 5vh; left: 40vw;"">
            <div style=""margin:0 auto; width: 20vw; top: 8vh; font-size: 2vw""> 
            <font color=""green""> Bonus : $0.8 </font>
            </div>
        </div>
    
            <div> Please press any button to continue to the next trial.</div>
        ","arrowleft","ITI","","","","","","",""
"","","","","","html-keyboard-response","146","142960","0.0-6.18-1.18","5f27d96875d81b0008db8d5f","65576f040411c2a4be0341a4","65576f888cf726c39b1a259a","null","
        
        <div style=""text-align: center; position: fixed; top: 5vh; left: 40vw;"">
            <div style=""margin:0 auto; width: 20vw; top: 8vh; font-size: 2vw""> 
            <font color=""green""> Bonus : $0.8 </font>
            </div>
        </div>
    
        <img class=""stim"" src=./stimuli//pack_shapes_diff/cat_2/diff_4/ex_2_4_13.png></img>
    ","null","stimulus","","","","","","",""
"","","","","","html-keyboard-response","147","143977","0.0-6.18-2.18","5f27d96875d81b0008db8d5f","65576f040411c2a4be0341a4","65576f888cf726c39b1a259a","null","
        <div style=""text-align: center; position: fixed; top: 5vh; left: 40vw;"">
            <div style=""margin:0 auto; width: 20vw; top: 8vh; font-size: 2vw""> 
            <font color=""green""> Bonus : $0.8 </font>
            </div>
        </div>
    ","null","","","","","","","",""
"","","","","","html-keyboard-response","148","144189","0.0-6.18-3.18","5f27d96875d81b0008db8d5f","65576f040411c2a4be0341a4","65576f888cf726c39b1a259a","211","./stimuli//pack_shapes_diff/cat_2/diff_4/ex_2_4_13.png","arrowleft","response","ArrowRight","13","2","4","test","false",""
"","","","","","html-keyboard-response","149","145695","0.0-6.18-4.18","5f27d96875d81b0008db8d5f","65576f040411c2a4be0341a4","65576f888cf726c39b1a259a","null","<p> <font color=""red"" size=""5vw""> Wrong category! </font> </p>","null","feedback","","","","","","","0.8"
"","","","","","html-keyboard-response","150","146065","0.0-6.19-0.19","5f27d96875d81b0008db8d5f","65576f040411c2a4be0341a4","65576f888cf726c39b1a259a","370","
            
        <div style=""text-align: center; position: fixed; top: 5vh; left: 40vw;"">
            <div style=""margin:0 auto; width: 20vw; top: 8vh; font-size: 2vw""> 
            <font color=""green""> Bonus : $0.8 </font>
            </div>
        </div>
    
            <div> Please press any button to continue to the next trial.</div>
        ","arrowleft","ITI","","","","","","",""
"","","","","","html-keyboard-response","151","146678","0.0-6.19-1.19","5f27d96875d81b0008db8d5f","65576f040411c2a4be0341a4","65576f888cf726c39b1a259a","null","
        
        <div style=""text-align: center; position: fixed; top: 5vh; left: 40vw;"">
            <div style=""margin:0 auto; width: 20vw; top: 8vh; font-size: 2vw""> 
            <font color=""green""> Bonus : $0.8 </font>
            </div>
        </div>
    
        <img class=""stim"" src=./stimuli//pack_shapes_diff/cat_2/diff_4/ex_2_4_11.png></img>
    ","null","stimulus","","","","","","",""
"","","","","","html-keyboard-response","152","147680","0.0-6.19-2.19","5f27d96875d81b0008db8d5f","65576f040411c2a4be0341a4","65576f888cf726c39b1a259a","null","
        <div style=""text-align: center; position: fixed; top: 5vh; left: 40vw;"">
            <div style=""margin:0 auto; width: 20vw; top: 8vh; font-size: 2vw""> 
            <font color=""green""> Bonus : $0.8 </font>
            </div>
        </div>
    ","null","","","","","","","",""
"","","","","","html-keyboard-response","153","147939","0.0-6.19-3.19","5f27d96875d81b0008db8d5f","65576f040411c2a4be0341a4","65576f888cf726c39b1a259a","259","./stimuli//pack_shapes_diff/cat_2/diff_4/ex_2_4_11.png","arrowright","response","ArrowRight","11","2","4","test","true",""
"","","","","","html-keyboard-response","154","149446","0.0-6.19-4.19","5f27d96875d81b0008db8d5f","65576f040411c2a4be0341a4","65576f888cf726c39b1a259a","null","<p> <font color=""green"" size=""5vw""> Correct category! </font> <br> <br> <font color=""green"" size=""8vw""> + $0.05 </font> </p>","null","feedback","","","","","","","0.85"
"","","","","","html-keyboard-response","155","149793","0.0-6.20-0.20","5f27d96875d81b0008db8d5f","65576f040411c2a4be0341a4","65576f888cf726c39b1a259a","346","
            
        <div style=""text-align: center; position: fixed; top: 5vh; left: 40vw;"">
            <div style=""margin:0 auto; width: 20vw; top: 8vh; font-size: 2vw""> 
            <font color=""green""> Bonus : $0.85 </font>
            </div>
        </div>
    
            <div> Please press any button to continue to the next trial.</div>
        ","arrowleft","ITI","","","","","","",""
"","","","","","html-keyboard-response","156","150395","0.0-6.20-1.20","5f27d96875d81b0008db8d5f","65576f040411c2a4be0341a4","65576f888cf726c39b1a259a","null","
        
        <div style=""text-align: center; position: fixed; top: 5vh; left: 40vw;"">
            <div style=""margin:0 auto; width: 20vw; top: 8vh; font-size: 2vw""> 
            <font color=""green""> Bonus : $0.85 </font>
            </div>
        </div>
    
        <img class=""stim"" src=./stimuli//pack_shapes_diff/cat_2/diff_5/ex_2_5_14.png></img>
    ","null","stimulus","","","","","","",""
"","","","","","html-keyboard-response","157","151397","0.0-6.20-2.20","5f27d96875d81b0008db8d5f","65576f040411c2a4be0341a4","65576f888cf726c39b1a259a","null","
        <div style=""text-align: center; position: fixed; top: 5vh; left: 40vw;"">
            <div style=""margin:0 auto; width: 20vw; top: 8vh; font-size: 2vw""> 
            <font color=""green""> Bonus : $0.85 </font>
            </div>
        </div>
    ","null","","","","","","","",""
"","","","","","html-keyboard-response","158","151633","0.0-6.20-3.20","5f27d96875d81b0008db8d5f","65576f040411c2a4be0341a4","65576f888cf726c39b1a259a","235","./stimuli//pack_shapes_diff/cat_2/diff_5/ex_2_5_14.png","arrowright","response","ArrowRight","14","2","5","test","true",""
"","","","","","html-keyboard-response","159","153147","0.0-6.20-4.20","5f27d96875d81b0008db8d5f","65576f040411c2a4be0341a4","65576f888cf726c39b1a259a","null","<p> <font color=""green"" size=""5vw""> Correct category! </font> <br> <br> <font color=""green"" size=""8vw""> + $0.05 </font> </p>","null","feedback","","","","","","","0.9"
"","","","","","html-keyboard-response","160","153452","0.0-6.21-0.21","5f27d96875d81b0008db8d5f","65576f040411c2a4be0341a4","65576f888cf726c39b1a259a","303","
            
        <div style=""text-align: center; position: fixed; top: 5vh; left: 40vw;"">
            <div style=""margin:0 auto; width: 20vw; top: 8vh; font-size: 2vw""> 
            <font color=""green""> Bonus : $0.9 </font>
            </div>
        </div>
    
            <div> Please press any button to continue to the next trial.</div>
        ","arrowleft","ITI","","","","","","",""
"","","","","","html-keyboard-response","161","154065","0.0-6.21-1.21","5f27d96875d81b0008db8d5f","65576f040411c2a4be0341a4","65576f888cf726c39b1a259a","null","
        
        <div style=""text-align: center; position: fixed; top: 5vh; left: 40vw;"">
            <div style=""margin:0 auto; width: 20vw; top: 8vh; font-size: 2vw""> 
            <font color=""green""> Bonus : $0.9 </font>
            </div>
        </div>
    
        <img class=""stim"" src=./stimuli//pack_shapes_diff/cat_2/diff_5/ex_2_5_12.png></img>
    ","null","stimulus","","","","","","",""
"","","","","","html-keyboard-response","162","155070","0.0-6.21-2.21","5f27d96875d81b0008db8d5f","65576f040411c2a4be0341a4","65576f888cf726c39b1a259a","null","
        <div style=""text-align: center; position: fixed; top: 5vh; left: 40vw;"">
            <div style=""margin:0 auto; width: 20vw; top: 8vh; font-size: 2vw""> 
            <font color=""green""> Bonus : $0.9 </font>
            </div>
        </div>
    ","null","","","","","","","",""
"","","","","","html-keyboard-response","163","155361","0.0-6.21-3.21","5f27d96875d81b0008db8d5f","65576f040411c2a4be0341a4","65576f888cf726c39b1a259a","290","./stimuli//pack_shapes_diff/cat_2/diff_5/ex_2_5_12.png","arrowright","response","ArrowRight","12","2","5","test","true",""
"","","","","","html-keyboard-response","164","156866","0.0-6.21-4.21","5f27d96875d81b0008db8d5f","65576f040411c2a4be0341a4","65576f888cf726c39b1a259a","null","<p> <font color=""green"" size=""5vw""> Correct category! </font> <br> <br> <font color=""green"" size=""8vw""> + $0.05 </font> </p>","null","feedback","","","","","","","0.95"
"","","","","","html-keyboard-response","165","157200","0.0-6.22-0.22","5f27d96875d81b0008db8d5f","65576f040411c2a4be0341a4","65576f888cf726c39b1a259a","334","
            
        <div style=""text-align: center; position: fixed; top: 5vh; left: 40vw;"">
            <div style=""margin:0 auto; width: 20vw; top: 8vh; font-size: 2vw""> 
            <font color=""green""> Bonus : $0.95 </font>
            </div>
        </div>
    
            <div> Please press any button to continue to the next trial.</div>
        ","arrowleft","ITI","","","","","","",""
"","","","","","html-keyboard-response","166","157816","0.0-6.22-1.22","5f27d96875d81b0008db8d5f","65576f040411c2a4be0341a4","65576f888cf726c39b1a259a","null","
        
        <div style=""text-align: center; position: fixed; top: 5vh; left: 40vw;"">
            <div style=""margin:0 auto; width: 20vw; top: 8vh; font-size: 2vw""> 
            <font color=""green""> Bonus : $0.95 </font>
            </div>
        </div>
    
        <img class=""stim"" src=./stimuli//pack_shapes_diff/cat_2/diff_5/ex_2_5_6.png></img>
    ","null","stimulus","","","","","","",""
"","","","","","html-keyboard-response","167","158833","0.0-6.22-2.22","5f27d96875d81b0008db8d5f","65576f040411c2a4be0341a4","65576f888cf726c39b1a259a","null","
        <div style=""text-align: center; position: fixed; top: 5vh; left: 40vw;"">
            <div style=""margin:0 auto; width: 20vw; top: 8vh; font-size: 2vw""> 
            <font color=""green""> Bonus : $0.95 </font>
            </div>
        </div>
    ","null","","","","","","","",""
"","","","","","html-keyboard-response","168","159022","0.0-6.22-3.22","5f27d96875d81b0008db8d5f","65576f040411c2a4be0341a4","65576f888cf726c39b1a259a","188","./stimuli//pack_shapes_diff/cat_2/diff_5/ex_2_5_6.png","arrowright","response","ArrowRight","6","2","5","test","true",""
"","","","","","html-keyboard-response","169","160523","0.0-6.22-4.22","5f27d96875d81b0008db8d5f","65576f040411c2a4be0341a4","65576f888cf726c39b1a259a","null","<p> <font color=""green"" size=""5vw""> Correct category! </font> <br> <br> <font color=""green"" size=""8vw""> + $0.05 </font> </p>","null","feedback","","","","","","","1"
"","","","","","html-keyboard-response","170","160934","0.0-6.23-0.23","5f27d96875d81b0008db8d5f","65576f040411c2a4be0341a4","65576f888cf726c39b1a259a","411","
            
        <div style=""text-align: center; position: fixed; top: 5vh; left: 40vw;"">
            <div style=""margin:0 auto; width: 20vw; top: 8vh; font-size: 2vw""> 
            <font color=""green""> Bonus : $1 </font>
            </div>
        </div>
    
            <div> Please press any button to continue to the next trial.</div>
        ","arrowleft","ITI","","","","","","",""
"","","","","","html-keyboard-response","171","161551","0.0-6.23-1.23","5f27d96875d81b0008db8d5f","65576f040411c2a4be0341a4","65576f888cf726c39b1a259a","null","
        
        <div style=""text-align: center; position: fixed; top: 5vh; left: 40vw;"">
            <div style=""margin:0 auto; width: 20vw; top: 8vh; font-size: 2vw""> 
            <font color=""green""> Bonus : $1 </font>
            </div>
        </div>
    
        <img class=""stim"" src=./stimuli//pack_shapes_diff/cat_2/diff_5/ex_2_5_6.png></img>
    ","null","stimulus","","","","","","",""
"","","","","","html-keyboard-response","172","162568","0.0-6.23-2.23","5f27d96875d81b0008db8d5f","65576f040411c2a4be0341a4","65576f888cf726c39b1a259a","null","
        <div style=""text-align: center; position: fixed; top: 5vh; left: 40vw;"">
            <div style=""margin:0 auto; width: 20vw; top: 8vh; font-size: 2vw""> 
            <font color=""green""> Bonus : $1 </font>
            </div>
        </div>
    ","null","","","","","","","",""
"","","","","","html-keyboard-response","173","162735","0.0-6.23-3.23","5f27d96875d81b0008db8d5f","65576f040411c2a4be0341a4","65576f888cf726c39b1a259a","167","./stimuli//pack_shapes_diff/cat_2/diff_5/ex_2_5_6.png","arrowright","response","ArrowRight","6","2","5","test","true",""
"","","","","","html-keyboard-response","174","164252","0.0-6.23-4.23","5f27d96875d81b0008db8d5f","65576f040411c2a4be0341a4","65576f888cf726c39b1a259a","null","<p> <font color=""green"" size=""5vw""> Correct category! </font> <br> <br> <font color=""green"" size=""8vw""> + $0.05 </font> </p>","null","feedback","","","","","","","1.05"
"","","","","","html-keyboard-response","175","164537","0.0-6.24-0.24","5f27d96875d81b0008db8d5f","65576f040411c2a4be0341a4","65576f888cf726c39b1a259a","284","
            
        <div style=""text-align: center; position: fixed; top: 5vh; left: 40vw;"">
            <div style=""margin:0 auto; width: 20vw; top: 8vh; font-size: 2vw""> 
            <font color=""green""> Bonus : $1.05 </font>
            </div>
        </div>
    
            <div> Please press any button to continue to the next trial.</div>
        ","arrowright","ITI","","","","","","",""
"","","","","","html-keyboard-response","176","165152","0.0-6.24-1.24","5f27d96875d81b0008db8d5f","65576f040411c2a4be0341a4","65576f888cf726c39b1a259a","null","
        
        <div style=""text-align: center; position: fixed; top: 5vh; left: 40vw;"">
            <div style=""margin:0 auto; width: 20vw; top: 8vh; font-size: 2vw""> 
            <font color=""green""> Bonus : $1.05 </font>
            </div>
        </div>
    
        <img class=""stim"" src=./stimuli//pack_shapes_diff/cat_1/diff_5/ex_1_5_5.png></img>
    ","null","stimulus","","","","","","",""
"","","","","","html-keyboard-response","177","166169","0.0-6.24-2.24","5f27d96875d81b0008db8d5f","65576f040411c2a4be0341a4","65576f888cf726c39b1a259a","null","
        <div style=""text-align: center; position: fixed; top: 5vh; left: 40vw;"">
            <div style=""margin:0 auto; width: 20vw; top: 8vh; font-size: 2vw""> 
            <font color=""green""> Bonus : $1.05 </font>
            </div>
        </div>
    ","null","","","","","","","",""
"","","","","","html-keyboard-response","178","166408","0.0-6.24-3.24","5f27d96875d81b0008db8d5f","65576f040411c2a4be0341a4","65576f888cf726c39b1a259a","238","./stimuli//pack_shapes_diff/cat_1/diff_5/ex_1_5_5.png","arrowleft","response","ArrowLeft","5","1","5","test","true",""
"","","","","","html-keyboard-response","179","167920","0.0-6.24-4.24","5f27d96875d81b0008db8d5f","65576f040411c2a4be0341a4","65576f888cf726c39b1a259a","null","<p> <font color=""green"" size=""5vw""> Correct category! </font> <br> <br> <font color=""green"" size=""8vw""> + $0.05 </font> </p>","null","feedback","","","","","","","1.1"
"","","","","","html-keyboard-response","180","168250","0.0-6.25-0.25","5f27d96875d81b0008db8d5f","65576f040411c2a4be0341a4","65576f888cf726c39b1a259a","329","
            
        <div style=""text-align: center; position: fixed; top: 5vh; left: 40vw;"">
            <div style=""margin:0 auto; width: 20vw; top: 8vh; font-size: 2vw""> 
            <font color=""green""> Bonus : $1.1 </font>
            </div>
        </div>
    
            <div> Please press any button to continue to the next trial.</div>
        ","arrowleft","ITI","","","","","","",""
"","","","","","html-keyboard-response","181","168854","0.0-6.25-1.25","5f27d96875d81b0008db8d5f","65576f040411c2a4be0341a4","65576f888cf726c39b1a259a","null","
        
        <div style=""text-align: center; position: fixed; top: 5vh; left: 40vw;"">
            <div style=""margin:0 auto; width: 20vw; top: 8vh; font-size: 2vw""> 
            <font color=""green""> Bonus : $1.1 </font>
            </div>
        </div>
    
        <img class=""stim"" src=./stimuli//pack_shapes_diff/cat_2/diff_5/ex_2_5_3.png></img>
    ","null","stimulus","","","","","","",""
"","","","","","html-keyboard-response","182","169870","0.0-6.25-2.25","5f27d96875d81b0008db8d5f","65576f040411c2a4be0341a4","65576f888cf726c39b1a259a","null","
        <div style=""text-align: center; position: fixed; top: 5vh; left: 40vw;"">
            <div style=""margin:0 auto; width: 20vw; top: 8vh; font-size: 2vw""> 
            <font color=""green""> Bonus : $1.1 </font>
            </div>
        </div>
    ","null","","","","","","","",""
"","","","","","html-keyboard-response","183","170215","0.0-6.25-3.25","5f27d96875d81b0008db8d5f","65576f040411c2a4be0341a4","65576f888cf726c39b1a259a","345","./stimuli//pack_shapes_diff/cat_2/diff_5/ex_2_5_3.png","arrowright","response","ArrowRight","3","2","5","test","true",""
"","","","","","html-keyboard-response","184","171721","0.0-6.25-4.25","5f27d96875d81b0008db8d5f","65576f040411c2a4be0341a4","65576f888cf726c39b1a259a","null","<p> <font color=""green"" size=""5vw""> Correct category! </font> <br> <br> <font color=""green"" size=""8vw""> + $0.05 </font> </p>","null","feedback","","","","","","","1.15"
"","","","","","html-keyboard-response","185","172136","0.0-6.26-0.26","5f27d96875d81b0008db8d5f","65576f040411c2a4be0341a4","65576f888cf726c39b1a259a","413","
            
        <div style=""text-align: center; position: fixed; top: 5vh; left: 40vw;"">
            <div style=""margin:0 auto; width: 20vw; top: 8vh; font-size: 2vw""> 
            <font color=""green""> Bonus : $1.15 </font>
            </div>
        </div>
    
            <div> Please press any button to continue to the next trial.</div>
        ","arrowleft","ITI","","","","","","",""
"","","","","","html-keyboard-response","186","172738","0.0-6.26-1.26","5f27d96875d81b0008db8d5f","65576f040411c2a4be0341a4","65576f888cf726c39b1a259a","null","
        
        <div style=""text-align: center; position: fixed; top: 5vh; left: 40vw;"">
            <div style=""margin:0 auto; width: 20vw; top: 8vh; font-size: 2vw""> 
            <font color=""green""> Bonus : $1.15 </font>
            </div>
        </div>
    
        <img class=""stim"" src=./stimuli//pack_shapes_diff/cat_1/diff_5/ex_1_5_4.png></img>
    ","null","stimulus","","","","","","",""
"","","","","","html-keyboard-response","187","173757","0.0-6.26-2.26","5f27d96875d81b0008db8d5f","65576f040411c2a4be0341a4","65576f888cf726c39b1a259a","null","
        <div style=""text-align: center; position: fixed; top: 5vh; left: 40vw;"">
            <div style=""margin:0 auto; width: 20vw; top: 8vh; font-size: 2vw""> 
            <font color=""green""> Bonus : $1.15 </font>
            </div>
        </div>
    ","null","","","","","","","",""
"","","","","","html-keyboard-response","188","174040","0.0-6.26-3.26","5f27d96875d81b0008db8d5f","65576f040411c2a4be0341a4","65576f888cf726c39b1a259a","283","./stimuli//pack_shapes_diff/cat_1/diff_5/ex_1_5_4.png","arrowleft","response","ArrowLeft","4","1","5","test","true",""
"","","","","","html-keyboard-response","189","175557","0.0-6.26-4.26","5f27d96875d81b0008db8d5f","65576f040411c2a4be0341a4","65576f888cf726c39b1a259a","null","<p> <font color=""green"" size=""5vw""> Correct category! </font> <br> <br> <font color=""green"" size=""8vw""> + $0.05 </font> </p>","null","feedback","","","","","","","1.2"
"","","","","","html-keyboard-response","190","175873","0.0-6.27-0.27","5f27d96875d81b0008db8d5f","65576f040411c2a4be0341a4","65576f888cf726c39b1a259a","315","
            
        <div style=""text-align: center; position: fixed; top: 5vh; left: 40vw;"">
            <div style=""margin:0 auto; width: 20vw; top: 8vh; font-size: 2vw""> 
            <font color=""green""> Bonus : $1.2 </font>
            </div>
        </div>
    
            <div> Please press any button to continue to the next trial.</div>
        ","arrowleft","ITI","","","","","","",""
"","","","","","html-keyboard-response","191","176474","0.0-6.27-1.27","5f27d96875d81b0008db8d5f","65576f040411c2a4be0341a4","65576f888cf726c39b1a259a","null","
        
        <div style=""text-align: center; position: fixed; top: 5vh; left: 40vw;"">
            <div style=""margin:0 auto; width: 20vw; top: 8vh; font-size: 2vw""> 
            <font color=""green""> Bonus : $1.2 </font>
            </div>
        </div>
    
        <img class=""stim"" src=./stimuli//pack_shapes_diff/cat_2/diff_5/ex_2_5_12.png></img>
    ","null","stimulus","","","","","","",""
"","","","","","html-keyboard-response","192","177491","0.0-6.27-2.27","5f27d96875d81b0008db8d5f","65576f040411c2a4be0341a4","65576f888cf726c39b1a259a","null","
        <div style=""text-align: center; position: fixed; top: 5vh; left: 40vw;"">
            <div style=""margin:0 auto; width: 20vw; top: 8vh; font-size: 2vw""> 
            <font color=""green""> Bonus : $1.2 </font>
            </div>
        </div>
    ","null","","","","","","","",""
"","","","","","html-keyboard-response","193","177724","0.0-6.27-3.27","5f27d96875d81b0008db8d5f","65576f040411c2a4be0341a4","65576f888cf726c39b1a259a","232","./stimuli//pack_shapes_diff/cat_2/diff_5/ex_2_5_12.png","arrowright","response","ArrowRight","12","2","5","test","true",""
"","","","","","html-keyboard-response","194","179242","0.0-6.27-4.27","5f27d96875d81b0008db8d5f","65576f040411c2a4be0341a4","65576f888cf726c39b1a259a","null","<p> <font color=""green"" size=""5vw""> Correct category! </font> <br> <br> <font color=""green"" size=""8vw""> + $0.05 </font> </p>","null","feedback","","","","","","","1.25"
"","","","","","html-keyboard-response","195","179545","0.0-6.28-0.28","5f27d96875d81b0008db8d5f","65576f040411c2a4be0341a4","65576f888cf726c39b1a259a","303","
            
        <div style=""text-align: center; position: fixed; top: 5vh; left: 40vw;"">
            <div style=""margin:0 auto; width: 20vw; top: 8vh; font-size: 2vw""> 
            <font color=""green""> Bonus : $1.25 </font>
            </div>
        </div>
    
            <div> Please press any button to continue to the next trial.</div>
        ","arrowleft","ITI","","","","","","",""
"","","","","","html-keyboard-response","196","180159","0.0-6.28-1.28","5f27d96875d81b0008db8d5f","65576f040411c2a4be0341a4","65576f888cf726c39b1a259a","null","
        
        <div style=""text-align: center; position: fixed; top: 5vh; left: 40vw;"">
            <div style=""margin:0 auto; width: 20vw; top: 8vh; font-size: 2vw""> 
            <font color=""green""> Bonus : $1.25 </font>
            </div>
        </div>
    
        <img class=""stim"" src=./stimuli//pack_shapes_diff/cat_2/diff_5/ex_2_5_11.png></img>
    ","null","stimulus","","","","","","",""
"","","","","","html-keyboard-response","197","181176","0.0-6.28-2.28","5f27d96875d81b0008db8d5f","65576f040411c2a4be0341a4","65576f888cf726c39b1a259a","null","
        <div style=""text-align: center; position: fixed; top: 5vh; left: 40vw;"">
            <div style=""margin:0 auto; width: 20vw; top: 8vh; font-size: 2vw""> 
            <font color=""green""> Bonus : $1.25 </font>
            </div>
        </div>
    ","null","","","","","","","",""
"","","","","","html-keyboard-response","198","181283","0.0-6.28-3.28","5f27d96875d81b0008db8d5f","65576f040411c2a4be0341a4","65576f888cf726c39b1a259a","106","./stimuli//pack_shapes_diff/cat_2/diff_5/ex_2_5_11.png","arrowright","response","ArrowRight","11","2","5","test","true",""
"","","","","","html-keyboard-response","199","182793","0.0-6.28-4.28","5f27d96875d81b0008db8d5f","65576f040411c2a4be0341a4","65576f888cf726c39b1a259a","null","<p> <font color=""green"" size=""5vw""> Correct category! </font> <br> <br> <font color=""green"" size=""8vw""> + $0.05 </font> </p>","null","feedback","","","","","","","1.3"
"","","","","","html-keyboard-response","200","183115","0.0-6.29-0.29","5f27d96875d81b0008db8d5f","65576f040411c2a4be0341a4","65576f888cf726c39b1a259a","321","
            
        <div style=""text-align: center; position: fixed; top: 5vh; left: 40vw;"">
            <div style=""margin:0 auto; width: 20vw; top: 8vh; font-size: 2vw""> 
            <font color=""green""> Bonus : $1.3 </font>
            </div>
        </div>
    
            <div> Please press any button to continue to the next trial.</div>
        ","arrowright","ITI","","","","","","",""
"","","","","","html-keyboard-response","201","183727","0.0-6.29-1.29","5f27d96875d81b0008db8d5f","65576f040411c2a4be0341a4","65576f888cf726c39b1a259a","null","
        
        <div style=""text-align: center; position: fixed; top: 5vh; left: 40vw;"">
            <div style=""margin:0 auto; width: 20vw; top: 8vh; font-size: 2vw""> 
            <font color=""green""> Bonus : $1.3 </font>
            </div>
        </div>
    
        <img class=""stim"" src=./stimuli//pack_shapes_diff/cat_2/diff_5/ex_2_5_12.png></img>
    ","null","stimulus","","","","","","",""
"","","","","","html-keyboard-response","202","184743","0.0-6.29-2.29","5f27d96875d81b0008db8d5f","65576f040411c2a4be0341a4","65576f888cf726c39b1a259a","null","
        <div style=""text-align: center; position: fixed; top: 5vh; left: 40vw;"">
            <div style=""margin:0 auto; width: 20vw; top: 8vh; font-size: 2vw""> 
            <font color=""green""> Bonus : $1.3 </font>
            </div>
        </div>
    ","null","","","","","","","",""
"","","","","","html-keyboard-response","203","184940","0.0-6.29-3.29","5f27d96875d81b0008db8d5f","65576f040411c2a4be0341a4","65576f888cf726c39b1a259a","196","./stimuli//pack_shapes_diff/cat_2/diff_5/ex_2_5_12.png","arrowleft","response","ArrowRight","12","2","5","test","false",""
"","","","","","html-keyboard-response","204","186445","0.0-6.29-4.29","5f27d96875d81b0008db8d5f","65576f040411c2a4be0341a4","65576f888cf726c39b1a259a","null","<p> <font color=""red"" size=""5vw""> Wrong category! </font> </p>","null","feedback","","","","","","","1.3"
"","","","","","html-keyboard-response","205","186729","0.0-6.30-0.30","5f27d96875d81b0008db8d5f","65576f040411c2a4be0341a4","65576f888cf726c39b1a259a","284","
            
        <div style=""text-align: center; position: fixed; top: 5vh; left: 40vw;"">
            <div style=""margin:0 auto; width: 20vw; top: 8vh; font-size: 2vw""> 
            <font color=""green""> Bonus : $1.3 </font>
            </div>
        </div>
    
            <div> Please press any button to continue to the next trial.</div>
        ","arrowleft","ITI","","","","","","",""
"","","","","","html-keyboard-response","206","187345","0.0-6.30-1.30","5f27d96875d81b0008db8d5f","65576f040411c2a4be0341a4","65576f888cf726c39b1a259a","null","
        
        <div style=""text-align: center; position: fixed; top: 5vh; left: 40vw;"">
            <div style=""margin:0 auto; width: 20vw; top: 8vh; font-size: 2vw""> 
            <font color=""green""> Bonus : $1.3 </font>
            </div>
        </div>
    
        <img class=""stim"" src=./stimuli//pack_shapes_diff/cat_1/diff_5/ex_1_5_3.png></img>
    ","null","stimulus","","","","","","",""
"","","","","","html-keyboard-response","207","188362","0.0-6.30-2.30","5f27d96875d81b0008db8d5f","65576f040411c2a4be0341a4","65576f888cf726c39b1a259a","null","
        <div style=""text-align: center; position: fixed; top: 5vh; left: 40vw;"">
            <div style=""margin:0 auto; width: 20vw; top: 8vh; font-size: 2vw""> 
            <font color=""green""> Bonus : $1.3 </font>
            </div>
        </div>
    ","null","","","","","","","",""
"","","","","","html-keyboard-response","208","188546","0.0-6.30-3.30","5f27d96875d81b0008db8d5f","65576f040411c2a4be0341a4","65576f888cf726c39b1a259a","183","./stimuli//pack_shapes_diff/cat_1/diff_5/ex_1_5_3.png","arrowleft","response","ArrowLeft","3","1","5","test","true",""
"","","","","","html-keyboard-response","209","190063","0.0-6.30-4.30","5f27d96875d81b0008db8d5f","65576f040411c2a4be0341a4","65576f888cf726c39b1a259a","null","<p> <font color=""green"" size=""5vw""> Correct category! </font> <br> <br> <font color=""green"" size=""8vw""> + $0.05 </font> </p>","null","feedback","","","","","","","1.35"
"","","","","","html-keyboard-response","210","190479","0.0-6.31-0.31","5f27d96875d81b0008db8d5f","65576f040411c2a4be0341a4","65576f888cf726c39b1a259a","416","
            
        <div style=""text-align: center; position: fixed; top: 5vh; left: 40vw;"">
            <div style=""margin:0 auto; width: 20vw; top: 8vh; font-size: 2vw""> 
            <font color=""green""> Bonus : $1.35 </font>
            </div>
        </div>
    
            <div> Please press any button to continue to the next trial.</div>
        ","arrowleft","ITI","","","","","","",""
"","","","","","html-keyboard-response","211","191097","0.0-6.31-1.31","5f27d96875d81b0008db8d5f","65576f040411c2a4be0341a4","65576f888cf726c39b1a259a","null","
        
        <div style=""text-align: center; position: fixed; top: 5vh; left: 40vw;"">
            <div style=""margin:0 auto; width: 20vw; top: 8vh; font-size: 2vw""> 
            <font color=""green""> Bonus : $1.35 </font>
            </div>
        </div>
    
        <img class=""stim"" src=./stimuli//pack_shapes_diff/cat_2/diff_5/ex_2_5_11.png></img>
    ","null","stimulus","","","","","","",""
"","","","","","html-keyboard-response","212","192103","0.0-6.31-2.31","5f27d96875d81b0008db8d5f","65576f040411c2a4be0341a4","65576f888cf726c39b1a259a","null","
        <div style=""text-align: center; position: fixed; top: 5vh; left: 40vw;"">
            <div style=""margin:0 auto; width: 20vw; top: 8vh; font-size: 2vw""> 
            <font color=""green""> Bonus : $1.35 </font>
            </div>
        </div>
    ","null","","","","","","","",""
"","","","","","html-keyboard-response","213","192294","0.0-6.31-3.31","5f27d96875d81b0008db8d5f","65576f040411c2a4be0341a4","65576f888cf726c39b1a259a","191","./stimuli//pack_shapes_diff/cat_2/diff_5/ex_2_5_11.png","arrowright","response","ArrowRight","11","2","5","test","true",""
"","","","","","html-keyboard-response","214","193798","0.0-6.31-4.31","5f27d96875d81b0008db8d5f","65576f040411c2a4be0341a4","65576f888cf726c39b1a259a","null","<p> <font color=""green"" size=""5vw""> Correct category! </font> <br> <br> <font color=""green"" size=""8vw""> + $0.05 </font> </p>","null","feedback","","","","","","","1.4"
"","","","","","html-keyboard-response","215","194117","0.0-6.32-0.32","5f27d96875d81b0008db8d5f","65576f040411c2a4be0341a4","65576f888cf726c39b1a259a","318","
            
        <div style=""text-align: center; position: fixed; top: 5vh; left: 40vw;"">
            <div style=""margin:0 auto; width: 20vw; top: 8vh; font-size: 2vw""> 
            <font color=""green""> Bonus : $1.4 </font>
            </div>
        </div>
    
            <div> Please press any button to continue to the next trial.</div>
        ","arrowright","ITI","","","","","","",""
"","","","","","html-keyboard-response","216","194731","0.0-6.32-1.32","5f27d96875d81b0008db8d5f","65576f040411c2a4be0341a4","65576f888cf726c39b1a259a","null","
        
        <div style=""text-align: center; position: fixed; top: 5vh; left: 40vw;"">
            <div style=""margin:0 auto; width: 20vw; top: 8vh; font-size: 2vw""> 
            <font color=""green""> Bonus : $1.4 </font>
            </div>
        </div>
    
        <img class=""stim"" src=./stimuli//pack_shapes_diff/cat_1/diff_5/ex_1_5_5.png></img>
    ","null","stimulus","","","","","","",""
"","","","","","html-keyboard-response","217","195738","0.0-6.32-2.32","5f27d96875d81b0008db8d5f","65576f040411c2a4be0341a4","65576f888cf726c39b1a259a","null","
        <div style=""text-align: center; position: fixed; top: 5vh; left: 40vw;"">
            <div style=""margin:0 auto; width: 20vw; top: 8vh; font-size: 2vw""> 
            <font color=""green""> Bonus : $1.4 </font>
            </div>
        </div>
    ","null","","","","","","","",""
"","","","","","html-keyboard-response","218","195897","0.0-6.32-3.32","5f27d96875d81b0008db8d5f","65576f040411c2a4be0341a4","65576f888cf726c39b1a259a","159","./stimuli//pack_shapes_diff/cat_1/diff_5/ex_1_5_5.png","arrowleft","response","ArrowLeft","5","1","5","test","true",""
"","","","","","html-keyboard-response","219","197399","0.0-6.32-4.32","5f27d96875d81b0008db8d5f","65576f040411c2a4be0341a4","65576f888cf726c39b1a259a","null","<p> <font color=""green"" size=""5vw""> Correct category! </font> <br> <br> <font color=""green"" size=""8vw""> + $0.05 </font> </p>","null","feedback","","","","","","","1.45"
"","","","","","html-keyboard-response","220","197738","0.0-6.33-0.33","5f27d96875d81b0008db8d5f","65576f040411c2a4be0341a4","65576f888cf726c39b1a259a","338","
            
        <div style=""text-align: center; position: fixed; top: 5vh; left: 40vw;"">
            <div style=""margin:0 auto; width: 20vw; top: 8vh; font-size: 2vw""> 
            <font color=""green""> Bonus : $1.45 </font>
            </div>
        </div>
    
            <div> Please press any button to continue to the next trial.</div>
        ","arrowleft","ITI","","","","","","",""
"","","","","","html-keyboard-response","221","198350","0.0-6.33-1.33","5f27d96875d81b0008db8d5f","65576f040411c2a4be0341a4","65576f888cf726c39b1a259a","null","
        
        <div style=""text-align: center; position: fixed; top: 5vh; left: 40vw;"">
            <div style=""margin:0 auto; width: 20vw; top: 8vh; font-size: 2vw""> 
            <font color=""green""> Bonus : $1.45 </font>
            </div>
        </div>
    
        <img class=""stim"" src=./stimuli//pack_shapes_diff/cat_1/diff_5/ex_1_5_1.png></img>
    ","null","stimulus","","","","","","",""
"","","","","","html-keyboard-response","222","199356","0.0-6.33-2.33","5f27d96875d81b0008db8d5f","65576f040411c2a4be0341a4","65576f888cf726c39b1a259a","null","
        <div style=""text-align: center; position: fixed; top: 5vh; left: 40vw;"">
            <div style=""margin:0 auto; width: 20vw; top: 8vh; font-size: 2vw""> 
            <font color=""green""> Bonus : $1.45 </font>
            </div>
        </div>
    ","null","","","","","","","",""
"","","","","","html-keyboard-response","223","199571","0.0-6.33-3.33","5f27d96875d81b0008db8d5f","65576f040411c2a4be0341a4","65576f888cf726c39b1a259a","214","./stimuli//pack_shapes_diff/cat_1/diff_5/ex_1_5_1.png","arrowleft","response","ArrowLeft","1","1","5","test","true",""
"","","","","","html-keyboard-response","224","201084","0.0-6.33-4.33","5f27d96875d81b0008db8d5f","65576f040411c2a4be0341a4","65576f888cf726c39b1a259a","null","<p> <font color=""green"" size=""5vw""> Correct category! </font> <br> <br> <font color=""green"" size=""8vw""> + $0.05 </font> </p>","null","feedback","","","","","","","1.5"
"","","","","","html-keyboard-response","225","201405","0.0-6.34-0.34","5f27d96875d81b0008db8d5f","65576f040411c2a4be0341a4","65576f888cf726c39b1a259a","321","
            
        <div style=""text-align: center; position: fixed; top: 5vh; left: 40vw;"">
            <div style=""margin:0 auto; width: 20vw; top: 8vh; font-size: 2vw""> 
            <font color=""green""> Bonus : $1.5 </font>
            </div>
        </div>
    
            <div> Please press any button to continue to the next trial.</div>
        ","arrowleft","ITI","","","","","","",""
"","","","","","html-keyboard-response","226","202018","0.0-6.34-1.34","5f27d96875d81b0008db8d5f","65576f040411c2a4be0341a4","65576f888cf726c39b1a259a","null","
        
        <div style=""text-align: center; position: fixed; top: 5vh; left: 40vw;"">
            <div style=""margin:0 auto; width: 20vw; top: 8vh; font-size: 2vw""> 
            <font color=""green""> Bonus : $1.5 </font>
            </div>
        </div>
    
        <img class=""stim"" src=./stimuli//pack_shapes_diff/cat_1/diff_5/ex_1_5_2.png></img>
    ","null","stimulus","","","","","","",""
"","","","","","html-keyboard-response","227","203024","0.0-6.34-2.34","5f27d96875d81b0008db8d5f","65576f040411c2a4be0341a4","65576f888cf726c39b1a259a","null","
        <div style=""text-align: center; position: fixed; top: 5vh; left: 40vw;"">
            <div style=""margin:0 auto; width: 20vw; top: 8vh; font-size: 2vw""> 
            <font color=""green""> Bonus : $1.5 </font>
            </div>
        </div>
    ","null","","","","","","","",""
"","","","","","html-keyboard-response","228","203248","0.0-6.34-3.34","5f27d96875d81b0008db8d5f","65576f040411c2a4be0341a4","65576f888cf726c39b1a259a","223","./stimuli//pack_shapes_diff/cat_1/diff_5/ex_1_5_2.png","arrowleft","response","ArrowLeft","2","1","5","test","true",""
