"success","timeout","failed_images","failed_audio","failed_video","trial_type","trial_index","time_elapsed","internal_node_id","subject_id","study_id","session_id","rt","stimulus","response","task","correct_response","exemplar_ID","category","difficulty","phase","correct","bonus"
"true","false","[]","[]","[]","preload","0","3","0.0-0.0","5ed263aeba65480a03b6c31f","65576f040411c2a4be0341a4","65576f6f01742623814f9d5e","","","","","","","","","","",""
"","","","","","html-keyboard-response","1","7668","0.0-1.0","5ed263aeba65480a03b6c31f","65576f040411c2a4be0341a4","65576f6f01742623814f9d5e","7665","Welcome to the Category Learning experiment! Press any key to continue."," ","welcome","","","","","","",""
"","","","","","html-keyboard-response","2","34246","0.0-2.0","5ed263aeba65480a03b6c31f","65576f040411c2a4be0341a4","65576f6f01742623814f9d5e","26574","
            <p>You will be shown images of black shapes. Some are category A, some are category B.
            <br>You will not know in advance which category a specific shape belongs to.</p>
            <p>After you see an image, you will be asked to guess its category <b>(left arrow for category A, right arrow for category B)</b></p>
            <p>After you choose, the screen will show you whether you were correct or not.</p>
            <p><b>You will receive a bonus payment of $0.05 for each correct answer!</b></p>
            <p> So you can increase your bonus by guessing correctly, and by guessing as quickly as possible so you move on to the next image sooner.</p>
            <p>Press any key to continue.</p>
            "," ","introduction_1","","","","","","",""
"","","","","","html-keyboard-response","3","42399","0.0-3.0","5ed263aeba65480a03b6c31f","65576f040411c2a4be0341a4","65576f6f01742623814f9d5e","8153","
            <p> <b>The first 10 trials are a practice round that will not count towards your bonus payment.</b></p>
            <p> You will be notified when practice finishes and the test begins. </p>
            <p> Press any key to begin the practice round.</p>
            "," ","introduction_2","","","","","","",""
"","","","","","html-keyboard-response","4","45497","0.0-4.0-0.0","5ed263aeba65480a03b6c31f","65576f040411c2a4be0341a4","65576f6f01742623814f9d5e","3097","
            
        <div style=""text-align: center; position: fixed; top: 5vh; left: 40vw;"">
            <div style=""margin:0 auto; width: 20vw; top: 8vh; font-size: 2vw""> 
            <font color=""green""> Bonus : $0 </font>
            </div>
        </div>
    
            <div> Please press any button to continue to the next trial.</div>
        ","arrowleft","ITI","","","","","","",""
"","","","","","html-keyboard-response","5","46115","0.0-4.0-1.0","5ed263aeba65480a03b6c31f","65576f040411c2a4be0341a4","65576f6f01742623814f9d5e","null","
        
        <div style=""text-align: center; position: fixed; top: 5vh; left: 40vw;"">
            <div style=""margin:0 auto; width: 20vw; top: 8vh; font-size: 2vw""> 
            <font color=""green""> Bonus : $0 </font>
            </div>
        </div>
    
        <img class=""stim"" src=./stimuli//pack_shapes_diff/cat_1/diff_1/ex_1_1_3.png></img>
    ","null","stimulus","","","","","","",""
"","","","","","html-keyboard-response","6","47120","0.0-4.0-2.0","5ed263aeba65480a03b6c31f","65576f040411c2a4be0341a4","65576f6f01742623814f9d5e","null","
        <div style=""text-align: center; position: fixed; top: 5vh; left: 40vw;"">
            <div style=""margin:0 auto; width: 20vw; top: 8vh; font-size: 2vw""> 
            <font color=""green""> Bonus : $0 </font>
            </div>
        </div>
    ","null","","","","","","","",""
"","","","","","html-keyboard-response","7","51133","0.0-4.0-3.0","5ed263aeba65480a03b6c31f","65576f040411c2a4be0341a4","65576f6f01742623814f9d5e","null","./stimuli//pack_shapes_diff/cat_1/diff_1/ex_1_1_3.png","null","response","ArrowLeft","3","1","1","train","false",""
"","","","","","html-keyboard-response","8","52643","0.0-4.0-4.0","5ed263aeba65480a03b6c31f","65576f040411c2a4be0341a4","65576f6f01742623814f9d5e","null","<p> <font color=""red"" size=""5vw""> Time out! </font> <br> Please try to respond as quickly as possible. </p>","null","feedback","","","","","","","0"
"","","","","","html-keyboard-response","9","55473","0.0-4.0-0.1","5ed263aeba65480a03b6c31f","65576f040411c2a4be0341a4","65576f6f01742623814f9d5e","2828","
            
        <div style=""text-align: center; position: fixed; top: 5vh; left: 40vw;"">
            <div style=""margin:0 auto; width: 20vw; top: 8vh; font-size: 2vw""> 
            <font color=""green""> Bonus : $0 </font>
            </div>
        </div>
    
            <div> Please press any button to continue to the next trial.</div>
        ","arrowleft","ITI","","","","","","",""
"","","","","","html-keyboard-response","10","56084","0.0-4.0-1.1","5ed263aeba65480a03b6c31f","65576f040411c2a4be0341a4","65576f6f01742623814f9d5e","null","
        
        <div style=""text-align: center; position: fixed; top: 5vh; left: 40vw;"">
            <div style=""margin:0 auto; width: 20vw; top: 8vh; font-size: 2vw""> 
            <font color=""green""> Bonus : $0 </font>
            </div>
        </div>
    
        <img class=""stim"" src=./stimuli//pack_shapes_diff/cat_1/diff_2/ex_1_2_5.png></img>
    ","null","stimulus","","","","","","",""
"","","","","","html-keyboard-response","11","57094","0.0-4.0-2.1","5ed263aeba65480a03b6c31f","65576f040411c2a4be0341a4","65576f6f01742623814f9d5e","null","
        <div style=""text-align: center; position: fixed; top: 5vh; left: 40vw;"">
            <div style=""margin:0 auto; width: 20vw; top: 8vh; font-size: 2vw""> 
            <font color=""green""> Bonus : $0 </font>
            </div>
        </div>
    ","null","","","","","","","",""
"","","","","","html-keyboard-response","12","57733","0.0-4.0-3.1","5ed263aeba65480a03b6c31f","65576f040411c2a4be0341a4","65576f6f01742623814f9d5e","638","./stimuli//pack_shapes_diff/cat_1/diff_2/ex_1_2_5.png","arrowleft","response","ArrowLeft","5","1","2","train","true",""
"","","","","","html-keyboard-response","13","59235","0.0-4.0-4.1","5ed263aeba65480a03b6c31f","65576f040411c2a4be0341a4","65576f6f01742623814f9d5e","null","<p> <font color=""green"" size=""5vw""> Correct category! </font> </p>","null","feedback","","","","","","","0"
"","","","","","html-keyboard-response","14","60237","0.0-4.0-0.2","5ed263aeba65480a03b6c31f","65576f040411c2a4be0341a4","65576f6f01742623814f9d5e","1001","
            
        <div style=""text-align: center; position: fixed; top: 5vh; left: 40vw;"">
            <div style=""margin:0 auto; width: 20vw; top: 8vh; font-size: 2vw""> 
            <font color=""green""> Bonus : $0 </font>
            </div>
        </div>
    
            <div> Please press any button to continue to the next trial.</div>
        ","arrowleft","ITI","","","","","","",""
"","","","","","html-keyboard-response","15","60845","0.0-4.0-1.2","5ed263aeba65480a03b6c31f","65576f040411c2a4be0341a4","65576f6f01742623814f9d5e","null","
        
        <div style=""text-align: center; position: fixed; top: 5vh; left: 40vw;"">
            <div style=""margin:0 auto; width: 20vw; top: 8vh; font-size: 2vw""> 
            <font color=""green""> Bonus : $0 </font>
            </div>
        </div>
    
        <img class=""stim"" src=./stimuli//pack_shapes_diff/cat_2/diff_1/ex_2_1_10.png></img>
    ","null","stimulus","","","","","","",""
"","","","","","html-keyboard-response","16","61848","0.0-4.0-2.2","5ed263aeba65480a03b6c31f","65576f040411c2a4be0341a4","65576f6f01742623814f9d5e","null","
        <div style=""text-align: center; position: fixed; top: 5vh; left: 40vw;"">
            <div style=""margin:0 auto; width: 20vw; top: 8vh; font-size: 2vw""> 
            <font color=""green""> Bonus : $0 </font>
            </div>
        </div>
    ","null","","","","","","","",""
"","","","","","html-keyboard-response","17","62190","0.0-4.0-3.2","5ed263aeba65480a03b6c31f","65576f040411c2a4be0341a4","65576f6f01742623814f9d5e","341","./stimuli//pack_shapes_diff/cat_2/diff_1/ex_2_1_10.png","arrowleft","response","ArrowRight","10","2","1","train","false",""
"","","","","","html-keyboard-response","18","63696","0.0-4.0-4.2","5ed263aeba65480a03b6c31f","65576f040411c2a4be0341a4","65576f6f01742623814f9d5e","null","<p> <font color=""red"" size=""5vw""> Wrong category! </font> </p>","null","feedback","","","","","","","0"
"","","","","","html-keyboard-response","19","64873","0.0-4.0-0.3","5ed263aeba65480a03b6c31f","65576f040411c2a4be0341a4","65576f6f01742623814f9d5e","1176","
            
        <div style=""text-align: center; position: fixed; top: 5vh; left: 40vw;"">
            <div style=""margin:0 auto; width: 20vw; top: 8vh; font-size: 2vw""> 
            <font color=""green""> Bonus : $0 </font>
            </div>
        </div>
    
            <div> Please press any button to continue to the next trial.</div>
        ","arrowleft","ITI","","","","","","",""
"","","","","","html-keyboard-response","20","65477","0.0-4.0-1.3","5ed263aeba65480a03b6c31f","65576f040411c2a4be0341a4","65576f6f01742623814f9d5e","null","
        
        <div style=""text-align: center; position: fixed; top: 5vh; left: 40vw;"">
            <div style=""margin:0 auto; width: 20vw; top: 8vh; font-size: 2vw""> 
            <font color=""green""> Bonus : $0 </font>
            </div>
        </div>
    
        <img class=""stim"" src=./stimuli//pack_shapes_diff/cat_1/diff_1/ex_1_1_16.png></img>
    ","null","stimulus","","","","","","",""
"","","","","","html-keyboard-response","21","66486","0.0-4.0-2.3","5ed263aeba65480a03b6c31f","65576f040411c2a4be0341a4","65576f6f01742623814f9d5e","null","
        <div style=""text-align: center; position: fixed; top: 5vh; left: 40vw;"">
            <div style=""margin:0 auto; width: 20vw; top: 8vh; font-size: 2vw""> 
            <font color=""green""> Bonus : $0 </font>
            </div>
        </div>
    ","null","","","","","","","",""
"","","","","","html-keyboard-response","22","67069","0.0-4.0-3.3","5ed263aeba65480a03b6c31f","65576f040411c2a4be0341a4","65576f6f01742623814f9d5e","582","./stimuli//pack_shapes_diff/cat_1/diff_1/ex_1_1_16.png","arrowright","response","ArrowLeft","16","1","1","train","false",""
"","","","","","html-keyboard-response","23","68574","0.0-4.0-4.3","5ed263aeba65480a03b6c31f","65576f040411c2a4be0341a4","65576f6f01742623814f9d5e","null","<p> <font color=""red"" size=""5vw""> Wrong category! </font> </p>","null","feedback","","","","","","","0"
"","","","","","html-keyboard-response","24","69170","0.0-4.0-0.4","5ed263aeba65480a03b6c31f","65576f040411c2a4be0341a4","65576f6f01742623814f9d5e","596","
            
        <div style=""text-align: center; position: fixed; top: 5vh; left: 40vw;"">
            <div style=""margin:0 auto; width: 20vw; top: 8vh; font-size: 2vw""> 
            <font color=""green""> Bonus : $0 </font>
            </div>
        </div>
    
            <div> Please press any button to continue to the next trial.</div>
        ","arrowleft","ITI","","","","","","",""
"","","","","","html-keyboard-response","25","69779","0.0-4.0-1.4","5ed263aeba65480a03b6c31f","65576f040411c2a4be0341a4","65576f6f01742623814f9d5e","null","
        
        <div style=""text-align: center; position: fixed; top: 5vh; left: 40vw;"">
            <div style=""margin:0 auto; width: 20vw; top: 8vh; font-size: 2vw""> 
            <font color=""green""> Bonus : $0 </font>
            </div>
        </div>
    
        <img class=""stim"" src=./stimuli//pack_shapes_diff/cat_1/diff_2/ex_1_2_8.png></img>
    ","null","stimulus","","","","","","",""
"","","","","","html-keyboard-response","26","70789","0.0-4.0-2.4","5ed263aeba65480a03b6c31f","65576f040411c2a4be0341a4","65576f6f01742623814f9d5e","null","
        <div style=""text-align: center; position: fixed; top: 5vh; left: 40vw;"">
            <div style=""margin:0 auto; width: 20vw; top: 8vh; font-size: 2vw""> 
            <font color=""green""> Bonus : $0 </font>
            </div>
        </div>
    ","null","","","","","","","",""
"","","","","","html-keyboard-response","27","71105","0.0-4.0-3.4","5ed263aeba65480a03b6c31f","65576f040411c2a4be0341a4","65576f6f01742623814f9d5e","314","./stimuli//pack_shapes_diff/cat_1/diff_2/ex_1_2_8.png","arrowleft","response","ArrowLeft","8","1","2","train","true",""
"","","","","","html-keyboard-response","28","72612","0.0-4.0-4.4","5ed263aeba65480a03b6c31f","65576f040411c2a4be0341a4","65576f6f01742623814f9d5e","null","<p> <font color=""green"" size=""5vw""> Correct category! </font> </p>","null","feedback","","","","","","","0"
"","","","","","html-keyboard-response","29","73231","0.0-4.0-0.5","5ed263aeba65480a03b6c31f","65576f040411c2a4be0341a4","65576f6f01742623814f9d5e","617","
            
        <div style=""text-align: center; position: fixed; top: 5vh; left: 40vw;"">
            <div style=""margin:0 auto; width: 20vw; top: 8vh; font-size: 2vw""> 
            <font color=""green""> Bonus : $0 </font>
            </div>
        </div>
    
            <div> Please press any button to continue to the next trial.</div>
        ","arrowleft","ITI","","","","","","",""
"","","","","","html-keyboard-response","30","73839","0.0-4.0-1.5","5ed263aeba65480a03b6c31f","65576f040411c2a4be0341a4","65576f6f01742623814f9d5e","null","
        
        <div style=""text-align: center; position: fixed; top: 5vh; left: 40vw;"">
            <div style=""margin:0 auto; width: 20vw; top: 8vh; font-size: 2vw""> 
            <font color=""green""> Bonus : $0 </font>
            </div>
        </div>
    
        <img class=""stim"" src=./stimuli//pack_shapes_diff/cat_2/diff_1/ex_2_1_3.png></img>
    ","null","stimulus","","","","","","",""
"","","","","","html-keyboard-response","31","74853","0.0-4.0-2.5","5ed263aeba65480a03b6c31f","65576f040411c2a4be0341a4","65576f6f01742623814f9d5e","null","
        <div style=""text-align: center; position: fixed; top: 5vh; left: 40vw;"">
            <div style=""margin:0 auto; width: 20vw; top: 8vh; font-size: 2vw""> 
            <font color=""green""> Bonus : $0 </font>
            </div>
        </div>
    ","null","","","","","","","",""
"","","","","","html-keyboard-response","32","75169","0.0-4.0-3.5","5ed263aeba65480a03b6c31f","65576f040411c2a4be0341a4","65576f6f01742623814f9d5e","315","./stimuli//pack_shapes_diff/cat_2/diff_1/ex_2_1_3.png","arrowleft","response","ArrowRight","3","2","1","train","false",""
"","","","","","html-keyboard-response","33","76681","0.0-4.0-4.5","5ed263aeba65480a03b6c31f","65576f040411c2a4be0341a4","65576f6f01742623814f9d5e","null","<p> <font color=""red"" size=""5vw""> Wrong category! </font> </p>","null","feedback","","","","","","","0"
"","","","","","html-keyboard-response","34","77344","0.0-4.0-0.6","5ed263aeba65480a03b6c31f","65576f040411c2a4be0341a4","65576f6f01742623814f9d5e","662","
            
        <div style=""text-align: center; position: fixed; top: 5vh; left: 40vw;"">
            <div style=""margin:0 auto; width: 20vw; top: 8vh; font-size: 2vw""> 
            <font color=""green""> Bonus : $0 </font>
            </div>
        </div>
    
            <div> Please press any button to continue to the next trial.</div>
        ","arrowleft","ITI","","","","","","",""
"","","","","","html-keyboard-response","35","77950","0.0-4.0-1.6","5ed263aeba65480a03b6c31f","65576f040411c2a4be0341a4","65576f6f01742623814f9d5e","null","
        
        <div style=""text-align: center; position: fixed; top: 5vh; left: 40vw;"">
            <div style=""margin:0 auto; width: 20vw; top: 8vh; font-size: 2vw""> 
            <font color=""green""> Bonus : $0 </font>
            </div>
        </div>
    
        <img class=""stim"" src=./stimuli//pack_shapes_diff/cat_1/diff_1/ex_1_1_15.png></img>
    ","null","stimulus","","","","","","",""
"","","","","","html-keyboard-response","36","78959","0.0-4.0-2.6","5ed263aeba65480a03b6c31f","65576f040411c2a4be0341a4","65576f6f01742623814f9d5e","null","
        <div style=""text-align: center; position: fixed; top: 5vh; left: 40vw;"">
            <div style=""margin:0 auto; width: 20vw; top: 8vh; font-size: 2vw""> 
            <font color=""green""> Bonus : $0 </font>
            </div>
        </div>
    ","null","","","","","","","",""
"","","","","","html-keyboard-response","37","79360","0.0-4.0-3.6","5ed263aeba65480a03b6c31f","65576f040411c2a4be0341a4","65576f6f01742623814f9d5e","400","./stimuli//pack_shapes_diff/cat_1/diff_1/ex_1_1_15.png","arrowright","response","ArrowLeft","15","1","1","train","false",""
"","","","","","html-keyboard-response","38","80872","0.0-4.0-4.6","5ed263aeba65480a03b6c31f","65576f040411c2a4be0341a4","65576f6f01742623814f9d5e","null","<p> <font color=""red"" size=""5vw""> Wrong category! </font> </p>","null","feedback","","","","","","","0"
"","","","","","html-keyboard-response","39","81608","0.0-4.0-0.7","5ed263aeba65480a03b6c31f","65576f040411c2a4be0341a4","65576f6f01742623814f9d5e","735","
            
        <div style=""text-align: center; position: fixed; top: 5vh; left: 40vw;"">
            <div style=""margin:0 auto; width: 20vw; top: 8vh; font-size: 2vw""> 
            <font color=""green""> Bonus : $0 </font>
            </div>
        </div>
    
            <div> Please press any button to continue to the next trial.</div>
        ","arrowright","ITI","","","","","","",""
"","","","","","html-keyboard-response","40","82211","0.0-4.0-1.7","5ed263aeba65480a03b6c31f","65576f040411c2a4be0341a4","65576f6f01742623814f9d5e","null","
        
        <div style=""text-align: center; position: fixed; top: 5vh; left: 40vw;"">
            <div style=""margin:0 auto; width: 20vw; top: 8vh; font-size: 2vw""> 
            <font color=""green""> Bonus : $0 </font>
            </div>
        </div>
    
        <img class=""stim"" src=./stimuli//pack_shapes_diff/cat_2/diff_1/ex_2_1_1.png></img>
    ","null","stimulus","","","","","","",""
"","","","","","html-keyboard-response","41","83212","0.0-4.0-2.7","5ed263aeba65480a03b6c31f","65576f040411c2a4be0341a4","65576f6f01742623814f9d5e","null","
        <div style=""text-align: center; position: fixed; top: 5vh; left: 40vw;"">
            <div style=""margin:0 auto; width: 20vw; top: 8vh; font-size: 2vw""> 
            <font color=""green""> Bonus : $0 </font>
            </div>
        </div>
    ","null","","","","","","","",""
"","","","","","html-keyboard-response","42","83532","0.0-4.0-3.7","5ed263aeba65480a03b6c31f","65576f040411c2a4be0341a4","65576f6f01742623814f9d5e","318","./stimuli//pack_shapes_diff/cat_2/diff_1/ex_2_1_1.png","arrowleft","response","ArrowRight","1","2","1","train","false",""
"","","","","","html-keyboard-response","43","85033","0.0-4.0-4.7","5ed263aeba65480a03b6c31f","65576f040411c2a4be0341a4","65576f6f01742623814f9d5e","null","<p> <font color=""red"" size=""5vw""> Wrong category! </font> </p>","null","feedback","","","","","","","0"
"","","","","","html-keyboard-response","44","85560","0.0-4.0-0.8","5ed263aeba65480a03b6c31f","65576f040411c2a4be0341a4","65576f6f01742623814f9d5e","526","
            
        <div style=""text-align: center; position: fixed; top: 5vh; left: 40vw;"">
            <div style=""margin:0 auto; width: 20vw; top: 8vh; font-size: 2vw""> 
            <font color=""green""> Bonus : $0 </font>
            </div>
        </div>
    
            <div> Please press any button to continue to the next trial.</div>
        ","arrowleft","ITI","","","","","","",""
"","","","","","html-keyboard-response","45","86162","0.0-4.0-1.8","5ed263aeba65480a03b6c31f","65576f040411c2a4be0341a4","65576f6f01742623814f9d5e","null","
        
        <div style=""text-align: center; position: fixed; top: 5vh; left: 40vw;"">
            <div style=""margin:0 auto; width: 20vw; top: 8vh; font-size: 2vw""> 
            <font color=""green""> Bonus : $0 </font>
            </div>
        </div>
    
        <img class=""stim"" src=./stimuli//pack_shapes_diff/cat_2/diff_2/ex_2_2_6.png></img>
    ","null","stimulus","","","","","","",""
"","","","","","html-keyboard-response","46","87176","0.0-4.0-2.8","5ed263aeba65480a03b6c31f","65576f040411c2a4be0341a4","65576f6f01742623814f9d5e","null","
        <div style=""text-align: center; position: fixed; top: 5vh; left: 40vw;"">
            <div style=""margin:0 auto; width: 20vw; top: 8vh; font-size: 2vw""> 
            <font color=""green""> Bonus : $0 </font>
            </div>
        </div>
    ","null","","","","","","","",""
"","","","","","html-keyboard-response","47","87477","0.0-4.0-3.8","5ed263aeba65480a03b6c31f","65576f040411c2a4be0341a4","65576f6f01742623814f9d5e","301","./stimuli//pack_shapes_diff/cat_2/diff_2/ex_2_2_6.png","arrowright","response","ArrowRight","6","2","2","train","true",""
"","","","","","html-keyboard-response","48","88981","0.0-4.0-4.8","5ed263aeba65480a03b6c31f","65576f040411c2a4be0341a4","65576f6f01742623814f9d5e","null","<p> <font color=""green"" size=""5vw""> Correct category! </font> </p>","null","feedback","","","","","","","0"
"","","","","","html-keyboard-response","49","90032","0.0-4.0-0.9","5ed263aeba65480a03b6c31f","65576f040411c2a4be0341a4","65576f6f01742623814f9d5e","1050","
            
        <div style=""text-align: center; position: fixed; top: 5vh; left: 40vw;"">
            <div style=""margin:0 auto; width: 20vw; top: 8vh; font-size: 2vw""> 
            <font color=""green""> Bonus : $0 </font>
            </div>
        </div>
    
            <div> Please press any button to continue to the next trial.</div>
        ","arrowleft","ITI","","","","","","",""
"","","","","","html-keyboard-response","50","90633","0.0-4.0-1.9","5ed263aeba65480a03b6c31f","65576f040411c2a4be0341a4","65576f6f01742623814f9d5e","null","
        
        <div style=""text-align: center; position: fixed; top: 5vh; left: 40vw;"">
            <div style=""margin:0 auto; width: 20vw; top: 8vh; font-size: 2vw""> 
            <font color=""green""> Bonus : $0 </font>
            </div>
        </div>
    
        <img class=""stim"" src=./stimuli//pack_shapes_diff/cat_2/diff_2/ex_2_2_13.png></img>
    ","null","stimulus","","","","","","",""
"","","","","","html-keyboard-response","51","91641","0.0-4.0-2.9","5ed263aeba65480a03b6c31f","65576f040411c2a4be0341a4","65576f6f01742623814f9d5e","null","
        <div style=""text-align: center; position: fixed; top: 5vh; left: 40vw;"">
            <div style=""margin:0 auto; width: 20vw; top: 8vh; font-size: 2vw""> 
            <font color=""green""> Bonus : $0 </font>
            </div>
        </div>
    ","null","","","","","","","",""
"","","","","","html-keyboard-response","52","92282","0.0-4.0-3.9","5ed263aeba65480a03b6c31f","65576f040411c2a4be0341a4","65576f6f01742623814f9d5e","640","./stimuli//pack_shapes_diff/cat_2/diff_2/ex_2_2_13.png","arrowright","response","ArrowRight","13","2","2","train","true",""
"","","","","","html-keyboard-response","53","93798","0.0-4.0-4.9","5ed263aeba65480a03b6c31f","65576f040411c2a4be0341a4","65576f6f01742623814f9d5e","null","<p> <font color=""green"" size=""5vw""> Correct category! </font> </p>","null","feedback","","","","","","","0"
"","","","","","html-keyboard-response","54","97539","0.0-5.0","5ed263aeba65480a03b6c31f","65576f040411c2a4be0341a4","65576f6f01742623814f9d5e","3740","
            <b> <p> The practice round has finished.</p>
            <b> For the rest of the experiment you will receive a $0.05 bonus for each correct answer!</b>
            <p> Press any key to begin the test. </p>
            ","arrowright","intermission","","","","","","",""
"","","","","","html-keyboard-response","55","99908","0.0-6.0-0.0","5ed263aeba65480a03b6c31f","65576f040411c2a4be0341a4","65576f6f01742623814f9d5e","2368","
            
        <div style=""text-align: center; position: fixed; top: 5vh; left: 40vw;"">
            <div style=""margin:0 auto; width: 20vw; top: 8vh; font-size: 2vw""> 
            <font color=""green""> Bonus : $0 </font>
            </div>
        </div>
    
            <div> Please press any button to continue to the next trial.</div>
        ","arrowright","ITI","","","","","","",""
"","","","","","html-keyboard-response","56","100510","0.0-6.0-1.0","5ed263aeba65480a03b6c31f","65576f040411c2a4be0341a4","65576f6f01742623814f9d5e","null","
        
        <div style=""text-align: center; position: fixed; top: 5vh; left: 40vw;"">
            <div style=""margin:0 auto; width: 20vw; top: 8vh; font-size: 2vw""> 
            <font color=""green""> Bonus : $0 </font>
            </div>
        </div>
    
        <img class=""stim"" src=./stimuli//pack_shapes_diff/cat_1/diff_1/ex_1_1_6.png></img>
    ","null","stimulus","","","","","","",""
"","","","","","html-keyboard-response","57","101514","0.0-6.0-2.0","5ed263aeba65480a03b6c31f","65576f040411c2a4be0341a4","65576f6f01742623814f9d5e","null","
        <div style=""text-align: center; position: fixed; top: 5vh; left: 40vw;"">
            <div style=""margin:0 auto; width: 20vw; top: 8vh; font-size: 2vw""> 
            <font color=""green""> Bonus : $0 </font>
            </div>
        </div>
    ","null","","","","","","","",""
"","","","","","html-keyboard-response","58","102114","0.0-6.0-3.0","5ed263aeba65480a03b6c31f","65576f040411c2a4be0341a4","65576f6f01742623814f9d5e","599","./stimuli//pack_shapes_diff/cat_1/diff_1/ex_1_1_6.png","arrowleft","response","ArrowLeft","6","1","1","test","true",""
"","","","","","html-keyboard-response","59","103616","0.0-6.0-4.0","5ed263aeba65480a03b6c31f","65576f040411c2a4be0341a4","65576f6f01742623814f9d5e","null","<p> <font color=""green"" size=""5vw""> Correct category! </font> <br> <br> <font color=""green"" size=""8vw""> + $0.05 </font> </p>","null","feedback","","","","","","","0.05"
"","","","","","html-keyboard-response","60","105009","0.0-6.1-0.1","5ed263aeba65480a03b6c31f","65576f040411c2a4be0341a4","65576f6f01742623814f9d5e","1392","
            
        <div style=""text-align: center; position: fixed; top: 5vh; left: 40vw;"">
            <div style=""margin:0 auto; width: 20vw; top: 8vh; font-size: 2vw""> 
            <font color=""green""> Bonus : $0.05 </font>
            </div>
        </div>
    
            <div> Please press any button to continue to the next trial.</div>
        ","arrowleft","ITI","","","","","","",""
"","","","","","html-keyboard-response","61","105617","0.0-6.1-1.1","5ed263aeba65480a03b6c31f","65576f040411c2a4be0341a4","65576f6f01742623814f9d5e","null","
        
        <div style=""text-align: center; position: fixed; top: 5vh; left: 40vw;"">
            <div style=""margin:0 auto; width: 20vw; top: 8vh; font-size: 2vw""> 
            <font color=""green""> Bonus : $0.05 </font>
            </div>
        </div>
    
        <img class=""stim"" src=./stimuli//pack_shapes_diff/cat_1/diff_1/ex_1_1_12.png></img>
    ","null","stimulus","","","","","","",""
"","","","","","html-keyboard-response","62","106629","0.0-6.1-2.1","5ed263aeba65480a03b6c31f","65576f040411c2a4be0341a4","65576f6f01742623814f9d5e","null","
        <div style=""text-align: center; position: fixed; top: 5vh; left: 40vw;"">
            <div style=""margin:0 auto; width: 20vw; top: 8vh; font-size: 2vw""> 
            <font color=""green""> Bonus : $0.05 </font>
            </div>
        </div>
    ","null","","","","","","","",""
"","","","","","html-keyboard-response","63","106900","0.0-6.1-3.1","5ed263aeba65480a03b6c31f","65576f040411c2a4be0341a4","65576f6f01742623814f9d5e","271","./stimuli//pack_shapes_diff/cat_1/diff_1/ex_1_1_12.png","arrowleft","response","ArrowLeft","12","1","1","test","true",""
"","","","","","html-keyboard-response","64","108404","0.0-6.1-4.1","5ed263aeba65480a03b6c31f","65576f040411c2a4be0341a4","65576f6f01742623814f9d5e","null","<p> <font color=""green"" size=""5vw""> Correct category! </font> <br> <br> <font color=""green"" size=""8vw""> + $0.05 </font> </p>","null","feedback","","","","","","","0.1"
"","","","","","html-keyboard-response","65","109005","0.0-6.2-0.2","5ed263aeba65480a03b6c31f","65576f040411c2a4be0341a4","65576f6f01742623814f9d5e","600","
            
        <div style=""text-align: center; position: fixed; top: 5vh; left: 40vw;"">
            <div style=""margin:0 auto; width: 20vw; top: 8vh; font-size: 2vw""> 
            <font color=""green""> Bonus : $0.1 </font>
            </div>
        </div>
    
            <div> Please press any button to continue to the next trial.</div>
        ","arrowleft","ITI","","","","","","",""
"","","","","","html-keyboard-response","66","109621","0.0-6.2-1.2","5ed263aeba65480a03b6c31f","65576f040411c2a4be0341a4","65576f6f01742623814f9d5e","null","
        
        <div style=""text-align: center; position: fixed; top: 5vh; left: 40vw;"">
            <div style=""margin:0 auto; width: 20vw; top: 8vh; font-size: 2vw""> 
            <font color=""green""> Bonus : $0.1 </font>
            </div>
        </div>
    
        <img class=""stim"" src=./stimuli//pack_shapes_diff/cat_2/diff_1/ex_2_1_5.png></img>
    ","null","stimulus","","","","","","",""
"","","","","","html-keyboard-response","67","110623","0.0-6.2-2.2","5ed263aeba65480a03b6c31f","65576f040411c2a4be0341a4","65576f6f01742623814f9d5e","null","
        <div style=""text-align: center; position: fixed; top: 5vh; left: 40vw;"">
            <div style=""margin:0 auto; width: 20vw; top: 8vh; font-size: 2vw""> 
            <font color=""green""> Bonus : $0.1 </font>
            </div>
        </div>
    ","null","","","","","","","",""
"","","","","","html-keyboard-response","68","111040","0.0-6.2-3.2","5ed263aeba65480a03b6c31f","65576f040411c2a4be0341a4","65576f6f01742623814f9d5e","416","./stimuli//pack_shapes_diff/cat_2/diff_1/ex_2_1_5.png","arrowleft","response","ArrowRight","5","2","1","test","false",""
"","","","","","html-keyboard-response","69","112549","0.0-6.2-4.2","5ed263aeba65480a03b6c31f","65576f040411c2a4be0341a4","65576f6f01742623814f9d5e","null","<p> <font color=""red"" size=""5vw""> Wrong category! </font> </p>","null","feedback","","","","","","","0.1"
"","","","","","html-keyboard-response","70","113203","0.0-6.3-0.3","5ed263aeba65480a03b6c31f","65576f040411c2a4be0341a4","65576f6f01742623814f9d5e","654","
            
        <div style=""text-align: center; position: fixed; top: 5vh; left: 40vw;"">
            <div style=""margin:0 auto; width: 20vw; top: 8vh; font-size: 2vw""> 
            <font color=""green""> Bonus : $0.1 </font>
            </div>
        </div>
    
            <div> Please press any button to continue to the next trial.</div>
        ","arrowleft","ITI","","","","","","",""
"","","","","","html-keyboard-response","71","113807","0.0-6.3-1.3","5ed263aeba65480a03b6c31f","65576f040411c2a4be0341a4","65576f6f01742623814f9d5e","null","
        
        <div style=""text-align: center; position: fixed; top: 5vh; left: 40vw;"">
            <div style=""margin:0 auto; width: 20vw; top: 8vh; font-size: 2vw""> 
            <font color=""green""> Bonus : $0.1 </font>
            </div>
        </div>
    
        <img class=""stim"" src=./stimuli//pack_shapes_diff/cat_1/diff_1/ex_1_1_7.png></img>
    ","null","stimulus","","","","","","",""
"","","","","","html-keyboard-response","72","114812","0.0-6.3-2.3","5ed263aeba65480a03b6c31f","65576f040411c2a4be0341a4","65576f6f01742623814f9d5e","null","
        <div style=""text-align: center; position: fixed; top: 5vh; left: 40vw;"">
            <div style=""margin:0 auto; width: 20vw; top: 8vh; font-size: 2vw""> 
            <font color=""green""> Bonus : $0.1 </font>
            </div>
        </div>
    ","null","","","","","","","",""
"","","","","","html-keyboard-response","73","115054","0.0-6.3-3.3","5ed263aeba65480a03b6c31f","65576f040411c2a4be0341a4","65576f6f01742623814f9d5e","242","./stimuli//pack_shapes_diff/cat_1/diff_1/ex_1_1_7.png","arrowleft","response","ArrowLeft","7","1","1","test","true",""
"","","","","","html-keyboard-response","74","116565","0.0-6.3-4.3","5ed263aeba65480a03b6c31f","65576f040411c2a4be0341a4","65576f6f01742623814f9d5e","null","<p> <font color=""green"" size=""5vw""> Correct category! </font> <br> <br> <font color=""green"" size=""8vw""> + $0.05 </font> </p>","null","feedback","","","","","","","0.15"
"","","","","","html-keyboard-response","75","117170","0.0-6.4-0.4","5ed263aeba65480a03b6c31f","65576f040411c2a4be0341a4","65576f6f01742623814f9d5e","605","
            
        <div style=""text-align: center; position: fixed; top: 5vh; left: 40vw;"">
            <div style=""margin:0 auto; width: 20vw; top: 8vh; font-size: 2vw""> 
            <font color=""green""> Bonus : $0.15 </font>
            </div>
        </div>
    
            <div> Please press any button to continue to the next trial.</div>
        ","arrowleft","ITI","","","","","","",""
"","","","","","html-keyboard-response","76","117782","0.0-6.4-1.4","5ed263aeba65480a03b6c31f","65576f040411c2a4be0341a4","65576f6f01742623814f9d5e","null","
        
        <div style=""text-align: center; position: fixed; top: 5vh; left: 40vw;"">
            <div style=""margin:0 auto; width: 20vw; top: 8vh; font-size: 2vw""> 
            <font color=""green""> Bonus : $0.15 </font>
            </div>
        </div>
    
        <img class=""stim"" src=./stimuli//pack_shapes_diff/cat_2/diff_1/ex_2_1_11.png></img>
    ","null","stimulus","","","","","","",""
"","","","","","html-keyboard-response","77","118797","0.0-6.4-2.4","5ed263aeba65480a03b6c31f","65576f040411c2a4be0341a4","65576f6f01742623814f9d5e","null","
        <div style=""text-align: center; position: fixed; top: 5vh; left: 40vw;"">
            <div style=""margin:0 auto; width: 20vw; top: 8vh; font-size: 2vw""> 
            <font color=""green""> Bonus : $0.15 </font>
            </div>
        </div>
    ","null","","","","","","","",""
"","","","","","html-keyboard-response","78","119097","0.0-6.4-3.4","5ed263aeba65480a03b6c31f","65576f040411c2a4be0341a4","65576f6f01742623814f9d5e","299","./stimuli//pack_shapes_diff/cat_2/diff_1/ex_2_1_11.png","arrowright","response","ArrowRight","11","2","1","test","true",""
"","","","","","html-keyboard-response","79","120604","0.0-6.4-4.4","5ed263aeba65480a03b6c31f","65576f040411c2a4be0341a4","65576f6f01742623814f9d5e","null","<p> <font color=""green"" size=""5vw""> Correct category! </font> <br> <br> <font color=""green"" size=""8vw""> + $0.05 </font> </p>","null","feedback","","","","","","","0.2"
"","","","","","html-keyboard-response","80","121551","0.0-6.5-0.5","5ed263aeba65480a03b6c31f","65576f040411c2a4be0341a4","65576f6f01742623814f9d5e","946","
            
        <div style=""text-align: center; position: fixed; top: 5vh; left: 40vw;"">
            <div style=""margin:0 auto; width: 20vw; top: 8vh; font-size: 2vw""> 
            <font color=""green""> Bonus : $0.2 </font>
            </div>
        </div>
    
            <div> Please press any button to continue to the next trial.</div>
        ","arrowleft","ITI","","","","","","",""
"","","","","","html-keyboard-response","81","122166","0.0-6.5-1.5","5ed263aeba65480a03b6c31f","65576f040411c2a4be0341a4","65576f6f01742623814f9d5e","null","
        
        <div style=""text-align: center; position: fixed; top: 5vh; left: 40vw;"">
            <div style=""margin:0 auto; width: 20vw; top: 8vh; font-size: 2vw""> 
            <font color=""green""> Bonus : $0.2 </font>
            </div>
        </div>
    
        <img class=""stim"" src=./stimuli//pack_shapes_diff/cat_2/diff_2/ex_2_2_16.png></img>
    ","null","stimulus","","","","","","",""
"","","","","","html-keyboard-response","82","123172","0.0-6.5-2.5","5ed263aeba65480a03b6c31f","65576f040411c2a4be0341a4","65576f6f01742623814f9d5e","null","
        <div style=""text-align: center; position: fixed; top: 5vh; left: 40vw;"">
            <div style=""margin:0 auto; width: 20vw; top: 8vh; font-size: 2vw""> 
            <font color=""green""> Bonus : $0.2 </font>
            </div>
        </div>
    ","null","","","","","","","",""
"","","","","","html-keyboard-response","83","124643","0.0-6.5-3.5","5ed263aeba65480a03b6c31f","65576f040411c2a4be0341a4","65576f6f01742623814f9d5e","1470","./stimuli//pack_shapes_diff/cat_2/diff_2/ex_2_2_16.png","arrowleft","response","ArrowRight","16","2","2","test","false",""
"","","","","","html-keyboard-response","84","126156","0.0-6.5-4.5","5ed263aeba65480a03b6c31f","65576f040411c2a4be0341a4","65576f6f01742623814f9d5e","null","<p> <font color=""red"" size=""5vw""> Wrong category! </font> </p>","null","feedback","","","","","","","0.2"
"","","","","","html-keyboard-response","85","127828","0.0-6.6-0.6","5ed263aeba65480a03b6c31f","65576f040411c2a4be0341a4","65576f6f01742623814f9d5e","1671","
            
        <div style=""text-align: center; position: fixed; top: 5vh; left: 40vw;"">
            <div style=""margin:0 auto; width: 20vw; top: 8vh; font-size: 2vw""> 
            <font color=""green""> Bonus : $0.2 </font>
            </div>
        </div>
    
            <div> Please press any button to continue to the next trial.</div>
        ","arrowleft","ITI","","","","","","",""
"","","","","","html-keyboard-response","86","128445","0.0-6.6-1.6","5ed263aeba65480a03b6c31f","65576f040411c2a4be0341a4","65576f6f01742623814f9d5e","null","
        
        <div style=""text-align: center; position: fixed; top: 5vh; left: 40vw;"">
            <div style=""margin:0 auto; width: 20vw; top: 8vh; font-size: 2vw""> 
            <font color=""green""> Bonus : $0.2 </font>
            </div>
        </div>
    
        <img class=""stim"" src=./stimuli//pack_shapes_diff/cat_2/diff_2/ex_2_2_17.png></img>
    ","null","stimulus","","","","","","",""
"","","","","","html-keyboard-response","87","129449","0.0-6.6-2.6","5ed263aeba65480a03b6c31f","65576f040411c2a4be0341a4","65576f6f01742623814f9d5e","null","
        <div style=""text-align: center; position: fixed; top: 5vh; left: 40vw;"">
            <div style=""margin:0 auto; width: 20vw; top: 8vh; font-size: 2vw""> 
            <font color=""green""> Bonus : $0.2 </font>
            </div>
        </div>
    ","null","","","","","","","",""
"","","","","","html-keyboard-response","88","129730","0.0-6.6-3.6","5ed263aeba65480a03b6c31f","65576f040411c2a4be0341a4","65576f6f01742623814f9d5e","280","./stimuli//pack_shapes_diff/cat_2/diff_2/ex_2_2_17.png","arrowright","response","ArrowRight","17","2","2","test","true",""
"","","","","","html-keyboard-response","89","131239","0.0-6.6-4.6","5ed263aeba65480a03b6c31f","65576f040411c2a4be0341a4","65576f6f01742623814f9d5e","null","<p> <font color=""green"" size=""5vw""> Correct category! </font> <br> <br> <font color=""green"" size=""8vw""> + $0.05 </font> </p>","null","feedback","","","","","","","0.25"
"","","","","","html-keyboard-response","90","131918","0.0-6.7-0.7","5ed263aeba65480a03b6c31f","65576f040411c2a4be0341a4","65576f6f01742623814f9d5e","678","
            
        <div style=""text-align: center; position: fixed; top: 5vh; left: 40vw;"">
            <div style=""margin:0 auto; width: 20vw; top: 8vh; font-size: 2vw""> 
            <font color=""green""> Bonus : $0.25 </font>
            </div>
        </div>
    
            <div> Please press any button to continue to the next trial.</div>
        ","arrowright","ITI","","","","","","",""
"","","","","","html-keyboard-response","91","132531","0.0-6.7-1.7","5ed263aeba65480a03b6c31f","65576f040411c2a4be0341a4","65576f6f01742623814f9d5e","null","
        
        <div style=""text-align: center; position: fixed; top: 5vh; left: 40vw;"">
            <div style=""margin:0 auto; width: 20vw; top: 8vh; font-size: 2vw""> 
            <font color=""green""> Bonus : $0.25 </font>
            </div>
        </div>
    
        <img class=""stim"" src=./stimuli//pack_shapes_diff/cat_2/diff_2/ex_2_2_4.png></img>
    ","null","stimulus","","","","","","",""
"","","","","","html-keyboard-response","92","133547","0.0-6.7-2.7","5ed263aeba65480a03b6c31f","65576f040411c2a4be0341a4","65576f6f01742623814f9d5e","null","
        <div style=""text-align: center; position: fixed; top: 5vh; left: 40vw;"">
            <div style=""margin:0 auto; width: 20vw; top: 8vh; font-size: 2vw""> 
            <font color=""green""> Bonus : $0.25 </font>
            </div>
        </div>
    ","null","","","","","","","",""
"","","","","","html-keyboard-response","93","133819","0.0-6.7-3.7","5ed263aeba65480a03b6c31f","65576f040411c2a4be0341a4","65576f6f01742623814f9d5e","271","./stimuli//pack_shapes_diff/cat_2/diff_2/ex_2_2_4.png","arrowright","response","ArrowRight","4","2","2","test","true",""
"","","","","","html-keyboard-response","94","135325","0.0-6.7-4.7","5ed263aeba65480a03b6c31f","65576f040411c2a4be0341a4","65576f6f01742623814f9d5e","null","<p> <font color=""green"" size=""5vw""> Correct category! </font> <br> <br> <font color=""green"" size=""8vw""> + $0.05 </font> </p>","null","feedback","","","","","","","0.3"
"","","","","","html-keyboard-response","95","137320","0.0-6.8-0.8","5ed263aeba65480a03b6c31f","65576f040411c2a4be0341a4","65576f6f01742623814f9d5e","1994","
            
        <div style=""text-align: center; position: fixed; top: 5vh; left: 40vw;"">
            <div style=""margin:0 auto; width: 20vw; top: 8vh; font-size: 2vw""> 
            <font color=""green""> Bonus : $0.3 </font>
            </div>
        </div>
    
            <div> Please press any button to continue to the next trial.</div>
        ","arrowright","ITI","","","","","","",""
"","","","","","html-keyboard-response","96","137923","0.0-6.8-1.8","5ed263aeba65480a03b6c31f","65576f040411c2a4be0341a4","65576f6f01742623814f9d5e","null","
        
        <div style=""text-align: center; position: fixed; top: 5vh; left: 40vw;"">
            <div style=""margin:0 auto; width: 20vw; top: 8vh; font-size: 2vw""> 
            <font color=""green""> Bonus : $0.3 </font>
            </div>
        </div>
    
        <img class=""stim"" src=./stimuli//pack_shapes_diff/cat_1/diff_2/ex_1_2_14.png></img>
    ","null","stimulus","","","","","","",""
"","","","","","html-keyboard-response","97","138939","0.0-6.8-2.8","5ed263aeba65480a03b6c31f","65576f040411c2a4be0341a4","65576f6f01742623814f9d5e","null","
        <div style=""text-align: center; position: fixed; top: 5vh; left: 40vw;"">
            <div style=""margin:0 auto; width: 20vw; top: 8vh; font-size: 2vw""> 
            <font color=""green""> Bonus : $0.3 </font>
            </div>
        </div>
    ","null","","","","","","","",""
"","","","","","html-keyboard-response","98","139358","0.0-6.8-3.8","5ed263aeba65480a03b6c31f","65576f040411c2a4be0341a4","65576f6f01742623814f9d5e","418","./stimuli//pack_shapes_diff/cat_1/diff_2/ex_1_2_14.png","arrowleft","response","ArrowLeft","14","1","2","test","true",""
"","","","","","html-keyboard-response","99","140859","0.0-6.8-4.8","5ed263aeba65480a03b6c31f","65576f040411c2a4be0341a4","65576f6f01742623814f9d5e","null","<p> <font color=""green"" size=""5vw""> Correct category! </font> <br> <br> <font color=""green"" size=""8vw""> + $0.05 </font> </p>","null","feedback","","","","","","","0.35"
"","","","","","html-keyboard-response","100","141525","0.0-6.9-0.9","5ed263aeba65480a03b6c31f","65576f040411c2a4be0341a4","65576f6f01742623814f9d5e","665","
            
        <div style=""text-align: center; position: fixed; top: 5vh; left: 40vw;"">
            <div style=""margin:0 auto; width: 20vw; top: 8vh; font-size: 2vw""> 
            <font color=""green""> Bonus : $0.35 </font>
            </div>
        </div>
    
            <div> Please press any button to continue to the next trial.</div>
        ","arrowright","ITI","","","","","","",""
"","","","","","html-keyboard-response","101","142138","0.0-6.9-1.9","5ed263aeba65480a03b6c31f","65576f040411c2a4be0341a4","65576f6f01742623814f9d5e","null","
        
        <div style=""text-align: center; position: fixed; top: 5vh; left: 40vw;"">
            <div style=""margin:0 auto; width: 20vw; top: 8vh; font-size: 2vw""> 
            <font color=""green""> Bonus : $0.35 </font>
            </div>
        </div>
    
        <img class=""stim"" src=./stimuli//pack_shapes_diff/cat_1/diff_2/ex_1_2_17.png></img>
    ","null","stimulus","","","","","","",""
"","","","","","html-keyboard-response","102","143143","0.0-6.9-2.9","5ed263aeba65480a03b6c31f","65576f040411c2a4be0341a4","65576f6f01742623814f9d5e","null","
        <div style=""text-align: center; position: fixed; top: 5vh; left: 40vw;"">
            <div style=""margin:0 auto; width: 20vw; top: 8vh; font-size: 2vw""> 
            <font color=""green""> Bonus : $0.35 </font>
            </div>
        </div>
    ","null","","","","","","","",""
"","","","","","html-keyboard-response","103","143747","0.0-6.9-3.9","5ed263aeba65480a03b6c31f","65576f040411c2a4be0341a4","65576f6f01742623814f9d5e","603","./stimuli//pack_shapes_diff/cat_1/diff_2/ex_1_2_17.png","arrowright","response","ArrowLeft","17","1","2","test","false",""
"","","","","","html-keyboard-response","104","145259","0.0-6.9-4.9","5ed263aeba65480a03b6c31f","65576f040411c2a4be0341a4","65576f6f01742623814f9d5e","null","<p> <font color=""red"" size=""5vw""> Wrong category! </font> </p>","null","feedback","","","","","","","0.35"
"","","","","","html-keyboard-response","105","145977","0.0-6.10-0.10","5ed263aeba65480a03b6c31f","65576f040411c2a4be0341a4","65576f6f01742623814f9d5e","716","
            
        <div style=""text-align: center; position: fixed; top: 5vh; left: 40vw;"">
            <div style=""margin:0 auto; width: 20vw; top: 8vh; font-size: 2vw""> 
            <font color=""green""> Bonus : $0.35 </font>
            </div>
        </div>
    
            <div> Please press any button to continue to the next trial.</div>
        ","arrowright","ITI","","","","","","",""
"","","","","","html-keyboard-response","106","146592","0.0-6.10-1.10","5ed263aeba65480a03b6c31f","65576f040411c2a4be0341a4","65576f6f01742623814f9d5e","null","
        
        <div style=""text-align: center; position: fixed; top: 5vh; left: 40vw;"">
            <div style=""margin:0 auto; width: 20vw; top: 8vh; font-size: 2vw""> 
            <font color=""green""> Bonus : $0.35 </font>
            </div>
        </div>
    
        <img class=""stim"" src=./stimuli//pack_shapes_diff/cat_1/diff_1/ex_1_1_2.png></img>
    ","null","stimulus","","","","","","",""
"","","","","","html-keyboard-response","107","147606","0.0-6.10-2.10","5ed263aeba65480a03b6c31f","65576f040411c2a4be0341a4","65576f6f01742623814f9d5e","null","
        <div style=""text-align: center; position: fixed; top: 5vh; left: 40vw;"">
            <div style=""margin:0 auto; width: 20vw; top: 8vh; font-size: 2vw""> 
            <font color=""green""> Bonus : $0.35 </font>
            </div>
        </div>
    ","null","","","","","","","",""
"","","","","","html-keyboard-response","108","148280","0.0-6.10-3.10","5ed263aeba65480a03b6c31f","65576f040411c2a4be0341a4","65576f6f01742623814f9d5e","673","./stimuli//pack_shapes_diff/cat_1/diff_1/ex_1_1_2.png","arrowright","response","ArrowLeft","2","1","1","test","false",""
"","","","","","html-keyboard-response","109","149789","0.0-6.10-4.10","5ed263aeba65480a03b6c31f","65576f040411c2a4be0341a4","65576f6f01742623814f9d5e","null","<p> <font color=""red"" size=""5vw""> Wrong category! </font> </p>","null","feedback","","","","","","","0.35"
"","","","","","html-keyboard-response","110","152128","0.0-6.11-0.11","5ed263aeba65480a03b6c31f","65576f040411c2a4be0341a4","65576f6f01742623814f9d5e","2338","
            
        <div style=""text-align: center; position: fixed; top: 5vh; left: 40vw;"">
            <div style=""margin:0 auto; width: 20vw; top: 8vh; font-size: 2vw""> 
            <font color=""green""> Bonus : $0.35 </font>
            </div>
        </div>
    
            <div> Please press any button to continue to the next trial.</div>
        ","arrowright","ITI","","","","","","",""
"","","","","","html-keyboard-response","111","152733","0.0-6.11-1.11","5ed263aeba65480a03b6c31f","65576f040411c2a4be0341a4","65576f6f01742623814f9d5e","null","
        
        <div style=""text-align: center; position: fixed; top: 5vh; left: 40vw;"">
            <div style=""margin:0 auto; width: 20vw; top: 8vh; font-size: 2vw""> 
            <font color=""green""> Bonus : $0.35 </font>
            </div>
        </div>
    
        <img class=""stim"" src=./stimuli//pack_shapes_diff/cat_2/diff_1/ex_2_1_6.png></img>
    ","null","stimulus","","","","","","",""
"","","","","","html-keyboard-response","112","153741","0.0-6.11-2.11","5ed263aeba65480a03b6c31f","65576f040411c2a4be0341a4","65576f6f01742623814f9d5e","null","
        <div style=""text-align: center; position: fixed; top: 5vh; left: 40vw;"">
            <div style=""margin:0 auto; width: 20vw; top: 8vh; font-size: 2vw""> 
            <font color=""green""> Bonus : $0.35 </font>
            </div>
        </div>
    ","null","","","","","","","",""
"","","","","","html-keyboard-response","113","154055","0.0-6.11-3.11","5ed263aeba65480a03b6c31f","65576f040411c2a4be0341a4","65576f6f01742623814f9d5e","313","./stimuli//pack_shapes_diff/cat_2/diff_1/ex_2_1_6.png","arrowright","response","ArrowRight","6","2","1","test","true",""
"","","","","","html-keyboard-response","114","155566","0.0-6.11-4.11","5ed263aeba65480a03b6c31f","65576f040411c2a4be0341a4","65576f6f01742623814f9d5e","null","<p> <font color=""green"" size=""5vw""> Correct category! </font> <br> <br> <font color=""green"" size=""8vw""> + $0.05 </font> </p>","null","feedback","","","","","","","0.4"
"","","","","","html-keyboard-response","115","158186","0.0-6.12-0.12","5ed263aeba65480a03b6c31f","65576f040411c2a4be0341a4","65576f6f01742623814f9d5e","2620","
            
        <div style=""text-align: center; position: fixed; top: 5vh; left: 40vw;"">
            <div style=""margin:0 auto; width: 20vw; top: 8vh; font-size: 2vw""> 
            <font color=""green""> Bonus : $0.4 </font>
            </div>
        </div>
    
            <div> Please press any button to continue to the next trial.</div>
        ","arrowright","ITI","","","","","","",""
"","","","","","html-keyboard-response","116","158793","0.0-6.12-1.12","5ed263aeba65480a03b6c31f","65576f040411c2a4be0341a4","65576f6f01742623814f9d5e","null","
        
        <div style=""text-align: center; position: fixed; top: 5vh; left: 40vw;"">
            <div style=""margin:0 auto; width: 20vw; top: 8vh; font-size: 2vw""> 
            <font color=""green""> Bonus : $0.4 </font>
            </div>
        </div>
    
        <img class=""stim"" src=./stimuli//pack_shapes_diff/cat_2/diff_1/ex_2_1_14.png></img>
    ","null","stimulus","","","","","","",""
"","","","","","html-keyboard-response","117","159795","0.0-6.12-2.12","5ed263aeba65480a03b6c31f","65576f040411c2a4be0341a4","65576f6f01742623814f9d5e","null","
        <div style=""text-align: center; position: fixed; top: 5vh; left: 40vw;"">
            <div style=""margin:0 auto; width: 20vw; top: 8vh; font-size: 2vw""> 
            <font color=""green""> Bonus : $0.4 </font>
            </div>
        </div>
    ","null","","","","","","","",""
"","","","","","html-keyboard-response","118","160214","0.0-6.12-3.12","5ed263aeba65480a03b6c31f","65576f040411c2a4be0341a4","65576f6f01742623814f9d5e","418","./stimuli//pack_shapes_diff/cat_2/diff_1/ex_2_1_14.png","arrowright","response","ArrowRight","14","2","1","test","true",""
"","","","","","html-keyboard-response","119","161723","0.0-6.12-4.12","5ed263aeba65480a03b6c31f","65576f040411c2a4be0341a4","65576f6f01742623814f9d5e","null","<p> <font color=""green"" size=""5vw""> Correct category! </font> <br> <br> <font color=""green"" size=""8vw""> + $0.05 </font> </p>","null","feedback","","","","","","","0.45"
"","","","","","html-keyboard-response","120","164860","0.0-6.13-0.13","5ed263aeba65480a03b6c31f","65576f040411c2a4be0341a4","65576f6f01742623814f9d5e","3135","
            
        <div style=""text-align: center; position: fixed; top: 5vh; left: 40vw;"">
            <div style=""margin:0 auto; width: 20vw; top: 8vh; font-size: 2vw""> 
            <font color=""green""> Bonus : $0.45 </font>
            </div>
        </div>
    
            <div> Please press any button to continue to the next trial.</div>
        ","arrowright","ITI","","","","","","",""
"","","","","","html-keyboard-response","121","165467","0.0-6.13-1.13","5ed263aeba65480a03b6c31f","65576f040411c2a4be0341a4","65576f6f01742623814f9d5e","null","
        
        <div style=""text-align: center; position: fixed; top: 5vh; left: 40vw;"">
            <div style=""margin:0 auto; width: 20vw; top: 8vh; font-size: 2vw""> 
            <font color=""green""> Bonus : $0.45 </font>
            </div>
        </div>
    
        <img class=""stim"" src=./stimuli//pack_shapes_diff/cat_1/diff_1/ex_1_1_6.png></img>
    ","null","stimulus","","","","","","",""
"","","","","","html-keyboard-response","122","166483","0.0-6.13-2.13","5ed263aeba65480a03b6c31f","65576f040411c2a4be0341a4","65576f6f01742623814f9d5e","null","
        <div style=""text-align: center; position: fixed; top: 5vh; left: 40vw;"">
            <div style=""margin:0 auto; width: 20vw; top: 8vh; font-size: 2vw""> 
            <font color=""green""> Bonus : $0.45 </font>
            </div>
        </div>
    ","null","","","","","","","",""
"","","","","","html-keyboard-response","123","166815","0.0-6.13-3.13","5ed263aeba65480a03b6c31f","65576f040411c2a4be0341a4","65576f6f01742623814f9d5e","331","./stimuli//pack_shapes_diff/cat_1/diff_1/ex_1_1_6.png","arrowleft","response","ArrowLeft","6","1","1","test","true",""
"","","","","","html-keyboard-response","124","168320","0.0-6.13-4.13","5ed263aeba65480a03b6c31f","65576f040411c2a4be0341a4","65576f6f01742623814f9d5e","null","<p> <font color=""green"" size=""5vw""> Correct category! </font> <br> <br> <font color=""green"" size=""8vw""> + $0.05 </font> </p>","null","feedback","","","","","","","0.5"
"","","","","","html-keyboard-response","125","168925","0.0-6.14-0.14","5ed263aeba65480a03b6c31f","65576f040411c2a4be0341a4","65576f6f01742623814f9d5e","605","
            
        <div style=""text-align: center; position: fixed; top: 5vh; left: 40vw;"">
            <div style=""margin:0 auto; width: 20vw; top: 8vh; font-size: 2vw""> 
            <font color=""green""> Bonus : $0.5 </font>
            </div>
        </div>
    
            <div> Please press any button to continue to the next trial.</div>
        ","arrowleft","ITI","","","","","","",""
"","","","","","html-keyboard-response","126","169531","0.0-6.14-1.14","5ed263aeba65480a03b6c31f","65576f040411c2a4be0341a4","65576f6f01742623814f9d5e","null","
        
        <div style=""text-align: center; position: fixed; top: 5vh; left: 40vw;"">
            <div style=""margin:0 auto; width: 20vw; top: 8vh; font-size: 2vw""> 
            <font color=""green""> Bonus : $0.5 </font>
            </div>
        </div>
    
        <img class=""stim"" src=./stimuli//pack_shapes_diff/cat_1/diff_1/ex_1_1_2.png></img>
    ","null","stimulus","","","","","","",""
"","","","","","html-keyboard-response","127","170542","0.0-6.14-2.14","5ed263aeba65480a03b6c31f","65576f040411c2a4be0341a4","65576f6f01742623814f9d5e","null","
        <div style=""text-align: center; position: fixed; top: 5vh; left: 40vw;"">
            <div style=""margin:0 auto; width: 20vw; top: 8vh; font-size: 2vw""> 
            <font color=""green""> Bonus : $0.5 </font>
            </div>
        </div>
    ","null","","","","","","","",""
"","","","","","html-keyboard-response","128","172045","0.0-6.14-3.14","5ed263aeba65480a03b6c31f","65576f040411c2a4be0341a4","65576f6f01742623814f9d5e","1502","./stimuli//pack_shapes_diff/cat_1/diff_1/ex_1_1_2.png","arrowleft","response","ArrowLeft","2","1","1","test","true",""
"","","","","","html-keyboard-response","129","173552","0.0-6.14-4.14","5ed263aeba65480a03b6c31f","65576f040411c2a4be0341a4","65576f6f01742623814f9d5e","null","<p> <font color=""green"" size=""5vw""> Correct category! </font> <br> <br> <font color=""green"" size=""8vw""> + $0.05 </font> </p>","null","feedback","","","","","","","0.55"
"","","","","","html-keyboard-response","130","176192","0.0-6.15-0.15","5ed263aeba65480a03b6c31f","65576f040411c2a4be0341a4","65576f6f01742623814f9d5e","2639","
            
        <div style=""text-align: center; position: fixed; top: 5vh; left: 40vw;"">
            <div style=""margin:0 auto; width: 20vw; top: 8vh; font-size: 2vw""> 
            <font color=""green""> Bonus : $0.55 </font>
            </div>
        </div>
    
            <div> Please press any button to continue to the next trial.</div>
        ","arrowleft","ITI","","","","","","",""
"","","","","","html-keyboard-response","131","176801","0.0-6.15-1.15","5ed263aeba65480a03b6c31f","65576f040411c2a4be0341a4","65576f6f01742623814f9d5e","null","
        
        <div style=""text-align: center; position: fixed; top: 5vh; left: 40vw;"">
            <div style=""margin:0 auto; width: 20vw; top: 8vh; font-size: 2vw""> 
            <font color=""green""> Bonus : $0.55 </font>
            </div>
        </div>
    
        <img class=""stim"" src=./stimuli//pack_shapes_diff/cat_1/diff_2/ex_1_2_17.png></img>
    ","null","stimulus","","","","","","",""
"","","","","","html-keyboard-response","132","177809","0.0-6.15-2.15","5ed263aeba65480a03b6c31f","65576f040411c2a4be0341a4","65576f6f01742623814f9d5e","null","
        <div style=""text-align: center; position: fixed; top: 5vh; left: 40vw;"">
            <div style=""margin:0 auto; width: 20vw; top: 8vh; font-size: 2vw""> 
            <font color=""green""> Bonus : $0.55 </font>
            </div>
        </div>
    ","null","","","","","","","",""
"","","","","","html-keyboard-response","133","178971","0.0-6.15-3.15","5ed263aeba65480a03b6c31f","65576f040411c2a4be0341a4","65576f6f01742623814f9d5e","1162","./stimuli//pack_shapes_diff/cat_1/diff_2/ex_1_2_17.png","arrowright","response","ArrowLeft","17","1","2","test","false",""
"","","","","","html-keyboard-response","134","180484","0.0-6.15-4.15","5ed263aeba65480a03b6c31f","65576f040411c2a4be0341a4","65576f6f01742623814f9d5e","null","<p> <font color=""red"" size=""5vw""> Wrong category! </font> </p>","null","feedback","","","","","","","0.55"
"","","","","","html-keyboard-response","135","181039","0.0-6.16-0.16","5ed263aeba65480a03b6c31f","65576f040411c2a4be0341a4","65576f6f01742623814f9d5e","555","
            
        <div style=""text-align: center; position: fixed; top: 5vh; left: 40vw;"">
            <div style=""margin:0 auto; width: 20vw; top: 8vh; font-size: 2vw""> 
            <font color=""green""> Bonus : $0.55 </font>
            </div>
        </div>
    
            <div> Please press any button to continue to the next trial.</div>
        ","arrowright","ITI","","","","","","",""
"","","","","","html-keyboard-response","136","181649","0.0-6.16-1.16","5ed263aeba65480a03b6c31f","65576f040411c2a4be0341a4","65576f6f01742623814f9d5e","null","
        
        <div style=""text-align: center; position: fixed; top: 5vh; left: 40vw;"">
            <div style=""margin:0 auto; width: 20vw; top: 8vh; font-size: 2vw""> 
            <font color=""green""> Bonus : $0.55 </font>
            </div>
        </div>
    
        <img class=""stim"" src=./stimuli//pack_shapes_diff/cat_2/diff_2/ex_2_2_4.png></img>
    ","null","stimulus","","","","","","",""
"","","","","","html-keyboard-response","137","182664","0.0-6.16-2.16","5ed263aeba65480a03b6c31f","65576f040411c2a4be0341a4","65576f6f01742623814f9d5e","null","
        <div style=""text-align: center; position: fixed; top: 5vh; left: 40vw;"">
            <div style=""margin:0 auto; width: 20vw; top: 8vh; font-size: 2vw""> 
            <font color=""green""> Bonus : $0.55 </font>
            </div>
        </div>
    ","null","","","","","","","",""
"","","","","","html-keyboard-response","138","183056","0.0-6.16-3.16","5ed263aeba65480a03b6c31f","65576f040411c2a4be0341a4","65576f6f01742623814f9d5e","392","./stimuli//pack_shapes_diff/cat_2/diff_2/ex_2_2_4.png","arrowright","response","ArrowRight","4","2","2","test","true",""
"","","","","","html-keyboard-response","139","184568","0.0-6.16-4.16","5ed263aeba65480a03b6c31f","65576f040411c2a4be0341a4","65576f6f01742623814f9d5e","null","<p> <font color=""green"" size=""5vw""> Correct category! </font> <br> <br> <font color=""green"" size=""8vw""> + $0.05 </font> </p>","null","feedback","","","","","","","0.6"
"","","","","","html-keyboard-response","140","187105","0.0-6.17-0.17","5ed263aeba65480a03b6c31f","65576f040411c2a4be0341a4","65576f6f01742623814f9d5e","2536","
            
        <div style=""text-align: center; position: fixed; top: 5vh; left: 40vw;"">
            <div style=""margin:0 auto; width: 20vw; top: 8vh; font-size: 2vw""> 
            <font color=""green""> Bonus : $0.6 </font>
            </div>
        </div>
    
            <div> Please press any button to continue to the next trial.</div>
        ","arrowright","ITI","","","","","","",""
"","","","","","html-keyboard-response","141","187716","0.0-6.17-1.17","5ed263aeba65480a03b6c31f","65576f040411c2a4be0341a4","65576f6f01742623814f9d5e","null","
        
        <div style=""text-align: center; position: fixed; top: 5vh; left: 40vw;"">
            <div style=""margin:0 auto; width: 20vw; top: 8vh; font-size: 2vw""> 
            <font color=""green""> Bonus : $0.6 </font>
            </div>
        </div>
    
        <img class=""stim"" src=./stimuli//pack_shapes_diff/cat_1/diff_2/ex_1_2_11.png></img>
    ","null","stimulus","","","","","","",""
"","","","","","html-keyboard-response","142","188729","0.0-6.17-2.17","5ed263aeba65480a03b6c31f","65576f040411c2a4be0341a4","65576f6f01742623814f9d5e","null","
        <div style=""text-align: center; position: fixed; top: 5vh; left: 40vw;"">
            <div style=""margin:0 auto; width: 20vw; top: 8vh; font-size: 2vw""> 
            <font color=""green""> Bonus : $0.6 </font>
            </div>
        </div>
    ","null","","","","","","","",""
"","","","","","html-keyboard-response","143","189948","0.0-6.17-3.17","5ed263aeba65480a03b6c31f","65576f040411c2a4be0341a4","65576f6f01742623814f9d5e","1218","./stimuli//pack_shapes_diff/cat_1/diff_2/ex_1_2_11.png","arrowleft","response","ArrowLeft","11","1","2","test","true",""
"","","","","","html-keyboard-response","144","191454","0.0-6.17-4.17","5ed263aeba65480a03b6c31f","65576f040411c2a4be0341a4","65576f6f01742623814f9d5e","null","<p> <font color=""green"" size=""5vw""> Correct category! </font> <br> <br> <font color=""green"" size=""8vw""> + $0.05 </font> </p>","null","feedback","","","","","","","0.65"
"","","","","","html-keyboard-response","145","192777","0.0-6.18-0.18","5ed263aeba65480a03b6c31f","65576f040411c2a4be0341a4","65576f6f01742623814f9d5e","1323","
            
        <div style=""text-align: center; position: fixed; top: 5vh; left: 40vw;"">
            <div style=""margin:0 auto; width: 20vw; top: 8vh; font-size: 2vw""> 
            <font color=""green""> Bonus : $0.65 </font>
            </div>
        </div>
    
            <div> Please press any button to continue to the next trial.</div>
        ","arrowleft","ITI","","","","","","",""
"","","","","","html-keyboard-response","146","193391","0.0-6.18-1.18","5ed263aeba65480a03b6c31f","65576f040411c2a4be0341a4","65576f6f01742623814f9d5e","null","
        
        <div style=""text-align: center; position: fixed; top: 5vh; left: 40vw;"">
            <div style=""margin:0 auto; width: 20vw; top: 8vh; font-size: 2vw""> 
            <font color=""green""> Bonus : $0.65 </font>
            </div>
        </div>
    
        <img class=""stim"" src=./stimuli//pack_shapes_diff/cat_2/diff_2/ex_2_2_1.png></img>
    ","null","stimulus","","","","","","",""
"","","","","","html-keyboard-response","147","194394","0.0-6.18-2.18","5ed263aeba65480a03b6c31f","65576f040411c2a4be0341a4","65576f6f01742623814f9d5e","null","
        <div style=""text-align: center; position: fixed; top: 5vh; left: 40vw;"">
            <div style=""margin:0 auto; width: 20vw; top: 8vh; font-size: 2vw""> 
            <font color=""green""> Bonus : $0.65 </font>
            </div>
        </div>
    ","null","","","","","","","",""
"","","","","","html-keyboard-response","148","194649","0.0-6.18-3.18","5ed263aeba65480a03b6c31f","65576f040411c2a4be0341a4","65576f6f01742623814f9d5e","254","./stimuli//pack_shapes_diff/cat_2/diff_2/ex_2_2_1.png","arrowright","response","ArrowRight","1","2","2","test","true",""
"","","","","","html-keyboard-response","149","196161","0.0-6.18-4.18","5ed263aeba65480a03b6c31f","65576f040411c2a4be0341a4","65576f6f01742623814f9d5e","null","<p> <font color=""green"" size=""5vw""> Correct category! </font> <br> <br> <font color=""green"" size=""8vw""> + $0.05 </font> </p>","null","feedback","","","","","","","0.7"
"","","","","","html-keyboard-response","150","197253","0.0-6.19-0.19","5ed263aeba65480a03b6c31f","65576f040411c2a4be0341a4","65576f6f01742623814f9d5e","1092","
            
        <div style=""text-align: center; position: fixed; top: 5vh; left: 40vw;"">
            <div style=""margin:0 auto; width: 20vw; top: 8vh; font-size: 2vw""> 
            <font color=""green""> Bonus : $0.7 </font>
            </div>
        </div>
    
            <div> Please press any button to continue to the next trial.</div>
        ","arrowleft","ITI","","","","","","",""
"","","","","","html-keyboard-response","151","197864","0.0-6.19-1.19","5ed263aeba65480a03b6c31f","65576f040411c2a4be0341a4","65576f6f01742623814f9d5e","null","
        
        <div style=""text-align: center; position: fixed; top: 5vh; left: 40vw;"">
            <div style=""margin:0 auto; width: 20vw; top: 8vh; font-size: 2vw""> 
            <font color=""green""> Bonus : $0.7 </font>
            </div>
        </div>
    
        <img class=""stim"" src=./stimuli//pack_shapes_diff/cat_1/diff_2/ex_1_2_7.png></img>
    ","null","stimulus","","","","","","",""
"","","","","","html-keyboard-response","152","198866","0.0-6.19-2.19","5ed263aeba65480a03b6c31f","65576f040411c2a4be0341a4","65576f6f01742623814f9d5e","null","
        <div style=""text-align: center; position: fixed; top: 5vh; left: 40vw;"">
            <div style=""margin:0 auto; width: 20vw; top: 8vh; font-size: 2vw""> 
            <font color=""green""> Bonus : $0.7 </font>
            </div>
        </div>
    ","null","","","","","","","",""
"","","","","","html-keyboard-response","153","199219","0.0-6.19-3.19","5ed263aeba65480a03b6c31f","65576f040411c2a4be0341a4","65576f6f01742623814f9d5e","353","./stimuli//pack_shapes_diff/cat_1/diff_2/ex_1_2_7.png","arrowleft","response","ArrowLeft","7","1","2","test","true",""
"","","","","","html-keyboard-response","154","200724","0.0-6.19-4.19","5ed263aeba65480a03b6c31f","65576f040411c2a4be0341a4","65576f6f01742623814f9d5e","null","<p> <font color=""green"" size=""5vw""> Correct category! </font> <br> <br> <font color=""green"" size=""8vw""> + $0.05 </font> </p>","null","feedback","","","","","","","0.75"
"","","","","","html-keyboard-response","155","201640","0.0-6.20-0.20","5ed263aeba65480a03b6c31f","65576f040411c2a4be0341a4","65576f6f01742623814f9d5e","915","
            
        <div style=""text-align: center; position: fixed; top: 5vh; left: 40vw;"">
            <div style=""margin:0 auto; width: 20vw; top: 8vh; font-size: 2vw""> 
            <font color=""green""> Bonus : $0.75 </font>
            </div>
        </div>
    
            <div> Please press any button to continue to the next trial.</div>
        ","arrowleft","ITI","","","","","","",""
"","","","","","html-keyboard-response","156","202250","0.0-6.20-1.20","5ed263aeba65480a03b6c31f","65576f040411c2a4be0341a4","65576f6f01742623814f9d5e","null","
        
        <div style=""text-align: center; position: fixed; top: 5vh; left: 40vw;"">
            <div style=""margin:0 auto; width: 20vw; top: 8vh; font-size: 2vw""> 
            <font color=""green""> Bonus : $0.75 </font>
            </div>
        </div>
    
        <img class=""stim"" src=./stimuli//pack_shapes_diff/cat_2/diff_3/ex_2_3_7.png></img>
    ","null","stimulus","","","","","","",""
"","","","","","html-keyboard-response","157","203261","0.0-6.20-2.20","5ed263aeba65480a03b6c31f","65576f040411c2a4be0341a4","65576f6f01742623814f9d5e","null","
        <div style=""text-align: center; position: fixed; top: 5vh; left: 40vw;"">
            <div style=""margin:0 auto; width: 20vw; top: 8vh; font-size: 2vw""> 
            <font color=""green""> Bonus : $0.75 </font>
            </div>
        </div>
    ","null","","","","","","","",""
"","","","","","html-keyboard-response","158","204981","0.0-6.20-3.20","5ed263aeba65480a03b6c31f","65576f040411c2a4be0341a4","65576f6f01742623814f9d5e","1719","./stimuli//pack_shapes_diff/cat_2/diff_3/ex_2_3_7.png","arrowright","response","ArrowRight","7","2","3","test","true",""
"","","","","","html-keyboard-response","159","206489","0.0-6.20-4.20","5ed263aeba65480a03b6c31f","65576f040411c2a4be0341a4","65576f6f01742623814f9d5e","null","<p> <font color=""green"" size=""5vw""> Correct category! </font> <br> <br> <font color=""green"" size=""8vw""> + $0.05 </font> </p>","null","feedback","","","","","","","0.8"
"","","","","","html-keyboard-response","160","209868","0.0-6.21-0.21","5ed263aeba65480a03b6c31f","65576f040411c2a4be0341a4","65576f6f01742623814f9d5e","3378","
            
        <div style=""text-align: center; position: fixed; top: 5vh; left: 40vw;"">
            <div style=""margin:0 auto; width: 20vw; top: 8vh; font-size: 2vw""> 
            <font color=""green""> Bonus : $0.8 </font>
            </div>
        </div>
    
            <div> Please press any button to continue to the next trial.</div>
        ","arrowleft","ITI","","","","","","",""
"","","","","","html-keyboard-response","161","210474","0.0-6.21-1.21","5ed263aeba65480a03b6c31f","65576f040411c2a4be0341a4","65576f6f01742623814f9d5e","null","
        
        <div style=""text-align: center; position: fixed; top: 5vh; left: 40vw;"">
            <div style=""margin:0 auto; width: 20vw; top: 8vh; font-size: 2vw""> 
            <font color=""green""> Bonus : $0.8 </font>
            </div>
        </div>
    
        <img class=""stim"" src=./stimuli//pack_shapes_diff/cat_2/diff_3/ex_2_3_15.png></img>
    ","null","stimulus","","","","","","",""
"","","","","","html-keyboard-response","162","211480","0.0-6.21-2.21","5ed263aeba65480a03b6c31f","65576f040411c2a4be0341a4","65576f6f01742623814f9d5e","null","
        <div style=""text-align: center; position: fixed; top: 5vh; left: 40vw;"">
            <div style=""margin:0 auto; width: 20vw; top: 8vh; font-size: 2vw""> 
            <font color=""green""> Bonus : $0.8 </font>
            </div>
        </div>
    ","null","","","","","","","",""
"","","","","","html-keyboard-response","163","212559","0.0-6.21-3.21","5ed263aeba65480a03b6c31f","65576f040411c2a4be0341a4","65576f6f01742623814f9d5e","1078","./stimuli//pack_shapes_diff/cat_2/diff_3/ex_2_3_15.png","arrowleft","response","ArrowRight","15","2","3","test","false",""
"","","","","","html-keyboard-response","164","214071","0.0-6.21-4.21","5ed263aeba65480a03b6c31f","65576f040411c2a4be0341a4","65576f6f01742623814f9d5e","null","<p> <font color=""red"" size=""5vw""> Wrong category! </font> </p>","null","feedback","","","","","","","0.8"
"","","","","","html-keyboard-response","165","215695","0.0-6.22-0.22","5ed263aeba65480a03b6c31f","65576f040411c2a4be0341a4","65576f6f01742623814f9d5e","1623","
            
        <div style=""text-align: center; position: fixed; top: 5vh; left: 40vw;"">
            <div style=""margin:0 auto; width: 20vw; top: 8vh; font-size: 2vw""> 
            <font color=""green""> Bonus : $0.8 </font>
            </div>
        </div>
    
            <div> Please press any button to continue to the next trial.</div>
        ","arrowleft","ITI","","","","","","",""
"","","","","","html-keyboard-response","166","216299","0.0-6.22-1.22","5ed263aeba65480a03b6c31f","65576f040411c2a4be0341a4","65576f6f01742623814f9d5e","null","
        
        <div style=""text-align: center; position: fixed; top: 5vh; left: 40vw;"">
            <div style=""margin:0 auto; width: 20vw; top: 8vh; font-size: 2vw""> 
            <font color=""green""> Bonus : $0.8 </font>
            </div>
        </div>
    
        <img class=""stim"" src=./stimuli//pack_shapes_diff/cat_2/diff_3/ex_2_3_1.png></img>
    ","null","stimulus","","","","","","",""
"","","","","","html-keyboard-response","167","217302","0.0-6.22-2.22","5ed263aeba65480a03b6c31f","65576f040411c2a4be0341a4","65576f6f01742623814f9d5e","null","
        <div style=""text-align: center; position: fixed; top: 5vh; left: 40vw;"">
            <div style=""margin:0 auto; width: 20vw; top: 8vh; font-size: 2vw""> 
            <font color=""green""> Bonus : $0.8 </font>
            </div>
        </div>
    ","null","","","","","","","",""
"","","","","","html-keyboard-response","168","217644","0.0-6.22-3.22","5ed263aeba65480a03b6c31f","65576f040411c2a4be0341a4","65576f6f01742623814f9d5e","341","./stimuli//pack_shapes_diff/cat_2/diff_3/ex_2_3_1.png","arrowright","response","ArrowRight","1","2","3","test","true",""
"","","","","","html-keyboard-response","169","219162","0.0-6.22-4.22","5ed263aeba65480a03b6c31f","65576f040411c2a4be0341a4","65576f6f01742623814f9d5e","null","<p> <font color=""green"" size=""5vw""> Correct category! </font> <br> <br> <font color=""green"" size=""8vw""> + $0.05 </font> </p>","null","feedback","","","","","","","0.85"
"","","","","","html-keyboard-response","170","219904","0.0-6.23-0.23","5ed263aeba65480a03b6c31f","65576f040411c2a4be0341a4","65576f6f01742623814f9d5e","741","
            
        <div style=""text-align: center; position: fixed; top: 5vh; left: 40vw;"">
            <div style=""margin:0 auto; width: 20vw; top: 8vh; font-size: 2vw""> 
            <font color=""green""> Bonus : $0.85 </font>
            </div>
        </div>
    
            <div> Please press any button to continue to the next trial.</div>
        ","arrowleft","ITI","","","","","","",""
"","","","","","html-keyboard-response","171","220507","0.0-6.23-1.23","5ed263aeba65480a03b6c31f","65576f040411c2a4be0341a4","65576f6f01742623814f9d5e","null","
        
        <div style=""text-align: center; position: fixed; top: 5vh; left: 40vw;"">
            <div style=""margin:0 auto; width: 20vw; top: 8vh; font-size: 2vw""> 
            <font color=""green""> Bonus : $0.85 </font>
            </div>
        </div>
    
        <img class=""stim"" src=./stimuli//pack_shapes_diff/cat_1/diff_3/ex_1_3_10.png></img>
    ","null","stimulus","","","","","","",""
"","","","","","html-keyboard-response","172","221524","0.0-6.23-2.23","5ed263aeba65480a03b6c31f","65576f040411c2a4be0341a4","65576f6f01742623814f9d5e","null","
        <div style=""text-align: center; position: fixed; top: 5vh; left: 40vw;"">
            <div style=""margin:0 auto; width: 20vw; top: 8vh; font-size: 2vw""> 
            <font color=""green""> Bonus : $0.85 </font>
            </div>
        </div>
    ","null","","","","","","","",""
"","","","","","html-keyboard-response","173","223228","0.0-6.23-3.23","5ed263aeba65480a03b6c31f","65576f040411c2a4be0341a4","65576f6f01742623814f9d5e","1703","./stimuli//pack_shapes_diff/cat_1/diff_3/ex_1_3_10.png","arrowleft","response","ArrowLeft","10","1","3","test","true",""
"","","","","","html-keyboard-response","174","224742","0.0-6.23-4.23","5ed263aeba65480a03b6c31f","65576f040411c2a4be0341a4","65576f6f01742623814f9d5e","null","<p> <font color=""green"" size=""5vw""> Correct category! </font> <br> <br> <font color=""green"" size=""8vw""> + $0.05 </font> </p>","null","feedback","","","","","","","0.9"
"","","","","","html-keyboard-response","175","226384","0.0-6.24-0.24","5ed263aeba65480a03b6c31f","65576f040411c2a4be0341a4","65576f6f01742623814f9d5e","1641","
            
        <div style=""text-align: center; position: fixed; top: 5vh; left: 40vw;"">
            <div style=""margin:0 auto; width: 20vw; top: 8vh; font-size: 2vw""> 
            <font color=""green""> Bonus : $0.9 </font>
            </div>
        </div>
    
            <div> Please press any button to continue to the next trial.</div>
        ","arrowleft","ITI","","","","","","",""
"","","","","","html-keyboard-response","176","226985","0.0-6.24-1.24","5ed263aeba65480a03b6c31f","65576f040411c2a4be0341a4","65576f6f01742623814f9d5e","null","
        
        <div style=""text-align: center; position: fixed; top: 5vh; left: 40vw;"">
            <div style=""margin:0 auto; width: 20vw; top: 8vh; font-size: 2vw""> 
            <font color=""green""> Bonus : $0.9 </font>
            </div>
        </div>
    
        <img class=""stim"" src=./stimuli//pack_shapes_diff/cat_2/diff_3/ex_2_3_5.png></img>
    ","null","stimulus","","","","","","",""
"","","","","","html-keyboard-response","177","227987","0.0-6.24-2.24","5ed263aeba65480a03b6c31f","65576f040411c2a4be0341a4","65576f6f01742623814f9d5e","null","
        <div style=""text-align: center; position: fixed; top: 5vh; left: 40vw;"">
            <div style=""margin:0 auto; width: 20vw; top: 8vh; font-size: 2vw""> 
            <font color=""green""> Bonus : $0.9 </font>
            </div>
        </div>
    ","null","","","","","","","",""
"","","","","","html-keyboard-response","178","228410","0.0-6.24-3.24","5ed263aeba65480a03b6c31f","65576f040411c2a4be0341a4","65576f6f01742623814f9d5e","422","./stimuli//pack_shapes_diff/cat_2/diff_3/ex_2_3_5.png","arrowright","response","ArrowRight","5","2","3","test","true",""
"","","","","","html-keyboard-response","179","229917","0.0-6.24-4.24","5ed263aeba65480a03b6c31f","65576f040411c2a4be0341a4","65576f6f01742623814f9d5e","null","<p> <font color=""green"" size=""5vw""> Correct category! </font> <br> <br> <font color=""green"" size=""8vw""> + $0.05 </font> </p>","null","feedback","","","","","","","0.95"
"","","","","","html-keyboard-response","180","231818","0.0-6.25-0.25","5ed263aeba65480a03b6c31f","65576f040411c2a4be0341a4","65576f6f01742623814f9d5e","1901","
            
        <div style=""text-align: center; position: fixed; top: 5vh; left: 40vw;"">
            <div style=""margin:0 auto; width: 20vw; top: 8vh; font-size: 2vw""> 
            <font color=""green""> Bonus : $0.95 </font>
            </div>
        </div>
    
            <div> Please press any button to continue to the next trial.</div>
        ","arrowleft","ITI","","","","","","",""
"","","","","","html-keyboard-response","181","232421","0.0-6.25-1.25","5ed263aeba65480a03b6c31f","65576f040411c2a4be0341a4","65576f6f01742623814f9d5e","null","
        
        <div style=""text-align: center; position: fixed; top: 5vh; left: 40vw;"">
            <div style=""margin:0 auto; width: 20vw; top: 8vh; font-size: 2vw""> 
            <font color=""green""> Bonus : $0.95 </font>
            </div>
        </div>
    
        <img class=""stim"" src=./stimuli//pack_shapes_diff/cat_2/diff_4/ex_2_4_16.png></img>
    ","null","stimulus","","","","","","",""
"","","","","","html-keyboard-response","182","233437","0.0-6.25-2.25","5ed263aeba65480a03b6c31f","65576f040411c2a4be0341a4","65576f6f01742623814f9d5e","null","
        <div style=""text-align: center; position: fixed; top: 5vh; left: 40vw;"">
            <div style=""margin:0 auto; width: 20vw; top: 8vh; font-size: 2vw""> 
            <font color=""green""> Bonus : $0.95 </font>
            </div>
        </div>
    ","null","","","","","","","",""
"","","","","","html-keyboard-response","183","233958","0.0-6.25-3.25","5ed263aeba65480a03b6c31f","65576f040411c2a4be0341a4","65576f6f01742623814f9d5e","520","./stimuli//pack_shapes_diff/cat_2/diff_4/ex_2_4_16.png","arrowright","response","ArrowRight","16","2","4","test","true",""
"","","","","","html-keyboard-response","184","235459","0.0-6.25-4.25","5ed263aeba65480a03b6c31f","65576f040411c2a4be0341a4","65576f6f01742623814f9d5e","null","<p> <font color=""green"" size=""5vw""> Correct category! </font> <br> <br> <font color=""green"" size=""8vw""> + $0.05 </font> </p>","null","feedback","","","","","","","1"
"","","","","","html-keyboard-response","185","236874","0.0-6.26-0.26","5ed263aeba65480a03b6c31f","65576f040411c2a4be0341a4","65576f6f01742623814f9d5e","1414","
            
        <div style=""text-align: center; position: fixed; top: 5vh; left: 40vw;"">
            <div style=""margin:0 auto; width: 20vw; top: 8vh; font-size: 2vw""> 
            <font color=""green""> Bonus : $1 </font>
            </div>
        </div>
    
            <div> Please press any button to continue to the next trial.</div>
        ","arrowleft","ITI","","","","","","",""
"","","","","","html-keyboard-response","186","237486","0.0-6.26-1.26","5ed263aeba65480a03b6c31f","65576f040411c2a4be0341a4","65576f6f01742623814f9d5e","null","
        
        <div style=""text-align: center; position: fixed; top: 5vh; left: 40vw;"">
            <div style=""margin:0 auto; width: 20vw; top: 8vh; font-size: 2vw""> 
            <font color=""green""> Bonus : $1 </font>
            </div>
        </div>
    
        <img class=""stim"" src=./stimuli//pack_shapes_diff/cat_2/diff_4/ex_2_4_2.png></img>
    ","null","stimulus","","","","","","",""
"","","","","","html-keyboard-response","187","238498","0.0-6.26-2.26","5ed263aeba65480a03b6c31f","65576f040411c2a4be0341a4","65576f6f01742623814f9d5e","null","
        <div style=""text-align: center; position: fixed; top: 5vh; left: 40vw;"">
            <div style=""margin:0 auto; width: 20vw; top: 8vh; font-size: 2vw""> 
            <font color=""green""> Bonus : $1 </font>
            </div>
        </div>
    ","null","","","","","","","",""
"","","","","","html-keyboard-response","188","238815","0.0-6.26-3.26","5ed263aeba65480a03b6c31f","65576f040411c2a4be0341a4","65576f6f01742623814f9d5e","317","./stimuli//pack_shapes_diff/cat_2/diff_4/ex_2_4_2.png","arrowright","response","ArrowRight","2","2","4","test","true",""
"","","","","","html-keyboard-response","189","240327","0.0-6.26-4.26","5ed263aeba65480a03b6c31f","65576f040411c2a4be0341a4","65576f6f01742623814f9d5e","null","<p> <font color=""green"" size=""5vw""> Correct category! </font> <br> <br> <font color=""green"" size=""8vw""> + $0.05 </font> </p>","null","feedback","","","","","","","1.05"
"","","","","","html-keyboard-response","190","243247","0.0-6.27-0.27","5ed263aeba65480a03b6c31f","65576f040411c2a4be0341a4","65576f6f01742623814f9d5e","2919","
            
        <div style=""text-align: center; position: fixed; top: 5vh; left: 40vw;"">
            <div style=""margin:0 auto; width: 20vw; top: 8vh; font-size: 2vw""> 
            <font color=""green""> Bonus : $1.05 </font>
            </div>
        </div>
    
            <div> Please press any button to continue to the next trial.</div>
        ","arrowleft","ITI","","","","","","",""
"","","","","","html-keyboard-response","191","243849","0.0-6.27-1.27","5ed263aeba65480a03b6c31f","65576f040411c2a4be0341a4","65576f6f01742623814f9d5e","null","
        
        <div style=""text-align: center; position: fixed; top: 5vh; left: 40vw;"">
            <div style=""margin:0 auto; width: 20vw; top: 8vh; font-size: 2vw""> 
            <font color=""green""> Bonus : $1.05 </font>
            </div>
        </div>
    
        <img class=""stim"" src=./stimuli//pack_shapes_diff/cat_2/diff_4/ex_2_4_14.png></img>
    ","null","stimulus","","","","","","",""
"","","","","","html-keyboard-response","192","244862","0.0-6.27-2.27","5ed263aeba65480a03b6c31f","65576f040411c2a4be0341a4","65576f6f01742623814f9d5e","null","
        <div style=""text-align: center; position: fixed; top: 5vh; left: 40vw;"">
            <div style=""margin:0 auto; width: 20vw; top: 8vh; font-size: 2vw""> 
            <font color=""green""> Bonus : $1.05 </font>
            </div>
        </div>
    ","null","","","","","","","",""
"","","","","","html-keyboard-response","193","245109","0.0-6.27-3.27","5ed263aeba65480a03b6c31f","65576f040411c2a4be0341a4","65576f6f01742623814f9d5e","246","./stimuli//pack_shapes_diff/cat_2/diff_4/ex_2_4_14.png","arrowright","response","ArrowRight","14","2","4","test","true",""
"","","","","","html-keyboard-response","194","246612","0.0-6.27-4.27","5ed263aeba65480a03b6c31f","65576f040411c2a4be0341a4","65576f6f01742623814f9d5e","null","<p> <font color=""green"" size=""5vw""> Correct category! </font> <br> <br> <font color=""green"" size=""8vw""> + $0.05 </font> </p>","null","feedback","","","","","","","1.1"
"","","","","","html-keyboard-response","195","248180","0.0-6.28-0.28","5ed263aeba65480a03b6c31f","65576f040411c2a4be0341a4","65576f6f01742623814f9d5e","1567","
            
        <div style=""text-align: center; position: fixed; top: 5vh; left: 40vw;"">
            <div style=""margin:0 auto; width: 20vw; top: 8vh; font-size: 2vw""> 
            <font color=""green""> Bonus : $1.1 </font>
            </div>
        </div>
    
            <div> Please press any button to continue to the next trial.</div>
        ","arrowleft","ITI","","","","","","",""
"","","","","","html-keyboard-response","196","248790","0.0-6.28-1.28","5ed263aeba65480a03b6c31f","65576f040411c2a4be0341a4","65576f6f01742623814f9d5e","null","
        
        <div style=""text-align: center; position: fixed; top: 5vh; left: 40vw;"">
            <div style=""margin:0 auto; width: 20vw; top: 8vh; font-size: 2vw""> 
            <font color=""green""> Bonus : $1.1 </font>
            </div>
        </div>
    
        <img class=""stim"" src=./stimuli//pack_shapes_diff/cat_1/diff_4/ex_1_4_11.png></img>
    ","null","stimulus","","","","","","",""
"","","","","","html-keyboard-response","197","249798","0.0-6.28-2.28","5ed263aeba65480a03b6c31f","65576f040411c2a4be0341a4","65576f6f01742623814f9d5e","null","
        <div style=""text-align: center; position: fixed; top: 5vh; left: 40vw;"">
            <div style=""margin:0 auto; width: 20vw; top: 8vh; font-size: 2vw""> 
            <font color=""green""> Bonus : $1.1 </font>
            </div>
        </div>
    ","null","","","","","","","",""
"","","","","","html-keyboard-response","198","250650","0.0-6.28-3.28","5ed263aeba65480a03b6c31f","65576f040411c2a4be0341a4","65576f6f01742623814f9d5e","851","./stimuli//pack_shapes_diff/cat_1/diff_4/ex_1_4_11.png","arrowleft","response","ArrowLeft","11","1","4","test","true",""
"","","","","","html-keyboard-response","199","252151","0.0-6.28-4.28","5ed263aeba65480a03b6c31f","65576f040411c2a4be0341a4","65576f6f01742623814f9d5e","null","<p> <font color=""green"" size=""5vw""> Correct category! </font> <br> <br> <font color=""green"" size=""8vw""> + $0.05 </font> </p>","null","feedback","","","","","","","1.15"
"","","","","","html-keyboard-response","200","252724","0.0-6.29-0.29","5ed263aeba65480a03b6c31f","65576f040411c2a4be0341a4","65576f6f01742623814f9d5e","572","
            
        <div style=""text-align: center; position: fixed; top: 5vh; left: 40vw;"">
            <div style=""margin:0 auto; width: 20vw; top: 8vh; font-size: 2vw""> 
            <font color=""green""> Bonus : $1.15 </font>
            </div>
        </div>
    
            <div> Please press any button to continue to the next trial.</div>
        ","arrowleft","ITI","","","","","","",""
"","","","","","html-keyboard-response","201","253335","0.0-6.29-1.29","5ed263aeba65480a03b6c31f","65576f040411c2a4be0341a4","65576f6f01742623814f9d5e","null","
        
        <div style=""text-align: center; position: fixed; top: 5vh; left: 40vw;"">
            <div style=""margin:0 auto; width: 20vw; top: 8vh; font-size: 2vw""> 
            <font color=""green""> Bonus : $1.15 </font>
            </div>
        </div>
    
        <img class=""stim"" src=./stimuli//pack_shapes_diff/cat_1/diff_4/ex_1_4_16.png></img>
    ","null","stimulus","","","","","","",""
"","","","","","html-keyboard-response","202","254342","0.0-6.29-2.29","5ed263aeba65480a03b6c31f","65576f040411c2a4be0341a4","65576f6f01742623814f9d5e","null","
        <div style=""text-align: center; position: fixed; top: 5vh; left: 40vw;"">
            <div style=""margin:0 auto; width: 20vw; top: 8vh; font-size: 2vw""> 
            <font color=""green""> Bonus : $1.15 </font>
            </div>
        </div>
    ","null","","","","","","","",""
"","","","","","html-keyboard-response","203","254643","0.0-6.29-3.29","5ed263aeba65480a03b6c31f","65576f040411c2a4be0341a4","65576f6f01742623814f9d5e","300","./stimuli//pack_shapes_diff/cat_1/diff_4/ex_1_4_16.png","arrowright","response","ArrowLeft","16","1","4","test","false",""
"","","","","","html-keyboard-response","204","256155","0.0-6.29-4.29","5ed263aeba65480a03b6c31f","65576f040411c2a4be0341a4","65576f6f01742623814f9d5e","null","<p> <font color=""red"" size=""5vw""> Wrong category! </font> </p>","null","feedback","","","","","","","1.15"
"","","","","","html-keyboard-response","205","256807","0.0-6.30-0.30","5ed263aeba65480a03b6c31f","65576f040411c2a4be0341a4","65576f6f01742623814f9d5e","651","
            
        <div style=""text-align: center; position: fixed; top: 5vh; left: 40vw;"">
            <div style=""margin:0 auto; width: 20vw; top: 8vh; font-size: 2vw""> 
            <font color=""green""> Bonus : $1.15 </font>
            </div>
        </div>
    
            <div> Please press any button to continue to the next trial.</div>
        ","arrowleft","ITI","","","","","","",""
"","","","","","html-keyboard-response","206","257413","0.0-6.30-1.30","5ed263aeba65480a03b6c31f","65576f040411c2a4be0341a4","65576f6f01742623814f9d5e","null","
        
        <div style=""text-align: center; position: fixed; top: 5vh; left: 40vw;"">
            <div style=""margin:0 auto; width: 20vw; top: 8vh; font-size: 2vw""> 
            <font color=""green""> Bonus : $1.15 </font>
            </div>
        </div>
    
        <img class=""stim"" src=./stimuli//pack_shapes_diff/cat_1/diff_5/ex_1_5_8.png></img>
    ","null","stimulus","","","","","","",""
"","","","","","html-keyboard-response","207","258416","0.0-6.30-2.30","5ed263aeba65480a03b6c31f","65576f040411c2a4be0341a4","65576f6f01742623814f9d5e","null","
        <div style=""text-align: center; position: fixed; top: 5vh; left: 40vw;"">
            <div style=""margin:0 auto; width: 20vw; top: 8vh; font-size: 2vw""> 
            <font color=""green""> Bonus : $1.15 </font>
            </div>
        </div>
    ","null","","","","","","","",""
"","","","","","html-keyboard-response","208","258792","0.0-6.30-3.30","5ed263aeba65480a03b6c31f","65576f040411c2a4be0341a4","65576f6f01742623814f9d5e","375","./stimuli//pack_shapes_diff/cat_1/diff_5/ex_1_5_8.png","arrowleft","response","ArrowLeft","8","1","5","test","true",""
"","","","","","html-keyboard-response","209","260295","0.0-6.30-4.30","5ed263aeba65480a03b6c31f","65576f040411c2a4be0341a4","65576f6f01742623814f9d5e","null","<p> <font color=""green"" size=""5vw""> Correct category! </font> <br> <br> <font color=""green"" size=""8vw""> + $0.05 </font> </p>","null","feedback","","","","","","","1.2"
"","","","","","html-keyboard-response","210","260921","0.0-6.31-0.31","5ed263aeba65480a03b6c31f","65576f040411c2a4be0341a4","65576f6f01742623814f9d5e","625","
            
        <div style=""text-align: center; position: fixed; top: 5vh; left: 40vw;"">
            <div style=""margin:0 auto; width: 20vw; top: 8vh; font-size: 2vw""> 
            <font color=""green""> Bonus : $1.2 </font>
            </div>
        </div>
    
            <div> Please press any button to continue to the next trial.</div>
        ","arrowleft","ITI","","","","","","",""
"","","","","","html-keyboard-response","211","261526","0.0-6.31-1.31","5ed263aeba65480a03b6c31f","65576f040411c2a4be0341a4","65576f6f01742623814f9d5e","null","
        
        <div style=""text-align: center; position: fixed; top: 5vh; left: 40vw;"">
            <div style=""margin:0 auto; width: 20vw; top: 8vh; font-size: 2vw""> 
            <font color=""green""> Bonus : $1.2 </font>
            </div>
        </div>
    
        <img class=""stim"" src=./stimuli//pack_shapes_diff/cat_2/diff_5/ex_2_5_13.png></img>
    ","null","stimulus","","","","","","",""
"","","","","","html-keyboard-response","212","262533","0.0-6.31-2.31","5ed263aeba65480a03b6c31f","65576f040411c2a4be0341a4","65576f6f01742623814f9d5e","null","
        <div style=""text-align: center; position: fixed; top: 5vh; left: 40vw;"">
            <div style=""margin:0 auto; width: 20vw; top: 8vh; font-size: 2vw""> 
            <font color=""green""> Bonus : $1.2 </font>
            </div>
        </div>
    ","null","","","","","","","",""
"","","","","","html-keyboard-response","213","263033","0.0-6.31-3.31","5ed263aeba65480a03b6c31f","65576f040411c2a4be0341a4","65576f6f01742623814f9d5e","499","./stimuli//pack_shapes_diff/cat_2/diff_5/ex_2_5_13.png","arrowright","response","ArrowRight","13","2","5","test","true",""
"","","","","","html-keyboard-response","214","264539","0.0-6.31-4.31","5ed263aeba65480a03b6c31f","65576f040411c2a4be0341a4","65576f6f01742623814f9d5e","null","<p> <font color=""green"" size=""5vw""> Correct category! </font> <br> <br> <font color=""green"" size=""8vw""> + $0.05 </font> </p>","null","feedback","","","","","","","1.25"
"","","","","","html-keyboard-response","215","266918","0.0-6.32-0.32","5ed263aeba65480a03b6c31f","65576f040411c2a4be0341a4","65576f6f01742623814f9d5e","2379","
            
        <div style=""text-align: center; position: fixed; top: 5vh; left: 40vw;"">
            <div style=""margin:0 auto; width: 20vw; top: 8vh; font-size: 2vw""> 
            <font color=""green""> Bonus : $1.25 </font>
            </div>
        </div>
    
            <div> Please press any button to continue to the next trial.</div>
        ","arrowright","ITI","","","","","","",""
"","","","","","html-keyboard-response","216","267523","0.0-6.32-1.32","5ed263aeba65480a03b6c31f","65576f040411c2a4be0341a4","65576f6f01742623814f9d5e","null","
        
        <div style=""text-align: center; position: fixed; top: 5vh; left: 40vw;"">
            <div style=""margin:0 auto; width: 20vw; top: 8vh; font-size: 2vw""> 
            <font color=""green""> Bonus : $1.25 </font>
            </div>
        </div>
    
        <img class=""stim"" src=./stimuli//pack_shapes_diff/cat_2/diff_5/ex_2_5_11.png></img>
    ","null","stimulus","","","","","","",""
"","","","","","html-keyboard-response","217","268540","0.0-6.32-2.32","5ed263aeba65480a03b6c31f","65576f040411c2a4be0341a4","65576f6f01742623814f9d5e","null","
        <div style=""text-align: center; position: fixed; top: 5vh; left: 40vw;"">
            <div style=""margin:0 auto; width: 20vw; top: 8vh; font-size: 2vw""> 
            <font color=""green""> Bonus : $1.25 </font>
            </div>
        </div>
    ","null","","","","","","","",""
"","","","","","html-keyboard-response","218","269621","0.0-6.32-3.32","5ed263aeba65480a03b6c31f","65576f040411c2a4be0341a4","65576f6f01742623814f9d5e","1080","./stimuli//pack_shapes_diff/cat_2/diff_5/ex_2_5_11.png","arrowleft","response","ArrowRight","11","2","5","test","false",""
"","","","","","html-keyboard-response","219","271137","0.0-6.32-4.32","5ed263aeba65480a03b6c31f","65576f040411c2a4be0341a4","65576f6f01742623814f9d5e","null","<p> <font color=""red"" size=""5vw""> Wrong category! </font> </p>","null","feedback","","","","","","","1.25"
"","","","","","html-keyboard-response","220","271834","0.0-6.33-0.33","5ed263aeba65480a03b6c31f","65576f040411c2a4be0341a4","65576f6f01742623814f9d5e","696","
            
        <div style=""text-align: center; position: fixed; top: 5vh; left: 40vw;"">
            <div style=""margin:0 auto; width: 20vw; top: 8vh; font-size: 2vw""> 
            <font color=""green""> Bonus : $1.25 </font>
            </div>
        </div>
    
            <div> Please press any button to continue to the next trial.</div>
        ","arrowleft","ITI","","","","","","",""
"","","","","","html-keyboard-response","221","272437","0.0-6.33-1.33","5ed263aeba65480a03b6c31f","65576f040411c2a4be0341a4","65576f6f01742623814f9d5e","null","
        
        <div style=""text-align: center; position: fixed; top: 5vh; left: 40vw;"">
            <div style=""margin:0 auto; width: 20vw; top: 8vh; font-size: 2vw""> 
            <font color=""green""> Bonus : $1.25 </font>
            </div>
        </div>
    
        <img class=""stim"" src=./stimuli//pack_shapes_diff/cat_1/diff_5/ex_1_5_7.png></img>
    ","null","stimulus","","","","","","",""
"","","","","","html-keyboard-response","222","273446","0.0-6.33-2.33","5ed263aeba65480a03b6c31f","65576f040411c2a4be0341a4","65576f6f01742623814f9d5e","null","
        <div style=""text-align: center; position: fixed; top: 5vh; left: 40vw;"">
            <div style=""margin:0 auto; width: 20vw; top: 8vh; font-size: 2vw""> 
            <font color=""green""> Bonus : $1.25 </font>
            </div>
        </div>
    ","null","","","","","","","",""
"","","","","","html-keyboard-response","223","273819","0.0-6.33-3.33","5ed263aeba65480a03b6c31f","65576f040411c2a4be0341a4","65576f6f01742623814f9d5e","372","./stimuli//pack_shapes_diff/cat_1/diff_5/ex_1_5_7.png","arrowleft","response","ArrowLeft","7","1","5","test","true",""
"","","","","","html-keyboard-response","224","275336","0.0-6.33-4.33","5ed263aeba65480a03b6c31f","65576f040411c2a4be0341a4","65576f6f01742623814f9d5e","null","<p> <font color=""green"" size=""5vw""> Correct category! </font> <br> <br> <font color=""green"" size=""8vw""> + $0.05 </font> </p>","null","feedback","","","","","","","1.3"
"","","","","","html-keyboard-response","225","276440","0.0-6.34-0.34","5ed263aeba65480a03b6c31f","65576f040411c2a4be0341a4","65576f6f01742623814f9d5e","1103","
            
        <div style=""text-align: center; position: fixed; top: 5vh; left: 40vw;"">
            <div style=""margin:0 auto; width: 20vw; top: 8vh; font-size: 2vw""> 
            <font color=""green""> Bonus : $1.3 </font>
            </div>
        </div>
    
            <div> Please press any button to continue to the next trial.</div>
        ","arrowleft","ITI","","","","","","",""
"","","","","","html-keyboard-response","226","277045","0.0-6.34-1.34","5ed263aeba65480a03b6c31f","65576f040411c2a4be0341a4","65576f6f01742623814f9d5e","null","
        
        <div style=""text-align: center; position: fixed; top: 5vh; left: 40vw;"">
            <div style=""margin:0 auto; width: 20vw; top: 8vh; font-size: 2vw""> 
            <font color=""green""> Bonus : $1.3 </font>
            </div>
        </div>
    
        <img class=""stim"" src=./stimuli//pack_shapes_diff/cat_2/diff_5/ex_2_5_12.png></img>
    ","null","stimulus","","","","","","",""
"","","","","","html-keyboard-response","227","278061","0.0-6.34-2.34","5ed263aeba65480a03b6c31f","65576f040411c2a4be0341a4","65576f6f01742623814f9d5e","null","
        <div style=""text-align: center; position: fixed; top: 5vh; left: 40vw;"">
            <div style=""margin:0 auto; width: 20vw; top: 8vh; font-size: 2vw""> 
            <font color=""green""> Bonus : $1.3 </font>
            </div>
        </div>
    ","null","","","","","","","",""
"","","","","","html-keyboard-response","228","278417","0.0-6.34-3.34","5ed263aeba65480a03b6c31f","65576f040411c2a4be0341a4","65576f6f01742623814f9d5e","355","./stimuli//pack_shapes_diff/cat_2/diff_5/ex_2_5_12.png","arrowleft","response","ArrowRight","12","2","5","test","false",""
"","","","","","html-keyboard-response","229","279921","0.0-6.34-4.34","5ed263aeba65480a03b6c31f","65576f040411c2a4be0341a4","65576f6f01742623814f9d5e","null","<p> <font color=""red"" size=""5vw""> Wrong category! </font> </p>","null","feedback","","","","","","","1.3"
