"success","timeout","failed_images","failed_audio","failed_video","trial_type","trial_index","time_elapsed","internal_node_id","subject_id","study_id","session_id","rt","stimulus","response","task","correct_response","exemplar_ID","category","difficulty","phase","correct","bonus"
"true","false","[]","[]","[]","preload","0","3","0.0-0.0","610bb9c0c502bc7d0b4650f6","65576f040411c2a4be0341a4","65577450c5cd5cb46edfe6c4","","","","","","","","","","",""
"","","","","","html-keyboard-response","1","4857","0.0-1.0","610bb9c0c502bc7d0b4650f6","65576f040411c2a4be0341a4","65577450c5cd5cb46edfe6c4","4853","Welcome to the Category Learning experiment! Press any key to continue."," ","welcome","","","","","","",""
"","","","","","html-keyboard-response","2","28973","0.0-2.0","610bb9c0c502bc7d0b4650f6","65576f040411c2a4be0341a4","65577450c5cd5cb46edfe6c4","24115","
            <p>You will be shown images of black shapes. Some are category A, some are category B.
            <br>You will not know in advance which category a specific shape belongs to.</p>
            <p>After you see an image, you will be asked to guess its category <b>(left arrow for category A, right arrow for category B)</b></p>
            <p>After you choose, the screen will show you whether you were correct or not.</p>
            <p><b>You will receive a bonus payment of $0.05 for each correct answer!</b></p>
            <p> So you can increase your bonus by guessing correctly, and by guessing as quickly as possible so you move on to the next image sooner.</p>
            <p>Press any key to continue.</p>
            "," ","introduction_1","","","","","","",""
"","","","","","html-keyboard-response","3","34261","0.0-3.0","610bb9c0c502bc7d0b4650f6","65576f040411c2a4be0341a4","65577450c5cd5cb46edfe6c4","5288","
            <p> <b>The first 10 trials are a practice round that will not count towards your bonus payment.</b></p>
            <p> You will be notified when practice finishes and the test begins. </p>
            <p> Press any key to begin the practice round.</p>
            "," ","introduction_2","","","","","","",""
"","","","","","html-keyboard-response","4","36048","0.0-4.0-0.0","610bb9c0c502bc7d0b4650f6","65576f040411c2a4be0341a4","65577450c5cd5cb46edfe6c4","1787","
            
        <div style=""text-align: center; position: fixed; top: 5vh; left: 40vw;"">
            <div style=""margin:0 auto; width: 20vw; top: 8vh; font-size: 2vw""> 
            <font color=""green""> Bonus : $0 </font>
            </div>
        </div>
    
            <div> Please press any button to continue to the next trial.</div>
        "," ","ITI","","","","","","",""
"","","","","","html-keyboard-response","5","36650","0.0-4.0-1.0","610bb9c0c502bc7d0b4650f6","65576f040411c2a4be0341a4","65577450c5cd5cb46edfe6c4","null","
        
        <div style=""text-align: center; position: fixed; top: 5vh; left: 40vw;"">
            <div style=""margin:0 auto; width: 20vw; top: 8vh; font-size: 2vw""> 
            <font color=""green""> Bonus : $0 </font>
            </div>
        </div>
    
        <img class=""stim"" src=./stimuli//pack_shapes_diff/cat_2/diff_1/ex_2_1_13.png></img>
    ","null","stimulus","","","","","","",""
"","","","","","html-keyboard-response","6","37653","0.0-4.0-2.0","610bb9c0c502bc7d0b4650f6","65576f040411c2a4be0341a4","65577450c5cd5cb46edfe6c4","null","
        <div style=""text-align: center; position: fixed; top: 5vh; left: 40vw;"">
            <div style=""margin:0 auto; width: 20vw; top: 8vh; font-size: 2vw""> 
            <font color=""green""> Bonus : $0 </font>
            </div>
        </div>
    ","null","","","","","","","",""
"","","","","","html-keyboard-response","7","38255","0.0-4.0-3.0","610bb9c0c502bc7d0b4650f6","65576f040411c2a4be0341a4","65577450c5cd5cb46edfe6c4","601","./stimuli//pack_shapes_diff/cat_2/diff_1/ex_2_1_13.png","arrowleft","response","ArrowRight","13","2","1","train","false",""
"","","","","","html-keyboard-response","8","39756","0.0-4.0-4.0","610bb9c0c502bc7d0b4650f6","65576f040411c2a4be0341a4","65577450c5cd5cb46edfe6c4","null","<p> <font color=""red"" size=""5vw""> Wrong category! </font> </p>","null","feedback","","","","","","","0"
"","","","","","html-keyboard-response","9","40229","0.0-4.0-0.1","610bb9c0c502bc7d0b4650f6","65576f040411c2a4be0341a4","65577450c5cd5cb46edfe6c4","472","
            
        <div style=""text-align: center; position: fixed; top: 5vh; left: 40vw;"">
            <div style=""margin:0 auto; width: 20vw; top: 8vh; font-size: 2vw""> 
            <font color=""green""> Bonus : $0 </font>
            </div>
        </div>
    
            <div> Please press any button to continue to the next trial.</div>
        "," ","ITI","","","","","","",""
"","","","","","html-keyboard-response","10","40832","0.0-4.0-1.1","610bb9c0c502bc7d0b4650f6","65576f040411c2a4be0341a4","65577450c5cd5cb46edfe6c4","null","
        
        <div style=""text-align: center; position: fixed; top: 5vh; left: 40vw;"">
            <div style=""margin:0 auto; width: 20vw; top: 8vh; font-size: 2vw""> 
            <font color=""green""> Bonus : $0 </font>
            </div>
        </div>
    
        <img class=""stim"" src=./stimuli//pack_shapes_diff/cat_1/diff_1/ex_1_1_4.png></img>
    ","null","stimulus","","","","","","",""
"","","","","","html-keyboard-response","11","41836","0.0-4.0-2.1","610bb9c0c502bc7d0b4650f6","65576f040411c2a4be0341a4","65577450c5cd5cb46edfe6c4","null","
        <div style=""text-align: center; position: fixed; top: 5vh; left: 40vw;"">
            <div style=""margin:0 auto; width: 20vw; top: 8vh; font-size: 2vw""> 
            <font color=""green""> Bonus : $0 </font>
            </div>
        </div>
    ","null","","","","","","","",""
"","","","","","html-keyboard-response","12","42032","0.0-4.0-3.1","610bb9c0c502bc7d0b4650f6","65576f040411c2a4be0341a4","65577450c5cd5cb46edfe6c4","195","./stimuli//pack_shapes_diff/cat_1/diff_1/ex_1_1_4.png","arrowleft","response","ArrowLeft","4","1","1","train","true",""
"","","","","","html-keyboard-response","13","43538","0.0-4.0-4.1","610bb9c0c502bc7d0b4650f6","65576f040411c2a4be0341a4","65577450c5cd5cb46edfe6c4","null","<p> <font color=""green"" size=""5vw""> Correct category! </font> </p>","null","feedback","","","","","","","0"
"","","","","","html-keyboard-response","14","43813","0.0-4.0-0.2","610bb9c0c502bc7d0b4650f6","65576f040411c2a4be0341a4","65577450c5cd5cb46edfe6c4","274","
            
        <div style=""text-align: center; position: fixed; top: 5vh; left: 40vw;"">
            <div style=""margin:0 auto; width: 20vw; top: 8vh; font-size: 2vw""> 
            <font color=""green""> Bonus : $0 </font>
            </div>
        </div>
    
            <div> Please press any button to continue to the next trial.</div>
        "," ","ITI","","","","","","",""
"","","","","","html-keyboard-response","15","44419","0.0-4.0-1.2","610bb9c0c502bc7d0b4650f6","65576f040411c2a4be0341a4","65577450c5cd5cb46edfe6c4","null","
        
        <div style=""text-align: center; position: fixed; top: 5vh; left: 40vw;"">
            <div style=""margin:0 auto; width: 20vw; top: 8vh; font-size: 2vw""> 
            <font color=""green""> Bonus : $0 </font>
            </div>
        </div>
    
        <img class=""stim"" src=./stimuli//pack_shapes_diff/cat_1/diff_1/ex_1_1_17.png></img>
    ","null","stimulus","","","","","","",""
"","","","","","html-keyboard-response","16","45424","0.0-4.0-2.2","610bb9c0c502bc7d0b4650f6","65576f040411c2a4be0341a4","65577450c5cd5cb46edfe6c4","null","
        <div style=""text-align: center; position: fixed; top: 5vh; left: 40vw;"">
            <div style=""margin:0 auto; width: 20vw; top: 8vh; font-size: 2vw""> 
            <font color=""green""> Bonus : $0 </font>
            </div>
        </div>
    ","null","","","","","","","",""
"","","","","","html-keyboard-response","17","45615","0.0-4.0-3.2","610bb9c0c502bc7d0b4650f6","65576f040411c2a4be0341a4","65577450c5cd5cb46edfe6c4","190","./stimuli//pack_shapes_diff/cat_1/diff_1/ex_1_1_17.png","arrowleft","response","ArrowLeft","17","1","1","train","true",""
"","","","","","html-keyboard-response","18","47117","0.0-4.0-4.2","610bb9c0c502bc7d0b4650f6","65576f040411c2a4be0341a4","65577450c5cd5cb46edfe6c4","null","<p> <font color=""green"" size=""5vw""> Correct category! </font> </p>","null","feedback","","","","","","","0"
"","","","","","html-keyboard-response","19","47399","0.0-4.0-0.3","610bb9c0c502bc7d0b4650f6","65576f040411c2a4be0341a4","65577450c5cd5cb46edfe6c4","282","
            
        <div style=""text-align: center; position: fixed; top: 5vh; left: 40vw;"">
            <div style=""margin:0 auto; width: 20vw; top: 8vh; font-size: 2vw""> 
            <font color=""green""> Bonus : $0 </font>
            </div>
        </div>
    
            <div> Please press any button to continue to the next trial.</div>
        "," ","ITI","","","","","","",""
"","","","","","html-keyboard-response","20","48005","0.0-4.0-1.3","610bb9c0c502bc7d0b4650f6","65576f040411c2a4be0341a4","65577450c5cd5cb46edfe6c4","null","
        
        <div style=""text-align: center; position: fixed; top: 5vh; left: 40vw;"">
            <div style=""margin:0 auto; width: 20vw; top: 8vh; font-size: 2vw""> 
            <font color=""green""> Bonus : $0 </font>
            </div>
        </div>
    
        <img class=""stim"" src=./stimuli//pack_shapes_diff/cat_2/diff_2/ex_2_2_3.png></img>
    ","null","stimulus","","","","","","",""
"","","","","","html-keyboard-response","21","49006","0.0-4.0-2.3","610bb9c0c502bc7d0b4650f6","65576f040411c2a4be0341a4","65577450c5cd5cb46edfe6c4","null","
        <div style=""text-align: center; position: fixed; top: 5vh; left: 40vw;"">
            <div style=""margin:0 auto; width: 20vw; top: 8vh; font-size: 2vw""> 
            <font color=""green""> Bonus : $0 </font>
            </div>
        </div>
    ","null","","","","","","","",""
"","","","","","html-keyboard-response","22","49385","0.0-4.0-3.3","610bb9c0c502bc7d0b4650f6","65576f040411c2a4be0341a4","65577450c5cd5cb46edfe6c4","378","./stimuli//pack_shapes_diff/cat_2/diff_2/ex_2_2_3.png","arrowleft","response","ArrowRight","3","2","2","train","false",""
"","","","","","html-keyboard-response","23","50891","0.0-4.0-4.3","610bb9c0c502bc7d0b4650f6","65576f040411c2a4be0341a4","65577450c5cd5cb46edfe6c4","null","<p> <font color=""red"" size=""5vw""> Wrong category! </font> </p>","null","feedback","","","","","","","0"
"","","","","","html-keyboard-response","24","51154","0.0-4.0-0.4","610bb9c0c502bc7d0b4650f6","65576f040411c2a4be0341a4","65577450c5cd5cb46edfe6c4","261","
            
        <div style=""text-align: center; position: fixed; top: 5vh; left: 40vw;"">
            <div style=""margin:0 auto; width: 20vw; top: 8vh; font-size: 2vw""> 
            <font color=""green""> Bonus : $0 </font>
            </div>
        </div>
    
            <div> Please press any button to continue to the next trial.</div>
        "," ","ITI","","","","","","",""
"","","","","","html-keyboard-response","25","51758","0.0-4.0-1.4","610bb9c0c502bc7d0b4650f6","65576f040411c2a4be0341a4","65577450c5cd5cb46edfe6c4","null","
        
        <div style=""text-align: center; position: fixed; top: 5vh; left: 40vw;"">
            <div style=""margin:0 auto; width: 20vw; top: 8vh; font-size: 2vw""> 
            <font color=""green""> Bonus : $0 </font>
            </div>
        </div>
    
        <img class=""stim"" src=./stimuli//pack_shapes_diff/cat_1/diff_2/ex_1_2_17.png></img>
    ","null","stimulus","","","","","","",""
"","","","","","html-keyboard-response","26","52764","0.0-4.0-2.4","610bb9c0c502bc7d0b4650f6","65576f040411c2a4be0341a4","65577450c5cd5cb46edfe6c4","null","
        <div style=""text-align: center; position: fixed; top: 5vh; left: 40vw;"">
            <div style=""margin:0 auto; width: 20vw; top: 8vh; font-size: 2vw""> 
            <font color=""green""> Bonus : $0 </font>
            </div>
        </div>
    ","null","","","","","","","",""
"","","","","","html-keyboard-response","27","52990","0.0-4.0-3.4","610bb9c0c502bc7d0b4650f6","65576f040411c2a4be0341a4","65577450c5cd5cb46edfe6c4","225","./stimuli//pack_shapes_diff/cat_1/diff_2/ex_1_2_17.png","arrowleft","response","ArrowLeft","17","1","2","train","true",""
"","","","","","html-keyboard-response","28","54492","0.0-4.0-4.4","610bb9c0c502bc7d0b4650f6","65576f040411c2a4be0341a4","65577450c5cd5cb46edfe6c4","null","<p> <font color=""green"" size=""5vw""> Correct category! </font> </p>","null","feedback","","","","","","","0"
"","","","","","html-keyboard-response","29","54833","0.0-4.0-0.5","610bb9c0c502bc7d0b4650f6","65576f040411c2a4be0341a4","65577450c5cd5cb46edfe6c4","341","
            
        <div style=""text-align: center; position: fixed; top: 5vh; left: 40vw;"">
            <div style=""margin:0 auto; width: 20vw; top: 8vh; font-size: 2vw""> 
            <font color=""green""> Bonus : $0 </font>
            </div>
        </div>
    
            <div> Please press any button to continue to the next trial.</div>
        "," ","ITI","","","","","","",""
"","","","","","html-keyboard-response","30","55436","0.0-4.0-1.5","610bb9c0c502bc7d0b4650f6","65576f040411c2a4be0341a4","65577450c5cd5cb46edfe6c4","null","
        
        <div style=""text-align: center; position: fixed; top: 5vh; left: 40vw;"">
            <div style=""margin:0 auto; width: 20vw; top: 8vh; font-size: 2vw""> 
            <font color=""green""> Bonus : $0 </font>
            </div>
        </div>
    
        <img class=""stim"" src=./stimuli//pack_shapes_diff/cat_2/diff_1/ex_2_1_10.png></img>
    ","null","stimulus","","","","","","",""
"","","","","","html-keyboard-response","31","56441","0.0-4.0-2.5","610bb9c0c502bc7d0b4650f6","65576f040411c2a4be0341a4","65577450c5cd5cb46edfe6c4","null","
        <div style=""text-align: center; position: fixed; top: 5vh; left: 40vw;"">
            <div style=""margin:0 auto; width: 20vw; top: 8vh; font-size: 2vw""> 
            <font color=""green""> Bonus : $0 </font>
            </div>
        </div>
    ","null","","","","","","","",""
"","","","","","html-keyboard-response","32","56566","0.0-4.0-3.5","610bb9c0c502bc7d0b4650f6","65576f040411c2a4be0341a4","65577450c5cd5cb46edfe6c4","124","./stimuli//pack_shapes_diff/cat_2/diff_1/ex_2_1_10.png","arrowright","response","ArrowRight","10","2","1","train","true",""
"","","","","","html-keyboard-response","33","58069","0.0-4.0-4.5","610bb9c0c502bc7d0b4650f6","65576f040411c2a4be0341a4","65577450c5cd5cb46edfe6c4","null","<p> <font color=""green"" size=""5vw""> Correct category! </font> </p>","null","feedback","","","","","","","0"
"","","","","","html-keyboard-response","34","58411","0.0-4.0-0.6","610bb9c0c502bc7d0b4650f6","65576f040411c2a4be0341a4","65577450c5cd5cb46edfe6c4","341","
            
        <div style=""text-align: center; position: fixed; top: 5vh; left: 40vw;"">
            <div style=""margin:0 auto; width: 20vw; top: 8vh; font-size: 2vw""> 
            <font color=""green""> Bonus : $0 </font>
            </div>
        </div>
    
            <div> Please press any button to continue to the next trial.</div>
        "," ","ITI","","","","","","",""
"","","","","","html-keyboard-response","35","59015","0.0-4.0-1.6","610bb9c0c502bc7d0b4650f6","65576f040411c2a4be0341a4","65577450c5cd5cb46edfe6c4","null","
        
        <div style=""text-align: center; position: fixed; top: 5vh; left: 40vw;"">
            <div style=""margin:0 auto; width: 20vw; top: 8vh; font-size: 2vw""> 
            <font color=""green""> Bonus : $0 </font>
            </div>
        </div>
    
        <img class=""stim"" src=./stimuli//pack_shapes_diff/cat_1/diff_2/ex_1_2_6.png></img>
    ","null","stimulus","","","","","","",""
"","","","","","html-keyboard-response","36","60021","0.0-4.0-2.6","610bb9c0c502bc7d0b4650f6","65576f040411c2a4be0341a4","65577450c5cd5cb46edfe6c4","null","
        <div style=""text-align: center; position: fixed; top: 5vh; left: 40vw;"">
            <div style=""margin:0 auto; width: 20vw; top: 8vh; font-size: 2vw""> 
            <font color=""green""> Bonus : $0 </font>
            </div>
        </div>
    ","null","","","","","","","",""
"","","","","","html-keyboard-response","37","60223","0.0-4.0-3.6","610bb9c0c502bc7d0b4650f6","65576f040411c2a4be0341a4","65577450c5cd5cb46edfe6c4","201","./stimuli//pack_shapes_diff/cat_1/diff_2/ex_1_2_6.png","arrowleft","response","ArrowLeft","6","1","2","train","true",""
"","","","","","html-keyboard-response","38","61728","0.0-4.0-4.6","610bb9c0c502bc7d0b4650f6","65576f040411c2a4be0341a4","65577450c5cd5cb46edfe6c4","null","<p> <font color=""green"" size=""5vw""> Correct category! </font> </p>","null","feedback","","","","","","","0"
"","","","","","html-keyboard-response","39","62077","0.0-4.0-0.7","610bb9c0c502bc7d0b4650f6","65576f040411c2a4be0341a4","65577450c5cd5cb46edfe6c4","347","
            
        <div style=""text-align: center; position: fixed; top: 5vh; left: 40vw;"">
            <div style=""margin:0 auto; width: 20vw; top: 8vh; font-size: 2vw""> 
            <font color=""green""> Bonus : $0 </font>
            </div>
        </div>
    
            <div> Please press any button to continue to the next trial.</div>
        "," ","ITI","","","","","","",""
"","","","","","html-keyboard-response","40","62683","0.0-4.0-1.7","610bb9c0c502bc7d0b4650f6","65576f040411c2a4be0341a4","65577450c5cd5cb46edfe6c4","null","
        
        <div style=""text-align: center; position: fixed; top: 5vh; left: 40vw;"">
            <div style=""margin:0 auto; width: 20vw; top: 8vh; font-size: 2vw""> 
            <font color=""green""> Bonus : $0 </font>
            </div>
        </div>
    
        <img class=""stim"" src=./stimuli//pack_shapes_diff/cat_2/diff_2/ex_2_2_8.png></img>
    ","null","stimulus","","","","","","",""
"","","","","","html-keyboard-response","41","63684","0.0-4.0-2.7","610bb9c0c502bc7d0b4650f6","65576f040411c2a4be0341a4","65577450c5cd5cb46edfe6c4","null","
        <div style=""text-align: center; position: fixed; top: 5vh; left: 40vw;"">
            <div style=""margin:0 auto; width: 20vw; top: 8vh; font-size: 2vw""> 
            <font color=""green""> Bonus : $0 </font>
            </div>
        </div>
    ","null","","","","","","","",""
"","","","","","html-keyboard-response","42","63864","0.0-4.0-3.7","610bb9c0c502bc7d0b4650f6","65576f040411c2a4be0341a4","65577450c5cd5cb46edfe6c4","179","./stimuli//pack_shapes_diff/cat_2/diff_2/ex_2_2_8.png","arrowright","response","ArrowRight","8","2","2","train","true",""
"","","","","","html-keyboard-response","43","65370","0.0-4.0-4.7","610bb9c0c502bc7d0b4650f6","65576f040411c2a4be0341a4","65577450c5cd5cb46edfe6c4","null","<p> <font color=""green"" size=""5vw""> Correct category! </font> </p>","null","feedback","","","","","","","0"
"","","","","","html-keyboard-response","44","65667","0.0-4.0-0.8","610bb9c0c502bc7d0b4650f6","65576f040411c2a4be0341a4","65577450c5cd5cb46edfe6c4","296","
            
        <div style=""text-align: center; position: fixed; top: 5vh; left: 40vw;"">
            <div style=""margin:0 auto; width: 20vw; top: 8vh; font-size: 2vw""> 
            <font color=""green""> Bonus : $0 </font>
            </div>
        </div>
    
            <div> Please press any button to continue to the next trial.</div>
        "," ","ITI","","","","","","",""
"","","","","","html-keyboard-response","45","66268","0.0-4.0-1.8","610bb9c0c502bc7d0b4650f6","65576f040411c2a4be0341a4","65577450c5cd5cb46edfe6c4","null","
        
        <div style=""text-align: center; position: fixed; top: 5vh; left: 40vw;"">
            <div style=""margin:0 auto; width: 20vw; top: 8vh; font-size: 2vw""> 
            <font color=""green""> Bonus : $0 </font>
            </div>
        </div>
    
        <img class=""stim"" src=./stimuli//pack_shapes_diff/cat_1/diff_1/ex_1_1_1.png></img>
    ","null","stimulus","","","","","","",""
"","","","","","html-keyboard-response","46","67270","0.0-4.0-2.8","610bb9c0c502bc7d0b4650f6","65576f040411c2a4be0341a4","65577450c5cd5cb46edfe6c4","null","
        <div style=""text-align: center; position: fixed; top: 5vh; left: 40vw;"">
            <div style=""margin:0 auto; width: 20vw; top: 8vh; font-size: 2vw""> 
            <font color=""green""> Bonus : $0 </font>
            </div>
        </div>
    ","null","","","","","","","",""
"","","","","","html-keyboard-response","47","67456","0.0-4.0-3.8","610bb9c0c502bc7d0b4650f6","65576f040411c2a4be0341a4","65577450c5cd5cb46edfe6c4","185","./stimuli//pack_shapes_diff/cat_1/diff_1/ex_1_1_1.png","arrowleft","response","ArrowLeft","1","1","1","train","true",""
"","","","","","html-keyboard-response","48","68958","0.0-4.0-4.8","610bb9c0c502bc7d0b4650f6","65576f040411c2a4be0341a4","65577450c5cd5cb46edfe6c4","null","<p> <font color=""green"" size=""5vw""> Correct category! </font> </p>","null","feedback","","","","","","","0"
"","","","","","html-keyboard-response","49","69517","0.0-4.0-0.9","610bb9c0c502bc7d0b4650f6","65576f040411c2a4be0341a4","65577450c5cd5cb46edfe6c4","558","
            
        <div style=""text-align: center; position: fixed; top: 5vh; left: 40vw;"">
            <div style=""margin:0 auto; width: 20vw; top: 8vh; font-size: 2vw""> 
            <font color=""green""> Bonus : $0 </font>
            </div>
        </div>
    
            <div> Please press any button to continue to the next trial.</div>
        "," ","ITI","","","","","","",""
"","","","","","html-keyboard-response","50","70120","0.0-4.0-1.9","610bb9c0c502bc7d0b4650f6","65576f040411c2a4be0341a4","65577450c5cd5cb46edfe6c4","null","
        
        <div style=""text-align: center; position: fixed; top: 5vh; left: 40vw;"">
            <div style=""margin:0 auto; width: 20vw; top: 8vh; font-size: 2vw""> 
            <font color=""green""> Bonus : $0 </font>
            </div>
        </div>
    
        <img class=""stim"" src=./stimuli//pack_shapes_diff/cat_2/diff_1/ex_2_1_11.png></img>
    ","null","stimulus","","","","","","",""
"","","","","","html-keyboard-response","51","71127","0.0-4.0-2.9","610bb9c0c502bc7d0b4650f6","65576f040411c2a4be0341a4","65577450c5cd5cb46edfe6c4","null","
        <div style=""text-align: center; position: fixed; top: 5vh; left: 40vw;"">
            <div style=""margin:0 auto; width: 20vw; top: 8vh; font-size: 2vw""> 
            <font color=""green""> Bonus : $0 </font>
            </div>
        </div>
    ","null","","","","","","","",""
"","","","","","html-keyboard-response","52","71247","0.0-4.0-3.9","610bb9c0c502bc7d0b4650f6","65576f040411c2a4be0341a4","65577450c5cd5cb46edfe6c4","119","./stimuli//pack_shapes_diff/cat_2/diff_1/ex_2_1_11.png","arrowright","response","ArrowRight","11","2","1","train","true",""
"","","","","","html-keyboard-response","53","72751","0.0-4.0-4.9","610bb9c0c502bc7d0b4650f6","65576f040411c2a4be0341a4","65577450c5cd5cb46edfe6c4","null","<p> <font color=""green"" size=""5vw""> Correct category! </font> </p>","null","feedback","","","","","","","0"
"","","","","","html-keyboard-response","54","75526","0.0-5.0","610bb9c0c502bc7d0b4650f6","65576f040411c2a4be0341a4","65577450c5cd5cb46edfe6c4","2775","
            <b> <p> The practice round has finished.</p>
            <b> For the rest of the experiment you will receive a $0.05 bonus for each correct answer!</b>
            <p> Press any key to begin the test. </p>
            "," ","intermission","","","","","","",""
"","","","","","html-keyboard-response","55","76461","0.0-6.0-0.0","610bb9c0c502bc7d0b4650f6","65576f040411c2a4be0341a4","65577450c5cd5cb46edfe6c4","934","
            
        <div style=""text-align: center; position: fixed; top: 5vh; left: 40vw;"">
            <div style=""margin:0 auto; width: 20vw; top: 8vh; font-size: 2vw""> 
            <font color=""green""> Bonus : $0 </font>
            </div>
        </div>
    
            <div> Please press any button to continue to the next trial.</div>
        "," ","ITI","","","","","","",""
"","","","","","html-keyboard-response","56","77064","0.0-6.0-1.0","610bb9c0c502bc7d0b4650f6","65576f040411c2a4be0341a4","65577450c5cd5cb46edfe6c4","null","
        
        <div style=""text-align: center; position: fixed; top: 5vh; left: 40vw;"">
            <div style=""margin:0 auto; width: 20vw; top: 8vh; font-size: 2vw""> 
            <font color=""green""> Bonus : $0 </font>
            </div>
        </div>
    
        <img class=""stim"" src=./stimuli//pack_shapes_diff/cat_1/diff_1/ex_1_1_15.png></img>
    ","null","stimulus","","","","","","",""
"","","","","","html-keyboard-response","57","78071","0.0-6.0-2.0","610bb9c0c502bc7d0b4650f6","65576f040411c2a4be0341a4","65577450c5cd5cb46edfe6c4","null","
        <div style=""text-align: center; position: fixed; top: 5vh; left: 40vw;"">
            <div style=""margin:0 auto; width: 20vw; top: 8vh; font-size: 2vw""> 
            <font color=""green""> Bonus : $0 </font>
            </div>
        </div>
    ","null","","","","","","","",""
"","","","","","html-keyboard-response","58","78369","0.0-6.0-3.0","610bb9c0c502bc7d0b4650f6","65576f040411c2a4be0341a4","65577450c5cd5cb46edfe6c4","296","./stimuli//pack_shapes_diff/cat_1/diff_1/ex_1_1_15.png","arrowleft","response","ArrowLeft","15","1","1","test","true",""
"","","","","","html-keyboard-response","59","79871","0.0-6.0-4.0","610bb9c0c502bc7d0b4650f6","65576f040411c2a4be0341a4","65577450c5cd5cb46edfe6c4","null","<p> <font color=""green"" size=""5vw""> Correct category! </font> <br> <br> <font color=""green"" size=""8vw""> + $0.05 </font> </p>","null","feedback","","","","","","","0.05"
"","","","","","html-keyboard-response","60","80157","0.0-6.1-0.1","610bb9c0c502bc7d0b4650f6","65576f040411c2a4be0341a4","65577450c5cd5cb46edfe6c4","285","
            
        <div style=""text-align: center; position: fixed; top: 5vh; left: 40vw;"">
            <div style=""margin:0 auto; width: 20vw; top: 8vh; font-size: 2vw""> 
            <font color=""green""> Bonus : $0.05 </font>
            </div>
        </div>
    
            <div> Please press any button to continue to the next trial.</div>
        "," ","ITI","","","","","","",""
"","","","","","html-keyboard-response","61","80758","0.0-6.1-1.1","610bb9c0c502bc7d0b4650f6","65576f040411c2a4be0341a4","65577450c5cd5cb46edfe6c4","null","
        
        <div style=""text-align: center; position: fixed; top: 5vh; left: 40vw;"">
            <div style=""margin:0 auto; width: 20vw; top: 8vh; font-size: 2vw""> 
            <font color=""green""> Bonus : $0.05 </font>
            </div>
        </div>
    
        <img class=""stim"" src=./stimuli//pack_shapes_diff/cat_1/diff_1/ex_1_1_16.png></img>
    ","null","stimulus","","","","","","",""
"","","","","","html-keyboard-response","62","81762","0.0-6.1-2.1","610bb9c0c502bc7d0b4650f6","65576f040411c2a4be0341a4","65577450c5cd5cb46edfe6c4","null","
        <div style=""text-align: center; position: fixed; top: 5vh; left: 40vw;"">
            <div style=""margin:0 auto; width: 20vw; top: 8vh; font-size: 2vw""> 
            <font color=""green""> Bonus : $0.05 </font>
            </div>
        </div>
    ","null","","","","","","","",""
"","","","","","html-keyboard-response","63","81881","0.0-6.1-3.1","610bb9c0c502bc7d0b4650f6","65576f040411c2a4be0341a4","65577450c5cd5cb46edfe6c4","117","./stimuli//pack_shapes_diff/cat_1/diff_1/ex_1_1_16.png","arrowleft","response","ArrowLeft","16","1","1","test","true",""
"","","","","","html-keyboard-response","64","83385","0.0-6.1-4.1","610bb9c0c502bc7d0b4650f6","65576f040411c2a4be0341a4","65577450c5cd5cb46edfe6c4","null","<p> <font color=""green"" size=""5vw""> Correct category! </font> <br> <br> <font color=""green"" size=""8vw""> + $0.05 </font> </p>","null","feedback","","","","","","","0.1"
"","","","","","html-keyboard-response","65","83643","0.0-6.2-0.2","610bb9c0c502bc7d0b4650f6","65576f040411c2a4be0341a4","65577450c5cd5cb46edfe6c4","256","
            
        <div style=""text-align: center; position: fixed; top: 5vh; left: 40vw;"">
            <div style=""margin:0 auto; width: 20vw; top: 8vh; font-size: 2vw""> 
            <font color=""green""> Bonus : $0.1 </font>
            </div>
        </div>
    
            <div> Please press any button to continue to the next trial.</div>
        "," ","ITI","","","","","","",""
"","","","","","html-keyboard-response","66","84245","0.0-6.2-1.2","610bb9c0c502bc7d0b4650f6","65576f040411c2a4be0341a4","65577450c5cd5cb46edfe6c4","null","
        
        <div style=""text-align: center; position: fixed; top: 5vh; left: 40vw;"">
            <div style=""margin:0 auto; width: 20vw; top: 8vh; font-size: 2vw""> 
            <font color=""green""> Bonus : $0.1 </font>
            </div>
        </div>
    
        <img class=""stim"" src=./stimuli//pack_shapes_diff/cat_1/diff_1/ex_1_1_16.png></img>
    ","null","stimulus","","","","","","",""
"","","","","","html-keyboard-response","67","85251","0.0-6.2-2.2","610bb9c0c502bc7d0b4650f6","65576f040411c2a4be0341a4","65577450c5cd5cb46edfe6c4","null","
        <div style=""text-align: center; position: fixed; top: 5vh; left: 40vw;"">
            <div style=""margin:0 auto; width: 20vw; top: 8vh; font-size: 2vw""> 
            <font color=""green""> Bonus : $0.1 </font>
            </div>
        </div>
    ","null","","","","","","","",""
"","","","","","html-keyboard-response","68","85402","0.0-6.2-3.2","610bb9c0c502bc7d0b4650f6","65576f040411c2a4be0341a4","65577450c5cd5cb46edfe6c4","150","./stimuli//pack_shapes_diff/cat_1/diff_1/ex_1_1_16.png","arrowleft","response","ArrowLeft","16","1","1","test","true",""
"","","","","","html-keyboard-response","69","86904","0.0-6.2-4.2","610bb9c0c502bc7d0b4650f6","65576f040411c2a4be0341a4","65577450c5cd5cb46edfe6c4","null","<p> <font color=""green"" size=""5vw""> Correct category! </font> <br> <br> <font color=""green"" size=""8vw""> + $0.05 </font> </p>","null","feedback","","","","","","","0.15"
"","","","","","html-keyboard-response","70","87157","0.0-6.3-0.3","610bb9c0c502bc7d0b4650f6","65576f040411c2a4be0341a4","65577450c5cd5cb46edfe6c4","252","
            
        <div style=""text-align: center; position: fixed; top: 5vh; left: 40vw;"">
            <div style=""margin:0 auto; width: 20vw; top: 8vh; font-size: 2vw""> 
            <font color=""green""> Bonus : $0.15 </font>
            </div>
        </div>
    
            <div> Please press any button to continue to the next trial.</div>
        "," ","ITI","","","","","","",""
"","","","","","html-keyboard-response","71","87764","0.0-6.3-1.3","610bb9c0c502bc7d0b4650f6","65576f040411c2a4be0341a4","65577450c5cd5cb46edfe6c4","null","
        
        <div style=""text-align: center; position: fixed; top: 5vh; left: 40vw;"">
            <div style=""margin:0 auto; width: 20vw; top: 8vh; font-size: 2vw""> 
            <font color=""green""> Bonus : $0.15 </font>
            </div>
        </div>
    
        <img class=""stim"" src=./stimuli//pack_shapes_diff/cat_1/diff_1/ex_1_1_16.png></img>
    ","null","stimulus","","","","","","",""
"","","","","","html-keyboard-response","72","88768","0.0-6.3-2.3","610bb9c0c502bc7d0b4650f6","65576f040411c2a4be0341a4","65577450c5cd5cb46edfe6c4","null","
        <div style=""text-align: center; position: fixed; top: 5vh; left: 40vw;"">
            <div style=""margin:0 auto; width: 20vw; top: 8vh; font-size: 2vw""> 
            <font color=""green""> Bonus : $0.15 </font>
            </div>
        </div>
    ","null","","","","","","","",""
"","","","","","html-keyboard-response","73","88930","0.0-6.3-3.3","610bb9c0c502bc7d0b4650f6","65576f040411c2a4be0341a4","65577450c5cd5cb46edfe6c4","160","./stimuli//pack_shapes_diff/cat_1/diff_1/ex_1_1_16.png","arrowleft","response","ArrowLeft","16","1","1","test","true",""
"","","","","","html-keyboard-response","74","90434","0.0-6.3-4.3","610bb9c0c502bc7d0b4650f6","65576f040411c2a4be0341a4","65577450c5cd5cb46edfe6c4","null","<p> <font color=""green"" size=""5vw""> Correct category! </font> <br> <br> <font color=""green"" size=""8vw""> + $0.05 </font> </p>","null","feedback","","","","","","","0.2"
"","","","","","html-keyboard-response","75","90720","0.0-6.4-0.4","610bb9c0c502bc7d0b4650f6","65576f040411c2a4be0341a4","65577450c5cd5cb46edfe6c4","285","
            
        <div style=""text-align: center; position: fixed; top: 5vh; left: 40vw;"">
            <div style=""margin:0 auto; width: 20vw; top: 8vh; font-size: 2vw""> 
            <font color=""green""> Bonus : $0.2 </font>
            </div>
        </div>
    
            <div> Please press any button to continue to the next trial.</div>
        "," ","ITI","","","","","","",""
"","","","","","html-keyboard-response","76","91321","0.0-6.4-1.4","610bb9c0c502bc7d0b4650f6","65576f040411c2a4be0341a4","65577450c5cd5cb46edfe6c4","null","
        
        <div style=""text-align: center; position: fixed; top: 5vh; left: 40vw;"">
            <div style=""margin:0 auto; width: 20vw; top: 8vh; font-size: 2vw""> 
            <font color=""green""> Bonus : $0.2 </font>
            </div>
        </div>
    
        <img class=""stim"" src=./stimuli//pack_shapes_diff/cat_1/diff_1/ex_1_1_16.png></img>
    ","null","stimulus","","","","","","",""
"","","","","","html-keyboard-response","77","92324","0.0-6.4-2.4","610bb9c0c502bc7d0b4650f6","65576f040411c2a4be0341a4","65577450c5cd5cb46edfe6c4","null","
        <div style=""text-align: center; position: fixed; top: 5vh; left: 40vw;"">
            <div style=""margin:0 auto; width: 20vw; top: 8vh; font-size: 2vw""> 
            <font color=""green""> Bonus : $0.2 </font>
            </div>
        </div>
    ","null","","","","","","","",""
"","","","","","html-keyboard-response","78","92452","0.0-6.4-3.4","610bb9c0c502bc7d0b4650f6","65576f040411c2a4be0341a4","65577450c5cd5cb46edfe6c4","128","./stimuli//pack_shapes_diff/cat_1/diff_1/ex_1_1_16.png","arrowleft","response","ArrowLeft","16","1","1","test","true",""
"","","","","","html-keyboard-response","79","93954","0.0-6.4-4.4","610bb9c0c502bc7d0b4650f6","65576f040411c2a4be0341a4","65577450c5cd5cb46edfe6c4","null","<p> <font color=""green"" size=""5vw""> Correct category! </font> <br> <br> <font color=""green"" size=""8vw""> + $0.05 </font> </p>","null","feedback","","","","","","","0.25"
"","","","","","html-keyboard-response","80","94189","0.0-6.5-0.5","610bb9c0c502bc7d0b4650f6","65576f040411c2a4be0341a4","65577450c5cd5cb46edfe6c4","233","
            
        <div style=""text-align: center; position: fixed; top: 5vh; left: 40vw;"">
            <div style=""margin:0 auto; width: 20vw; top: 8vh; font-size: 2vw""> 
            <font color=""green""> Bonus : $0.25 </font>
            </div>
        </div>
    
            <div> Please press any button to continue to the next trial.</div>
        "," ","ITI","","","","","","",""
"","","","","","html-keyboard-response","81","94790","0.0-6.5-1.5","610bb9c0c502bc7d0b4650f6","65576f040411c2a4be0341a4","65577450c5cd5cb46edfe6c4","null","
        
        <div style=""text-align: center; position: fixed; top: 5vh; left: 40vw;"">
            <div style=""margin:0 auto; width: 20vw; top: 8vh; font-size: 2vw""> 
            <font color=""green""> Bonus : $0.25 </font>
            </div>
        </div>
    
        <img class=""stim"" src=./stimuli//pack_shapes_diff/cat_2/diff_2/ex_2_2_15.png></img>
    ","null","stimulus","","","","","","",""
"","","","","","html-keyboard-response","82","95796","0.0-6.5-2.5","610bb9c0c502bc7d0b4650f6","65576f040411c2a4be0341a4","65577450c5cd5cb46edfe6c4","null","
        <div style=""text-align: center; position: fixed; top: 5vh; left: 40vw;"">
            <div style=""margin:0 auto; width: 20vw; top: 8vh; font-size: 2vw""> 
            <font color=""green""> Bonus : $0.25 </font>
            </div>
        </div>
    ","null","","","","","","","",""
"","","","","","html-keyboard-response","83","95956","0.0-6.5-3.5","610bb9c0c502bc7d0b4650f6","65576f040411c2a4be0341a4","65577450c5cd5cb46edfe6c4","159","./stimuli//pack_shapes_diff/cat_2/diff_2/ex_2_2_15.png","arrowright","response","ArrowRight","15","2","2","test","true",""
"","","","","","html-keyboard-response","84","97458","0.0-6.5-4.5","610bb9c0c502bc7d0b4650f6","65576f040411c2a4be0341a4","65577450c5cd5cb46edfe6c4","null","<p> <font color=""green"" size=""5vw""> Correct category! </font> <br> <br> <font color=""green"" size=""8vw""> + $0.05 </font> </p>","null","feedback","","","","","","","0.3"
"","","","","","html-keyboard-response","85","97711","0.0-6.6-0.6","610bb9c0c502bc7d0b4650f6","65576f040411c2a4be0341a4","65577450c5cd5cb46edfe6c4","252","
            
        <div style=""text-align: center; position: fixed; top: 5vh; left: 40vw;"">
            <div style=""margin:0 auto; width: 20vw; top: 8vh; font-size: 2vw""> 
            <font color=""green""> Bonus : $0.3 </font>
            </div>
        </div>
    
            <div> Please press any button to continue to the next trial.</div>
        "," ","ITI","","","","","","",""
"","","","","","html-keyboard-response","86","98314","0.0-6.6-1.6","610bb9c0c502bc7d0b4650f6","65576f040411c2a4be0341a4","65577450c5cd5cb46edfe6c4","null","
        
        <div style=""text-align: center; position: fixed; top: 5vh; left: 40vw;"">
            <div style=""margin:0 auto; width: 20vw; top: 8vh; font-size: 2vw""> 
            <font color=""green""> Bonus : $0.3 </font>
            </div>
        </div>
    
        <img class=""stim"" src=./stimuli//pack_shapes_diff/cat_2/diff_2/ex_2_2_2.png></img>
    ","null","stimulus","","","","","","",""
"","","","","","html-keyboard-response","87","99321","0.0-6.6-2.6","610bb9c0c502bc7d0b4650f6","65576f040411c2a4be0341a4","65577450c5cd5cb46edfe6c4","null","
        <div style=""text-align: center; position: fixed; top: 5vh; left: 40vw;"">
            <div style=""margin:0 auto; width: 20vw; top: 8vh; font-size: 2vw""> 
            <font color=""green""> Bonus : $0.3 </font>
            </div>
        </div>
    ","null","","","","","","","",""
"","","","","","html-keyboard-response","88","99441","0.0-6.6-3.6","610bb9c0c502bc7d0b4650f6","65576f040411c2a4be0341a4","65577450c5cd5cb46edfe6c4","120","./stimuli//pack_shapes_diff/cat_2/diff_2/ex_2_2_2.png","arrowright","response","ArrowRight","2","2","2","test","true",""
"","","","","","html-keyboard-response","89","100943","0.0-6.6-4.6","610bb9c0c502bc7d0b4650f6","65576f040411c2a4be0341a4","65577450c5cd5cb46edfe6c4","null","<p> <font color=""green"" size=""5vw""> Correct category! </font> <br> <br> <font color=""green"" size=""8vw""> + $0.05 </font> </p>","null","feedback","","","","","","","0.35"
"","","","","","html-keyboard-response","90","101194","0.0-6.7-0.7","610bb9c0c502bc7d0b4650f6","65576f040411c2a4be0341a4","65577450c5cd5cb46edfe6c4","251","
            
        <div style=""text-align: center; position: fixed; top: 5vh; left: 40vw;"">
            <div style=""margin:0 auto; width: 20vw; top: 8vh; font-size: 2vw""> 
            <font color=""green""> Bonus : $0.35 </font>
            </div>
        </div>
    
            <div> Please press any button to continue to the next trial.</div>
        "," ","ITI","","","","","","",""
"","","","","","html-keyboard-response","91","101795","0.0-6.7-1.7","610bb9c0c502bc7d0b4650f6","65576f040411c2a4be0341a4","65577450c5cd5cb46edfe6c4","null","
        
        <div style=""text-align: center; position: fixed; top: 5vh; left: 40vw;"">
            <div style=""margin:0 auto; width: 20vw; top: 8vh; font-size: 2vw""> 
            <font color=""green""> Bonus : $0.35 </font>
            </div>
        </div>
    
        <img class=""stim"" src=./stimuli//pack_shapes_diff/cat_1/diff_2/ex_1_2_4.png></img>
    ","null","stimulus","","","","","","",""
"","","","","","html-keyboard-response","92","102796","0.0-6.7-2.7","610bb9c0c502bc7d0b4650f6","65576f040411c2a4be0341a4","65577450c5cd5cb46edfe6c4","null","
        <div style=""text-align: center; position: fixed; top: 5vh; left: 40vw;"">
            <div style=""margin:0 auto; width: 20vw; top: 8vh; font-size: 2vw""> 
            <font color=""green""> Bonus : $0.35 </font>
            </div>
        </div>
    ","null","","","","","","","",""
"","","","","","html-keyboard-response","93","102979","0.0-6.7-3.7","610bb9c0c502bc7d0b4650f6","65576f040411c2a4be0341a4","65577450c5cd5cb46edfe6c4","181","./stimuli//pack_shapes_diff/cat_1/diff_2/ex_1_2_4.png","arrowleft","response","ArrowLeft","4","1","2","test","true",""
"","","","","","html-keyboard-response","94","104481","0.0-6.7-4.7","610bb9c0c502bc7d0b4650f6","65576f040411c2a4be0341a4","65577450c5cd5cb46edfe6c4","null","<p> <font color=""green"" size=""5vw""> Correct category! </font> <br> <br> <font color=""green"" size=""8vw""> + $0.05 </font> </p>","null","feedback","","","","","","","0.4"
"","","","","","html-keyboard-response","95","104771","0.0-6.8-0.8","610bb9c0c502bc7d0b4650f6","65576f040411c2a4be0341a4","65577450c5cd5cb46edfe6c4","289","
            
        <div style=""text-align: center; position: fixed; top: 5vh; left: 40vw;"">
            <div style=""margin:0 auto; width: 20vw; top: 8vh; font-size: 2vw""> 
            <font color=""green""> Bonus : $0.4 </font>
            </div>
        </div>
    
            <div> Please press any button to continue to the next trial.</div>
        "," ","ITI","","","","","","",""
"","","","","","html-keyboard-response","96","105373","0.0-6.8-1.8","610bb9c0c502bc7d0b4650f6","65576f040411c2a4be0341a4","65577450c5cd5cb46edfe6c4","null","
        
        <div style=""text-align: center; position: fixed; top: 5vh; left: 40vw;"">
            <div style=""margin:0 auto; width: 20vw; top: 8vh; font-size: 2vw""> 
            <font color=""green""> Bonus : $0.4 </font>
            </div>
        </div>
    
        <img class=""stim"" src=./stimuli//pack_shapes_diff/cat_1/diff_2/ex_1_2_13.png></img>
    ","null","stimulus","","","","","","",""
"","","","","","html-keyboard-response","97","106375","0.0-6.8-2.8","610bb9c0c502bc7d0b4650f6","65576f040411c2a4be0341a4","65577450c5cd5cb46edfe6c4","null","
        <div style=""text-align: center; position: fixed; top: 5vh; left: 40vw;"">
            <div style=""margin:0 auto; width: 20vw; top: 8vh; font-size: 2vw""> 
            <font color=""green""> Bonus : $0.4 </font>
            </div>
        </div>
    ","null","","","","","","","",""
"","","","","","html-keyboard-response","98","106591","0.0-6.8-3.8","610bb9c0c502bc7d0b4650f6","65576f040411c2a4be0341a4","65577450c5cd5cb46edfe6c4","215","./stimuli//pack_shapes_diff/cat_1/diff_2/ex_1_2_13.png","arrowleft","response","ArrowLeft","13","1","2","test","true",""
"","","","","","html-keyboard-response","99","108092","0.0-6.8-4.8","610bb9c0c502bc7d0b4650f6","65576f040411c2a4be0341a4","65577450c5cd5cb46edfe6c4","null","<p> <font color=""green"" size=""5vw""> Correct category! </font> <br> <br> <font color=""green"" size=""8vw""> + $0.05 </font> </p>","null","feedback","","","","","","","0.45"
"","","","","","html-keyboard-response","100","108355","0.0-6.9-0.9","610bb9c0c502bc7d0b4650f6","65576f040411c2a4be0341a4","65577450c5cd5cb46edfe6c4","262","
            
        <div style=""text-align: center; position: fixed; top: 5vh; left: 40vw;"">
            <div style=""margin:0 auto; width: 20vw; top: 8vh; font-size: 2vw""> 
            <font color=""green""> Bonus : $0.45 </font>
            </div>
        </div>
    
            <div> Please press any button to continue to the next trial.</div>
        "," ","ITI","","","","","","",""
"","","","","","html-keyboard-response","101","108956","0.0-6.9-1.9","610bb9c0c502bc7d0b4650f6","65576f040411c2a4be0341a4","65577450c5cd5cb46edfe6c4","null","
        
        <div style=""text-align: center; position: fixed; top: 5vh; left: 40vw;"">
            <div style=""margin:0 auto; width: 20vw; top: 8vh; font-size: 2vw""> 
            <font color=""green""> Bonus : $0.45 </font>
            </div>
        </div>
    
        <img class=""stim"" src=./stimuli//pack_shapes_diff/cat_2/diff_2/ex_2_2_15.png></img>
    ","null","stimulus","","","","","","",""
"","","","","","html-keyboard-response","102","109961","0.0-6.9-2.9","610bb9c0c502bc7d0b4650f6","65576f040411c2a4be0341a4","65577450c5cd5cb46edfe6c4","null","
        <div style=""text-align: center; position: fixed; top: 5vh; left: 40vw;"">
            <div style=""margin:0 auto; width: 20vw; top: 8vh; font-size: 2vw""> 
            <font color=""green""> Bonus : $0.45 </font>
            </div>
        </div>
    ","null","","","","","","","",""
"","","","","","html-keyboard-response","103","110132","0.0-6.9-3.9","610bb9c0c502bc7d0b4650f6","65576f040411c2a4be0341a4","65577450c5cd5cb46edfe6c4","170","./stimuli//pack_shapes_diff/cat_2/diff_2/ex_2_2_15.png","arrowright","response","ArrowRight","15","2","2","test","true",""
"","","","","","html-keyboard-response","104","111634","0.0-6.9-4.9","610bb9c0c502bc7d0b4650f6","65576f040411c2a4be0341a4","65577450c5cd5cb46edfe6c4","null","<p> <font color=""green"" size=""5vw""> Correct category! </font> <br> <br> <font color=""green"" size=""8vw""> + $0.05 </font> </p>","null","feedback","","","","","","","0.5"
"","","","","","html-keyboard-response","105","111902","0.0-6.10-0.10","610bb9c0c502bc7d0b4650f6","65576f040411c2a4be0341a4","65577450c5cd5cb46edfe6c4","268","
            
        <div style=""text-align: center; position: fixed; top: 5vh; left: 40vw;"">
            <div style=""margin:0 auto; width: 20vw; top: 8vh; font-size: 2vw""> 
            <font color=""green""> Bonus : $0.5 </font>
            </div>
        </div>
    
            <div> Please press any button to continue to the next trial.</div>
        "," ","ITI","","","","","","",""
"","","","","","html-keyboard-response","106","112508","0.0-6.10-1.10","610bb9c0c502bc7d0b4650f6","65576f040411c2a4be0341a4","65577450c5cd5cb46edfe6c4","null","
        
        <div style=""text-align: center; position: fixed; top: 5vh; left: 40vw;"">
            <div style=""margin:0 auto; width: 20vw; top: 8vh; font-size: 2vw""> 
            <font color=""green""> Bonus : $0.5 </font>
            </div>
        </div>
    
        <img class=""stim"" src=./stimuli//pack_shapes_diff/cat_2/diff_3/ex_2_3_14.png></img>
    ","null","stimulus","","","","","","",""
"","","","","","html-keyboard-response","107","113514","0.0-6.10-2.10","610bb9c0c502bc7d0b4650f6","65576f040411c2a4be0341a4","65577450c5cd5cb46edfe6c4","null","
        <div style=""text-align: center; position: fixed; top: 5vh; left: 40vw;"">
            <div style=""margin:0 auto; width: 20vw; top: 8vh; font-size: 2vw""> 
            <font color=""green""> Bonus : $0.5 </font>
            </div>
        </div>
    ","null","","","","","","","",""
"","","","","","html-keyboard-response","108","113636","0.0-6.10-3.10","610bb9c0c502bc7d0b4650f6","65576f040411c2a4be0341a4","65577450c5cd5cb46edfe6c4","122","./stimuli//pack_shapes_diff/cat_2/diff_3/ex_2_3_14.png","arrowright","response","ArrowRight","14","2","3","test","true",""
"","","","","","html-keyboard-response","109","115137","0.0-6.10-4.10","610bb9c0c502bc7d0b4650f6","65576f040411c2a4be0341a4","65577450c5cd5cb46edfe6c4","null","<p> <font color=""green"" size=""5vw""> Correct category! </font> <br> <br> <font color=""green"" size=""8vw""> + $0.05 </font> </p>","null","feedback","","","","","","","0.55"
"","","","","","html-keyboard-response","110","115381","0.0-6.11-0.11","610bb9c0c502bc7d0b4650f6","65576f040411c2a4be0341a4","65577450c5cd5cb46edfe6c4","243","
            
        <div style=""text-align: center; position: fixed; top: 5vh; left: 40vw;"">
            <div style=""margin:0 auto; width: 20vw; top: 8vh; font-size: 2vw""> 
            <font color=""green""> Bonus : $0.55 </font>
            </div>
        </div>
    
            <div> Please press any button to continue to the next trial.</div>
        "," ","ITI","","","","","","",""
"","","","","","html-keyboard-response","111","115983","0.0-6.11-1.11","610bb9c0c502bc7d0b4650f6","65576f040411c2a4be0341a4","65577450c5cd5cb46edfe6c4","null","
        
        <div style=""text-align: center; position: fixed; top: 5vh; left: 40vw;"">
            <div style=""margin:0 auto; width: 20vw; top: 8vh; font-size: 2vw""> 
            <font color=""green""> Bonus : $0.55 </font>
            </div>
        </div>
    
        <img class=""stim"" src=./stimuli//pack_shapes_diff/cat_1/diff_3/ex_1_3_13.png></img>
    ","null","stimulus","","","","","","",""
"","","","","","html-keyboard-response","112","116985","0.0-6.11-2.11","610bb9c0c502bc7d0b4650f6","65576f040411c2a4be0341a4","65577450c5cd5cb46edfe6c4","null","
        <div style=""text-align: center; position: fixed; top: 5vh; left: 40vw;"">
            <div style=""margin:0 auto; width: 20vw; top: 8vh; font-size: 2vw""> 
            <font color=""green""> Bonus : $0.55 </font>
            </div>
        </div>
    ","null","","","","","","","",""
"","","","","","html-keyboard-response","113","117107","0.0-6.11-3.11","610bb9c0c502bc7d0b4650f6","65576f040411c2a4be0341a4","65577450c5cd5cb46edfe6c4","120","./stimuli//pack_shapes_diff/cat_1/diff_3/ex_1_3_13.png","arrowleft","response","ArrowLeft","13","1","3","test","true",""
"","","","","","html-keyboard-response","114","118608","0.0-6.11-4.11","610bb9c0c502bc7d0b4650f6","65576f040411c2a4be0341a4","65577450c5cd5cb46edfe6c4","null","<p> <font color=""green"" size=""5vw""> Correct category! </font> <br> <br> <font color=""green"" size=""8vw""> + $0.05 </font> </p>","null","feedback","","","","","","","0.6"
"","","","","","html-keyboard-response","115","118806","0.0-6.12-0.12","610bb9c0c502bc7d0b4650f6","65576f040411c2a4be0341a4","65577450c5cd5cb46edfe6c4","198","
            
        <div style=""text-align: center; position: fixed; top: 5vh; left: 40vw;"">
            <div style=""margin:0 auto; width: 20vw; top: 8vh; font-size: 2vw""> 
            <font color=""green""> Bonus : $0.6 </font>
            </div>
        </div>
    
            <div> Please press any button to continue to the next trial.</div>
        "," ","ITI","","","","","","",""
"","","","","","html-keyboard-response","116","119408","0.0-6.12-1.12","610bb9c0c502bc7d0b4650f6","65576f040411c2a4be0341a4","65577450c5cd5cb46edfe6c4","null","
        
        <div style=""text-align: center; position: fixed; top: 5vh; left: 40vw;"">
            <div style=""margin:0 auto; width: 20vw; top: 8vh; font-size: 2vw""> 
            <font color=""green""> Bonus : $0.6 </font>
            </div>
        </div>
    
        <img class=""stim"" src=./stimuli//pack_shapes_diff/cat_2/diff_3/ex_2_3_12.png></img>
    ","null","stimulus","","","","","","",""
"","","","","","html-keyboard-response","117","120409","0.0-6.12-2.12","610bb9c0c502bc7d0b4650f6","65576f040411c2a4be0341a4","65577450c5cd5cb46edfe6c4","null","
        <div style=""text-align: center; position: fixed; top: 5vh; left: 40vw;"">
            <div style=""margin:0 auto; width: 20vw; top: 8vh; font-size: 2vw""> 
            <font color=""green""> Bonus : $0.6 </font>
            </div>
        </div>
    ","null","","","","","","","",""
"","","","","","html-keyboard-response","118","120638","0.0-6.12-3.12","610bb9c0c502bc7d0b4650f6","65576f040411c2a4be0341a4","65577450c5cd5cb46edfe6c4","228","./stimuli//pack_shapes_diff/cat_2/diff_3/ex_2_3_12.png","arrowright","response","ArrowRight","12","2","3","test","true",""
"","","","","","html-keyboard-response","119","122144","0.0-6.12-4.12","610bb9c0c502bc7d0b4650f6","65576f040411c2a4be0341a4","65577450c5cd5cb46edfe6c4","null","<p> <font color=""green"" size=""5vw""> Correct category! </font> <br> <br> <font color=""green"" size=""8vw""> + $0.05 </font> </p>","null","feedback","","","","","","","0.65"
"","","","","","html-keyboard-response","120","122361","0.0-6.13-0.13","610bb9c0c502bc7d0b4650f6","65576f040411c2a4be0341a4","65577450c5cd5cb46edfe6c4","215","
            
        <div style=""text-align: center; position: fixed; top: 5vh; left: 40vw;"">
            <div style=""margin:0 auto; width: 20vw; top: 8vh; font-size: 2vw""> 
            <font color=""green""> Bonus : $0.65 </font>
            </div>
        </div>
    
            <div> Please press any button to continue to the next trial.</div>
        "," ","ITI","","","","","","",""
"","","","","","html-keyboard-response","121","122962","0.0-6.13-1.13","610bb9c0c502bc7d0b4650f6","65576f040411c2a4be0341a4","65577450c5cd5cb46edfe6c4","null","
        
        <div style=""text-align: center; position: fixed; top: 5vh; left: 40vw;"">
            <div style=""margin:0 auto; width: 20vw; top: 8vh; font-size: 2vw""> 
            <font color=""green""> Bonus : $0.65 </font>
            </div>
        </div>
    
        <img class=""stim"" src=./stimuli//pack_shapes_diff/cat_2/diff_3/ex_2_3_11.png></img>
    ","null","stimulus","","","","","","",""
"","","","","","html-keyboard-response","122","123968","0.0-6.13-2.13","610bb9c0c502bc7d0b4650f6","65576f040411c2a4be0341a4","65577450c5cd5cb46edfe6c4","null","
        <div style=""text-align: center; position: fixed; top: 5vh; left: 40vw;"">
            <div style=""margin:0 auto; width: 20vw; top: 8vh; font-size: 2vw""> 
            <font color=""green""> Bonus : $0.65 </font>
            </div>
        </div>
    ","null","","","","","","","",""
"","","","","","html-keyboard-response","123","124157","0.0-6.13-3.13","610bb9c0c502bc7d0b4650f6","65576f040411c2a4be0341a4","65577450c5cd5cb46edfe6c4","188","./stimuli//pack_shapes_diff/cat_2/diff_3/ex_2_3_11.png","arrowright","response","ArrowRight","11","2","3","test","true",""
"","","","","","html-keyboard-response","124","125659","0.0-6.13-4.13","610bb9c0c502bc7d0b4650f6","65576f040411c2a4be0341a4","65577450c5cd5cb46edfe6c4","null","<p> <font color=""green"" size=""5vw""> Correct category! </font> <br> <br> <font color=""green"" size=""8vw""> + $0.05 </font> </p>","null","feedback","","","","","","","0.7"
"","","","","","html-keyboard-response","125","125916","0.0-6.14-0.14","610bb9c0c502bc7d0b4650f6","65576f040411c2a4be0341a4","65577450c5cd5cb46edfe6c4","256","
            
        <div style=""text-align: center; position: fixed; top: 5vh; left: 40vw;"">
            <div style=""margin:0 auto; width: 20vw; top: 8vh; font-size: 2vw""> 
            <font color=""green""> Bonus : $0.7 </font>
            </div>
        </div>
    
            <div> Please press any button to continue to the next trial.</div>
        "," ","ITI","","","","","","",""
"","","","","","html-keyboard-response","126","126518","0.0-6.14-1.14","610bb9c0c502bc7d0b4650f6","65576f040411c2a4be0341a4","65577450c5cd5cb46edfe6c4","null","
        
        <div style=""text-align: center; position: fixed; top: 5vh; left: 40vw;"">
            <div style=""margin:0 auto; width: 20vw; top: 8vh; font-size: 2vw""> 
            <font color=""green""> Bonus : $0.7 </font>
            </div>
        </div>
    
        <img class=""stim"" src=./stimuli//pack_shapes_diff/cat_2/diff_3/ex_2_3_4.png></img>
    ","null","stimulus","","","","","","",""
"","","","","","html-keyboard-response","127","127520","0.0-6.14-2.14","610bb9c0c502bc7d0b4650f6","65576f040411c2a4be0341a4","65577450c5cd5cb46edfe6c4","null","
        <div style=""text-align: center; position: fixed; top: 5vh; left: 40vw;"">
            <div style=""margin:0 auto; width: 20vw; top: 8vh; font-size: 2vw""> 
            <font color=""green""> Bonus : $0.7 </font>
            </div>
        </div>
    ","null","","","","","","","",""
"","","","","","html-keyboard-response","128","127685","0.0-6.14-3.14","610bb9c0c502bc7d0b4650f6","65576f040411c2a4be0341a4","65577450c5cd5cb46edfe6c4","163","./stimuli//pack_shapes_diff/cat_2/diff_3/ex_2_3_4.png","arrowright","response","ArrowRight","4","2","3","test","true",""
"","","","","","html-keyboard-response","129","129187","0.0-6.14-4.14","610bb9c0c502bc7d0b4650f6","65576f040411c2a4be0341a4","65577450c5cd5cb46edfe6c4","null","<p> <font color=""green"" size=""5vw""> Correct category! </font> <br> <br> <font color=""green"" size=""8vw""> + $0.05 </font> </p>","null","feedback","","","","","","","0.75"
"","","","","","html-keyboard-response","130","129505","0.0-6.15-0.15","610bb9c0c502bc7d0b4650f6","65576f040411c2a4be0341a4","65577450c5cd5cb46edfe6c4","318","
            
        <div style=""text-align: center; position: fixed; top: 5vh; left: 40vw;"">
            <div style=""margin:0 auto; width: 20vw; top: 8vh; font-size: 2vw""> 
            <font color=""green""> Bonus : $0.75 </font>
            </div>
        </div>
    
            <div> Please press any button to continue to the next trial.</div>
        "," ","ITI","","","","","","",""
"","","","","","html-keyboard-response","131","130108","0.0-6.15-1.15","610bb9c0c502bc7d0b4650f6","65576f040411c2a4be0341a4","65577450c5cd5cb46edfe6c4","null","
        
        <div style=""text-align: center; position: fixed; top: 5vh; left: 40vw;"">
            <div style=""margin:0 auto; width: 20vw; top: 8vh; font-size: 2vw""> 
            <font color=""green""> Bonus : $0.75 </font>
            </div>
        </div>
    
        <img class=""stim"" src=./stimuli//pack_shapes_diff/cat_1/diff_4/ex_1_4_2.png></img>
    ","null","stimulus","","","","","","",""
"","","","","","html-keyboard-response","132","131110","0.0-6.15-2.15","610bb9c0c502bc7d0b4650f6","65576f040411c2a4be0341a4","65577450c5cd5cb46edfe6c4","null","
        <div style=""text-align: center; position: fixed; top: 5vh; left: 40vw;"">
            <div style=""margin:0 auto; width: 20vw; top: 8vh; font-size: 2vw""> 
            <font color=""green""> Bonus : $0.75 </font>
            </div>
        </div>
    ","null","","","","","","","",""
"","","","","","html-keyboard-response","133","131314","0.0-6.15-3.15","610bb9c0c502bc7d0b4650f6","65576f040411c2a4be0341a4","65577450c5cd5cb46edfe6c4","203","./stimuli//pack_shapes_diff/cat_1/diff_4/ex_1_4_2.png","arrowleft","response","ArrowLeft","2","1","4","test","true",""
"","","","","","html-keyboard-response","134","132820","0.0-6.15-4.15","610bb9c0c502bc7d0b4650f6","65576f040411c2a4be0341a4","65577450c5cd5cb46edfe6c4","null","<p> <font color=""green"" size=""5vw""> Correct category! </font> <br> <br> <font color=""green"" size=""8vw""> + $0.05 </font> </p>","null","feedback","","","","","","","0.8"
"","","","","","html-keyboard-response","135","133057","0.0-6.16-0.16","610bb9c0c502bc7d0b4650f6","65576f040411c2a4be0341a4","65577450c5cd5cb46edfe6c4","236","
            
        <div style=""text-align: center; position: fixed; top: 5vh; left: 40vw;"">
            <div style=""margin:0 auto; width: 20vw; top: 8vh; font-size: 2vw""> 
            <font color=""green""> Bonus : $0.8 </font>
            </div>
        </div>
    
            <div> Please press any button to continue to the next trial.</div>
        "," ","ITI","","","","","","",""
"","","","","","html-keyboard-response","136","133659","0.0-6.16-1.16","610bb9c0c502bc7d0b4650f6","65576f040411c2a4be0341a4","65577450c5cd5cb46edfe6c4","null","
        
        <div style=""text-align: center; position: fixed; top: 5vh; left: 40vw;"">
            <div style=""margin:0 auto; width: 20vw; top: 8vh; font-size: 2vw""> 
            <font color=""green""> Bonus : $0.8 </font>
            </div>
        </div>
    
        <img class=""stim"" src=./stimuli//pack_shapes_diff/cat_1/diff_4/ex_1_4_9.png></img>
    ","null","stimulus","","","","","","",""
"","","","","","html-keyboard-response","137","134665","0.0-6.16-2.16","610bb9c0c502bc7d0b4650f6","65576f040411c2a4be0341a4","65577450c5cd5cb46edfe6c4","null","
        <div style=""text-align: center; position: fixed; top: 5vh; left: 40vw;"">
            <div style=""margin:0 auto; width: 20vw; top: 8vh; font-size: 2vw""> 
            <font color=""green""> Bonus : $0.8 </font>
            </div>
        </div>
    ","null","","","","","","","",""
"","","","","","html-keyboard-response","138","134829","0.0-6.16-3.16","610bb9c0c502bc7d0b4650f6","65576f040411c2a4be0341a4","65577450c5cd5cb46edfe6c4","163","./stimuli//pack_shapes_diff/cat_1/diff_4/ex_1_4_9.png","arrowleft","response","ArrowLeft","9","1","4","test","true",""
"","","","","","html-keyboard-response","139","136330","0.0-6.16-4.16","610bb9c0c502bc7d0b4650f6","65576f040411c2a4be0341a4","65577450c5cd5cb46edfe6c4","null","<p> <font color=""green"" size=""5vw""> Correct category! </font> <br> <br> <font color=""green"" size=""8vw""> + $0.05 </font> </p>","null","feedback","","","","","","","0.85"
"","","","","","html-keyboard-response","140","136612","0.0-6.17-0.17","610bb9c0c502bc7d0b4650f6","65576f040411c2a4be0341a4","65577450c5cd5cb46edfe6c4","280","
            
        <div style=""text-align: center; position: fixed; top: 5vh; left: 40vw;"">
            <div style=""margin:0 auto; width: 20vw; top: 8vh; font-size: 2vw""> 
            <font color=""green""> Bonus : $0.85 </font>
            </div>
        </div>
    
            <div> Please press any button to continue to the next trial.</div>
        "," ","ITI","","","","","","",""
"","","","","","html-keyboard-response","141","137213","0.0-6.17-1.17","610bb9c0c502bc7d0b4650f6","65576f040411c2a4be0341a4","65577450c5cd5cb46edfe6c4","null","
        
        <div style=""text-align: center; position: fixed; top: 5vh; left: 40vw;"">
            <div style=""margin:0 auto; width: 20vw; top: 8vh; font-size: 2vw""> 
            <font color=""green""> Bonus : $0.85 </font>
            </div>
        </div>
    
        <img class=""stim"" src=./stimuli//pack_shapes_diff/cat_2/diff_4/ex_2_4_1.png></img>
    ","null","stimulus","","","","","","",""
"","","","","","html-keyboard-response","142","138218","0.0-6.17-2.17","610bb9c0c502bc7d0b4650f6","65576f040411c2a4be0341a4","65577450c5cd5cb46edfe6c4","null","
        <div style=""text-align: center; position: fixed; top: 5vh; left: 40vw;"">
            <div style=""margin:0 auto; width: 20vw; top: 8vh; font-size: 2vw""> 
            <font color=""green""> Bonus : $0.85 </font>
            </div>
        </div>
    ","null","","","","","","","",""
"","","","","","html-keyboard-response","143","138328","0.0-6.17-3.17","610bb9c0c502bc7d0b4650f6","65576f040411c2a4be0341a4","65577450c5cd5cb46edfe6c4","109","./stimuli//pack_shapes_diff/cat_2/diff_4/ex_2_4_1.png","arrowright","response","ArrowRight","1","2","4","test","true",""
"","","","","","html-keyboard-response","144","139834","0.0-6.17-4.17","610bb9c0c502bc7d0b4650f6","65576f040411c2a4be0341a4","65577450c5cd5cb46edfe6c4","null","<p> <font color=""green"" size=""5vw""> Correct category! </font> <br> <br> <font color=""green"" size=""8vw""> + $0.05 </font> </p>","null","feedback","","","","","","","0.9"
"","","","","","html-keyboard-response","145","140133","0.0-6.18-0.18","610bb9c0c502bc7d0b4650f6","65576f040411c2a4be0341a4","65577450c5cd5cb46edfe6c4","297","
            
        <div style=""text-align: center; position: fixed; top: 5vh; left: 40vw;"">
            <div style=""margin:0 auto; width: 20vw; top: 8vh; font-size: 2vw""> 
            <font color=""green""> Bonus : $0.9 </font>
            </div>
        </div>
    
            <div> Please press any button to continue to the next trial.</div>
        "," ","ITI","","","","","","",""
"","","","","","html-keyboard-response","146","140735","0.0-6.18-1.18","610bb9c0c502bc7d0b4650f6","65576f040411c2a4be0341a4","65577450c5cd5cb46edfe6c4","null","
        
        <div style=""text-align: center; position: fixed; top: 5vh; left: 40vw;"">
            <div style=""margin:0 auto; width: 20vw; top: 8vh; font-size: 2vw""> 
            <font color=""green""> Bonus : $0.9 </font>
            </div>
        </div>
    
        <img class=""stim"" src=./stimuli//pack_shapes_diff/cat_2/diff_4/ex_2_4_14.png></img>
    ","null","stimulus","","","","","","",""
"","","","","","html-keyboard-response","147","141742","0.0-6.18-2.18","610bb9c0c502bc7d0b4650f6","65576f040411c2a4be0341a4","65577450c5cd5cb46edfe6c4","null","
        <div style=""text-align: center; position: fixed; top: 5vh; left: 40vw;"">
            <div style=""margin:0 auto; width: 20vw; top: 8vh; font-size: 2vw""> 
            <font color=""green""> Bonus : $0.9 </font>
            </div>
        </div>
    ","null","","","","","","","",""
"","","","","","html-keyboard-response","148","141841","0.0-6.18-3.18","610bb9c0c502bc7d0b4650f6","65576f040411c2a4be0341a4","65577450c5cd5cb46edfe6c4","98","./stimuli//pack_shapes_diff/cat_2/diff_4/ex_2_4_14.png","arrowright","response","ArrowRight","14","2","4","test","true",""
"","","","","","html-keyboard-response","149","143342","0.0-6.18-4.18","610bb9c0c502bc7d0b4650f6","65576f040411c2a4be0341a4","65577450c5cd5cb46edfe6c4","null","<p> <font color=""green"" size=""5vw""> Correct category! </font> <br> <br> <font color=""green"" size=""8vw""> + $0.05 </font> </p>","null","feedback","","","","","","","0.95"
"","","","","","html-keyboard-response","150","143538","0.0-6.19-0.19","610bb9c0c502bc7d0b4650f6","65576f040411c2a4be0341a4","65577450c5cd5cb46edfe6c4","194","
            
        <div style=""text-align: center; position: fixed; top: 5vh; left: 40vw;"">
            <div style=""margin:0 auto; width: 20vw; top: 8vh; font-size: 2vw""> 
            <font color=""green""> Bonus : $0.95 </font>
            </div>
        </div>
    
            <div> Please press any button to continue to the next trial.</div>
        "," ","ITI","","","","","","",""
"","","","","","html-keyboard-response","151","144140","0.0-6.19-1.19","610bb9c0c502bc7d0b4650f6","65576f040411c2a4be0341a4","65577450c5cd5cb46edfe6c4","null","
        
        <div style=""text-align: center; position: fixed; top: 5vh; left: 40vw;"">
            <div style=""margin:0 auto; width: 20vw; top: 8vh; font-size: 2vw""> 
            <font color=""green""> Bonus : $0.95 </font>
            </div>
        </div>
    
        <img class=""stim"" src=./stimuli//pack_shapes_diff/cat_2/diff_4/ex_2_4_12.png></img>
    ","null","stimulus","","","","","","",""
"","","","","","html-keyboard-response","152","145142","0.0-6.19-2.19","610bb9c0c502bc7d0b4650f6","65576f040411c2a4be0341a4","65577450c5cd5cb46edfe6c4","null","
        <div style=""text-align: center; position: fixed; top: 5vh; left: 40vw;"">
            <div style=""margin:0 auto; width: 20vw; top: 8vh; font-size: 2vw""> 
            <font color=""green""> Bonus : $0.95 </font>
            </div>
        </div>
    ","null","","","","","","","",""
"","","","","","html-keyboard-response","153","145305","0.0-6.19-3.19","610bb9c0c502bc7d0b4650f6","65576f040411c2a4be0341a4","65577450c5cd5cb46edfe6c4","162","./stimuli//pack_shapes_diff/cat_2/diff_4/ex_2_4_12.png","arrowright","response","ArrowRight","12","2","4","test","true",""
"","","","","","html-keyboard-response","154","146806","0.0-6.19-4.19","610bb9c0c502bc7d0b4650f6","65576f040411c2a4be0341a4","65577450c5cd5cb46edfe6c4","null","<p> <font color=""green"" size=""5vw""> Correct category! </font> <br> <br> <font color=""green"" size=""8vw""> + $0.05 </font> </p>","null","feedback","","","","","","","1"
"","","","","","html-keyboard-response","155","147072","0.0-6.20-0.20","610bb9c0c502bc7d0b4650f6","65576f040411c2a4be0341a4","65577450c5cd5cb46edfe6c4","265","
            
        <div style=""text-align: center; position: fixed; top: 5vh; left: 40vw;"">
            <div style=""margin:0 auto; width: 20vw; top: 8vh; font-size: 2vw""> 
            <font color=""green""> Bonus : $1 </font>
            </div>
        </div>
    
            <div> Please press any button to continue to the next trial.</div>
        "," ","ITI","","","","","","",""
"","","","","","html-keyboard-response","156","147673","0.0-6.20-1.20","610bb9c0c502bc7d0b4650f6","65576f040411c2a4be0341a4","65577450c5cd5cb46edfe6c4","null","
        
        <div style=""text-align: center; position: fixed; top: 5vh; left: 40vw;"">
            <div style=""margin:0 auto; width: 20vw; top: 8vh; font-size: 2vw""> 
            <font color=""green""> Bonus : $1 </font>
            </div>
        </div>
    
        <img class=""stim"" src=./stimuli//pack_shapes_diff/cat_2/diff_5/ex_2_5_13.png></img>
    ","null","stimulus","","","","","","",""
"","","","","","html-keyboard-response","157","148675","0.0-6.20-2.20","610bb9c0c502bc7d0b4650f6","65576f040411c2a4be0341a4","65577450c5cd5cb46edfe6c4","null","
        <div style=""text-align: center; position: fixed; top: 5vh; left: 40vw;"">
            <div style=""margin:0 auto; width: 20vw; top: 8vh; font-size: 2vw""> 
            <font color=""green""> Bonus : $1 </font>
            </div>
        </div>
    ","null","","","","","","","",""
"","","","","","html-keyboard-response","158","148877","0.0-6.20-3.20","610bb9c0c502bc7d0b4650f6","65576f040411c2a4be0341a4","65577450c5cd5cb46edfe6c4","200","./stimuli//pack_shapes_diff/cat_2/diff_5/ex_2_5_13.png","arrowright","response","ArrowRight","13","2","5","test","true",""
"","","","","","html-keyboard-response","159","150378","0.0-6.20-4.20","610bb9c0c502bc7d0b4650f6","65576f040411c2a4be0341a4","65577450c5cd5cb46edfe6c4","null","<p> <font color=""green"" size=""5vw""> Correct category! </font> <br> <br> <font color=""green"" size=""8vw""> + $0.05 </font> </p>","null","feedback","","","","","","","1.05"
"","","","","","html-keyboard-response","160","150580","0.0-6.21-0.21","610bb9c0c502bc7d0b4650f6","65576f040411c2a4be0341a4","65577450c5cd5cb46edfe6c4","201","
            
        <div style=""text-align: center; position: fixed; top: 5vh; left: 40vw;"">
            <div style=""margin:0 auto; width: 20vw; top: 8vh; font-size: 2vw""> 
            <font color=""green""> Bonus : $1.05 </font>
            </div>
        </div>
    
            <div> Please press any button to continue to the next trial.</div>
        "," ","ITI","","","","","","",""
"","","","","","html-keyboard-response","161","151181","0.0-6.21-1.21","610bb9c0c502bc7d0b4650f6","65576f040411c2a4be0341a4","65577450c5cd5cb46edfe6c4","null","
        
        <div style=""text-align: center; position: fixed; top: 5vh; left: 40vw;"">
            <div style=""margin:0 auto; width: 20vw; top: 8vh; font-size: 2vw""> 
            <font color=""green""> Bonus : $1.05 </font>
            </div>
        </div>
    
        <img class=""stim"" src=./stimuli//pack_shapes_diff/cat_1/diff_5/ex_1_5_16.png></img>
    ","null","stimulus","","","","","","",""
"","","","","","html-keyboard-response","162","152187","0.0-6.21-2.21","610bb9c0c502bc7d0b4650f6","65576f040411c2a4be0341a4","65577450c5cd5cb46edfe6c4","null","
        <div style=""text-align: center; position: fixed; top: 5vh; left: 40vw;"">
            <div style=""margin:0 auto; width: 20vw; top: 8vh; font-size: 2vw""> 
            <font color=""green""> Bonus : $1.05 </font>
            </div>
        </div>
    ","null","","","","","","","",""
"","","","","","html-keyboard-response","163","152371","0.0-6.21-3.21","610bb9c0c502bc7d0b4650f6","65576f040411c2a4be0341a4","65577450c5cd5cb46edfe6c4","183","./stimuli//pack_shapes_diff/cat_1/diff_5/ex_1_5_16.png","arrowright","response","ArrowLeft","16","1","5","test","false",""
"","","","","","html-keyboard-response","164","153872","0.0-6.21-4.21","610bb9c0c502bc7d0b4650f6","65576f040411c2a4be0341a4","65577450c5cd5cb46edfe6c4","null","<p> <font color=""red"" size=""5vw""> Wrong category! </font> </p>","null","feedback","","","","","","","1.05"
"","","","","","html-keyboard-response","165","154154","0.0-6.22-0.22","610bb9c0c502bc7d0b4650f6","65576f040411c2a4be0341a4","65577450c5cd5cb46edfe6c4","281","
            
        <div style=""text-align: center; position: fixed; top: 5vh; left: 40vw;"">
            <div style=""margin:0 auto; width: 20vw; top: 8vh; font-size: 2vw""> 
            <font color=""green""> Bonus : $1.05 </font>
            </div>
        </div>
    
            <div> Please press any button to continue to the next trial.</div>
        "," ","ITI","","","","","","",""
"","","","","","html-keyboard-response","166","154756","0.0-6.22-1.22","610bb9c0c502bc7d0b4650f6","65576f040411c2a4be0341a4","65577450c5cd5cb46edfe6c4","null","
        
        <div style=""text-align: center; position: fixed; top: 5vh; left: 40vw;"">
            <div style=""margin:0 auto; width: 20vw; top: 8vh; font-size: 2vw""> 
            <font color=""green""> Bonus : $1.05 </font>
            </div>
        </div>
    
        <img class=""stim"" src=./stimuli//pack_shapes_diff/cat_2/diff_5/ex_2_5_17.png></img>
    ","null","stimulus","","","","","","",""
"","","","","","html-keyboard-response","167","155758","0.0-6.22-2.22","610bb9c0c502bc7d0b4650f6","65576f040411c2a4be0341a4","65577450c5cd5cb46edfe6c4","null","
        <div style=""text-align: center; position: fixed; top: 5vh; left: 40vw;"">
            <div style=""margin:0 auto; width: 20vw; top: 8vh; font-size: 2vw""> 
            <font color=""green""> Bonus : $1.05 </font>
            </div>
        </div>
    ","null","","","","","","","",""
"","","","","","html-keyboard-response","168","155897","0.0-6.22-3.22","610bb9c0c502bc7d0b4650f6","65576f040411c2a4be0341a4","65577450c5cd5cb46edfe6c4","139","./stimuli//pack_shapes_diff/cat_2/diff_5/ex_2_5_17.png","arrowleft","response","ArrowRight","17","2","5","test","false",""
"","","","","","html-keyboard-response","169","157398","0.0-6.22-4.22","610bb9c0c502bc7d0b4650f6","65576f040411c2a4be0341a4","65577450c5cd5cb46edfe6c4","null","<p> <font color=""red"" size=""5vw""> Wrong category! </font> </p>","null","feedback","","","","","","","1.05"
"","","","","","html-keyboard-response","170","157691","0.0-6.23-0.23","610bb9c0c502bc7d0b4650f6","65576f040411c2a4be0341a4","65577450c5cd5cb46edfe6c4","292","
            
        <div style=""text-align: center; position: fixed; top: 5vh; left: 40vw;"">
            <div style=""margin:0 auto; width: 20vw; top: 8vh; font-size: 2vw""> 
            <font color=""green""> Bonus : $1.05 </font>
            </div>
        </div>
    
            <div> Please press any button to continue to the next trial.</div>
        "," ","ITI","","","","","","",""
"","","","","","html-keyboard-response","171","158293","0.0-6.23-1.23","610bb9c0c502bc7d0b4650f6","65576f040411c2a4be0341a4","65577450c5cd5cb46edfe6c4","null","
        
        <div style=""text-align: center; position: fixed; top: 5vh; left: 40vw;"">
            <div style=""margin:0 auto; width: 20vw; top: 8vh; font-size: 2vw""> 
            <font color=""green""> Bonus : $1.05 </font>
            </div>
        </div>
    
        <img class=""stim"" src=./stimuli//pack_shapes_diff/cat_2/diff_5/ex_2_5_16.png></img>
    ","null","stimulus","","","","","","",""
"","","","","","html-keyboard-response","172","159294","0.0-6.23-2.23","610bb9c0c502bc7d0b4650f6","65576f040411c2a4be0341a4","65577450c5cd5cb46edfe6c4","null","
        <div style=""text-align: center; position: fixed; top: 5vh; left: 40vw;"">
            <div style=""margin:0 auto; width: 20vw; top: 8vh; font-size: 2vw""> 
            <font color=""green""> Bonus : $1.05 </font>
            </div>
        </div>
    ","null","","","","","","","",""
"","","","","","html-keyboard-response","173","159487","0.0-6.23-3.23","610bb9c0c502bc7d0b4650f6","65576f040411c2a4be0341a4","65577450c5cd5cb46edfe6c4","192","./stimuli//pack_shapes_diff/cat_2/diff_5/ex_2_5_16.png","arrowright","response","ArrowRight","16","2","5","test","true",""
"","","","","","html-keyboard-response","174","160990","0.0-6.23-4.23","610bb9c0c502bc7d0b4650f6","65576f040411c2a4be0341a4","65577450c5cd5cb46edfe6c4","null","<p> <font color=""green"" size=""5vw""> Correct category! </font> <br> <br> <font color=""green"" size=""8vw""> + $0.05 </font> </p>","null","feedback","","","","","","","1.1"
"","","","","","html-keyboard-response","175","161257","0.0-6.24-0.24","610bb9c0c502bc7d0b4650f6","65576f040411c2a4be0341a4","65577450c5cd5cb46edfe6c4","266","
            
        <div style=""text-align: center; position: fixed; top: 5vh; left: 40vw;"">
            <div style=""margin:0 auto; width: 20vw; top: 8vh; font-size: 2vw""> 
            <font color=""green""> Bonus : $1.1 </font>
            </div>
        </div>
    
            <div> Please press any button to continue to the next trial.</div>
        "," ","ITI","","","","","","",""
"","","","","","html-keyboard-response","176","161858","0.0-6.24-1.24","610bb9c0c502bc7d0b4650f6","65576f040411c2a4be0341a4","65577450c5cd5cb46edfe6c4","null","
        
        <div style=""text-align: center; position: fixed; top: 5vh; left: 40vw;"">
            <div style=""margin:0 auto; width: 20vw; top: 8vh; font-size: 2vw""> 
            <font color=""green""> Bonus : $1.1 </font>
            </div>
        </div>
    
        <img class=""stim"" src=./stimuli//pack_shapes_diff/cat_1/diff_5/ex_1_5_15.png></img>
    ","null","stimulus","","","","","","",""
"","","","","","html-keyboard-response","177","162860","0.0-6.24-2.24","610bb9c0c502bc7d0b4650f6","65576f040411c2a4be0341a4","65577450c5cd5cb46edfe6c4","null","
        <div style=""text-align: center; position: fixed; top: 5vh; left: 40vw;"">
            <div style=""margin:0 auto; width: 20vw; top: 8vh; font-size: 2vw""> 
            <font color=""green""> Bonus : $1.1 </font>
            </div>
        </div>
    ","null","","","","","","","",""
"","","","","","html-keyboard-response","178","163127","0.0-6.24-3.24","610bb9c0c502bc7d0b4650f6","65576f040411c2a4be0341a4","65577450c5cd5cb46edfe6c4","267","./stimuli//pack_shapes_diff/cat_1/diff_5/ex_1_5_15.png","arrowleft","response","ArrowLeft","15","1","5","test","true",""
"","","","","","html-keyboard-response","179","164634","0.0-6.24-4.24","610bb9c0c502bc7d0b4650f6","65576f040411c2a4be0341a4","65577450c5cd5cb46edfe6c4","null","<p> <font color=""green"" size=""5vw""> Correct category! </font> <br> <br> <font color=""green"" size=""8vw""> + $0.05 </font> </p>","null","feedback","","","","","","","1.15"
"","","","","","html-keyboard-response","180","164925","0.0-6.25-0.25","610bb9c0c502bc7d0b4650f6","65576f040411c2a4be0341a4","65577450c5cd5cb46edfe6c4","291","
            
        <div style=""text-align: center; position: fixed; top: 5vh; left: 40vw;"">
            <div style=""margin:0 auto; width: 20vw; top: 8vh; font-size: 2vw""> 
            <font color=""green""> Bonus : $1.15 </font>
            </div>
        </div>
    
            <div> Please press any button to continue to the next trial.</div>
        "," ","ITI","","","","","","",""
"","","","","","html-keyboard-response","181","165529","0.0-6.25-1.25","610bb9c0c502bc7d0b4650f6","65576f040411c2a4be0341a4","65577450c5cd5cb46edfe6c4","null","
        
        <div style=""text-align: center; position: fixed; top: 5vh; left: 40vw;"">
            <div style=""margin:0 auto; width: 20vw; top: 8vh; font-size: 2vw""> 
            <font color=""green""> Bonus : $1.15 </font>
            </div>
        </div>
    
        <img class=""stim"" src=./stimuli//pack_shapes_diff/cat_1/diff_4/ex_1_4_4.png></img>
    ","null","stimulus","","","","","","",""
"","","","","","html-keyboard-response","182","166534","0.0-6.25-2.25","610bb9c0c502bc7d0b4650f6","65576f040411c2a4be0341a4","65577450c5cd5cb46edfe6c4","null","
        <div style=""text-align: center; position: fixed; top: 5vh; left: 40vw;"">
            <div style=""margin:0 auto; width: 20vw; top: 8vh; font-size: 2vw""> 
            <font color=""green""> Bonus : $1.15 </font>
            </div>
        </div>
    ","null","","","","","","","",""
"","","","","","html-keyboard-response","183","166731","0.0-6.25-3.25","610bb9c0c502bc7d0b4650f6","65576f040411c2a4be0341a4","65577450c5cd5cb46edfe6c4","195","./stimuli//pack_shapes_diff/cat_1/diff_4/ex_1_4_4.png","arrowleft","response","ArrowLeft","4","1","4","test","true",""
"","","","","","html-keyboard-response","184","168235","0.0-6.25-4.25","610bb9c0c502bc7d0b4650f6","65576f040411c2a4be0341a4","65577450c5cd5cb46edfe6c4","null","<p> <font color=""green"" size=""5vw""> Correct category! </font> <br> <br> <font color=""green"" size=""8vw""> + $0.05 </font> </p>","null","feedback","","","","","","","1.2"
"","","","","","html-keyboard-response","185","168498","0.0-6.26-0.26","610bb9c0c502bc7d0b4650f6","65576f040411c2a4be0341a4","65577450c5cd5cb46edfe6c4","262","
            
        <div style=""text-align: center; position: fixed; top: 5vh; left: 40vw;"">
            <div style=""margin:0 auto; width: 20vw; top: 8vh; font-size: 2vw""> 
            <font color=""green""> Bonus : $1.2 </font>
            </div>
        </div>
    
            <div> Please press any button to continue to the next trial.</div>
        "," ","ITI","","","","","","",""
"","","","","","html-keyboard-response","186","169099","0.0-6.26-1.26","610bb9c0c502bc7d0b4650f6","65576f040411c2a4be0341a4","65577450c5cd5cb46edfe6c4","null","
        
        <div style=""text-align: center; position: fixed; top: 5vh; left: 40vw;"">
            <div style=""margin:0 auto; width: 20vw; top: 8vh; font-size: 2vw""> 
            <font color=""green""> Bonus : $1.2 </font>
            </div>
        </div>
    
        <img class=""stim"" src=./stimuli//pack_shapes_diff/cat_1/diff_4/ex_1_4_16.png></img>
    ","null","stimulus","","","","","","",""
"","","","","","html-keyboard-response","187","170101","0.0-6.26-2.26","610bb9c0c502bc7d0b4650f6","65576f040411c2a4be0341a4","65577450c5cd5cb46edfe6c4","null","
        <div style=""text-align: center; position: fixed; top: 5vh; left: 40vw;"">
            <div style=""margin:0 auto; width: 20vw; top: 8vh; font-size: 2vw""> 
            <font color=""green""> Bonus : $1.2 </font>
            </div>
        </div>
    ","null","","","","","","","",""
"","","","","","html-keyboard-response","188","170171","0.0-6.26-3.26","610bb9c0c502bc7d0b4650f6","65576f040411c2a4be0341a4","65577450c5cd5cb46edfe6c4","70","./stimuli//pack_shapes_diff/cat_1/diff_4/ex_1_4_16.png","arrowleft","response","ArrowLeft","16","1","4","test","true",""
"","","","","","html-keyboard-response","189","171674","0.0-6.26-4.26","610bb9c0c502bc7d0b4650f6","65576f040411c2a4be0341a4","65577450c5cd5cb46edfe6c4","null","<p> <font color=""green"" size=""5vw""> Correct category! </font> <br> <br> <font color=""green"" size=""8vw""> + $0.05 </font> </p>","null","feedback","","","","","","","1.25"
"","","","","","html-keyboard-response","190","171819","0.0-6.27-0.27","610bb9c0c502bc7d0b4650f6","65576f040411c2a4be0341a4","65577450c5cd5cb46edfe6c4","144","
            
        <div style=""text-align: center; position: fixed; top: 5vh; left: 40vw;"">
            <div style=""margin:0 auto; width: 20vw; top: 8vh; font-size: 2vw""> 
            <font color=""green""> Bonus : $1.25 </font>
            </div>
        </div>
    
            <div> Please press any button to continue to the next trial.</div>
        "," ","ITI","","","","","","",""
"","","","","","html-keyboard-response","191","172423","0.0-6.27-1.27","610bb9c0c502bc7d0b4650f6","65576f040411c2a4be0341a4","65577450c5cd5cb46edfe6c4","null","
        
        <div style=""text-align: center; position: fixed; top: 5vh; left: 40vw;"">
            <div style=""margin:0 auto; width: 20vw; top: 8vh; font-size: 2vw""> 
            <font color=""green""> Bonus : $1.25 </font>
            </div>
        </div>
    
        <img class=""stim"" src=./stimuli//pack_shapes_diff/cat_2/diff_4/ex_2_4_10.png></img>
    ","null","stimulus","","","","","","",""
"","","","","","html-keyboard-response","192","173425","0.0-6.27-2.27","610bb9c0c502bc7d0b4650f6","65576f040411c2a4be0341a4","65577450c5cd5cb46edfe6c4","null","
        <div style=""text-align: center; position: fixed; top: 5vh; left: 40vw;"">
            <div style=""margin:0 auto; width: 20vw; top: 8vh; font-size: 2vw""> 
            <font color=""green""> Bonus : $1.25 </font>
            </div>
        </div>
    ","null","","","","","","","",""
"","","","","","html-keyboard-response","193","173632","0.0-6.27-3.27","610bb9c0c502bc7d0b4650f6","65576f040411c2a4be0341a4","65577450c5cd5cb46edfe6c4","207","./stimuli//pack_shapes_diff/cat_2/diff_4/ex_2_4_10.png","arrowright","response","ArrowRight","10","2","4","test","true",""
"","","","","","html-keyboard-response","194","175133","0.0-6.27-4.27","610bb9c0c502bc7d0b4650f6","65576f040411c2a4be0341a4","65577450c5cd5cb46edfe6c4","null","<p> <font color=""green"" size=""5vw""> Correct category! </font> <br> <br> <font color=""green"" size=""8vw""> + $0.05 </font> </p>","null","feedback","","","","","","","1.3"
"","","","","","html-keyboard-response","195","175375","0.0-6.28-0.28","610bb9c0c502bc7d0b4650f6","65576f040411c2a4be0341a4","65577450c5cd5cb46edfe6c4","240","
            
        <div style=""text-align: center; position: fixed; top: 5vh; left: 40vw;"">
            <div style=""margin:0 auto; width: 20vw; top: 8vh; font-size: 2vw""> 
            <font color=""green""> Bonus : $1.3 </font>
            </div>
        </div>
    
            <div> Please press any button to continue to the next trial.</div>
        "," ","ITI","","","","","","",""
"","","","","","html-keyboard-response","196","175978","0.0-6.28-1.28","610bb9c0c502bc7d0b4650f6","65576f040411c2a4be0341a4","65577450c5cd5cb46edfe6c4","null","
        
        <div style=""text-align: center; position: fixed; top: 5vh; left: 40vw;"">
            <div style=""margin:0 auto; width: 20vw; top: 8vh; font-size: 2vw""> 
            <font color=""green""> Bonus : $1.3 </font>
            </div>
        </div>
    
        <img class=""stim"" src=./stimuli//pack_shapes_diff/cat_2/diff_4/ex_2_4_10.png></img>
    ","null","stimulus","","","","","","",""
"","","","","","html-keyboard-response","197","176980","0.0-6.28-2.28","610bb9c0c502bc7d0b4650f6","65576f040411c2a4be0341a4","65577450c5cd5cb46edfe6c4","null","
        <div style=""text-align: center; position: fixed; top: 5vh; left: 40vw;"">
            <div style=""margin:0 auto; width: 20vw; top: 8vh; font-size: 2vw""> 
            <font color=""green""> Bonus : $1.3 </font>
            </div>
        </div>
    ","null","","","","","","","",""
"","","","","","html-keyboard-response","198","177197","0.0-6.28-3.28","610bb9c0c502bc7d0b4650f6","65576f040411c2a4be0341a4","65577450c5cd5cb46edfe6c4","216","./stimuli//pack_shapes_diff/cat_2/diff_4/ex_2_4_10.png","arrowright","response","ArrowRight","10","2","4","test","true",""
"","","","","","html-keyboard-response","199","178704","0.0-6.28-4.28","610bb9c0c502bc7d0b4650f6","65576f040411c2a4be0341a4","65577450c5cd5cb46edfe6c4","null","<p> <font color=""green"" size=""5vw""> Correct category! </font> <br> <br> <font color=""green"" size=""8vw""> + $0.05 </font> </p>","null","feedback","","","","","","","1.35"
"","","","","","html-keyboard-response","200","179032","0.0-6.29-0.29","610bb9c0c502bc7d0b4650f6","65576f040411c2a4be0341a4","65577450c5cd5cb46edfe6c4","328","
            
        <div style=""text-align: center; position: fixed; top: 5vh; left: 40vw;"">
            <div style=""margin:0 auto; width: 20vw; top: 8vh; font-size: 2vw""> 
            <font color=""green""> Bonus : $1.35 </font>
            </div>
        </div>
    
            <div> Please press any button to continue to the next trial.</div>
        "," ","ITI","","","","","","",""
"","","","","","html-keyboard-response","201","179635","0.0-6.29-1.29","610bb9c0c502bc7d0b4650f6","65576f040411c2a4be0341a4","65577450c5cd5cb46edfe6c4","null","
        
        <div style=""text-align: center; position: fixed; top: 5vh; left: 40vw;"">
            <div style=""margin:0 auto; width: 20vw; top: 8vh; font-size: 2vw""> 
            <font color=""green""> Bonus : $1.35 </font>
            </div>
        </div>
    
        <img class=""stim"" src=./stimuli//pack_shapes_diff/cat_2/diff_4/ex_2_4_2.png></img>
    ","null","stimulus","","","","","","",""
"","","","","","html-keyboard-response","202","180637","0.0-6.29-2.29","610bb9c0c502bc7d0b4650f6","65576f040411c2a4be0341a4","65577450c5cd5cb46edfe6c4","null","
        <div style=""text-align: center; position: fixed; top: 5vh; left: 40vw;"">
            <div style=""margin:0 auto; width: 20vw; top: 8vh; font-size: 2vw""> 
            <font color=""green""> Bonus : $1.35 </font>
            </div>
        </div>
    ","null","","","","","","","",""
"","","","","","html-keyboard-response","203","180765","0.0-6.29-3.29","610bb9c0c502bc7d0b4650f6","65576f040411c2a4be0341a4","65577450c5cd5cb46edfe6c4","127","./stimuli//pack_shapes_diff/cat_2/diff_4/ex_2_4_2.png","arrowleft","response","ArrowRight","2","2","4","test","false",""
"","","","","","html-keyboard-response","204","182268","0.0-6.29-4.29","610bb9c0c502bc7d0b4650f6","65576f040411c2a4be0341a4","65577450c5cd5cb46edfe6c4","null","<p> <font color=""red"" size=""5vw""> Wrong category! </font> </p>","null","feedback","","","","","","","1.35"
"","","","","","html-keyboard-response","205","182474","0.0-6.30-0.30","610bb9c0c502bc7d0b4650f6","65576f040411c2a4be0341a4","65577450c5cd5cb46edfe6c4","206","
            
        <div style=""text-align: center; position: fixed; top: 5vh; left: 40vw;"">
            <div style=""margin:0 auto; width: 20vw; top: 8vh; font-size: 2vw""> 
            <font color=""green""> Bonus : $1.35 </font>
            </div>
        </div>
    
            <div> Please press any button to continue to the next trial.</div>
        "," ","ITI","","","","","","",""
"","","","","","html-keyboard-response","206","183076","0.0-6.30-1.30","610bb9c0c502bc7d0b4650f6","65576f040411c2a4be0341a4","65577450c5cd5cb46edfe6c4","null","
        
        <div style=""text-align: center; position: fixed; top: 5vh; left: 40vw;"">
            <div style=""margin:0 auto; width: 20vw; top: 8vh; font-size: 2vw""> 
            <font color=""green""> Bonus : $1.35 </font>
            </div>
        </div>
    
        <img class=""stim"" src=./stimuli//pack_shapes_diff/cat_2/diff_5/ex_2_5_7.png></img>
    ","null","stimulus","","","","","","",""
"","","","","","html-keyboard-response","207","184077","0.0-6.30-2.30","610bb9c0c502bc7d0b4650f6","65576f040411c2a4be0341a4","65577450c5cd5cb46edfe6c4","null","
        <div style=""text-align: center; position: fixed; top: 5vh; left: 40vw;"">
            <div style=""margin:0 auto; width: 20vw; top: 8vh; font-size: 2vw""> 
            <font color=""green""> Bonus : $1.35 </font>
            </div>
        </div>
    ","null","","","","","","","",""
"","","","","","html-keyboard-response","208","184237","0.0-6.30-3.30","610bb9c0c502bc7d0b4650f6","65576f040411c2a4be0341a4","65577450c5cd5cb46edfe6c4","159","./stimuli//pack_shapes_diff/cat_2/diff_5/ex_2_5_7.png","arrowright","response","ArrowRight","7","2","5","test","true",""
"","","","","","html-keyboard-response","209","185738","0.0-6.30-4.30","610bb9c0c502bc7d0b4650f6","65576f040411c2a4be0341a4","65577450c5cd5cb46edfe6c4","null","<p> <font color=""green"" size=""5vw""> Correct category! </font> <br> <br> <font color=""green"" size=""8vw""> + $0.05 </font> </p>","null","feedback","","","","","","","1.4"
"","","","","","html-keyboard-response","210","185967","0.0-6.31-0.31","610bb9c0c502bc7d0b4650f6","65576f040411c2a4be0341a4","65577450c5cd5cb46edfe6c4","228","
            
        <div style=""text-align: center; position: fixed; top: 5vh; left: 40vw;"">
            <div style=""margin:0 auto; width: 20vw; top: 8vh; font-size: 2vw""> 
            <font color=""green""> Bonus : $1.4 </font>
            </div>
        </div>
    
            <div> Please press any button to continue to the next trial.</div>
        "," ","ITI","","","","","","",""
"","","","","","html-keyboard-response","211","186568","0.0-6.31-1.31","610bb9c0c502bc7d0b4650f6","65576f040411c2a4be0341a4","65577450c5cd5cb46edfe6c4","null","
        
        <div style=""text-align: center; position: fixed; top: 5vh; left: 40vw;"">
            <div style=""margin:0 auto; width: 20vw; top: 8vh; font-size: 2vw""> 
            <font color=""green""> Bonus : $1.4 </font>
            </div>
        </div>
    
        <img class=""stim"" src=./stimuli//pack_shapes_diff/cat_2/diff_5/ex_2_5_4.png></img>
    ","null","stimulus","","","","","","",""
"","","","","","html-keyboard-response","212","187570","0.0-6.31-2.31","610bb9c0c502bc7d0b4650f6","65576f040411c2a4be0341a4","65577450c5cd5cb46edfe6c4","null","
        <div style=""text-align: center; position: fixed; top: 5vh; left: 40vw;"">
            <div style=""margin:0 auto; width: 20vw; top: 8vh; font-size: 2vw""> 
            <font color=""green""> Bonus : $1.4 </font>
            </div>
        </div>
    ","null","","","","","","","",""
"","","","","","html-keyboard-response","213","187742","0.0-6.31-3.31","610bb9c0c502bc7d0b4650f6","65576f040411c2a4be0341a4","65577450c5cd5cb46edfe6c4","172","./stimuli//pack_shapes_diff/cat_2/diff_5/ex_2_5_4.png","arrowright","response","ArrowRight","4","2","5","test","true",""
"","","","","","html-keyboard-response","214","189247","0.0-6.31-4.31","610bb9c0c502bc7d0b4650f6","65576f040411c2a4be0341a4","65577450c5cd5cb46edfe6c4","null","<p> <font color=""green"" size=""5vw""> Correct category! </font> <br> <br> <font color=""green"" size=""8vw""> + $0.05 </font> </p>","null","feedback","","","","","","","1.45"
"","","","","","html-keyboard-response","215","189496","0.0-6.32-0.32","610bb9c0c502bc7d0b4650f6","65576f040411c2a4be0341a4","65577450c5cd5cb46edfe6c4","249","
            
        <div style=""text-align: center; position: fixed; top: 5vh; left: 40vw;"">
            <div style=""margin:0 auto; width: 20vw; top: 8vh; font-size: 2vw""> 
            <font color=""green""> Bonus : $1.45 </font>
            </div>
        </div>
    
            <div> Please press any button to continue to the next trial.</div>
        "," ","ITI","","","","","","",""
"","","","","","html-keyboard-response","216","190099","0.0-6.32-1.32","610bb9c0c502bc7d0b4650f6","65576f040411c2a4be0341a4","65577450c5cd5cb46edfe6c4","null","
        
        <div style=""text-align: center; position: fixed; top: 5vh; left: 40vw;"">
            <div style=""margin:0 auto; width: 20vw; top: 8vh; font-size: 2vw""> 
            <font color=""green""> Bonus : $1.45 </font>
            </div>
        </div>
    
        <img class=""stim"" src=./stimuli//pack_shapes_diff/cat_2/diff_5/ex_2_5_15.png></img>
    ","null","stimulus","","","","","","",""
"","","","","","html-keyboard-response","217","191107","0.0-6.32-2.32","610bb9c0c502bc7d0b4650f6","65576f040411c2a4be0341a4","65577450c5cd5cb46edfe6c4","null","
        <div style=""text-align: center; position: fixed; top: 5vh; left: 40vw;"">
            <div style=""margin:0 auto; width: 20vw; top: 8vh; font-size: 2vw""> 
            <font color=""green""> Bonus : $1.45 </font>
            </div>
        </div>
    ","null","","","","","","","",""
"","","","","","html-keyboard-response","218","191272","0.0-6.32-3.32","610bb9c0c502bc7d0b4650f6","65576f040411c2a4be0341a4","65577450c5cd5cb46edfe6c4","165","./stimuli//pack_shapes_diff/cat_2/diff_5/ex_2_5_15.png","arrowright","response","ArrowRight","15","2","5","test","true",""
"","","","","","html-keyboard-response","219","192779","0.0-6.32-4.32","610bb9c0c502bc7d0b4650f6","65576f040411c2a4be0341a4","65577450c5cd5cb46edfe6c4","null","<p> <font color=""green"" size=""5vw""> Correct category! </font> <br> <br> <font color=""green"" size=""8vw""> + $0.05 </font> </p>","null","feedback","","","","","","","1.5"
"","","","","","html-keyboard-response","220","193056","0.0-6.33-0.33","610bb9c0c502bc7d0b4650f6","65576f040411c2a4be0341a4","65577450c5cd5cb46edfe6c4","276","
            
        <div style=""text-align: center; position: fixed; top: 5vh; left: 40vw;"">
            <div style=""margin:0 auto; width: 20vw; top: 8vh; font-size: 2vw""> 
            <font color=""green""> Bonus : $1.5 </font>
            </div>
        </div>
    
            <div> Please press any button to continue to the next trial.</div>
        "," ","ITI","","","","","","",""
"","","","","","html-keyboard-response","221","193659","0.0-6.33-1.33","610bb9c0c502bc7d0b4650f6","65576f040411c2a4be0341a4","65577450c5cd5cb46edfe6c4","null","
        
        <div style=""text-align: center; position: fixed; top: 5vh; left: 40vw;"">
            <div style=""margin:0 auto; width: 20vw; top: 8vh; font-size: 2vw""> 
            <font color=""green""> Bonus : $1.5 </font>
            </div>
        </div>
    
        <img class=""stim"" src=./stimuli//pack_shapes_diff/cat_2/diff_5/ex_2_5_16.png></img>
    ","null","stimulus","","","","","","",""
"","","","","","html-keyboard-response","222","194665","0.0-6.33-2.33","610bb9c0c502bc7d0b4650f6","65576f040411c2a4be0341a4","65577450c5cd5cb46edfe6c4","null","
        <div style=""text-align: center; position: fixed; top: 5vh; left: 40vw;"">
            <div style=""margin:0 auto; width: 20vw; top: 8vh; font-size: 2vw""> 
            <font color=""green""> Bonus : $1.5 </font>
            </div>
        </div>
    ","null","","","","","","","",""
"","","","","","html-keyboard-response","223","194755","0.0-6.33-3.33","610bb9c0c502bc7d0b4650f6","65576f040411c2a4be0341a4","65577450c5cd5cb46edfe6c4","90","./stimuli//pack_shapes_diff/cat_2/diff_5/ex_2_5_16.png","arrowright","response","ArrowRight","16","2","5","test","true",""
"","","","","","html-keyboard-response","224","196258","0.0-6.33-4.33","610bb9c0c502bc7d0b4650f6","65576f040411c2a4be0341a4","65577450c5cd5cb46edfe6c4","null","<p> <font color=""green"" size=""5vw""> Correct category! </font> <br> <br> <font color=""green"" size=""8vw""> + $0.05 </font> </p>","null","feedback","","","","","","","1.55"
"","","","","","html-keyboard-response","225","196552","0.0-6.34-0.34","610bb9c0c502bc7d0b4650f6","65576f040411c2a4be0341a4","65577450c5cd5cb46edfe6c4","293","
            
        <div style=""text-align: center; position: fixed; top: 5vh; left: 40vw;"">
            <div style=""margin:0 auto; width: 20vw; top: 8vh; font-size: 2vw""> 
            <font color=""green""> Bonus : $1.55 </font>
            </div>
        </div>
    
            <div> Please press any button to continue to the next trial.</div>
        "," ","ITI","","","","","","",""
"","","","","","html-keyboard-response","226","197156","0.0-6.34-1.34","610bb9c0c502bc7d0b4650f6","65576f040411c2a4be0341a4","65577450c5cd5cb46edfe6c4","null","
        
        <div style=""text-align: center; position: fixed; top: 5vh; left: 40vw;"">
            <div style=""margin:0 auto; width: 20vw; top: 8vh; font-size: 2vw""> 
            <font color=""green""> Bonus : $1.55 </font>
            </div>
        </div>
    
        <img class=""stim"" src=./stimuli//pack_shapes_diff/cat_2/diff_5/ex_2_5_8.png></img>
    ","null","stimulus","","","","","","",""
"","","","","","html-keyboard-response","227","198162","0.0-6.34-2.34","610bb9c0c502bc7d0b4650f6","65576f040411c2a4be0341a4","65577450c5cd5cb46edfe6c4","null","
        <div style=""text-align: center; position: fixed; top: 5vh; left: 40vw;"">
            <div style=""margin:0 auto; width: 20vw; top: 8vh; font-size: 2vw""> 
            <font color=""green""> Bonus : $1.55 </font>
            </div>
        </div>
    ","null","","","","","","","",""
"","","","","","html-keyboard-response","228","198387","0.0-6.34-3.34","610bb9c0c502bc7d0b4650f6","65576f040411c2a4be0341a4","65577450c5cd5cb46edfe6c4","224","./stimuli//pack_shapes_diff/cat_2/diff_5/ex_2_5_8.png","arrowright","response","ArrowRight","8","2","5","test","true",""
"","","","","","html-keyboard-response","229","199888","0.0-6.34-4.34","610bb9c0c502bc7d0b4650f6","65576f040411c2a4be0341a4","65577450c5cd5cb46edfe6c4","null","<p> <font color=""green"" size=""5vw""> Correct category! </font> <br> <br> <font color=""green"" size=""8vw""> + $0.05 </font> </p>","null","feedback","","","","","","","1.6"
