"success","timeout","failed_images","failed_audio","failed_video","trial_type","trial_index","time_elapsed","internal_node_id","subject_id","study_id","session_id","rt","stimulus","response","task","correct_response","exemplar_ID","category","difficulty","phase","correct","bonus"
"true","false","[]","[]","[]","preload","0","2","0.0-0.0","61085399a8e88b607b3ffd58","65576f040411c2a4be0341a4","65576f55dd30b283419317e1","","","","","","","","","","",""
"","","","","","html-keyboard-response","1","2063","0.0-1.0","61085399a8e88b607b3ffd58","65576f040411c2a4be0341a4","65576f55dd30b283419317e1","2059","Welcome to the Category Learning experiment! Press any key to continue."," ","welcome","","","","","","",""
"","","","","","html-keyboard-response","2","15691","0.0-2.0","61085399a8e88b607b3ffd58","65576f040411c2a4be0341a4","65576f55dd30b283419317e1","13627","
            <p>You will be shown images of black shapes. Some are category A, some are category B.
            <br>You will not know in advance which category a specific shape belongs to.</p>
            <p>After you see an image, you will be asked to guess its category <b>(left arrow for category A, right arrow for category B)</b></p>
            <p>After you choose, the screen will show you whether you were correct or not.</p>
            <p><b>You will receive a bonus payment of $0.05 for each correct answer!</b></p>
            <p> So you can increase your bonus by guessing correctly, and by guessing as quickly as possible so you move on to the next image sooner.</p>
            <p>Press any key to continue.</p>
            "," ","introduction_1","","","","","","",""
"","","","","","html-keyboard-response","3","19465","0.0-3.0","61085399a8e88b607b3ffd58","65576f040411c2a4be0341a4","65576f55dd30b283419317e1","3773","
            <p> <b>The first 10 trials are a practice round that will not count towards your bonus payment.</b></p>
            <p> You will be notified when practice finishes and the test begins. </p>
            <p> Press any key to begin the practice round.</p>
            "," ","introduction_2","","","","","","",""
"","","","","","html-keyboard-response","4","22148","0.0-4.0-0.0","61085399a8e88b607b3ffd58","65576f040411c2a4be0341a4","65576f55dd30b283419317e1","2682","
            
        <div style=""text-align: center; position: fixed; top: 5vh; left: 40vw;"">
            <div style=""margin:0 auto; width: 20vw; top: 8vh; font-size: 2vw""> 
            <font color=""green""> Bonus : $0 </font>
            </div>
        </div>
    
            <div> Please press any button to continue to the next trial.</div>
        "," ","ITI","","","","","","",""
"","","","","","html-keyboard-response","5","22752","0.0-4.0-1.0","61085399a8e88b607b3ffd58","65576f040411c2a4be0341a4","65576f55dd30b283419317e1","null","
        
        <div style=""text-align: center; position: fixed; top: 5vh; left: 40vw;"">
            <div style=""margin:0 auto; width: 20vw; top: 8vh; font-size: 2vw""> 
            <font color=""green""> Bonus : $0 </font>
            </div>
        </div>
    
        <img class=""stim"" src=./stimuli//pack_shapes_diff/cat_2/diff_2/ex_2_2_17.png></img>
    ","null","stimulus","","","","","","",""
"","","","","","html-keyboard-response","6","23758","0.0-4.0-2.0","61085399a8e88b607b3ffd58","65576f040411c2a4be0341a4","65576f55dd30b283419317e1","null","
        <div style=""text-align: center; position: fixed; top: 5vh; left: 40vw;"">
            <div style=""margin:0 auto; width: 20vw; top: 8vh; font-size: 2vw""> 
            <font color=""green""> Bonus : $0 </font>
            </div>
        </div>
    ","null","","","","","","","",""
"","","","","","html-keyboard-response","7","26007","0.0-4.0-3.0","61085399a8e88b607b3ffd58","65576f040411c2a4be0341a4","65576f55dd30b283419317e1","2248","./stimuli//pack_shapes_diff/cat_2/diff_2/ex_2_2_17.png","arrowright","response","ArrowRight","17","2","2","train","true",""
"","","","","","html-keyboard-response","8","27515","0.0-4.0-4.0","61085399a8e88b607b3ffd58","65576f040411c2a4be0341a4","65576f55dd30b283419317e1","null","<p> <font color=""green"" size=""5vw""> Correct category! </font> </p>","null","feedback","","","","","","","0"
"","","","","","html-keyboard-response","9","28820","0.0-4.0-0.1","61085399a8e88b607b3ffd58","65576f040411c2a4be0341a4","65576f55dd30b283419317e1","1303","
            
        <div style=""text-align: center; position: fixed; top: 5vh; left: 40vw;"">
            <div style=""margin:0 auto; width: 20vw; top: 8vh; font-size: 2vw""> 
            <font color=""green""> Bonus : $0 </font>
            </div>
        </div>
    
            <div> Please press any button to continue to the next trial.</div>
        ","arrowright","ITI","","","","","","",""
"","","","","","html-keyboard-response","10","29423","0.0-4.0-1.1","61085399a8e88b607b3ffd58","65576f040411c2a4be0341a4","65576f55dd30b283419317e1","null","
        
        <div style=""text-align: center; position: fixed; top: 5vh; left: 40vw;"">
            <div style=""margin:0 auto; width: 20vw; top: 8vh; font-size: 2vw""> 
            <font color=""green""> Bonus : $0 </font>
            </div>
        </div>
    
        <img class=""stim"" src=./stimuli//pack_shapes_diff/cat_2/diff_2/ex_2_2_1.png></img>
    ","null","stimulus","","","","","","",""
"","","","","","html-keyboard-response","11","30431","0.0-4.0-2.1","61085399a8e88b607b3ffd58","65576f040411c2a4be0341a4","65576f55dd30b283419317e1","null","
        <div style=""text-align: center; position: fixed; top: 5vh; left: 40vw;"">
            <div style=""margin:0 auto; width: 20vw; top: 8vh; font-size: 2vw""> 
            <font color=""green""> Bonus : $0 </font>
            </div>
        </div>
    ","null","","","","","","","",""
"","","","","","html-keyboard-response","12","33105","0.0-4.0-3.1","61085399a8e88b607b3ffd58","65576f040411c2a4be0341a4","65576f55dd30b283419317e1","2672","./stimuli//pack_shapes_diff/cat_2/diff_2/ex_2_2_1.png","arrowleft","response","ArrowRight","1","2","2","train","false",""
"","","","","","html-keyboard-response","13","34611","0.0-4.0-4.1","61085399a8e88b607b3ffd58","65576f040411c2a4be0341a4","65576f55dd30b283419317e1","null","<p> <font color=""red"" size=""5vw""> Wrong category! </font> </p>","null","feedback","","","","","","","0"
"","","","","","html-keyboard-response","14","35271","0.0-4.0-0.2","61085399a8e88b607b3ffd58","65576f040411c2a4be0341a4","65576f55dd30b283419317e1","659","
            
        <div style=""text-align: center; position: fixed; top: 5vh; left: 40vw;"">
            <div style=""margin:0 auto; width: 20vw; top: 8vh; font-size: 2vw""> 
            <font color=""green""> Bonus : $0 </font>
            </div>
        </div>
    
            <div> Please press any button to continue to the next trial.</div>
        ","arrowright","ITI","","","","","","",""
"","","","","","html-keyboard-response","15","35877","0.0-4.0-1.2","61085399a8e88b607b3ffd58","65576f040411c2a4be0341a4","65576f55dd30b283419317e1","null","
        
        <div style=""text-align: center; position: fixed; top: 5vh; left: 40vw;"">
            <div style=""margin:0 auto; width: 20vw; top: 8vh; font-size: 2vw""> 
            <font color=""green""> Bonus : $0 </font>
            </div>
        </div>
    
        <img class=""stim"" src=./stimuli//pack_shapes_diff/cat_2/diff_1/ex_2_1_5.png></img>
    ","null","stimulus","","","","","","",""
"","","","","","html-keyboard-response","16","36884","0.0-4.0-2.2","61085399a8e88b607b3ffd58","65576f040411c2a4be0341a4","65576f55dd30b283419317e1","null","
        <div style=""text-align: center; position: fixed; top: 5vh; left: 40vw;"">
            <div style=""margin:0 auto; width: 20vw; top: 8vh; font-size: 2vw""> 
            <font color=""green""> Bonus : $0 </font>
            </div>
        </div>
    ","null","","","","","","","",""
"","","","","","html-keyboard-response","17","37171","0.0-4.0-3.2","61085399a8e88b607b3ffd58","65576f040411c2a4be0341a4","65576f55dd30b283419317e1","285","./stimuli//pack_shapes_diff/cat_2/diff_1/ex_2_1_5.png","arrowright","response","ArrowRight","5","2","1","train","true",""
"","","","","","html-keyboard-response","18","38677","0.0-4.0-4.2","61085399a8e88b607b3ffd58","65576f040411c2a4be0341a4","65576f55dd30b283419317e1","null","<p> <font color=""green"" size=""5vw""> Correct category! </font> </p>","null","feedback","","","","","","","0"
"","","","","","html-keyboard-response","19","39485","0.0-4.0-0.3","61085399a8e88b607b3ffd58","65576f040411c2a4be0341a4","65576f55dd30b283419317e1","807","
            
        <div style=""text-align: center; position: fixed; top: 5vh; left: 40vw;"">
            <div style=""margin:0 auto; width: 20vw; top: 8vh; font-size: 2vw""> 
            <font color=""green""> Bonus : $0 </font>
            </div>
        </div>
    
            <div> Please press any button to continue to the next trial.</div>
        ","arrowright","ITI","","","","","","",""
"","","","","","html-keyboard-response","20","40089","0.0-4.0-1.3","61085399a8e88b607b3ffd58","65576f040411c2a4be0341a4","65576f55dd30b283419317e1","null","
        
        <div style=""text-align: center; position: fixed; top: 5vh; left: 40vw;"">
            <div style=""margin:0 auto; width: 20vw; top: 8vh; font-size: 2vw""> 
            <font color=""green""> Bonus : $0 </font>
            </div>
        </div>
    
        <img class=""stim"" src=./stimuli//pack_shapes_diff/cat_2/diff_1/ex_2_1_16.png></img>
    ","null","stimulus","","","","","","",""
"","","","","","html-keyboard-response","21","41095","0.0-4.0-2.3","61085399a8e88b607b3ffd58","65576f040411c2a4be0341a4","65576f55dd30b283419317e1","null","
        <div style=""text-align: center; position: fixed; top: 5vh; left: 40vw;"">
            <div style=""margin:0 auto; width: 20vw; top: 8vh; font-size: 2vw""> 
            <font color=""green""> Bonus : $0 </font>
            </div>
        </div>
    ","null","","","","","","","",""
"","","","","","html-keyboard-response","22","41346","0.0-4.0-3.3","61085399a8e88b607b3ffd58","65576f040411c2a4be0341a4","65576f55dd30b283419317e1","249","./stimuli//pack_shapes_diff/cat_2/diff_1/ex_2_1_16.png","arrowright","response","ArrowRight","16","2","1","train","true",""
"","","","","","html-keyboard-response","23","42853","0.0-4.0-4.3","61085399a8e88b607b3ffd58","65576f040411c2a4be0341a4","65576f55dd30b283419317e1","null","<p> <font color=""green"" size=""5vw""> Correct category! </font> </p>","null","feedback","","","","","","","0"
"","","","","","html-keyboard-response","24","43455","0.0-4.0-0.4","61085399a8e88b607b3ffd58","65576f040411c2a4be0341a4","65576f55dd30b283419317e1","600","
            
        <div style=""text-align: center; position: fixed; top: 5vh; left: 40vw;"">
            <div style=""margin:0 auto; width: 20vw; top: 8vh; font-size: 2vw""> 
            <font color=""green""> Bonus : $0 </font>
            </div>
        </div>
    
            <div> Please press any button to continue to the next trial.</div>
        ","arrowright","ITI","","","","","","",""
"","","","","","html-keyboard-response","25","44059","0.0-4.0-1.4","61085399a8e88b607b3ffd58","65576f040411c2a4be0341a4","65576f55dd30b283419317e1","null","
        
        <div style=""text-align: center; position: fixed; top: 5vh; left: 40vw;"">
            <div style=""margin:0 auto; width: 20vw; top: 8vh; font-size: 2vw""> 
            <font color=""green""> Bonus : $0 </font>
            </div>
        </div>
    
        <img class=""stim"" src=./stimuli//pack_shapes_diff/cat_1/diff_1/ex_1_1_4.png></img>
    ","null","stimulus","","","","","","",""
"","","","","","html-keyboard-response","26","45066","0.0-4.0-2.4","61085399a8e88b607b3ffd58","65576f040411c2a4be0341a4","65576f55dd30b283419317e1","null","
        <div style=""text-align: center; position: fixed; top: 5vh; left: 40vw;"">
            <div style=""margin:0 auto; width: 20vw; top: 8vh; font-size: 2vw""> 
            <font color=""green""> Bonus : $0 </font>
            </div>
        </div>
    ","null","","","","","","","",""
"","","","","","html-keyboard-response","27","46295","0.0-4.0-3.4","61085399a8e88b607b3ffd58","65576f040411c2a4be0341a4","65576f55dd30b283419317e1","1229","./stimuli//pack_shapes_diff/cat_1/diff_1/ex_1_1_4.png","arrowleft","response","ArrowLeft","4","1","1","train","true",""
"","","","","","html-keyboard-response","28","47800","0.0-4.0-4.4","61085399a8e88b607b3ffd58","65576f040411c2a4be0341a4","65576f55dd30b283419317e1","null","<p> <font color=""green"" size=""5vw""> Correct category! </font> </p>","null","feedback","","","","","","","0"
"","","","","","html-keyboard-response","29","48303","0.0-4.0-0.5","61085399a8e88b607b3ffd58","65576f040411c2a4be0341a4","65576f55dd30b283419317e1","503","
            
        <div style=""text-align: center; position: fixed; top: 5vh; left: 40vw;"">
            <div style=""margin:0 auto; width: 20vw; top: 8vh; font-size: 2vw""> 
            <font color=""green""> Bonus : $0 </font>
            </div>
        </div>
    
            <div> Please press any button to continue to the next trial.</div>
        ","arrowright","ITI","","","","","","",""
"","","","","","html-keyboard-response","30","48905","0.0-4.0-1.5","61085399a8e88b607b3ffd58","65576f040411c2a4be0341a4","65576f55dd30b283419317e1","null","
        
        <div style=""text-align: center; position: fixed; top: 5vh; left: 40vw;"">
            <div style=""margin:0 auto; width: 20vw; top: 8vh; font-size: 2vw""> 
            <font color=""green""> Bonus : $0 </font>
            </div>
        </div>
    
        <img class=""stim"" src=./stimuli//pack_shapes_diff/cat_1/diff_2/ex_1_2_4.png></img>
    ","null","stimulus","","","","","","",""
"","","","","","html-keyboard-response","31","49912","0.0-4.0-2.5","61085399a8e88b607b3ffd58","65576f040411c2a4be0341a4","65576f55dd30b283419317e1","null","
        <div style=""text-align: center; position: fixed; top: 5vh; left: 40vw;"">
            <div style=""margin:0 auto; width: 20vw; top: 8vh; font-size: 2vw""> 
            <font color=""green""> Bonus : $0 </font>
            </div>
        </div>
    ","null","","","","","","","",""
"","","","","","html-keyboard-response","32","50178","0.0-4.0-3.5","61085399a8e88b607b3ffd58","65576f040411c2a4be0341a4","65576f55dd30b283419317e1","265","./stimuli//pack_shapes_diff/cat_1/diff_2/ex_1_2_4.png","arrowleft","response","ArrowLeft","4","1","2","train","true",""
"","","","","","html-keyboard-response","33","51685","0.0-4.0-4.5","61085399a8e88b607b3ffd58","65576f040411c2a4be0341a4","65576f55dd30b283419317e1","null","<p> <font color=""green"" size=""5vw""> Correct category! </font> </p>","null","feedback","","","","","","","0"
"","","","","","html-keyboard-response","34","52165","0.0-4.0-0.6","61085399a8e88b607b3ffd58","65576f040411c2a4be0341a4","65576f55dd30b283419317e1","479","
            
        <div style=""text-align: center; position: fixed; top: 5vh; left: 40vw;"">
            <div style=""margin:0 auto; width: 20vw; top: 8vh; font-size: 2vw""> 
            <font color=""green""> Bonus : $0 </font>
            </div>
        </div>
    
            <div> Please press any button to continue to the next trial.</div>
        ","arrowright","ITI","","","","","","",""
"","","","","","html-keyboard-response","35","52769","0.0-4.0-1.6","61085399a8e88b607b3ffd58","65576f040411c2a4be0341a4","65576f55dd30b283419317e1","null","
        
        <div style=""text-align: center; position: fixed; top: 5vh; left: 40vw;"">
            <div style=""margin:0 auto; width: 20vw; top: 8vh; font-size: 2vw""> 
            <font color=""green""> Bonus : $0 </font>
            </div>
        </div>
    
        <img class=""stim"" src=./stimuli//pack_shapes_diff/cat_1/diff_1/ex_1_1_15.png></img>
    ","null","stimulus","","","","","","",""
"","","","","","html-keyboard-response","36","53776","0.0-4.0-2.6","61085399a8e88b607b3ffd58","65576f040411c2a4be0341a4","65576f55dd30b283419317e1","null","
        <div style=""text-align: center; position: fixed; top: 5vh; left: 40vw;"">
            <div style=""margin:0 auto; width: 20vw; top: 8vh; font-size: 2vw""> 
            <font color=""green""> Bonus : $0 </font>
            </div>
        </div>
    ","null","","","","","","","",""
"","","","","","html-keyboard-response","37","56678","0.0-4.0-3.6","61085399a8e88b607b3ffd58","65576f040411c2a4be0341a4","65576f55dd30b283419317e1","2901","./stimuli//pack_shapes_diff/cat_1/diff_1/ex_1_1_15.png","arrowright","response","ArrowLeft","15","1","1","train","false",""
"","","","","","html-keyboard-response","38","58184","0.0-4.0-4.6","61085399a8e88b607b3ffd58","65576f040411c2a4be0341a4","65576f55dd30b283419317e1","null","<p> <font color=""red"" size=""5vw""> Wrong category! </font> </p>","null","feedback","","","","","","","0"
"","","","","","html-keyboard-response","39","58519","0.0-4.0-0.7","61085399a8e88b607b3ffd58","65576f040411c2a4be0341a4","65576f55dd30b283419317e1","334","
            
        <div style=""text-align: center; position: fixed; top: 5vh; left: 40vw;"">
            <div style=""margin:0 auto; width: 20vw; top: 8vh; font-size: 2vw""> 
            <font color=""green""> Bonus : $0 </font>
            </div>
        </div>
    
            <div> Please press any button to continue to the next trial.</div>
        ","arrowright","ITI","","","","","","",""
"","","","","","html-keyboard-response","40","59122","0.0-4.0-1.7","61085399a8e88b607b3ffd58","65576f040411c2a4be0341a4","65576f55dd30b283419317e1","null","
        
        <div style=""text-align: center; position: fixed; top: 5vh; left: 40vw;"">
            <div style=""margin:0 auto; width: 20vw; top: 8vh; font-size: 2vw""> 
            <font color=""green""> Bonus : $0 </font>
            </div>
        </div>
    
        <img class=""stim"" src=./stimuli//pack_shapes_diff/cat_2/diff_1/ex_2_1_2.png></img>
    ","null","stimulus","","","","","","",""
"","","","","","html-keyboard-response","41","60128","0.0-4.0-2.7","61085399a8e88b607b3ffd58","65576f040411c2a4be0341a4","65576f55dd30b283419317e1","null","
        <div style=""text-align: center; position: fixed; top: 5vh; left: 40vw;"">
            <div style=""margin:0 auto; width: 20vw; top: 8vh; font-size: 2vw""> 
            <font color=""green""> Bonus : $0 </font>
            </div>
        </div>
    ","null","","","","","","","",""
"","","","","","html-keyboard-response","42","60435","0.0-4.0-3.7","61085399a8e88b607b3ffd58","65576f040411c2a4be0341a4","65576f55dd30b283419317e1","305","./stimuli//pack_shapes_diff/cat_2/diff_1/ex_2_1_2.png","arrowright","response","ArrowRight","2","2","1","train","true",""
"","","","","","html-keyboard-response","43","61942","0.0-4.0-4.7","61085399a8e88b607b3ffd58","65576f040411c2a4be0341a4","65576f55dd30b283419317e1","null","<p> <font color=""green"" size=""5vw""> Correct category! </font> </p>","null","feedback","","","","","","","0"
"","","","","","html-keyboard-response","44","62236","0.0-4.0-0.8","61085399a8e88b607b3ffd58","65576f040411c2a4be0341a4","65576f55dd30b283419317e1","292","
            
        <div style=""text-align: center; position: fixed; top: 5vh; left: 40vw;"">
            <div style=""margin:0 auto; width: 20vw; top: 8vh; font-size: 2vw""> 
            <font color=""green""> Bonus : $0 </font>
            </div>
        </div>
    
            <div> Please press any button to continue to the next trial.</div>
        ","arrowright","ITI","","","","","","",""
"","","","","","html-keyboard-response","45","62838","0.0-4.0-1.8","61085399a8e88b607b3ffd58","65576f040411c2a4be0341a4","65576f55dd30b283419317e1","null","
        
        <div style=""text-align: center; position: fixed; top: 5vh; left: 40vw;"">
            <div style=""margin:0 auto; width: 20vw; top: 8vh; font-size: 2vw""> 
            <font color=""green""> Bonus : $0 </font>
            </div>
        </div>
    
        <img class=""stim"" src=./stimuli//pack_shapes_diff/cat_1/diff_2/ex_1_2_1.png></img>
    ","null","stimulus","","","","","","",""
"","","","","","html-keyboard-response","46","63844","0.0-4.0-2.8","61085399a8e88b607b3ffd58","65576f040411c2a4be0341a4","65576f55dd30b283419317e1","null","
        <div style=""text-align: center; position: fixed; top: 5vh; left: 40vw;"">
            <div style=""margin:0 auto; width: 20vw; top: 8vh; font-size: 2vw""> 
            <font color=""green""> Bonus : $0 </font>
            </div>
        </div>
    ","null","","","","","","","",""
"","","","","","html-keyboard-response","47","64082","0.0-4.0-3.8","61085399a8e88b607b3ffd58","65576f040411c2a4be0341a4","65576f55dd30b283419317e1","237","./stimuli//pack_shapes_diff/cat_1/diff_2/ex_1_2_1.png","arrowleft","response","ArrowLeft","1","1","2","train","true",""
"","","","","","html-keyboard-response","48","65589","0.0-4.0-4.8","61085399a8e88b607b3ffd58","65576f040411c2a4be0341a4","65576f55dd30b283419317e1","null","<p> <font color=""green"" size=""5vw""> Correct category! </font> </p>","null","feedback","","","","","","","0"
"","","","","","html-keyboard-response","49","66026","0.0-4.0-0.9","61085399a8e88b607b3ffd58","65576f040411c2a4be0341a4","65576f55dd30b283419317e1","435","
            
        <div style=""text-align: center; position: fixed; top: 5vh; left: 40vw;"">
            <div style=""margin:0 auto; width: 20vw; top: 8vh; font-size: 2vw""> 
            <font color=""green""> Bonus : $0 </font>
            </div>
        </div>
    
            <div> Please press any button to continue to the next trial.</div>
        ","arrowright","ITI","","","","","","",""
"","","","","","html-keyboard-response","50","66630","0.0-4.0-1.9","61085399a8e88b607b3ffd58","65576f040411c2a4be0341a4","65576f55dd30b283419317e1","null","
        
        <div style=""text-align: center; position: fixed; top: 5vh; left: 40vw;"">
            <div style=""margin:0 auto; width: 20vw; top: 8vh; font-size: 2vw""> 
            <font color=""green""> Bonus : $0 </font>
            </div>
        </div>
    
        <img class=""stim"" src=./stimuli//pack_shapes_diff/cat_1/diff_1/ex_1_1_7.png></img>
    ","null","stimulus","","","","","","",""
"","","","","","html-keyboard-response","51","67637","0.0-4.0-2.9","61085399a8e88b607b3ffd58","65576f040411c2a4be0341a4","65576f55dd30b283419317e1","null","
        <div style=""text-align: center; position: fixed; top: 5vh; left: 40vw;"">
            <div style=""margin:0 auto; width: 20vw; top: 8vh; font-size: 2vw""> 
            <font color=""green""> Bonus : $0 </font>
            </div>
        </div>
    ","null","","","","","","","",""
"","","","","","html-keyboard-response","52","67943","0.0-4.0-3.9","61085399a8e88b607b3ffd58","65576f040411c2a4be0341a4","65576f55dd30b283419317e1","306","./stimuli//pack_shapes_diff/cat_1/diff_1/ex_1_1_7.png","arrowleft","response","ArrowLeft","7","1","1","train","true",""
"","","","","","html-keyboard-response","53","69450","0.0-4.0-4.9","61085399a8e88b607b3ffd58","65576f040411c2a4be0341a4","65576f55dd30b283419317e1","null","<p> <font color=""green"" size=""5vw""> Correct category! </font> </p>","null","feedback","","","","","","","0"
"","","","","","html-keyboard-response","54","73975","0.0-5.0","61085399a8e88b607b3ffd58","65576f040411c2a4be0341a4","65576f55dd30b283419317e1","4522","
            <b> <p> The practice round has finished.</p>
            <b> For the rest of the experiment you will receive a $0.05 bonus for each correct answer!</b>
            <p> Press any key to begin the test. </p>
            ","arrowright","intermission","","","","","","",""
"","","","","","html-keyboard-response","55","75266","0.0-6.0-0.0","61085399a8e88b607b3ffd58","65576f040411c2a4be0341a4","65576f55dd30b283419317e1","1290","
            
        <div style=""text-align: center; position: fixed; top: 5vh; left: 40vw;"">
            <div style=""margin:0 auto; width: 20vw; top: 8vh; font-size: 2vw""> 
            <font color=""green""> Bonus : $0 </font>
            </div>
        </div>
    
            <div> Please press any button to continue to the next trial.</div>
        ","arrowright","ITI","","","","","","",""
"","","","","","html-keyboard-response","56","75869","0.0-6.0-1.0","61085399a8e88b607b3ffd58","65576f040411c2a4be0341a4","65576f55dd30b283419317e1","null","
        
        <div style=""text-align: center; position: fixed; top: 5vh; left: 40vw;"">
            <div style=""margin:0 auto; width: 20vw; top: 8vh; font-size: 2vw""> 
            <font color=""green""> Bonus : $0 </font>
            </div>
        </div>
    
        <img class=""stim"" src=./stimuli//pack_shapes_diff/cat_1/diff_1/ex_1_1_11.png></img>
    ","null","stimulus","","","","","","",""
"","","","","","html-keyboard-response","57","76876","0.0-6.0-2.0","61085399a8e88b607b3ffd58","65576f040411c2a4be0341a4","65576f55dd30b283419317e1","null","
        <div style=""text-align: center; position: fixed; top: 5vh; left: 40vw;"">
            <div style=""margin:0 auto; width: 20vw; top: 8vh; font-size: 2vw""> 
            <font color=""green""> Bonus : $0 </font>
            </div>
        </div>
    ","null","","","","","","","",""
"","","","","","html-keyboard-response","58","79066","0.0-6.0-3.0","61085399a8e88b607b3ffd58","65576f040411c2a4be0341a4","65576f55dd30b283419317e1","2189","./stimuli//pack_shapes_diff/cat_1/diff_1/ex_1_1_11.png","arrowleft","response","ArrowLeft","11","1","1","test","true",""
"","","","","","html-keyboard-response","59","80573","0.0-6.0-4.0","61085399a8e88b607b3ffd58","65576f040411c2a4be0341a4","65576f55dd30b283419317e1","null","<p> <font color=""green"" size=""5vw""> Correct category! </font> <br> <br> <font color=""green"" size=""8vw""> + $0.05 </font> </p>","null","feedback","","","","","","","0.05"
"","","","","","html-keyboard-response","60","81231","0.0-6.1-0.1","61085399a8e88b607b3ffd58","65576f040411c2a4be0341a4","65576f55dd30b283419317e1","655","
            
        <div style=""text-align: center; position: fixed; top: 5vh; left: 40vw;"">
            <div style=""margin:0 auto; width: 20vw; top: 8vh; font-size: 2vw""> 
            <font color=""green""> Bonus : $0.05 </font>
            </div>
        </div>
    
            <div> Please press any button to continue to the next trial.</div>
        ","arrowright","ITI","","","","","","",""
"","","","","","html-keyboard-response","61","81833","0.0-6.1-1.1","61085399a8e88b607b3ffd58","65576f040411c2a4be0341a4","65576f55dd30b283419317e1","null","
        
        <div style=""text-align: center; position: fixed; top: 5vh; left: 40vw;"">
            <div style=""margin:0 auto; width: 20vw; top: 8vh; font-size: 2vw""> 
            <font color=""green""> Bonus : $0.05 </font>
            </div>
        </div>
    
        <img class=""stim"" src=./stimuli//pack_shapes_diff/cat_1/diff_1/ex_1_1_12.png></img>
    ","null","stimulus","","","","","","",""
"","","","","","html-keyboard-response","62","82839","0.0-6.1-2.1","61085399a8e88b607b3ffd58","65576f040411c2a4be0341a4","65576f55dd30b283419317e1","null","
        <div style=""text-align: center; position: fixed; top: 5vh; left: 40vw;"">
            <div style=""margin:0 auto; width: 20vw; top: 8vh; font-size: 2vw""> 
            <font color=""green""> Bonus : $0.05 </font>
            </div>
        </div>
    ","null","","","","","","","",""
"","","","","","html-keyboard-response","63","83182","0.0-6.1-3.1","61085399a8e88b607b3ffd58","65576f040411c2a4be0341a4","65576f55dd30b283419317e1","342","./stimuli//pack_shapes_diff/cat_1/diff_1/ex_1_1_12.png","arrowleft","response","ArrowLeft","12","1","1","test","true",""
"","","","","","html-keyboard-response","64","84687","0.0-6.1-4.1","61085399a8e88b607b3ffd58","65576f040411c2a4be0341a4","65576f55dd30b283419317e1","null","<p> <font color=""green"" size=""5vw""> Correct category! </font> <br> <br> <font color=""green"" size=""8vw""> + $0.05 </font> </p>","null","feedback","","","","","","","0.1"
"","","","","","html-keyboard-response","65","85390","0.0-6.2-0.2","61085399a8e88b607b3ffd58","65576f040411c2a4be0341a4","65576f55dd30b283419317e1","702","
            
        <div style=""text-align: center; position: fixed; top: 5vh; left: 40vw;"">
            <div style=""margin:0 auto; width: 20vw; top: 8vh; font-size: 2vw""> 
            <font color=""green""> Bonus : $0.1 </font>
            </div>
        </div>
    
            <div> Please press any button to continue to the next trial.</div>
        ","arrowright","ITI","","","","","","",""
"","","","","","html-keyboard-response","66","85995","0.0-6.2-1.2","61085399a8e88b607b3ffd58","65576f040411c2a4be0341a4","65576f55dd30b283419317e1","null","
        
        <div style=""text-align: center; position: fixed; top: 5vh; left: 40vw;"">
            <div style=""margin:0 auto; width: 20vw; top: 8vh; font-size: 2vw""> 
            <font color=""green""> Bonus : $0.1 </font>
            </div>
        </div>
    
        <img class=""stim"" src=./stimuli//pack_shapes_diff/cat_2/diff_1/ex_2_1_15.png></img>
    ","null","stimulus","","","","","","",""
"","","","","","html-keyboard-response","67","87001","0.0-6.2-2.2","61085399a8e88b607b3ffd58","65576f040411c2a4be0341a4","65576f55dd30b283419317e1","null","
        <div style=""text-align: center; position: fixed; top: 5vh; left: 40vw;"">
            <div style=""margin:0 auto; width: 20vw; top: 8vh; font-size: 2vw""> 
            <font color=""green""> Bonus : $0.1 </font>
            </div>
        </div>
    ","null","","","","","","","",""
"","","","","","html-keyboard-response","68","87280","0.0-6.2-3.2","61085399a8e88b607b3ffd58","65576f040411c2a4be0341a4","65576f55dd30b283419317e1","278","./stimuli//pack_shapes_diff/cat_2/diff_1/ex_2_1_15.png","arrowright","response","ArrowRight","15","2","1","test","true",""
"","","","","","html-keyboard-response","69","88787","0.0-6.2-4.2","61085399a8e88b607b3ffd58","65576f040411c2a4be0341a4","65576f55dd30b283419317e1","null","<p> <font color=""green"" size=""5vw""> Correct category! </font> <br> <br> <font color=""green"" size=""8vw""> + $0.05 </font> </p>","null","feedback","","","","","","","0.15"
"","","","","","html-keyboard-response","70","89106","0.0-6.3-0.3","61085399a8e88b607b3ffd58","65576f040411c2a4be0341a4","65576f55dd30b283419317e1","317","
            
        <div style=""text-align: center; position: fixed; top: 5vh; left: 40vw;"">
            <div style=""margin:0 auto; width: 20vw; top: 8vh; font-size: 2vw""> 
            <font color=""green""> Bonus : $0.15 </font>
            </div>
        </div>
    
            <div> Please press any button to continue to the next trial.</div>
        ","arrowright","ITI","","","","","","",""
"","","","","","html-keyboard-response","71","89713","0.0-6.3-1.3","61085399a8e88b607b3ffd58","65576f040411c2a4be0341a4","65576f55dd30b283419317e1","null","
        
        <div style=""text-align: center; position: fixed; top: 5vh; left: 40vw;"">
            <div style=""margin:0 auto; width: 20vw; top: 8vh; font-size: 2vw""> 
            <font color=""green""> Bonus : $0.15 </font>
            </div>
        </div>
    
        <img class=""stim"" src=./stimuli//pack_shapes_diff/cat_1/diff_1/ex_1_1_9.png></img>
    ","null","stimulus","","","","","","",""
"","","","","","html-keyboard-response","72","90719","0.0-6.3-2.3","61085399a8e88b607b3ffd58","65576f040411c2a4be0341a4","65576f55dd30b283419317e1","null","
        <div style=""text-align: center; position: fixed; top: 5vh; left: 40vw;"">
            <div style=""margin:0 auto; width: 20vw; top: 8vh; font-size: 2vw""> 
            <font color=""green""> Bonus : $0.15 </font>
            </div>
        </div>
    ","null","","","","","","","",""
"","","","","","html-keyboard-response","73","91023","0.0-6.3-3.3","61085399a8e88b607b3ffd58","65576f040411c2a4be0341a4","65576f55dd30b283419317e1","302","./stimuli//pack_shapes_diff/cat_1/diff_1/ex_1_1_9.png","arrowleft","response","ArrowLeft","9","1","1","test","true",""
"","","","","","html-keyboard-response","74","92529","0.0-6.3-4.3","61085399a8e88b607b3ffd58","65576f040411c2a4be0341a4","65576f55dd30b283419317e1","null","<p> <font color=""green"" size=""5vw""> Correct category! </font> <br> <br> <font color=""green"" size=""8vw""> + $0.05 </font> </p>","null","feedback","","","","","","","0.2"
"","","","","","html-keyboard-response","75","92824","0.0-6.4-0.4","61085399a8e88b607b3ffd58","65576f040411c2a4be0341a4","65576f55dd30b283419317e1","294","
            
        <div style=""text-align: center; position: fixed; top: 5vh; left: 40vw;"">
            <div style=""margin:0 auto; width: 20vw; top: 8vh; font-size: 2vw""> 
            <font color=""green""> Bonus : $0.2 </font>
            </div>
        </div>
    
            <div> Please press any button to continue to the next trial.</div>
        ","arrowright","ITI","","","","","","",""
"","","","","","html-keyboard-response","76","93428","0.0-6.4-1.4","61085399a8e88b607b3ffd58","65576f040411c2a4be0341a4","65576f55dd30b283419317e1","null","
        
        <div style=""text-align: center; position: fixed; top: 5vh; left: 40vw;"">
            <div style=""margin:0 auto; width: 20vw; top: 8vh; font-size: 2vw""> 
            <font color=""green""> Bonus : $0.2 </font>
            </div>
        </div>
    
        <img class=""stim"" src=./stimuli//pack_shapes_diff/cat_1/diff_1/ex_1_1_17.png></img>
    ","null","stimulus","","","","","","",""
"","","","","","html-keyboard-response","77","94434","0.0-6.4-2.4","61085399a8e88b607b3ffd58","65576f040411c2a4be0341a4","65576f55dd30b283419317e1","null","
        <div style=""text-align: center; position: fixed; top: 5vh; left: 40vw;"">
            <div style=""margin:0 auto; width: 20vw; top: 8vh; font-size: 2vw""> 
            <font color=""green""> Bonus : $0.2 </font>
            </div>
        </div>
    ","null","","","","","","","",""
"","","","","","html-keyboard-response","78","94756","0.0-6.4-3.4","61085399a8e88b607b3ffd58","65576f040411c2a4be0341a4","65576f55dd30b283419317e1","320","./stimuli//pack_shapes_diff/cat_1/diff_1/ex_1_1_17.png","arrowleft","response","ArrowLeft","17","1","1","test","true",""
"","","","","","html-keyboard-response","79","96262","0.0-6.4-4.4","61085399a8e88b607b3ffd58","65576f040411c2a4be0341a4","65576f55dd30b283419317e1","null","<p> <font color=""green"" size=""5vw""> Correct category! </font> <br> <br> <font color=""green"" size=""8vw""> + $0.05 </font> </p>","null","feedback","","","","","","","0.25"
"","","","","","html-keyboard-response","80","96611","0.0-6.5-0.5","61085399a8e88b607b3ffd58","65576f040411c2a4be0341a4","65576f55dd30b283419317e1","347","
            
        <div style=""text-align: center; position: fixed; top: 5vh; left: 40vw;"">
            <div style=""margin:0 auto; width: 20vw; top: 8vh; font-size: 2vw""> 
            <font color=""green""> Bonus : $0.25 </font>
            </div>
        </div>
    
            <div> Please press any button to continue to the next trial.</div>
        ","arrowright","ITI","","","","","","",""
"","","","","","html-keyboard-response","81","97213","0.0-6.5-1.5","61085399a8e88b607b3ffd58","65576f040411c2a4be0341a4","65576f55dd30b283419317e1","null","
        
        <div style=""text-align: center; position: fixed; top: 5vh; left: 40vw;"">
            <div style=""margin:0 auto; width: 20vw; top: 8vh; font-size: 2vw""> 
            <font color=""green""> Bonus : $0.25 </font>
            </div>
        </div>
    
        <img class=""stim"" src=./stimuli//pack_shapes_diff/cat_1/diff_2/ex_1_2_12.png></img>
    ","null","stimulus","","","","","","",""
"","","","","","html-keyboard-response","82","98221","0.0-6.5-2.5","61085399a8e88b607b3ffd58","65576f040411c2a4be0341a4","65576f55dd30b283419317e1","null","
        <div style=""text-align: center; position: fixed; top: 5vh; left: 40vw;"">
            <div style=""margin:0 auto; width: 20vw; top: 8vh; font-size: 2vw""> 
            <font color=""green""> Bonus : $0.25 </font>
            </div>
        </div>
    ","null","","","","","","","",""
"","","","","","html-keyboard-response","83","98545","0.0-6.5-3.5","61085399a8e88b607b3ffd58","65576f040411c2a4be0341a4","65576f55dd30b283419317e1","323","./stimuli//pack_shapes_diff/cat_1/diff_2/ex_1_2_12.png","arrowleft","response","ArrowLeft","12","1","2","test","true",""
"","","","","","html-keyboard-response","84","100051","0.0-6.5-4.5","61085399a8e88b607b3ffd58","65576f040411c2a4be0341a4","65576f55dd30b283419317e1","null","<p> <font color=""green"" size=""5vw""> Correct category! </font> <br> <br> <font color=""green"" size=""8vw""> + $0.05 </font> </p>","null","feedback","","","","","","","0.3"
"","","","","","html-keyboard-response","85","100366","0.0-6.6-0.6","61085399a8e88b607b3ffd58","65576f040411c2a4be0341a4","65576f55dd30b283419317e1","314","
            
        <div style=""text-align: center; position: fixed; top: 5vh; left: 40vw;"">
            <div style=""margin:0 auto; width: 20vw; top: 8vh; font-size: 2vw""> 
            <font color=""green""> Bonus : $0.3 </font>
            </div>
        </div>
    
            <div> Please press any button to continue to the next trial.</div>
        ","arrowright","ITI","","","","","","",""
"","","","","","html-keyboard-response","86","100970","0.0-6.6-1.6","61085399a8e88b607b3ffd58","65576f040411c2a4be0341a4","65576f55dd30b283419317e1","null","
        
        <div style=""text-align: center; position: fixed; top: 5vh; left: 40vw;"">
            <div style=""margin:0 auto; width: 20vw; top: 8vh; font-size: 2vw""> 
            <font color=""green""> Bonus : $0.3 </font>
            </div>
        </div>
    
        <img class=""stim"" src=./stimuli//pack_shapes_diff/cat_2/diff_2/ex_2_2_13.png></img>
    ","null","stimulus","","","","","","",""
"","","","","","html-keyboard-response","87","101977","0.0-6.6-2.6","61085399a8e88b607b3ffd58","65576f040411c2a4be0341a4","65576f55dd30b283419317e1","null","
        <div style=""text-align: center; position: fixed; top: 5vh; left: 40vw;"">
            <div style=""margin:0 auto; width: 20vw; top: 8vh; font-size: 2vw""> 
            <font color=""green""> Bonus : $0.3 </font>
            </div>
        </div>
    ","null","","","","","","","",""
"","","","","","html-keyboard-response","88","104137","0.0-6.6-3.6","61085399a8e88b607b3ffd58","65576f040411c2a4be0341a4","65576f55dd30b283419317e1","2158","./stimuli//pack_shapes_diff/cat_2/diff_2/ex_2_2_13.png","arrowright","response","ArrowRight","13","2","2","test","true",""
"","","","","","html-keyboard-response","89","105643","0.0-6.6-4.6","61085399a8e88b607b3ffd58","65576f040411c2a4be0341a4","65576f55dd30b283419317e1","null","<p> <font color=""green"" size=""5vw""> Correct category! </font> <br> <br> <font color=""green"" size=""8vw""> + $0.05 </font> </p>","null","feedback","","","","","","","0.35"
"","","","","","html-keyboard-response","90","106014","0.0-6.7-0.7","61085399a8e88b607b3ffd58","65576f040411c2a4be0341a4","65576f55dd30b283419317e1","370","
            
        <div style=""text-align: center; position: fixed; top: 5vh; left: 40vw;"">
            <div style=""margin:0 auto; width: 20vw; top: 8vh; font-size: 2vw""> 
            <font color=""green""> Bonus : $0.35 </font>
            </div>
        </div>
    
            <div> Please press any button to continue to the next trial.</div>
        ","arrowright","ITI","","","","","","",""
"","","","","","html-keyboard-response","91","106618","0.0-6.7-1.7","61085399a8e88b607b3ffd58","65576f040411c2a4be0341a4","65576f55dd30b283419317e1","null","
        
        <div style=""text-align: center; position: fixed; top: 5vh; left: 40vw;"">
            <div style=""margin:0 auto; width: 20vw; top: 8vh; font-size: 2vw""> 
            <font color=""green""> Bonus : $0.35 </font>
            </div>
        </div>
    
        <img class=""stim"" src=./stimuli//pack_shapes_diff/cat_1/diff_2/ex_1_2_3.png></img>
    ","null","stimulus","","","","","","",""
"","","","","","html-keyboard-response","92","107625","0.0-6.7-2.7","61085399a8e88b607b3ffd58","65576f040411c2a4be0341a4","65576f55dd30b283419317e1","null","
        <div style=""text-align: center; position: fixed; top: 5vh; left: 40vw;"">
            <div style=""margin:0 auto; width: 20vw; top: 8vh; font-size: 2vw""> 
            <font color=""green""> Bonus : $0.35 </font>
            </div>
        </div>
    ","null","","","","","","","",""
"","","","","","html-keyboard-response","93","107884","0.0-6.7-3.7","61085399a8e88b607b3ffd58","65576f040411c2a4be0341a4","65576f55dd30b283419317e1","258","./stimuli//pack_shapes_diff/cat_1/diff_2/ex_1_2_3.png","arrowleft","response","ArrowLeft","3","1","2","test","true",""
"","","","","","html-keyboard-response","94","109391","0.0-6.7-4.7","61085399a8e88b607b3ffd58","65576f040411c2a4be0341a4","65576f55dd30b283419317e1","null","<p> <font color=""green"" size=""5vw""> Correct category! </font> <br> <br> <font color=""green"" size=""8vw""> + $0.05 </font> </p>","null","feedback","","","","","","","0.4"
"","","","","","html-keyboard-response","95","109673","0.0-6.8-0.8","61085399a8e88b607b3ffd58","65576f040411c2a4be0341a4","65576f55dd30b283419317e1","281","
            
        <div style=""text-align: center; position: fixed; top: 5vh; left: 40vw;"">
            <div style=""margin:0 auto; width: 20vw; top: 8vh; font-size: 2vw""> 
            <font color=""green""> Bonus : $0.4 </font>
            </div>
        </div>
    
            <div> Please press any button to continue to the next trial.</div>
        ","arrowright","ITI","","","","","","",""
"","","","","","html-keyboard-response","96","110278","0.0-6.8-1.8","61085399a8e88b607b3ffd58","65576f040411c2a4be0341a4","65576f55dd30b283419317e1","null","
        
        <div style=""text-align: center; position: fixed; top: 5vh; left: 40vw;"">
            <div style=""margin:0 auto; width: 20vw; top: 8vh; font-size: 2vw""> 
            <font color=""green""> Bonus : $0.4 </font>
            </div>
        </div>
    
        <img class=""stim"" src=./stimuli//pack_shapes_diff/cat_1/diff_2/ex_1_2_9.png></img>
    ","null","stimulus","","","","","","",""
"","","","","","html-keyboard-response","97","111282","0.0-6.8-2.8","61085399a8e88b607b3ffd58","65576f040411c2a4be0341a4","65576f55dd30b283419317e1","null","
        <div style=""text-align: center; position: fixed; top: 5vh; left: 40vw;"">
            <div style=""margin:0 auto; width: 20vw; top: 8vh; font-size: 2vw""> 
            <font color=""green""> Bonus : $0.4 </font>
            </div>
        </div>
    ","null","","","","","","","",""
"","","","","","html-keyboard-response","98","111540","0.0-6.8-3.8","61085399a8e88b607b3ffd58","65576f040411c2a4be0341a4","65576f55dd30b283419317e1","258","./stimuli//pack_shapes_diff/cat_1/diff_2/ex_1_2_9.png","arrowleft","response","ArrowLeft","9","1","2","test","true",""
"","","","","","html-keyboard-response","99","113047","0.0-6.8-4.8","61085399a8e88b607b3ffd58","65576f040411c2a4be0341a4","65576f55dd30b283419317e1","null","<p> <font color=""green"" size=""5vw""> Correct category! </font> <br> <br> <font color=""green"" size=""8vw""> + $0.05 </font> </p>","null","feedback","","","","","","","0.45"
"","","","","","html-keyboard-response","100","113309","0.0-6.9-0.9","61085399a8e88b607b3ffd58","65576f040411c2a4be0341a4","65576f55dd30b283419317e1","261","
            
        <div style=""text-align: center; position: fixed; top: 5vh; left: 40vw;"">
            <div style=""margin:0 auto; width: 20vw; top: 8vh; font-size: 2vw""> 
            <font color=""green""> Bonus : $0.45 </font>
            </div>
        </div>
    
            <div> Please press any button to continue to the next trial.</div>
        ","arrowright","ITI","","","","","","",""
"","","","","","html-keyboard-response","101","113913","0.0-6.9-1.9","61085399a8e88b607b3ffd58","65576f040411c2a4be0341a4","65576f55dd30b283419317e1","null","
        
        <div style=""text-align: center; position: fixed; top: 5vh; left: 40vw;"">
            <div style=""margin:0 auto; width: 20vw; top: 8vh; font-size: 2vw""> 
            <font color=""green""> Bonus : $0.45 </font>
            </div>
        </div>
    
        <img class=""stim"" src=./stimuli//pack_shapes_diff/cat_2/diff_2/ex_2_2_12.png></img>
    ","null","stimulus","","","","","","",""
"","","","","","html-keyboard-response","102","114920","0.0-6.9-2.9","61085399a8e88b607b3ffd58","65576f040411c2a4be0341a4","65576f55dd30b283419317e1","null","
        <div style=""text-align: center; position: fixed; top: 5vh; left: 40vw;"">
            <div style=""margin:0 auto; width: 20vw; top: 8vh; font-size: 2vw""> 
            <font color=""green""> Bonus : $0.45 </font>
            </div>
        </div>
    ","null","","","","","","","",""
"","","","","","html-keyboard-response","103","115165","0.0-6.9-3.9","61085399a8e88b607b3ffd58","65576f040411c2a4be0341a4","65576f55dd30b283419317e1","244","./stimuli//pack_shapes_diff/cat_2/diff_2/ex_2_2_12.png","arrowright","response","ArrowRight","12","2","2","test","true",""
"","","","","","html-keyboard-response","104","116667","0.0-6.9-4.9","61085399a8e88b607b3ffd58","65576f040411c2a4be0341a4","65576f55dd30b283419317e1","null","<p> <font color=""green"" size=""5vw""> Correct category! </font> <br> <br> <font color=""green"" size=""8vw""> + $0.05 </font> </p>","null","feedback","","","","","","","0.5"
"","","","","","html-keyboard-response","105","116990","0.0-6.10-0.10","61085399a8e88b607b3ffd58","65576f040411c2a4be0341a4","65576f55dd30b283419317e1","321","
            
        <div style=""text-align: center; position: fixed; top: 5vh; left: 40vw;"">
            <div style=""margin:0 auto; width: 20vw; top: 8vh; font-size: 2vw""> 
            <font color=""green""> Bonus : $0.5 </font>
            </div>
        </div>
    
            <div> Please press any button to continue to the next trial.</div>
        ","arrowright","ITI","","","","","","",""
"","","","","","html-keyboard-response","106","117594","0.0-6.10-1.10","61085399a8e88b607b3ffd58","65576f040411c2a4be0341a4","65576f55dd30b283419317e1","null","
        
        <div style=""text-align: center; position: fixed; top: 5vh; left: 40vw;"">
            <div style=""margin:0 auto; width: 20vw; top: 8vh; font-size: 2vw""> 
            <font color=""green""> Bonus : $0.5 </font>
            </div>
        </div>
    
        <img class=""stim"" src=./stimuli//pack_shapes_diff/cat_1/diff_3/ex_1_3_9.png></img>
    ","null","stimulus","","","","","","",""
"","","","","","html-keyboard-response","107","118600","0.0-6.10-2.10","61085399a8e88b607b3ffd58","65576f040411c2a4be0341a4","65576f55dd30b283419317e1","null","
        <div style=""text-align: center; position: fixed; top: 5vh; left: 40vw;"">
            <div style=""margin:0 auto; width: 20vw; top: 8vh; font-size: 2vw""> 
            <font color=""green""> Bonus : $0.5 </font>
            </div>
        </div>
    ","null","","","","","","","",""
"","","","","","html-keyboard-response","108","118874","0.0-6.10-3.10","61085399a8e88b607b3ffd58","65576f040411c2a4be0341a4","65576f55dd30b283419317e1","273","./stimuli//pack_shapes_diff/cat_1/diff_3/ex_1_3_9.png","arrowleft","response","ArrowLeft","9","1","3","test","true",""
"","","","","","html-keyboard-response","109","120381","0.0-6.10-4.10","61085399a8e88b607b3ffd58","65576f040411c2a4be0341a4","65576f55dd30b283419317e1","null","<p> <font color=""green"" size=""5vw""> Correct category! </font> <br> <br> <font color=""green"" size=""8vw""> + $0.05 </font> </p>","null","feedback","","","","","","","0.55"
"","","","","","html-keyboard-response","110","120651","0.0-6.11-0.11","61085399a8e88b607b3ffd58","65576f040411c2a4be0341a4","65576f55dd30b283419317e1","268","
            
        <div style=""text-align: center; position: fixed; top: 5vh; left: 40vw;"">
            <div style=""margin:0 auto; width: 20vw; top: 8vh; font-size: 2vw""> 
            <font color=""green""> Bonus : $0.55 </font>
            </div>
        </div>
    
            <div> Please press any button to continue to the next trial.</div>
        ","arrowright","ITI","","","","","","",""
"","","","","","html-keyboard-response","111","121253","0.0-6.11-1.11","61085399a8e88b607b3ffd58","65576f040411c2a4be0341a4","65576f55dd30b283419317e1","null","
        
        <div style=""text-align: center; position: fixed; top: 5vh; left: 40vw;"">
            <div style=""margin:0 auto; width: 20vw; top: 8vh; font-size: 2vw""> 
            <font color=""green""> Bonus : $0.55 </font>
            </div>
        </div>
    
        <img class=""stim"" src=./stimuli//pack_shapes_diff/cat_2/diff_3/ex_2_3_7.png></img>
    ","null","stimulus","","","","","","",""
"","","","","","html-keyboard-response","112","122256","0.0-6.11-2.11","61085399a8e88b607b3ffd58","65576f040411c2a4be0341a4","65576f55dd30b283419317e1","null","
        <div style=""text-align: center; position: fixed; top: 5vh; left: 40vw;"">
            <div style=""margin:0 auto; width: 20vw; top: 8vh; font-size: 2vw""> 
            <font color=""green""> Bonus : $0.55 </font>
            </div>
        </div>
    ","null","","","","","","","",""
"","","","","","html-keyboard-response","113","122487","0.0-6.11-3.11","61085399a8e88b607b3ffd58","65576f040411c2a4be0341a4","65576f55dd30b283419317e1","230","./stimuli//pack_shapes_diff/cat_2/diff_3/ex_2_3_7.png","arrowright","response","ArrowRight","7","2","3","test","true",""
"","","","","","html-keyboard-response","114","123994","0.0-6.11-4.11","61085399a8e88b607b3ffd58","65576f040411c2a4be0341a4","65576f55dd30b283419317e1","null","<p> <font color=""green"" size=""5vw""> Correct category! </font> <br> <br> <font color=""green"" size=""8vw""> + $0.05 </font> </p>","null","feedback","","","","","","","0.6"
"","","","","","html-keyboard-response","115","124268","0.0-6.12-0.12","61085399a8e88b607b3ffd58","65576f040411c2a4be0341a4","65576f55dd30b283419317e1","273","
            
        <div style=""text-align: center; position: fixed; top: 5vh; left: 40vw;"">
            <div style=""margin:0 auto; width: 20vw; top: 8vh; font-size: 2vw""> 
            <font color=""green""> Bonus : $0.6 </font>
            </div>
        </div>
    
            <div> Please press any button to continue to the next trial.</div>
        ","arrowright","ITI","","","","","","",""
"","","","","","html-keyboard-response","116","124872","0.0-6.12-1.12","61085399a8e88b607b3ffd58","65576f040411c2a4be0341a4","65576f55dd30b283419317e1","null","
        
        <div style=""text-align: center; position: fixed; top: 5vh; left: 40vw;"">
            <div style=""margin:0 auto; width: 20vw; top: 8vh; font-size: 2vw""> 
            <font color=""green""> Bonus : $0.6 </font>
            </div>
        </div>
    
        <img class=""stim"" src=./stimuli//pack_shapes_diff/cat_2/diff_3/ex_2_3_5.png></img>
    ","null","stimulus","","","","","","",""
"","","","","","html-keyboard-response","117","125879","0.0-6.12-2.12","61085399a8e88b607b3ffd58","65576f040411c2a4be0341a4","65576f55dd30b283419317e1","null","
        <div style=""text-align: center; position: fixed; top: 5vh; left: 40vw;"">
            <div style=""margin:0 auto; width: 20vw; top: 8vh; font-size: 2vw""> 
            <font color=""green""> Bonus : $0.6 </font>
            </div>
        </div>
    ","null","","","","","","","",""
"","","","","","html-keyboard-response","118","126117","0.0-6.12-3.12","61085399a8e88b607b3ffd58","65576f040411c2a4be0341a4","65576f55dd30b283419317e1","236","./stimuli//pack_shapes_diff/cat_2/diff_3/ex_2_3_5.png","arrowright","response","ArrowRight","5","2","3","test","true",""
"","","","","","html-keyboard-response","119","127623","0.0-6.12-4.12","61085399a8e88b607b3ffd58","65576f040411c2a4be0341a4","65576f55dd30b283419317e1","null","<p> <font color=""green"" size=""5vw""> Correct category! </font> <br> <br> <font color=""green"" size=""8vw""> + $0.05 </font> </p>","null","feedback","","","","","","","0.65"
"","","","","","html-keyboard-response","120","128089","0.0-6.13-0.13","61085399a8e88b607b3ffd58","65576f040411c2a4be0341a4","65576f55dd30b283419317e1","464","
            
        <div style=""text-align: center; position: fixed; top: 5vh; left: 40vw;"">
            <div style=""margin:0 auto; width: 20vw; top: 8vh; font-size: 2vw""> 
            <font color=""green""> Bonus : $0.65 </font>
            </div>
        </div>
    
            <div> Please press any button to continue to the next trial.</div>
        ","arrowright","ITI","","","","","","",""
"","","","","","html-keyboard-response","121","128692","0.0-6.13-1.13","61085399a8e88b607b3ffd58","65576f040411c2a4be0341a4","65576f55dd30b283419317e1","null","
        
        <div style=""text-align: center; position: fixed; top: 5vh; left: 40vw;"">
            <div style=""margin:0 auto; width: 20vw; top: 8vh; font-size: 2vw""> 
            <font color=""green""> Bonus : $0.65 </font>
            </div>
        </div>
    
        <img class=""stim"" src=./stimuli//pack_shapes_diff/cat_1/diff_3/ex_1_3_17.png></img>
    ","null","stimulus","","","","","","",""
"","","","","","html-keyboard-response","122","129697","0.0-6.13-2.13","61085399a8e88b607b3ffd58","65576f040411c2a4be0341a4","65576f55dd30b283419317e1","null","
        <div style=""text-align: center; position: fixed; top: 5vh; left: 40vw;"">
            <div style=""margin:0 auto; width: 20vw; top: 8vh; font-size: 2vw""> 
            <font color=""green""> Bonus : $0.65 </font>
            </div>
        </div>
    ","null","","","","","","","",""
"","","","","","html-keyboard-response","123","130032","0.0-6.13-3.13","61085399a8e88b607b3ffd58","65576f040411c2a4be0341a4","65576f55dd30b283419317e1","333","./stimuli//pack_shapes_diff/cat_1/diff_3/ex_1_3_17.png","arrowright","response","ArrowLeft","17","1","3","test","false",""
"","","","","","html-keyboard-response","124","131539","0.0-6.13-4.13","61085399a8e88b607b3ffd58","65576f040411c2a4be0341a4","65576f55dd30b283419317e1","null","<p> <font color=""red"" size=""5vw""> Wrong category! </font> </p>","null","feedback","","","","","","","0.65"
"","","","","","html-keyboard-response","125","132337","0.0-6.14-0.14","61085399a8e88b607b3ffd58","65576f040411c2a4be0341a4","65576f55dd30b283419317e1","798","
            
        <div style=""text-align: center; position: fixed; top: 5vh; left: 40vw;"">
            <div style=""margin:0 auto; width: 20vw; top: 8vh; font-size: 2vw""> 
            <font color=""green""> Bonus : $0.65 </font>
            </div>
        </div>
    
            <div> Please press any button to continue to the next trial.</div>
        ","arrowright","ITI","","","","","","",""
"","","","","","html-keyboard-response","126","132942","0.0-6.14-1.14","61085399a8e88b607b3ffd58","65576f040411c2a4be0341a4","65576f55dd30b283419317e1","null","
        
        <div style=""text-align: center; position: fixed; top: 5vh; left: 40vw;"">
            <div style=""margin:0 auto; width: 20vw; top: 8vh; font-size: 2vw""> 
            <font color=""green""> Bonus : $0.65 </font>
            </div>
        </div>
    
        <img class=""stim"" src=./stimuli//pack_shapes_diff/cat_1/diff_3/ex_1_3_13.png></img>
    ","null","stimulus","","","","","","",""
"","","","","","html-keyboard-response","127","133949","0.0-6.14-2.14","61085399a8e88b607b3ffd58","65576f040411c2a4be0341a4","65576f55dd30b283419317e1","null","
        <div style=""text-align: center; position: fixed; top: 5vh; left: 40vw;"">
            <div style=""margin:0 auto; width: 20vw; top: 8vh; font-size: 2vw""> 
            <font color=""green""> Bonus : $0.65 </font>
            </div>
        </div>
    ","null","","","","","","","",""
"","","","","","html-keyboard-response","128","135131","0.0-6.14-3.14","61085399a8e88b607b3ffd58","65576f040411c2a4be0341a4","65576f55dd30b283419317e1","1180","./stimuli//pack_shapes_diff/cat_1/diff_3/ex_1_3_13.png","arrowright","response","ArrowLeft","13","1","3","test","false",""
"","","","","","html-keyboard-response","129","136633","0.0-6.14-4.14","61085399a8e88b607b3ffd58","65576f040411c2a4be0341a4","65576f55dd30b283419317e1","null","<p> <font color=""red"" size=""5vw""> Wrong category! </font> </p>","null","feedback","","","","","","","0.65"
"","","","","","html-keyboard-response","130","136893","0.0-6.15-0.15","61085399a8e88b607b3ffd58","65576f040411c2a4be0341a4","65576f55dd30b283419317e1","259","
            
        <div style=""text-align: center; position: fixed; top: 5vh; left: 40vw;"">
            <div style=""margin:0 auto; width: 20vw; top: 8vh; font-size: 2vw""> 
            <font color=""green""> Bonus : $0.65 </font>
            </div>
        </div>
    
            <div> Please press any button to continue to the next trial.</div>
        ","arrowright","ITI","","","","","","",""
"","","","","","html-keyboard-response","131","137497","0.0-6.15-1.15","61085399a8e88b607b3ffd58","65576f040411c2a4be0341a4","65576f55dd30b283419317e1","null","
        
        <div style=""text-align: center; position: fixed; top: 5vh; left: 40vw;"">
            <div style=""margin:0 auto; width: 20vw; top: 8vh; font-size: 2vw""> 
            <font color=""green""> Bonus : $0.65 </font>
            </div>
        </div>
    
        <img class=""stim"" src=./stimuli//pack_shapes_diff/cat_1/diff_2/ex_1_2_14.png></img>
    ","null","stimulus","","","","","","",""
"","","","","","html-keyboard-response","132","138503","0.0-6.15-2.15","61085399a8e88b607b3ffd58","65576f040411c2a4be0341a4","65576f55dd30b283419317e1","null","
        <div style=""text-align: center; position: fixed; top: 5vh; left: 40vw;"">
            <div style=""margin:0 auto; width: 20vw; top: 8vh; font-size: 2vw""> 
            <font color=""green""> Bonus : $0.65 </font>
            </div>
        </div>
    ","null","","","","","","","",""
"","","","","","html-keyboard-response","133","138786","0.0-6.15-3.15","61085399a8e88b607b3ffd58","65576f040411c2a4be0341a4","65576f55dd30b283419317e1","282","./stimuli//pack_shapes_diff/cat_1/diff_2/ex_1_2_14.png","arrowleft","response","ArrowLeft","14","1","2","test","true",""
"","","","","","html-keyboard-response","134","140292","0.0-6.15-4.15","61085399a8e88b607b3ffd58","65576f040411c2a4be0341a4","65576f55dd30b283419317e1","null","<p> <font color=""green"" size=""5vw""> Correct category! </font> <br> <br> <font color=""green"" size=""8vw""> + $0.05 </font> </p>","null","feedback","","","","","","","0.7"
"","","","","","html-keyboard-response","135","140683","0.0-6.16-0.16","61085399a8e88b607b3ffd58","65576f040411c2a4be0341a4","65576f55dd30b283419317e1","390","
            
        <div style=""text-align: center; position: fixed; top: 5vh; left: 40vw;"">
            <div style=""margin:0 auto; width: 20vw; top: 8vh; font-size: 2vw""> 
            <font color=""green""> Bonus : $0.7 </font>
            </div>
        </div>
    
            <div> Please press any button to continue to the next trial.</div>
        ","arrowright","ITI","","","","","","",""
"","","","","","html-keyboard-response","136","141287","0.0-6.16-1.16","61085399a8e88b607b3ffd58","65576f040411c2a4be0341a4","65576f55dd30b283419317e1","null","
        
        <div style=""text-align: center; position: fixed; top: 5vh; left: 40vw;"">
            <div style=""margin:0 auto; width: 20vw; top: 8vh; font-size: 2vw""> 
            <font color=""green""> Bonus : $0.7 </font>
            </div>
        </div>
    
        <img class=""stim"" src=./stimuli//pack_shapes_diff/cat_2/diff_2/ex_2_2_3.png></img>
    ","null","stimulus","","","","","","",""
"","","","","","html-keyboard-response","137","142294","0.0-6.16-2.16","61085399a8e88b607b3ffd58","65576f040411c2a4be0341a4","65576f55dd30b283419317e1","null","
        <div style=""text-align: center; position: fixed; top: 5vh; left: 40vw;"">
            <div style=""margin:0 auto; width: 20vw; top: 8vh; font-size: 2vw""> 
            <font color=""green""> Bonus : $0.7 </font>
            </div>
        </div>
    ","null","","","","","","","",""
"","","","","","html-keyboard-response","138","142525","0.0-6.16-3.16","61085399a8e88b607b3ffd58","65576f040411c2a4be0341a4","65576f55dd30b283419317e1","230","./stimuli//pack_shapes_diff/cat_2/diff_2/ex_2_2_3.png","arrowright","response","ArrowRight","3","2","2","test","true",""
"","","","","","html-keyboard-response","139","144032","0.0-6.16-4.16","61085399a8e88b607b3ffd58","65576f040411c2a4be0341a4","65576f55dd30b283419317e1","null","<p> <font color=""green"" size=""5vw""> Correct category! </font> <br> <br> <font color=""green"" size=""8vw""> + $0.05 </font> </p>","null","feedback","","","","","","","0.75"
"","","","","","html-keyboard-response","140","144336","0.0-6.17-0.17","61085399a8e88b607b3ffd58","65576f040411c2a4be0341a4","65576f55dd30b283419317e1","303","
            
        <div style=""text-align: center; position: fixed; top: 5vh; left: 40vw;"">
            <div style=""margin:0 auto; width: 20vw; top: 8vh; font-size: 2vw""> 
            <font color=""green""> Bonus : $0.75 </font>
            </div>
        </div>
    
            <div> Please press any button to continue to the next trial.</div>
        ","arrowright","ITI","","","","","","",""
"","","","","","html-keyboard-response","141","144938","0.0-6.17-1.17","61085399a8e88b607b3ffd58","65576f040411c2a4be0341a4","65576f55dd30b283419317e1","null","
        
        <div style=""text-align: center; position: fixed; top: 5vh; left: 40vw;"">
            <div style=""margin:0 auto; width: 20vw; top: 8vh; font-size: 2vw""> 
            <font color=""green""> Bonus : $0.75 </font>
            </div>
        </div>
    
        <img class=""stim"" src=./stimuli//pack_shapes_diff/cat_2/diff_2/ex_2_2_8.png></img>
    ","null","stimulus","","","","","","",""
"","","","","","html-keyboard-response","142","145945","0.0-6.17-2.17","61085399a8e88b607b3ffd58","65576f040411c2a4be0341a4","65576f55dd30b283419317e1","null","
        <div style=""text-align: center; position: fixed; top: 5vh; left: 40vw;"">
            <div style=""margin:0 auto; width: 20vw; top: 8vh; font-size: 2vw""> 
            <font color=""green""> Bonus : $0.75 </font>
            </div>
        </div>
    ","null","","","","","","","",""
"","","","","","html-keyboard-response","143","146214","0.0-6.17-3.17","61085399a8e88b607b3ffd58","65576f040411c2a4be0341a4","65576f55dd30b283419317e1","268","./stimuli//pack_shapes_diff/cat_2/diff_2/ex_2_2_8.png","arrowright","response","ArrowRight","8","2","2","test","true",""
"","","","","","html-keyboard-response","144","147721","0.0-6.17-4.17","61085399a8e88b607b3ffd58","65576f040411c2a4be0341a4","65576f55dd30b283419317e1","null","<p> <font color=""green"" size=""5vw""> Correct category! </font> <br> <br> <font color=""green"" size=""8vw""> + $0.05 </font> </p>","null","feedback","","","","","","","0.8"
"","","","","","html-keyboard-response","145","149438","0.0-6.18-0.18","61085399a8e88b607b3ffd58","65576f040411c2a4be0341a4","65576f55dd30b283419317e1","1717","
            
        <div style=""text-align: center; position: fixed; top: 5vh; left: 40vw;"">
            <div style=""margin:0 auto; width: 20vw; top: 8vh; font-size: 2vw""> 
            <font color=""green""> Bonus : $0.8 </font>
            </div>
        </div>
    
            <div> Please press any button to continue to the next trial.</div>
        ","arrowright","ITI","","","","","","",""
"","","","","","html-keyboard-response","146","150040","0.0-6.18-1.18","61085399a8e88b607b3ffd58","65576f040411c2a4be0341a4","65576f55dd30b283419317e1","null","
        
        <div style=""text-align: center; position: fixed; top: 5vh; left: 40vw;"">
            <div style=""margin:0 auto; width: 20vw; top: 8vh; font-size: 2vw""> 
            <font color=""green""> Bonus : $0.8 </font>
            </div>
        </div>
    
        <img class=""stim"" src=./stimuli//pack_shapes_diff/cat_2/diff_2/ex_2_2_2.png></img>
    ","null","stimulus","","","","","","",""
"","","","","","html-keyboard-response","147","151047","0.0-6.18-2.18","61085399a8e88b607b3ffd58","65576f040411c2a4be0341a4","65576f55dd30b283419317e1","null","
        <div style=""text-align: center; position: fixed; top: 5vh; left: 40vw;"">
            <div style=""margin:0 auto; width: 20vw; top: 8vh; font-size: 2vw""> 
            <font color=""green""> Bonus : $0.8 </font>
            </div>
        </div>
    ","null","","","","","","","",""
"","","","","","html-keyboard-response","148","151276","0.0-6.18-3.18","61085399a8e88b607b3ffd58","65576f040411c2a4be0341a4","65576f55dd30b283419317e1","229","./stimuli//pack_shapes_diff/cat_2/diff_2/ex_2_2_2.png","arrowright","response","ArrowRight","2","2","2","test","true",""
"","","","","","html-keyboard-response","149","152781","0.0-6.18-4.18","61085399a8e88b607b3ffd58","65576f040411c2a4be0341a4","65576f55dd30b283419317e1","null","<p> <font color=""green"" size=""5vw""> Correct category! </font> <br> <br> <font color=""green"" size=""8vw""> + $0.05 </font> </p>","null","feedback","","","","","","","0.85"
"","","","","","html-keyboard-response","150","153214","0.0-6.19-0.19","61085399a8e88b607b3ffd58","65576f040411c2a4be0341a4","65576f55dd30b283419317e1","431","
            
        <div style=""text-align: center; position: fixed; top: 5vh; left: 40vw;"">
            <div style=""margin:0 auto; width: 20vw; top: 8vh; font-size: 2vw""> 
            <font color=""green""> Bonus : $0.85 </font>
            </div>
        </div>
    
            <div> Please press any button to continue to the next trial.</div>
        ","arrowright","ITI","","","","","","",""
"","","","","","html-keyboard-response","151","153817","0.0-6.19-1.19","61085399a8e88b607b3ffd58","65576f040411c2a4be0341a4","65576f55dd30b283419317e1","null","
        
        <div style=""text-align: center; position: fixed; top: 5vh; left: 40vw;"">
            <div style=""margin:0 auto; width: 20vw; top: 8vh; font-size: 2vw""> 
            <font color=""green""> Bonus : $0.85 </font>
            </div>
        </div>
    
        <img class=""stim"" src=./stimuli//pack_shapes_diff/cat_1/diff_2/ex_1_2_6.png></img>
    ","null","stimulus","","","","","","",""
"","","","","","html-keyboard-response","152","154820","0.0-6.19-2.19","61085399a8e88b607b3ffd58","65576f040411c2a4be0341a4","65576f55dd30b283419317e1","null","
        <div style=""text-align: center; position: fixed; top: 5vh; left: 40vw;"">
            <div style=""margin:0 auto; width: 20vw; top: 8vh; font-size: 2vw""> 
            <font color=""green""> Bonus : $0.85 </font>
            </div>
        </div>
    ","null","","","","","","","",""
"","","","","","html-keyboard-response","153","156174","0.0-6.19-3.19","61085399a8e88b607b3ffd58","65576f040411c2a4be0341a4","65576f55dd30b283419317e1","1353","./stimuli//pack_shapes_diff/cat_1/diff_2/ex_1_2_6.png","arrowright","response","ArrowLeft","6","1","2","test","false",""
"","","","","","html-keyboard-response","154","157681","0.0-6.19-4.19","61085399a8e88b607b3ffd58","65576f040411c2a4be0341a4","65576f55dd30b283419317e1","null","<p> <font color=""red"" size=""5vw""> Wrong category! </font> </p>","null","feedback","","","","","","","0.85"
"","","","","","html-keyboard-response","155","157988","0.0-6.20-0.20","61085399a8e88b607b3ffd58","65576f040411c2a4be0341a4","65576f55dd30b283419317e1","306","
            
        <div style=""text-align: center; position: fixed; top: 5vh; left: 40vw;"">
            <div style=""margin:0 auto; width: 20vw; top: 8vh; font-size: 2vw""> 
            <font color=""green""> Bonus : $0.85 </font>
            </div>
        </div>
    
            <div> Please press any button to continue to the next trial.</div>
        ","arrowright","ITI","","","","","","",""
"","","","","","html-keyboard-response","156","158595","0.0-6.20-1.20","61085399a8e88b607b3ffd58","65576f040411c2a4be0341a4","65576f55dd30b283419317e1","null","
        
        <div style=""text-align: center; position: fixed; top: 5vh; left: 40vw;"">
            <div style=""margin:0 auto; width: 20vw; top: 8vh; font-size: 2vw""> 
            <font color=""green""> Bonus : $0.85 </font>
            </div>
        </div>
    
        <img class=""stim"" src=./stimuli//pack_shapes_diff/cat_1/diff_3/ex_1_3_9.png></img>
    ","null","stimulus","","","","","","",""
"","","","","","html-keyboard-response","157","159602","0.0-6.20-2.20","61085399a8e88b607b3ffd58","65576f040411c2a4be0341a4","65576f55dd30b283419317e1","null","
        <div style=""text-align: center; position: fixed; top: 5vh; left: 40vw;"">
            <div style=""margin:0 auto; width: 20vw; top: 8vh; font-size: 2vw""> 
            <font color=""green""> Bonus : $0.85 </font>
            </div>
        </div>
    ","null","","","","","","","",""
"","","","","","html-keyboard-response","158","160521","0.0-6.20-3.20","61085399a8e88b607b3ffd58","65576f040411c2a4be0341a4","65576f55dd30b283419317e1","918","./stimuli//pack_shapes_diff/cat_1/diff_3/ex_1_3_9.png","arrowleft","response","ArrowLeft","9","1","3","test","true",""
"","","","","","html-keyboard-response","159","162028","0.0-6.20-4.20","61085399a8e88b607b3ffd58","65576f040411c2a4be0341a4","65576f55dd30b283419317e1","null","<p> <font color=""green"" size=""5vw""> Correct category! </font> <br> <br> <font color=""green"" size=""8vw""> + $0.05 </font> </p>","null","feedback","","","","","","","0.9"
"","","","","","html-keyboard-response","160","162303","0.0-6.21-0.21","61085399a8e88b607b3ffd58","65576f040411c2a4be0341a4","65576f55dd30b283419317e1","274","
            
        <div style=""text-align: center; position: fixed; top: 5vh; left: 40vw;"">
            <div style=""margin:0 auto; width: 20vw; top: 8vh; font-size: 2vw""> 
            <font color=""green""> Bonus : $0.9 </font>
            </div>
        </div>
    
            <div> Please press any button to continue to the next trial.</div>
        ","arrowright","ITI","","","","","","",""
"","","","","","html-keyboard-response","161","162905","0.0-6.21-1.21","61085399a8e88b607b3ffd58","65576f040411c2a4be0341a4","65576f55dd30b283419317e1","null","
        
        <div style=""text-align: center; position: fixed; top: 5vh; left: 40vw;"">
            <div style=""margin:0 auto; width: 20vw; top: 8vh; font-size: 2vw""> 
            <font color=""green""> Bonus : $0.9 </font>
            </div>
        </div>
    
        <img class=""stim"" src=./stimuli//pack_shapes_diff/cat_1/diff_3/ex_1_3_2.png></img>
    ","null","stimulus","","","","","","",""
"","","","","","html-keyboard-response","162","163909","0.0-6.21-2.21","61085399a8e88b607b3ffd58","65576f040411c2a4be0341a4","65576f55dd30b283419317e1","null","
        <div style=""text-align: center; position: fixed; top: 5vh; left: 40vw;"">
            <div style=""margin:0 auto; width: 20vw; top: 8vh; font-size: 2vw""> 
            <font color=""green""> Bonus : $0.9 </font>
            </div>
        </div>
    ","null","","","","","","","",""
"","","","","","html-keyboard-response","163","164878","0.0-6.21-3.21","61085399a8e88b607b3ffd58","65576f040411c2a4be0341a4","65576f55dd30b283419317e1","967","./stimuli//pack_shapes_diff/cat_1/diff_3/ex_1_3_2.png","arrowleft","response","ArrowLeft","2","1","3","test","true",""
"","","","","","html-keyboard-response","164","166384","0.0-6.21-4.21","61085399a8e88b607b3ffd58","65576f040411c2a4be0341a4","65576f55dd30b283419317e1","null","<p> <font color=""green"" size=""5vw""> Correct category! </font> <br> <br> <font color=""green"" size=""8vw""> + $0.05 </font> </p>","null","feedback","","","","","","","0.95"
"","","","","","html-keyboard-response","165","166626","0.0-6.22-0.22","61085399a8e88b607b3ffd58","65576f040411c2a4be0341a4","65576f55dd30b283419317e1","241","
            
        <div style=""text-align: center; position: fixed; top: 5vh; left: 40vw;"">
            <div style=""margin:0 auto; width: 20vw; top: 8vh; font-size: 2vw""> 
            <font color=""green""> Bonus : $0.95 </font>
            </div>
        </div>
    
            <div> Please press any button to continue to the next trial.</div>
        ","arrowright","ITI","","","","","","",""
"","","","","","html-keyboard-response","166","167234","0.0-6.22-1.22","61085399a8e88b607b3ffd58","65576f040411c2a4be0341a4","65576f55dd30b283419317e1","null","
        
        <div style=""text-align: center; position: fixed; top: 5vh; left: 40vw;"">
            <div style=""margin:0 auto; width: 20vw; top: 8vh; font-size: 2vw""> 
            <font color=""green""> Bonus : $0.95 </font>
            </div>
        </div>
    
        <img class=""stim"" src=./stimuli//pack_shapes_diff/cat_2/diff_3/ex_2_3_7.png></img>
    ","null","stimulus","","","","","","",""
"","","","","","html-keyboard-response","167","168240","0.0-6.22-2.22","61085399a8e88b607b3ffd58","65576f040411c2a4be0341a4","65576f55dd30b283419317e1","null","
        <div style=""text-align: center; position: fixed; top: 5vh; left: 40vw;"">
            <div style=""margin:0 auto; width: 20vw; top: 8vh; font-size: 2vw""> 
            <font color=""green""> Bonus : $0.95 </font>
            </div>
        </div>
    ","null","","","","","","","",""
"","","","","","html-keyboard-response","168","168497","0.0-6.22-3.22","61085399a8e88b607b3ffd58","65576f040411c2a4be0341a4","65576f55dd30b283419317e1","255","./stimuli//pack_shapes_diff/cat_2/diff_3/ex_2_3_7.png","arrowright","response","ArrowRight","7","2","3","test","true",""
"","","","","","html-keyboard-response","169","170002","0.0-6.22-4.22","61085399a8e88b607b3ffd58","65576f040411c2a4be0341a4","65576f55dd30b283419317e1","null","<p> <font color=""green"" size=""5vw""> Correct category! </font> <br> <br> <font color=""green"" size=""8vw""> + $0.05 </font> </p>","null","feedback","","","","","","","1"
"","","","","","html-keyboard-response","170","170492","0.0-6.23-0.23","61085399a8e88b607b3ffd58","65576f040411c2a4be0341a4","65576f55dd30b283419317e1","488","
            
        <div style=""text-align: center; position: fixed; top: 5vh; left: 40vw;"">
            <div style=""margin:0 auto; width: 20vw; top: 8vh; font-size: 2vw""> 
            <font color=""green""> Bonus : $1 </font>
            </div>
        </div>
    
            <div> Please press any button to continue to the next trial.</div>
        ","arrowright","ITI","","","","","","",""
"","","","","","html-keyboard-response","171","171095","0.0-6.23-1.23","61085399a8e88b607b3ffd58","65576f040411c2a4be0341a4","65576f55dd30b283419317e1","null","
        
        <div style=""text-align: center; position: fixed; top: 5vh; left: 40vw;"">
            <div style=""margin:0 auto; width: 20vw; top: 8vh; font-size: 2vw""> 
            <font color=""green""> Bonus : $1 </font>
            </div>
        </div>
    
        <img class=""stim"" src=./stimuli//pack_shapes_diff/cat_1/diff_3/ex_1_3_10.png></img>
    ","null","stimulus","","","","","","",""
"","","","","","html-keyboard-response","172","172102","0.0-6.23-2.23","61085399a8e88b607b3ffd58","65576f040411c2a4be0341a4","65576f55dd30b283419317e1","null","
        <div style=""text-align: center; position: fixed; top: 5vh; left: 40vw;"">
            <div style=""margin:0 auto; width: 20vw; top: 8vh; font-size: 2vw""> 
            <font color=""green""> Bonus : $1 </font>
            </div>
        </div>
    ","null","","","","","","","",""
"","","","","","html-keyboard-response","173","173685","0.0-6.23-3.23","61085399a8e88b607b3ffd58","65576f040411c2a4be0341a4","65576f55dd30b283419317e1","1581","./stimuli//pack_shapes_diff/cat_1/diff_3/ex_1_3_10.png","arrowleft","response","ArrowLeft","10","1","3","test","true",""
"","","","","","html-keyboard-response","174","175188","0.0-6.23-4.23","61085399a8e88b607b3ffd58","65576f040411c2a4be0341a4","65576f55dd30b283419317e1","null","<p> <font color=""green"" size=""5vw""> Correct category! </font> <br> <br> <font color=""green"" size=""8vw""> + $0.05 </font> </p>","null","feedback","","","","","","","1.05"
"","","","","","html-keyboard-response","175","175438","0.0-6.24-0.24","61085399a8e88b607b3ffd58","65576f040411c2a4be0341a4","65576f55dd30b283419317e1","249","
            
        <div style=""text-align: center; position: fixed; top: 5vh; left: 40vw;"">
            <div style=""margin:0 auto; width: 20vw; top: 8vh; font-size: 2vw""> 
            <font color=""green""> Bonus : $1.05 </font>
            </div>
        </div>
    
            <div> Please press any button to continue to the next trial.</div>
        ","arrowright","ITI","","","","","","",""
"","","","","","html-keyboard-response","176","176045","0.0-6.24-1.24","61085399a8e88b607b3ffd58","65576f040411c2a4be0341a4","65576f55dd30b283419317e1","null","
        
        <div style=""text-align: center; position: fixed; top: 5vh; left: 40vw;"">
            <div style=""margin:0 auto; width: 20vw; top: 8vh; font-size: 2vw""> 
            <font color=""green""> Bonus : $1.05 </font>
            </div>
        </div>
    
        <img class=""stim"" src=./stimuli//pack_shapes_diff/cat_1/diff_3/ex_1_3_9.png></img>
    ","null","stimulus","","","","","","",""
"","","","","","html-keyboard-response","177","177052","0.0-6.24-2.24","61085399a8e88b607b3ffd58","65576f040411c2a4be0341a4","65576f55dd30b283419317e1","null","
        <div style=""text-align: center; position: fixed; top: 5vh; left: 40vw;"">
            <div style=""margin:0 auto; width: 20vw; top: 8vh; font-size: 2vw""> 
            <font color=""green""> Bonus : $1.05 </font>
            </div>
        </div>
    ","null","","","","","","","",""
"","","","","","html-keyboard-response","178","177586","0.0-6.24-3.24","61085399a8e88b607b3ffd58","65576f040411c2a4be0341a4","65576f55dd30b283419317e1","532","./stimuli//pack_shapes_diff/cat_1/diff_3/ex_1_3_9.png","arrowleft","response","ArrowLeft","9","1","3","test","true",""
"","","","","","html-keyboard-response","179","179092","0.0-6.24-4.24","61085399a8e88b607b3ffd58","65576f040411c2a4be0341a4","65576f55dd30b283419317e1","null","<p> <font color=""green"" size=""5vw""> Correct category! </font> <br> <br> <font color=""green"" size=""8vw""> + $0.05 </font> </p>","null","feedback","","","","","","","1.1"
"","","","","","html-keyboard-response","180","179338","0.0-6.25-0.25","61085399a8e88b607b3ffd58","65576f040411c2a4be0341a4","65576f55dd30b283419317e1","245","
            
        <div style=""text-align: center; position: fixed; top: 5vh; left: 40vw;"">
            <div style=""margin:0 auto; width: 20vw; top: 8vh; font-size: 2vw""> 
            <font color=""green""> Bonus : $1.1 </font>
            </div>
        </div>
    
            <div> Please press any button to continue to the next trial.</div>
        ","arrowright","ITI","","","","","","",""
"","","","","","html-keyboard-response","181","179942","0.0-6.25-1.25","61085399a8e88b607b3ffd58","65576f040411c2a4be0341a4","65576f55dd30b283419317e1","null","
        
        <div style=""text-align: center; position: fixed; top: 5vh; left: 40vw;"">
            <div style=""margin:0 auto; width: 20vw; top: 8vh; font-size: 2vw""> 
            <font color=""green""> Bonus : $1.1 </font>
            </div>
        </div>
    
        <img class=""stim"" src=./stimuli//pack_shapes_diff/cat_1/diff_4/ex_1_4_5.png></img>
    ","null","stimulus","","","","","","",""
"","","","","","html-keyboard-response","182","180949","0.0-6.25-2.25","61085399a8e88b607b3ffd58","65576f040411c2a4be0341a4","65576f55dd30b283419317e1","null","
        <div style=""text-align: center; position: fixed; top: 5vh; left: 40vw;"">
            <div style=""margin:0 auto; width: 20vw; top: 8vh; font-size: 2vw""> 
            <font color=""green""> Bonus : $1.1 </font>
            </div>
        </div>
    ","null","","","","","","","",""
"","","","","","html-keyboard-response","183","182105","0.0-6.25-3.25","61085399a8e88b607b3ffd58","65576f040411c2a4be0341a4","65576f55dd30b283419317e1","1154","./stimuli//pack_shapes_diff/cat_1/diff_4/ex_1_4_5.png","arrowright","response","ArrowLeft","5","1","4","test","false",""
"","","","","","html-keyboard-response","184","183611","0.0-6.25-4.25","61085399a8e88b607b3ffd58","65576f040411c2a4be0341a4","65576f55dd30b283419317e1","null","<p> <font color=""red"" size=""5vw""> Wrong category! </font> </p>","null","feedback","","","","","","","1.1"
"","","","","","html-keyboard-response","185","183884","0.0-6.26-0.26","61085399a8e88b607b3ffd58","65576f040411c2a4be0341a4","65576f55dd30b283419317e1","272","
            
        <div style=""text-align: center; position: fixed; top: 5vh; left: 40vw;"">
            <div style=""margin:0 auto; width: 20vw; top: 8vh; font-size: 2vw""> 
            <font color=""green""> Bonus : $1.1 </font>
            </div>
        </div>
    
            <div> Please press any button to continue to the next trial.</div>
        ","arrowright","ITI","","","","","","",""
"","","","","","html-keyboard-response","186","184487","0.0-6.26-1.26","61085399a8e88b607b3ffd58","65576f040411c2a4be0341a4","65576f55dd30b283419317e1","null","
        
        <div style=""text-align: center; position: fixed; top: 5vh; left: 40vw;"">
            <div style=""margin:0 auto; width: 20vw; top: 8vh; font-size: 2vw""> 
            <font color=""green""> Bonus : $1.1 </font>
            </div>
        </div>
    
        <img class=""stim"" src=./stimuli//pack_shapes_diff/cat_1/diff_4/ex_1_4_14.png></img>
    ","null","stimulus","","","","","","",""
"","","","","","html-keyboard-response","187","185494","0.0-6.26-2.26","61085399a8e88b607b3ffd58","65576f040411c2a4be0341a4","65576f55dd30b283419317e1","null","
        <div style=""text-align: center; position: fixed; top: 5vh; left: 40vw;"">
            <div style=""margin:0 auto; width: 20vw; top: 8vh; font-size: 2vw""> 
            <font color=""green""> Bonus : $1.1 </font>
            </div>
        </div>
    ","null","","","","","","","",""
"","","","","","html-keyboard-response","188","186247","0.0-6.26-3.26","61085399a8e88b607b3ffd58","65576f040411c2a4be0341a4","65576f55dd30b283419317e1","752","./stimuli//pack_shapes_diff/cat_1/diff_4/ex_1_4_14.png","arrowright","response","ArrowLeft","14","1","4","test","false",""
"","","","","","html-keyboard-response","189","187754","0.0-6.26-4.26","61085399a8e88b607b3ffd58","65576f040411c2a4be0341a4","65576f55dd30b283419317e1","null","<p> <font color=""red"" size=""5vw""> Wrong category! </font> </p>","null","feedback","","","","","","","1.1"
"","","","","","html-keyboard-response","190","188009","0.0-6.27-0.27","61085399a8e88b607b3ffd58","65576f040411c2a4be0341a4","65576f55dd30b283419317e1","255","
            
        <div style=""text-align: center; position: fixed; top: 5vh; left: 40vw;"">
            <div style=""margin:0 auto; width: 20vw; top: 8vh; font-size: 2vw""> 
            <font color=""green""> Bonus : $1.1 </font>
            </div>
        </div>
    
            <div> Please press any button to continue to the next trial.</div>
        ","arrowright","ITI","","","","","","",""
"","","","","","html-keyboard-response","191","188615","0.0-6.27-1.27","61085399a8e88b607b3ffd58","65576f040411c2a4be0341a4","65576f55dd30b283419317e1","null","
        
        <div style=""text-align: center; position: fixed; top: 5vh; left: 40vw;"">
            <div style=""margin:0 auto; width: 20vw; top: 8vh; font-size: 2vw""> 
            <font color=""green""> Bonus : $1.1 </font>
            </div>
        </div>
    
        <img class=""stim"" src=./stimuli//pack_shapes_diff/cat_1/diff_4/ex_1_4_16.png></img>
    ","null","stimulus","","","","","","",""
"","","","","","html-keyboard-response","192","189622","0.0-6.27-2.27","61085399a8e88b607b3ffd58","65576f040411c2a4be0341a4","65576f55dd30b283419317e1","null","
        <div style=""text-align: center; position: fixed; top: 5vh; left: 40vw;"">
            <div style=""margin:0 auto; width: 20vw; top: 8vh; font-size: 2vw""> 
            <font color=""green""> Bonus : $1.1 </font>
            </div>
        </div>
    ","null","","","","","","","",""
"","","","","","html-keyboard-response","193","190225","0.0-6.27-3.27","61085399a8e88b607b3ffd58","65576f040411c2a4be0341a4","65576f55dd30b283419317e1","602","./stimuli//pack_shapes_diff/cat_1/diff_4/ex_1_4_16.png","arrowright","response","ArrowLeft","16","1","4","test","false",""
"","","","","","html-keyboard-response","194","191731","0.0-6.27-4.27","61085399a8e88b607b3ffd58","65576f040411c2a4be0341a4","65576f55dd30b283419317e1","null","<p> <font color=""red"" size=""5vw""> Wrong category! </font> </p>","null","feedback","","","","","","","1.1"
"","","","","","html-keyboard-response","195","192061","0.0-6.28-0.28","61085399a8e88b607b3ffd58","65576f040411c2a4be0341a4","65576f55dd30b283419317e1","328","
            
        <div style=""text-align: center; position: fixed; top: 5vh; left: 40vw;"">
            <div style=""margin:0 auto; width: 20vw; top: 8vh; font-size: 2vw""> 
            <font color=""green""> Bonus : $1.1 </font>
            </div>
        </div>
    
            <div> Please press any button to continue to the next trial.</div>
        ","arrowright","ITI","","","","","","",""
"","","","","","html-keyboard-response","196","192664","0.0-6.28-1.28","61085399a8e88b607b3ffd58","65576f040411c2a4be0341a4","65576f55dd30b283419317e1","null","
        
        <div style=""text-align: center; position: fixed; top: 5vh; left: 40vw;"">
            <div style=""margin:0 auto; width: 20vw; top: 8vh; font-size: 2vw""> 
            <font color=""green""> Bonus : $1.1 </font>
            </div>
        </div>
    
        <img class=""stim"" src=./stimuli//pack_shapes_diff/cat_1/diff_4/ex_1_4_2.png></img>
    ","null","stimulus","","","","","","",""
"","","","","","html-keyboard-response","197","193670","0.0-6.28-2.28","61085399a8e88b607b3ffd58","65576f040411c2a4be0341a4","65576f55dd30b283419317e1","null","
        <div style=""text-align: center; position: fixed; top: 5vh; left: 40vw;"">
            <div style=""margin:0 auto; width: 20vw; top: 8vh; font-size: 2vw""> 
            <font color=""green""> Bonus : $1.1 </font>
            </div>
        </div>
    ","null","","","","","","","",""
"","","","","","html-keyboard-response","198","193925","0.0-6.28-3.28","61085399a8e88b607b3ffd58","65576f040411c2a4be0341a4","65576f55dd30b283419317e1","253","./stimuli//pack_shapes_diff/cat_1/diff_4/ex_1_4_2.png","arrowleft","response","ArrowLeft","2","1","4","test","true",""
"","","","","","html-keyboard-response","199","195428","0.0-6.28-4.28","61085399a8e88b607b3ffd58","65576f040411c2a4be0341a4","65576f55dd30b283419317e1","null","<p> <font color=""green"" size=""5vw""> Correct category! </font> <br> <br> <font color=""green"" size=""8vw""> + $0.05 </font> </p>","null","feedback","","","","","","","1.15"
"","","","","","html-keyboard-response","200","195786","0.0-6.29-0.29","61085399a8e88b607b3ffd58","65576f040411c2a4be0341a4","65576f55dd30b283419317e1","356","
            
        <div style=""text-align: center; position: fixed; top: 5vh; left: 40vw;"">
            <div style=""margin:0 auto; width: 20vw; top: 8vh; font-size: 2vw""> 
            <font color=""green""> Bonus : $1.15 </font>
            </div>
        </div>
    
            <div> Please press any button to continue to the next trial.</div>
        ","arrowright","ITI","","","","","","",""
"","","","","","html-keyboard-response","201","196388","0.0-6.29-1.29","61085399a8e88b607b3ffd58","65576f040411c2a4be0341a4","65576f55dd30b283419317e1","null","
        
        <div style=""text-align: center; position: fixed; top: 5vh; left: 40vw;"">
            <div style=""margin:0 auto; width: 20vw; top: 8vh; font-size: 2vw""> 
            <font color=""green""> Bonus : $1.15 </font>
            </div>
        </div>
    
        <img class=""stim"" src=./stimuli//pack_shapes_diff/cat_1/diff_4/ex_1_4_8.png></img>
    ","null","stimulus","","","","","","",""
"","","","","","html-keyboard-response","202","197395","0.0-6.29-2.29","61085399a8e88b607b3ffd58","65576f040411c2a4be0341a4","65576f55dd30b283419317e1","null","
        <div style=""text-align: center; position: fixed; top: 5vh; left: 40vw;"">
            <div style=""margin:0 auto; width: 20vw; top: 8vh; font-size: 2vw""> 
            <font color=""green""> Bonus : $1.15 </font>
            </div>
        </div>
    ","null","","","","","","","",""
"","","","","","html-keyboard-response","203","197551","0.0-6.29-3.29","61085399a8e88b607b3ffd58","65576f040411c2a4be0341a4","65576f55dd30b283419317e1","155","./stimuli//pack_shapes_diff/cat_1/diff_4/ex_1_4_8.png","arrowleft","response","ArrowLeft","8","1","4","test","true",""
"","","","","","html-keyboard-response","204","199058","0.0-6.29-4.29","61085399a8e88b607b3ffd58","65576f040411c2a4be0341a4","65576f55dd30b283419317e1","null","<p> <font color=""green"" size=""5vw""> Correct category! </font> <br> <br> <font color=""green"" size=""8vw""> + $0.05 </font> </p>","null","feedback","","","","","","","1.2"
"","","","","","html-keyboard-response","205","199357","0.0-6.30-0.30","61085399a8e88b607b3ffd58","65576f040411c2a4be0341a4","65576f55dd30b283419317e1","298","
            
        <div style=""text-align: center; position: fixed; top: 5vh; left: 40vw;"">
            <div style=""margin:0 auto; width: 20vw; top: 8vh; font-size: 2vw""> 
            <font color=""green""> Bonus : $1.2 </font>
            </div>
        </div>
    
            <div> Please press any button to continue to the next trial.</div>
        ","arrowright","ITI","","","","","","",""
"","","","","","html-keyboard-response","206","199961","0.0-6.30-1.30","61085399a8e88b607b3ffd58","65576f040411c2a4be0341a4","65576f55dd30b283419317e1","null","
        
        <div style=""text-align: center; position: fixed; top: 5vh; left: 40vw;"">
            <div style=""margin:0 auto; width: 20vw; top: 8vh; font-size: 2vw""> 
            <font color=""green""> Bonus : $1.2 </font>
            </div>
        </div>
    
        <img class=""stim"" src=./stimuli//pack_shapes_diff/cat_2/diff_3/ex_2_3_15.png></img>
    ","null","stimulus","","","","","","",""
"","","","","","html-keyboard-response","207","200967","0.0-6.30-2.30","61085399a8e88b607b3ffd58","65576f040411c2a4be0341a4","65576f55dd30b283419317e1","null","
        <div style=""text-align: center; position: fixed; top: 5vh; left: 40vw;"">
            <div style=""margin:0 auto; width: 20vw; top: 8vh; font-size: 2vw""> 
            <font color=""green""> Bonus : $1.2 </font>
            </div>
        </div>
    ","null","","","","","","","",""
"","","","","","html-keyboard-response","208","201324","0.0-6.30-3.30","61085399a8e88b607b3ffd58","65576f040411c2a4be0341a4","65576f55dd30b283419317e1","355","./stimuli//pack_shapes_diff/cat_2/diff_3/ex_2_3_15.png","arrowright","response","ArrowRight","15","2","3","test","true",""
"","","","","","html-keyboard-response","209","202830","0.0-6.30-4.30","61085399a8e88b607b3ffd58","65576f040411c2a4be0341a4","65576f55dd30b283419317e1","null","<p> <font color=""green"" size=""5vw""> Correct category! </font> <br> <br> <font color=""green"" size=""8vw""> + $0.05 </font> </p>","null","feedback","","","","","","","1.25"
"","","","","","html-keyboard-response","210","203057","0.0-6.31-0.31","61085399a8e88b607b3ffd58","65576f040411c2a4be0341a4","65576f55dd30b283419317e1","225","
            
        <div style=""text-align: center; position: fixed; top: 5vh; left: 40vw;"">
            <div style=""margin:0 auto; width: 20vw; top: 8vh; font-size: 2vw""> 
            <font color=""green""> Bonus : $1.25 </font>
            </div>
        </div>
    
            <div> Please press any button to continue to the next trial.</div>
        ","arrowright","ITI","","","","","","",""
"","","","","","html-keyboard-response","211","203660","0.0-6.31-1.31","61085399a8e88b607b3ffd58","65576f040411c2a4be0341a4","65576f55dd30b283419317e1","null","
        
        <div style=""text-align: center; position: fixed; top: 5vh; left: 40vw;"">
            <div style=""margin:0 auto; width: 20vw; top: 8vh; font-size: 2vw""> 
            <font color=""green""> Bonus : $1.25 </font>
            </div>
        </div>
    
        <img class=""stim"" src=./stimuli//pack_shapes_diff/cat_1/diff_3/ex_1_3_16.png></img>
    ","null","stimulus","","","","","","",""
"","","","","","html-keyboard-response","212","204666","0.0-6.31-2.31","61085399a8e88b607b3ffd58","65576f040411c2a4be0341a4","65576f55dd30b283419317e1","null","
        <div style=""text-align: center; position: fixed; top: 5vh; left: 40vw;"">
            <div style=""margin:0 auto; width: 20vw; top: 8vh; font-size: 2vw""> 
            <font color=""green""> Bonus : $1.25 </font>
            </div>
        </div>
    ","null","","","","","","","",""
"","","","","","html-keyboard-response","213","204920","0.0-6.31-3.31","61085399a8e88b607b3ffd58","65576f040411c2a4be0341a4","65576f55dd30b283419317e1","252","./stimuli//pack_shapes_diff/cat_1/diff_3/ex_1_3_16.png","arrowleft","response","ArrowLeft","16","1","3","test","true",""
"","","","","","html-keyboard-response","214","206426","0.0-6.31-4.31","61085399a8e88b607b3ffd58","65576f040411c2a4be0341a4","65576f55dd30b283419317e1","null","<p> <font color=""green"" size=""5vw""> Correct category! </font> <br> <br> <font color=""green"" size=""8vw""> + $0.05 </font> </p>","null","feedback","","","","","","","1.3"
"","","","","","html-keyboard-response","215","206827","0.0-6.32-0.32","61085399a8e88b607b3ffd58","65576f040411c2a4be0341a4","65576f55dd30b283419317e1","399","
            
        <div style=""text-align: center; position: fixed; top: 5vh; left: 40vw;"">
            <div style=""margin:0 auto; width: 20vw; top: 8vh; font-size: 2vw""> 
            <font color=""green""> Bonus : $1.3 </font>
            </div>
        </div>
    
            <div> Please press any button to continue to the next trial.</div>
        ","arrowright","ITI","","","","","","",""
"","","","","","html-keyboard-response","216","207430","0.0-6.32-1.32","61085399a8e88b607b3ffd58","65576f040411c2a4be0341a4","65576f55dd30b283419317e1","null","
        
        <div style=""text-align: center; position: fixed; top: 5vh; left: 40vw;"">
            <div style=""margin:0 auto; width: 20vw; top: 8vh; font-size: 2vw""> 
            <font color=""green""> Bonus : $1.3 </font>
            </div>
        </div>
    
        <img class=""stim"" src=./stimuli//pack_shapes_diff/cat_2/diff_3/ex_2_3_6.png></img>
    ","null","stimulus","","","","","","",""
"","","","","","html-keyboard-response","217","208434","0.0-6.32-2.32","61085399a8e88b607b3ffd58","65576f040411c2a4be0341a4","65576f55dd30b283419317e1","null","
        <div style=""text-align: center; position: fixed; top: 5vh; left: 40vw;"">
            <div style=""margin:0 auto; width: 20vw; top: 8vh; font-size: 2vw""> 
            <font color=""green""> Bonus : $1.3 </font>
            </div>
        </div>
    ","null","","","","","","","",""
"","","","","","html-keyboard-response","218","208829","0.0-6.32-3.32","61085399a8e88b607b3ffd58","65576f040411c2a4be0341a4","65576f55dd30b283419317e1","393","./stimuli//pack_shapes_diff/cat_2/diff_3/ex_2_3_6.png","arrowright","response","ArrowRight","6","2","3","test","true",""
"","","","","","html-keyboard-response","219","210336","0.0-6.32-4.32","61085399a8e88b607b3ffd58","65576f040411c2a4be0341a4","65576f55dd30b283419317e1","null","<p> <font color=""green"" size=""5vw""> Correct category! </font> <br> <br> <font color=""green"" size=""8vw""> + $0.05 </font> </p>","null","feedback","","","","","","","1.35"
"","","","","","html-keyboard-response","220","210709","0.0-6.33-0.33","61085399a8e88b607b3ffd58","65576f040411c2a4be0341a4","65576f55dd30b283419317e1","372","
            
        <div style=""text-align: center; position: fixed; top: 5vh; left: 40vw;"">
            <div style=""margin:0 auto; width: 20vw; top: 8vh; font-size: 2vw""> 
            <font color=""green""> Bonus : $1.35 </font>
            </div>
        </div>
    
            <div> Please press any button to continue to the next trial.</div>
        ","arrowright","ITI","","","","","","",""
"","","","","","html-keyboard-response","221","211312","0.0-6.33-1.33","61085399a8e88b607b3ffd58","65576f040411c2a4be0341a4","65576f55dd30b283419317e1","null","
        
        <div style=""text-align: center; position: fixed; top: 5vh; left: 40vw;"">
            <div style=""margin:0 auto; width: 20vw; top: 8vh; font-size: 2vw""> 
            <font color=""green""> Bonus : $1.35 </font>
            </div>
        </div>
    
        <img class=""stim"" src=./stimuli//pack_shapes_diff/cat_1/diff_3/ex_1_3_11.png></img>
    ","null","stimulus","","","","","","",""
"","","","","","html-keyboard-response","222","212318","0.0-6.33-2.33","61085399a8e88b607b3ffd58","65576f040411c2a4be0341a4","65576f55dd30b283419317e1","null","
        <div style=""text-align: center; position: fixed; top: 5vh; left: 40vw;"">
            <div style=""margin:0 auto; width: 20vw; top: 8vh; font-size: 2vw""> 
            <font color=""green""> Bonus : $1.35 </font>
            </div>
        </div>
    ","null","","","","","","","",""
"","","","","","html-keyboard-response","223","212707","0.0-6.33-3.33","61085399a8e88b607b3ffd58","65576f040411c2a4be0341a4","65576f55dd30b283419317e1","388","./stimuli//pack_shapes_diff/cat_1/diff_3/ex_1_3_11.png","arrowleft","response","ArrowLeft","11","1","3","test","true",""
"","","","","","html-keyboard-response","224","214214","0.0-6.33-4.33","61085399a8e88b607b3ffd58","65576f040411c2a4be0341a4","65576f55dd30b283419317e1","null","<p> <font color=""green"" size=""5vw""> Correct category! </font> <br> <br> <font color=""green"" size=""8vw""> + $0.05 </font> </p>","null","feedback","","","","","","","1.4"
"","","","","","html-keyboard-response","225","214472","0.0-6.34-0.34","61085399a8e88b607b3ffd58","65576f040411c2a4be0341a4","65576f55dd30b283419317e1","257","
            
        <div style=""text-align: center; position: fixed; top: 5vh; left: 40vw;"">
            <div style=""margin:0 auto; width: 20vw; top: 8vh; font-size: 2vw""> 
            <font color=""green""> Bonus : $1.4 </font>
            </div>
        </div>
    
            <div> Please press any button to continue to the next trial.</div>
        ","arrowright","ITI","","","","","","",""
"","","","","","html-keyboard-response","226","215076","0.0-6.34-1.34","61085399a8e88b607b3ffd58","65576f040411c2a4be0341a4","65576f55dd30b283419317e1","null","
        
        <div style=""text-align: center; position: fixed; top: 5vh; left: 40vw;"">
            <div style=""margin:0 auto; width: 20vw; top: 8vh; font-size: 2vw""> 
            <font color=""green""> Bonus : $1.4 </font>
            </div>
        </div>
    
        <img class=""stim"" src=./stimuli//pack_shapes_diff/cat_1/diff_3/ex_1_3_2.png></img>
    ","null","stimulus","","","","","","",""
"","","","","","html-keyboard-response","227","216083","0.0-6.34-2.34","61085399a8e88b607b3ffd58","65576f040411c2a4be0341a4","65576f55dd30b283419317e1","null","
        <div style=""text-align: center; position: fixed; top: 5vh; left: 40vw;"">
            <div style=""margin:0 auto; width: 20vw; top: 8vh; font-size: 2vw""> 
            <font color=""green""> Bonus : $1.4 </font>
            </div>
        </div>
    ","null","","","","","","","",""
"","","","","","html-keyboard-response","228","216621","0.0-6.34-3.34","61085399a8e88b607b3ffd58","65576f040411c2a4be0341a4","65576f55dd30b283419317e1","537","./stimuli//pack_shapes_diff/cat_1/diff_3/ex_1_3_2.png","arrowleft","response","ArrowLeft","2","1","3","test","true",""
