success,timeout,failed_images,failed_audio,failed_video,trial_type,trial_index,time_elapsed,internal_node_id,rt,stimulus,response,task,correct_response,exemplar_ID,category,difficulty,phase,correct,bonus,subject_id
TRUE,FALSE,[],[],[],preload,0,1,0.0-0.0,,,,,,,,,,,,6
,,,,,html-keyboard-response,1,11670,0.0-1.0,11668,Welcome to the Category Learning experiment! Press any key to continue., ,welcome,,,,,,,,6
,,,,,html-keyboard-response,2,40952,0.0-2.0,29281,"
            <p>You will be shown images of black shapes. Some are category A, some are category B.
            <br>You will not know in advance which category a specific shape belongs to.</p>
            <p>After you see an image, you will be asked to guess its category <b>(left arrow for category A, right arrow for category B)</b></p>
            <p>After you choose, the screen will show you whether you were correct or not.</p>
            <p><b>You will receive a bonus payment of $0.05 for each correct answer!</b></p>
            <p> So you can increase your bonus by guessing correctly, and by guessing as quickly as possible so you move on to the next image sooner.</p>
            <p>Press any key to continue.</p>
            ", ,introduction_1,,,,,,,,6
,,,,,html-keyboard-response,3,46695,0.0-3.0,5742,"
            <p> <b>The first 10 trials are a practice round that will not count towards your bonus payment.</b></p>
            <p> You will be notified when practice finishes and the test begins. </p>
            <p> Press any key to begin the practice round.</p>
            ", ,introduction_2,,,,,,,,6
,,,,,html-keyboard-response,4,49335,0.0-4.0-0.0,2639,"
            
        <div style=""text-align: center; position: fixed; top: 5vh; left: 40vw;"">
            <div style=""margin:0 auto; width: 20vw; top: 8vh; font-size: 2vw""> 
            <font color=""green""> Bonus : $0 </font>
            </div>
        </div>
    
            <div> Please press any button to continue to the next trial.</div>
        ",arrowright,ITI,,,,,,,,6
,,,,,html-keyboard-response,5,49938,0.0-4.0-1.0,null,"
        
        <div style=""text-align: center; position: fixed; top: 5vh; left: 40vw;"">
            <div style=""margin:0 auto; width: 20vw; top: 8vh; font-size: 2vw""> 
            <font color=""green""> Bonus : $0 </font>
            </div>
        </div>
    
        <img class=""stim"" src=./stimuli//pack_shapes_diff/cat_2/diff_2/ex_2_2_17.png></img>
    ",null,stimulus,,,,,,,,6
,,,,,html-keyboard-response,6,50947,0.0-4.0-2.0,null,"
        <div style=""text-align: center; position: fixed; top: 5vh; left: 40vw;"">
            <div style=""margin:0 auto; width: 20vw; top: 8vh; font-size: 2vw""> 
            <font color=""green""> Bonus : $0 </font>
            </div>
        </div>
    ",null,,,,,,,,,6
,,,,,html-keyboard-response,7,52775,0.0-4.0-3.0,1827,./stimuli//pack_shapes_diff/cat_2/diff_2/ex_2_2_17.png,arrowright,response,ArrowRight,17,2,2,train,TRUE,,6
,,,,,html-keyboard-response,8,54289,0.0-4.0-4.0,null,"<p> <font color=""green"" size=""5vw""> Correct category! </font> </p>",null,feedback,,,,,,,0,6
,,,,,html-keyboard-response,9,56223,0.0-4.0-0.1,1932,"
            
        <div style=""text-align: center; position: fixed; top: 5vh; left: 40vw;"">
            <div style=""margin:0 auto; width: 20vw; top: 8vh; font-size: 2vw""> 
            <font color=""green""> Bonus : $0 </font>
            </div>
        </div>
    
            <div> Please press any button to continue to the next trial.</div>
        ",arrowright,ITI,,,,,,,,6
,,,,,html-keyboard-response,10,56830,0.0-4.0-1.1,null,"
        
        <div style=""text-align: center; position: fixed; top: 5vh; left: 40vw;"">
            <div style=""margin:0 auto; width: 20vw; top: 8vh; font-size: 2vw""> 
            <font color=""green""> Bonus : $0 </font>
            </div>
        </div>
    
        <img class=""stim"" src=./stimuli//pack_shapes_diff/cat_2/diff_1/ex_2_1_4.png></img>
    ",null,stimulus,,,,,,,,6
,,,,,html-keyboard-response,11,57845,0.0-4.0-2.1,null,"
        <div style=""text-align: center; position: fixed; top: 5vh; left: 40vw;"">
            <div style=""margin:0 auto; width: 20vw; top: 8vh; font-size: 2vw""> 
            <font color=""green""> Bonus : $0 </font>
            </div>
        </div>
    ",null,,,,,,,,,6
,,,,,html-keyboard-response,12,58390,0.0-4.0-3.1,544,./stimuli//pack_shapes_diff/cat_2/diff_1/ex_2_1_4.png,arrowleft,response,ArrowRight,4,2,1,train,FALSE,,6
,,,,,html-keyboard-response,13,59900,0.0-4.0-4.1,null,"<p> <font color=""red"" size=""5vw""> Wrong category! </font> </p>",null,feedback,,,,,,,0,6
,,,,,html-keyboard-response,14,61535,0.0-4.0-0.2,1633,"
            
        <div style=""text-align: center; position: fixed; top: 5vh; left: 40vw;"">
            <div style=""margin:0 auto; width: 20vw; top: 8vh; font-size: 2vw""> 
            <font color=""green""> Bonus : $0 </font>
            </div>
        </div>
    
            <div> Please press any button to continue to the next trial.</div>
        ",arrowright,ITI,,,,,,,,6
,,,,,html-keyboard-response,15,62142,0.0-4.0-1.2,null,"
        
        <div style=""text-align: center; position: fixed; top: 5vh; left: 40vw;"">
            <div style=""margin:0 auto; width: 20vw; top: 8vh; font-size: 2vw""> 
            <font color=""green""> Bonus : $0 </font>
            </div>
        </div>
    
        <img class=""stim"" src=./stimuli//pack_shapes_diff/cat_2/diff_1/ex_2_1_16.png></img>
    ",null,stimulus,,,,,,,,6
,,,,,html-keyboard-response,16,63159,0.0-4.0-2.2,null,"
        <div style=""text-align: center; position: fixed; top: 5vh; left: 40vw;"">
            <div style=""margin:0 auto; width: 20vw; top: 8vh; font-size: 2vw""> 
            <font color=""green""> Bonus : $0 </font>
            </div>
        </div>
    ",null,,,,,,,,,6
,,,,,html-keyboard-response,17,63527,0.0-4.0-3.2,367,./stimuli//pack_shapes_diff/cat_2/diff_1/ex_2_1_16.png,arrowright,response,ArrowRight,16,2,1,train,TRUE,,6
,,,,,html-keyboard-response,18,65034,0.0-4.0-4.2,null,"<p> <font color=""green"" size=""5vw""> Correct category! </font> </p>",null,feedback,,,,,,,0,6
,,,,,html-keyboard-response,19,68983,0.0-4.0-0.3,3947,"
            
        <div style=""text-align: center; position: fixed; top: 5vh; left: 40vw;"">
            <div style=""margin:0 auto; width: 20vw; top: 8vh; font-size: 2vw""> 
            <font color=""green""> Bonus : $0 </font>
            </div>
        </div>
    
            <div> Please press any button to continue to the next trial.</div>
        ",arrowright,ITI,,,,,,,,6
,,,,,html-keyboard-response,20,69593,0.0-4.0-1.3,null,"
        
        <div style=""text-align: center; position: fixed; top: 5vh; left: 40vw;"">
            <div style=""margin:0 auto; width: 20vw; top: 8vh; font-size: 2vw""> 
            <font color=""green""> Bonus : $0 </font>
            </div>
        </div>
    
        <img class=""stim"" src=./stimuli//pack_shapes_diff/cat_1/diff_1/ex_1_1_6.png></img>
    ",null,stimulus,,,,,,,,6
,,,,,html-keyboard-response,21,70606,0.0-4.0-2.3,null,"
        <div style=""text-align: center; position: fixed; top: 5vh; left: 40vw;"">
            <div style=""margin:0 auto; width: 20vw; top: 8vh; font-size: 2vw""> 
            <font color=""green""> Bonus : $0 </font>
            </div>
        </div>
    ",null,,,,,,,,,6
,,,,,html-keyboard-response,22,70983,0.0-4.0-3.3,376,./stimuli//pack_shapes_diff/cat_1/diff_1/ex_1_1_6.png,arrowright,response,ArrowLeft,6,1,1,train,FALSE,,6
,,,,,html-keyboard-response,23,72487,0.0-4.0-4.3,null,"<p> <font color=""red"" size=""5vw""> Wrong category! </font> </p>",null,feedback,,,,,,,0,6
,,,,,html-keyboard-response,24,73583,0.0-4.0-0.4,1095,"
            
        <div style=""text-align: center; position: fixed; top: 5vh; left: 40vw;"">
            <div style=""margin:0 auto; width: 20vw; top: 8vh; font-size: 2vw""> 
            <font color=""green""> Bonus : $0 </font>
            </div>
        </div>
    
            <div> Please press any button to continue to the next trial.</div>
        ",arrowright,ITI,,,,,,,,6
,,,,,html-keyboard-response,25,74186,0.0-4.0-1.4,null,"
        
        <div style=""text-align: center; position: fixed; top: 5vh; left: 40vw;"">
            <div style=""margin:0 auto; width: 20vw; top: 8vh; font-size: 2vw""> 
            <font color=""green""> Bonus : $0 </font>
            </div>
        </div>
    
        <img class=""stim"" src=./stimuli//pack_shapes_diff/cat_1/diff_1/ex_1_1_8.png></img>
    ",null,stimulus,,,,,,,,6
,,,,,html-keyboard-response,26,75197,0.0-4.0-2.4,null,"
        <div style=""text-align: center; position: fixed; top: 5vh; left: 40vw;"">
            <div style=""margin:0 auto; width: 20vw; top: 8vh; font-size: 2vw""> 
            <font color=""green""> Bonus : $0 </font>
            </div>
        </div>
    ",null,,,,,,,,,6
,,,,,html-keyboard-response,27,75543,0.0-4.0-3.4,345,./stimuli//pack_shapes_diff/cat_1/diff_1/ex_1_1_8.png,arrowleft,response,ArrowLeft,8,1,1,train,TRUE,,6
,,,,,html-keyboard-response,28,76270,0.0-4.0-4.4,727,"<p> <font color=""green"" size=""5vw""> Correct category! </font> </p>",arrowleft,feedback,,,,,,,0,6
,,,,,html-keyboard-response,29,77415,0.0-4.0-0.5,1143,"
            
        <div style=""text-align: center; position: fixed; top: 5vh; left: 40vw;"">
            <div style=""margin:0 auto; width: 20vw; top: 8vh; font-size: 2vw""> 
            <font color=""green""> Bonus : $0 </font>
            </div>
        </div>
    
            <div> Please press any button to continue to the next trial.</div>
        ",arrowright,ITI,,,,,,,,6
,,,,,html-keyboard-response,30,78030,0.0-4.0-1.5,null,"
        
        <div style=""text-align: center; position: fixed; top: 5vh; left: 40vw;"">
            <div style=""margin:0 auto; width: 20vw; top: 8vh; font-size: 2vw""> 
            <font color=""green""> Bonus : $0 </font>
            </div>
        </div>
    
        <img class=""stim"" src=./stimuli//pack_shapes_diff/cat_2/diff_2/ex_2_2_10.png></img>
    ",null,stimulus,,,,,,,,6
,,,,,html-keyboard-response,31,79043,0.0-4.0-2.5,null,"
        <div style=""text-align: center; position: fixed; top: 5vh; left: 40vw;"">
            <div style=""margin:0 auto; width: 20vw; top: 8vh; font-size: 2vw""> 
            <font color=""green""> Bonus : $0 </font>
            </div>
        </div>
    ",null,,,,,,,,,6
,,,,,html-keyboard-response,32,79454,0.0-4.0-3.5,410,./stimuli//pack_shapes_diff/cat_2/diff_2/ex_2_2_10.png,arrowright,response,ArrowRight,10,2,2,train,TRUE,,6
,,,,,html-keyboard-response,33,80962,0.0-4.0-4.5,null,"<p> <font color=""green"" size=""5vw""> Correct category! </font> </p>",null,feedback,,,,,,,0,6
,,,,,html-keyboard-response,34,81982,0.0-4.0-0.6,1017,"
            
        <div style=""text-align: center; position: fixed; top: 5vh; left: 40vw;"">
            <div style=""margin:0 auto; width: 20vw; top: 8vh; font-size: 2vw""> 
            <font color=""green""> Bonus : $0 </font>
            </div>
        </div>
    
            <div> Please press any button to continue to the next trial.</div>
        ",arrowright,ITI,,,,,,,,6
,,,,,html-keyboard-response,35,82594,0.0-4.0-1.6,null,"
        
        <div style=""text-align: center; position: fixed; top: 5vh; left: 40vw;"">
            <div style=""margin:0 auto; width: 20vw; top: 8vh; font-size: 2vw""> 
            <font color=""green""> Bonus : $0 </font>
            </div>
        </div>
    
        <img class=""stim"" src=./stimuli//pack_shapes_diff/cat_1/diff_1/ex_1_1_1.png></img>
    ",null,stimulus,,,,,,,,6
,,,,,html-keyboard-response,36,83609,0.0-4.0-2.6,null,"
        <div style=""text-align: center; position: fixed; top: 5vh; left: 40vw;"">
            <div style=""margin:0 auto; width: 20vw; top: 8vh; font-size: 2vw""> 
            <font color=""green""> Bonus : $0 </font>
            </div>
        </div>
    ",null,,,,,,,,,6
,,,,,html-keyboard-response,37,84558,0.0-4.0-3.6,948,./stimuli//pack_shapes_diff/cat_1/diff_1/ex_1_1_1.png,arrowright,response,ArrowLeft,1,1,1,train,FALSE,,6
,,,,,html-keyboard-response,38,86062,0.0-4.0-4.6,null,"<p> <font color=""red"" size=""5vw""> Wrong category! </font> </p>",null,feedback,,,,,,,0,6
,,,,,html-keyboard-response,39,87591,0.0-4.0-0.7,1528,"
            
        <div style=""text-align: center; position: fixed; top: 5vh; left: 40vw;"">
            <div style=""margin:0 auto; width: 20vw; top: 8vh; font-size: 2vw""> 
            <font color=""green""> Bonus : $0 </font>
            </div>
        </div>
    
            <div> Please press any button to continue to the next trial.</div>
        ",arrowleft,ITI,,,,,,,,6
,,,,,html-keyboard-response,40,88195,0.0-4.0-1.7,null,"
        
        <div style=""text-align: center; position: fixed; top: 5vh; left: 40vw;"">
            <div style=""margin:0 auto; width: 20vw; top: 8vh; font-size: 2vw""> 
            <font color=""green""> Bonus : $0 </font>
            </div>
        </div>
    
        <img class=""stim"" src=./stimuli//pack_shapes_diff/cat_2/diff_1/ex_2_1_8.png></img>
    ",null,stimulus,,,,,,,,6
,,,,,html-keyboard-response,41,89209,0.0-4.0-2.7,null,"
        <div style=""text-align: center; position: fixed; top: 5vh; left: 40vw;"">
            <div style=""margin:0 auto; width: 20vw; top: 8vh; font-size: 2vw""> 
            <font color=""green""> Bonus : $0 </font>
            </div>
        </div>
    ",null,,,,,,,,,6
,,,,,html-keyboard-response,42,89799,0.0-4.0-3.7,589,./stimuli//pack_shapes_diff/cat_2/diff_1/ex_2_1_8.png,arrowright,response,ArrowRight,8,2,1,train,TRUE,,6
,,,,,html-keyboard-response,43,91306,0.0-4.0-4.7,null,"<p> <font color=""green"" size=""5vw""> Correct category! </font> </p>",null,feedback,,,,,,,0,6
,,,,,html-keyboard-response,44,92198,0.0-4.0-0.8,891,"
            
        <div style=""text-align: center; position: fixed; top: 5vh; left: 40vw;"">
            <div style=""margin:0 auto; width: 20vw; top: 8vh; font-size: 2vw""> 
            <font color=""green""> Bonus : $0 </font>
            </div>
        </div>
    
            <div> Please press any button to continue to the next trial.</div>
        ",arrowright,ITI,,,,,,,,6
,,,,,html-keyboard-response,45,92810,0.0-4.0-1.8,null,"
        
        <div style=""text-align: center; position: fixed; top: 5vh; left: 40vw;"">
            <div style=""margin:0 auto; width: 20vw; top: 8vh; font-size: 2vw""> 
            <font color=""green""> Bonus : $0 </font>
            </div>
        </div>
    
        <img class=""stim"" src=./stimuli//pack_shapes_diff/cat_1/diff_2/ex_1_2_16.png></img>
    ",null,stimulus,,,,,,,,6
,,,,,html-keyboard-response,46,93813,0.0-4.0-2.8,null,"
        <div style=""text-align: center; position: fixed; top: 5vh; left: 40vw;"">
            <div style=""margin:0 auto; width: 20vw; top: 8vh; font-size: 2vw""> 
            <font color=""green""> Bonus : $0 </font>
            </div>
        </div>
    ",null,,,,,,,,,6
,,,,,html-keyboard-response,47,94366,0.0-4.0-3.8,552,./stimuli//pack_shapes_diff/cat_1/diff_2/ex_1_2_16.png,arrowleft,response,ArrowLeft,16,1,2,train,TRUE,,6
,,,,,html-keyboard-response,48,95882,0.0-4.0-4.8,null,"<p> <font color=""green"" size=""5vw""> Correct category! </font> </p>",null,feedback,,,,,,,0,6
,,,,,html-keyboard-response,49,96886,0.0-4.0-0.9,1003,"
            
        <div style=""text-align: center; position: fixed; top: 5vh; left: 40vw;"">
            <div style=""margin:0 auto; width: 20vw; top: 8vh; font-size: 2vw""> 
            <font color=""green""> Bonus : $0 </font>
            </div>
        </div>
    
            <div> Please press any button to continue to the next trial.</div>
        ",arrowright,ITI,,,,,,,,6
,,,,,html-keyboard-response,50,97502,0.0-4.0-1.9,null,"
        
        <div style=""text-align: center; position: fixed; top: 5vh; left: 40vw;"">
            <div style=""margin:0 auto; width: 20vw; top: 8vh; font-size: 2vw""> 
            <font color=""green""> Bonus : $0 </font>
            </div>
        </div>
    
        <img class=""stim"" src=./stimuli//pack_shapes_diff/cat_1/diff_2/ex_1_2_11.png></img>
    ",null,stimulus,,,,,,,,6
,,,,,html-keyboard-response,51,98513,0.0-4.0-2.9,null,"
        <div style=""text-align: center; position: fixed; top: 5vh; left: 40vw;"">
            <div style=""margin:0 auto; width: 20vw; top: 8vh; font-size: 2vw""> 
            <font color=""green""> Bonus : $0 </font>
            </div>
        </div>
    ",null,,,,,,,,,6
,,,,,html-keyboard-response,52,98862,0.0-4.0-3.9,348,./stimuli//pack_shapes_diff/cat_1/diff_2/ex_1_2_11.png,arrowleft,response,ArrowLeft,11,1,2,train,TRUE,,6
,,,,,html-keyboard-response,53,100376,0.0-4.0-4.9,null,"<p> <font color=""green"" size=""5vw""> Correct category! </font> </p>",null,feedback,,,,,,,0,6
,,,,,html-keyboard-response,54,105278,0.0-5.0,4901,"
            <b> <p> The practice round has finished.</p>
            <b> For the rest of the experiment you will receive a $0.05 bonus for each correct answer!</b>
            <p> Press any key to begin the test. </p>
            ",arrowright,intermission,,,,,,,,6
,,,,,html-keyboard-response,55,106782,0.0-6.0-0.0,1503,"
            
        <div style=""text-align: center; position: fixed; top: 5vh; left: 40vw;"">
            <div style=""margin:0 auto; width: 20vw; top: 8vh; font-size: 2vw""> 
            <font color=""green""> Bonus : $0 </font>
            </div>
        </div>
    
            <div> Please press any button to continue to the next trial.</div>
        ",arrowright,ITI,,,,,,,,6
,,,,,html-keyboard-response,56,107387,0.0-6.0-1.0,null,"
        
        <div style=""text-align: center; position: fixed; top: 5vh; left: 40vw;"">
            <div style=""margin:0 auto; width: 20vw; top: 8vh; font-size: 2vw""> 
            <font color=""green""> Bonus : $0 </font>
            </div>
        </div>
    
        <img class=""stim"" src=./stimuli//pack_shapes_diff/cat_1/diff_1/ex_1_1_15.png></img>
    ",null,stimulus,,,,,,,,6
,,,,,html-keyboard-response,57,108399,0.0-6.0-2.0,null,"
        <div style=""text-align: center; position: fixed; top: 5vh; left: 40vw;"">
            <div style=""margin:0 auto; width: 20vw; top: 8vh; font-size: 2vw""> 
            <font color=""green""> Bonus : $0 </font>
            </div>
        </div>
    ",null,,,,,,,,,6
,,,,,html-keyboard-response,58,108694,0.0-6.0-3.0,294,./stimuli//pack_shapes_diff/cat_1/diff_1/ex_1_1_15.png,arrowleft,response,ArrowLeft,15,1,1,test,TRUE,,6
,,,,,html-keyboard-response,59,110201,0.0-6.0-4.0,null,"<p> <font color=""green"" size=""5vw""> Correct category! </font> <br> <br> <font color=""green"" size=""8vw""> + $0.05 </font> </p>",null,feedback,,,,,,,0.05,6
,,,,,html-keyboard-response,60,111142,0.0-6.1-0.1,940,"
            
        <div style=""text-align: center; position: fixed; top: 5vh; left: 40vw;"">
            <div style=""margin:0 auto; width: 20vw; top: 8vh; font-size: 2vw""> 
            <font color=""green""> Bonus : $0.05 </font>
            </div>
        </div>
    
            <div> Please press any button to continue to the next trial.</div>
        ",arrowright,ITI,,,,,,,,6
,,,,,html-keyboard-response,61,111745,0.0-6.1-1.1,null,"
        
        <div style=""text-align: center; position: fixed; top: 5vh; left: 40vw;"">
            <div style=""margin:0 auto; width: 20vw; top: 8vh; font-size: 2vw""> 
            <font color=""green""> Bonus : $0.05 </font>
            </div>
        </div>
    
        <img class=""stim"" src=./stimuli//pack_shapes_diff/cat_2/diff_1/ex_2_1_7.png></img>
    ",null,stimulus,,,,,,,,6
,,,,,html-keyboard-response,62,112761,0.0-6.1-2.1,null,"
        <div style=""text-align: center; position: fixed; top: 5vh; left: 40vw;"">
            <div style=""margin:0 auto; width: 20vw; top: 8vh; font-size: 2vw""> 
            <font color=""green""> Bonus : $0.05 </font>
            </div>
        </div>
    ",null,,,,,,,,,6
,,,,,html-keyboard-response,63,113126,0.0-6.1-3.1,364,./stimuli//pack_shapes_diff/cat_2/diff_1/ex_2_1_7.png,arrowright,response,ArrowRight,7,2,1,test,TRUE,,6
,,,,,html-keyboard-response,64,114636,0.0-6.1-4.1,null,"<p> <font color=""green"" size=""5vw""> Correct category! </font> <br> <br> <font color=""green"" size=""8vw""> + $0.05 </font> </p>",null,feedback,,,,,,,0.1,6
,,,,,html-keyboard-response,65,115622,0.0-6.2-0.2,986,"
            
        <div style=""text-align: center; position: fixed; top: 5vh; left: 40vw;"">
            <div style=""margin:0 auto; width: 20vw; top: 8vh; font-size: 2vw""> 
            <font color=""green""> Bonus : $0.1 </font>
            </div>
        </div>
    
            <div> Please press any button to continue to the next trial.</div>
        ",arrowleft,ITI,,,,,,,,6
,,,,,html-keyboard-response,66,116229,0.0-6.2-1.2,null,"
        
        <div style=""text-align: center; position: fixed; top: 5vh; left: 40vw;"">
            <div style=""margin:0 auto; width: 20vw; top: 8vh; font-size: 2vw""> 
            <font color=""green""> Bonus : $0.1 </font>
            </div>
        </div>
    
        <img class=""stim"" src=./stimuli//pack_shapes_diff/cat_1/diff_1/ex_1_1_15.png></img>
    ",null,stimulus,,,,,,,,6
,,,,,html-keyboard-response,67,117239,0.0-6.2-2.2,null,"
        <div style=""text-align: center; position: fixed; top: 5vh; left: 40vw;"">
            <div style=""margin:0 auto; width: 20vw; top: 8vh; font-size: 2vw""> 
            <font color=""green""> Bonus : $0.1 </font>
            </div>
        </div>
    ",null,,,,,,,,,6
,,,,,html-keyboard-response,68,118447,0.0-6.2-3.2,1207,./stimuli//pack_shapes_diff/cat_1/diff_1/ex_1_1_15.png,arrowleft,response,ArrowLeft,15,1,1,test,TRUE,,6
,,,,,html-keyboard-response,69,119955,0.0-6.2-4.2,null,"<p> <font color=""green"" size=""5vw""> Correct category! </font> <br> <br> <font color=""green"" size=""8vw""> + $0.05 </font> </p>",null,feedback,,,,,,,0.15,6
,,,,,html-keyboard-response,70,120789,0.0-6.3-0.3,833,"
            
        <div style=""text-align: center; position: fixed; top: 5vh; left: 40vw;"">
            <div style=""margin:0 auto; width: 20vw; top: 8vh; font-size: 2vw""> 
            <font color=""green""> Bonus : $0.15 </font>
            </div>
        </div>
    
            <div> Please press any button to continue to the next trial.</div>
        ",arrowright,ITI,,,,,,,,6
,,,,,html-keyboard-response,71,121394,0.0-6.3-1.3,null,"
        
        <div style=""text-align: center; position: fixed; top: 5vh; left: 40vw;"">
            <div style=""margin:0 auto; width: 20vw; top: 8vh; font-size: 2vw""> 
            <font color=""green""> Bonus : $0.15 </font>
            </div>
        </div>
    
        <img class=""stim"" src=./stimuli//pack_shapes_diff/cat_1/diff_1/ex_1_1_17.png></img>
    ",null,stimulus,,,,,,,,6
,,,,,html-keyboard-response,72,122406,0.0-6.3-2.3,null,"
        <div style=""text-align: center; position: fixed; top: 5vh; left: 40vw;"">
            <div style=""margin:0 auto; width: 20vw; top: 8vh; font-size: 2vw""> 
            <font color=""green""> Bonus : $0.15 </font>
            </div>
        </div>
    ",null,,,,,,,,,6
,,,,,html-keyboard-response,73,122782,0.0-6.3-3.3,375,./stimuli//pack_shapes_diff/cat_1/diff_1/ex_1_1_17.png,arrowleft,response,ArrowLeft,17,1,1,test,TRUE,,6
,,,,,html-keyboard-response,74,124285,0.0-6.3-4.3,null,"<p> <font color=""green"" size=""5vw""> Correct category! </font> <br> <br> <font color=""green"" size=""8vw""> + $0.05 </font> </p>",null,feedback,,,,,,,0.2,6
,,,,,html-keyboard-response,75,124758,0.0-6.4-0.4,472,"
            
        <div style=""text-align: center; position: fixed; top: 5vh; left: 40vw;"">
            <div style=""margin:0 auto; width: 20vw; top: 8vh; font-size: 2vw""> 
            <font color=""green""> Bonus : $0.2 </font>
            </div>
        </div>
    
            <div> Please press any button to continue to the next trial.</div>
        ",arrowright,ITI,,,,,,,,6
,,,,,html-keyboard-response,76,125366,0.0-6.4-1.4,null,"
        
        <div style=""text-align: center; position: fixed; top: 5vh; left: 40vw;"">
            <div style=""margin:0 auto; width: 20vw; top: 8vh; font-size: 2vw""> 
            <font color=""green""> Bonus : $0.2 </font>
            </div>
        </div>
    
        <img class=""stim"" src=./stimuli//pack_shapes_diff/cat_2/diff_1/ex_2_1_14.png></img>
    ",null,stimulus,,,,,,,,6
,,,,,html-keyboard-response,77,126381,0.0-6.4-2.4,null,"
        <div style=""text-align: center; position: fixed; top: 5vh; left: 40vw;"">
            <div style=""margin:0 auto; width: 20vw; top: 8vh; font-size: 2vw""> 
            <font color=""green""> Bonus : $0.2 </font>
            </div>
        </div>
    ",null,,,,,,,,,6
,,,,,html-keyboard-response,78,126662,0.0-6.4-3.4,280,./stimuli//pack_shapes_diff/cat_2/diff_1/ex_2_1_14.png,arrowright,response,ArrowRight,14,2,1,test,TRUE,,6
,,,,,html-keyboard-response,79,128178,0.0-6.4-4.4,null,"<p> <font color=""green"" size=""5vw""> Correct category! </font> <br> <br> <font color=""green"" size=""8vw""> + $0.05 </font> </p>",null,feedback,,,,,,,0.25,6
,,,,,html-keyboard-response,80,128863,0.0-6.5-0.5,684,"
            
        <div style=""text-align: center; position: fixed; top: 5vh; left: 40vw;"">
            <div style=""margin:0 auto; width: 20vw; top: 8vh; font-size: 2vw""> 
            <font color=""green""> Bonus : $0.25 </font>
            </div>
        </div>
    
            <div> Please press any button to continue to the next trial.</div>
        ",arrowright,ITI,,,,,,,,6
,,,,,html-keyboard-response,81,129477,0.0-6.5-1.5,null,"
        
        <div style=""text-align: center; position: fixed; top: 5vh; left: 40vw;"">
            <div style=""margin:0 auto; width: 20vw; top: 8vh; font-size: 2vw""> 
            <font color=""green""> Bonus : $0.25 </font>
            </div>
        </div>
    
        <img class=""stim"" src=./stimuli//pack_shapes_diff/cat_2/diff_2/ex_2_2_11.png></img>
    ",null,stimulus,,,,,,,,6
,,,,,html-keyboard-response,82,130481,0.0-6.5-2.5,null,"
        <div style=""text-align: center; position: fixed; top: 5vh; left: 40vw;"">
            <div style=""margin:0 auto; width: 20vw; top: 8vh; font-size: 2vw""> 
            <font color=""green""> Bonus : $0.25 </font>
            </div>
        </div>
    ",null,,,,,,,,,6
,,,,,html-keyboard-response,83,130774,0.0-6.5-3.5,292,./stimuli//pack_shapes_diff/cat_2/diff_2/ex_2_2_11.png,arrowright,response,ArrowRight,11,2,2,test,TRUE,,6
,,,,,html-keyboard-response,84,132276,0.0-6.5-4.5,null,"<p> <font color=""green"" size=""5vw""> Correct category! </font> <br> <br> <font color=""green"" size=""8vw""> + $0.05 </font> </p>",null,feedback,,,,,,,0.3,6
,,,,,html-keyboard-response,85,132926,0.0-6.6-0.6,649,"
            
        <div style=""text-align: center; position: fixed; top: 5vh; left: 40vw;"">
            <div style=""margin:0 auto; width: 20vw; top: 8vh; font-size: 2vw""> 
            <font color=""green""> Bonus : $0.3 </font>
            </div>
        </div>
    
            <div> Please press any button to continue to the next trial.</div>
        ",arrowright,ITI,,,,,,,,6
,,,,,html-keyboard-response,86,133539,0.0-6.6-1.6,null,"
        
        <div style=""text-align: center; position: fixed; top: 5vh; left: 40vw;"">
            <div style=""margin:0 auto; width: 20vw; top: 8vh; font-size: 2vw""> 
            <font color=""green""> Bonus : $0.3 </font>
            </div>
        </div>
    
        <img class=""stim"" src=./stimuli//pack_shapes_diff/cat_2/diff_2/ex_2_2_8.png></img>
    ",null,stimulus,,,,,,,,6
,,,,,html-keyboard-response,87,134544,0.0-6.6-2.6,null,"
        <div style=""text-align: center; position: fixed; top: 5vh; left: 40vw;"">
            <div style=""margin:0 auto; width: 20vw; top: 8vh; font-size: 2vw""> 
            <font color=""green""> Bonus : $0.3 </font>
            </div>
        </div>
    ",null,,,,,,,,,6
,,,,,html-keyboard-response,88,134870,0.0-6.6-3.6,325,./stimuli//pack_shapes_diff/cat_2/diff_2/ex_2_2_8.png,arrowright,response,ArrowRight,8,2,2,test,TRUE,,6
,,,,,html-keyboard-response,89,136375,0.0-6.6-4.6,null,"<p> <font color=""green"" size=""5vw""> Correct category! </font> <br> <br> <font color=""green"" size=""8vw""> + $0.05 </font> </p>",null,feedback,,,,,,,0.35,6
,,,,,html-keyboard-response,90,136974,0.0-6.7-0.7,598,"
            
        <div style=""text-align: center; position: fixed; top: 5vh; left: 40vw;"">
            <div style=""margin:0 auto; width: 20vw; top: 8vh; font-size: 2vw""> 
            <font color=""green""> Bonus : $0.35 </font>
            </div>
        </div>
    
            <div> Please press any button to continue to the next trial.</div>
        ",arrowright,ITI,,,,,,,,6
,,,,,html-keyboard-response,91,137579,0.0-6.7-1.7,null,"
        
        <div style=""text-align: center; position: fixed; top: 5vh; left: 40vw;"">
            <div style=""margin:0 auto; width: 20vw; top: 8vh; font-size: 2vw""> 
            <font color=""green""> Bonus : $0.35 </font>
            </div>
        </div>
    
        <img class=""stim"" src=./stimuli//pack_shapes_diff/cat_1/diff_2/ex_1_2_2.png></img>
    ",null,stimulus,,,,,,,,6
,,,,,html-keyboard-response,92,138595,0.0-6.7-2.7,null,"
        <div style=""text-align: center; position: fixed; top: 5vh; left: 40vw;"">
            <div style=""margin:0 auto; width: 20vw; top: 8vh; font-size: 2vw""> 
            <font color=""green""> Bonus : $0.35 </font>
            </div>
        </div>
    ",null,,,,,,,,,6
,,,,,html-keyboard-response,93,138927,0.0-6.7-3.7,331,./stimuli//pack_shapes_diff/cat_1/diff_2/ex_1_2_2.png,arrowleft,response,ArrowLeft,2,1,2,test,TRUE,,6
,,,,,html-keyboard-response,94,140435,0.0-6.7-4.7,null,"<p> <font color=""green"" size=""5vw""> Correct category! </font> <br> <br> <font color=""green"" size=""8vw""> + $0.05 </font> </p>",null,feedback,,,,,,,0.4,6
,,,,,html-keyboard-response,95,141110,0.0-6.8-0.8,674,"
            
        <div style=""text-align: center; position: fixed; top: 5vh; left: 40vw;"">
            <div style=""margin:0 auto; width: 20vw; top: 8vh; font-size: 2vw""> 
            <font color=""green""> Bonus : $0.4 </font>
            </div>
        </div>
    
            <div> Please press any button to continue to the next trial.</div>
        ",arrowright,ITI,,,,,,,,6
,,,,,html-keyboard-response,96,141717,0.0-6.8-1.8,null,"
        
        <div style=""text-align: center; position: fixed; top: 5vh; left: 40vw;"">
            <div style=""margin:0 auto; width: 20vw; top: 8vh; font-size: 2vw""> 
            <font color=""green""> Bonus : $0.4 </font>
            </div>
        </div>
    
        <img class=""stim"" src=./stimuli//pack_shapes_diff/cat_1/diff_2/ex_1_2_12.png></img>
    ",null,stimulus,,,,,,,,6
,,,,,html-keyboard-response,97,142723,0.0-6.8-2.8,null,"
        <div style=""text-align: center; position: fixed; top: 5vh; left: 40vw;"">
            <div style=""margin:0 auto; width: 20vw; top: 8vh; font-size: 2vw""> 
            <font color=""green""> Bonus : $0.4 </font>
            </div>
        </div>
    ",null,,,,,,,,,6
,,,,,html-keyboard-response,98,143158,0.0-6.8-3.8,434,./stimuli//pack_shapes_diff/cat_1/diff_2/ex_1_2_12.png,arrowleft,response,ArrowLeft,12,1,2,test,TRUE,,6
,,,,,html-keyboard-response,99,144662,0.0-6.8-4.8,null,"<p> <font color=""green"" size=""5vw""> Correct category! </font> <br> <br> <font color=""green"" size=""8vw""> + $0.05 </font> </p>",null,feedback,,,,,,,0.45,6
,,,,,html-keyboard-response,100,147462,0.0-6.9-0.9,2799,"
            
        <div style=""text-align: center; position: fixed; top: 5vh; left: 40vw;"">
            <div style=""margin:0 auto; width: 20vw; top: 8vh; font-size: 2vw""> 
            <font color=""green""> Bonus : $0.45 </font>
            </div>
        </div>
    
            <div> Please press any button to continue to the next trial.</div>
        ",arrowright,ITI,,,,,,,,6
,,,,,html-keyboard-response,101,148067,0.0-6.9-1.9,null,"
        
        <div style=""text-align: center; position: fixed; top: 5vh; left: 40vw;"">
            <div style=""margin:0 auto; width: 20vw; top: 8vh; font-size: 2vw""> 
            <font color=""green""> Bonus : $0.45 </font>
            </div>
        </div>
    
        <img class=""stim"" src=./stimuli//pack_shapes_diff/cat_1/diff_2/ex_1_2_1.png></img>
    ",null,stimulus,,,,,,,,6
,,,,,html-keyboard-response,102,149079,0.0-6.9-2.9,null,"
        <div style=""text-align: center; position: fixed; top: 5vh; left: 40vw;"">
            <div style=""margin:0 auto; width: 20vw; top: 8vh; font-size: 2vw""> 
            <font color=""green""> Bonus : $0.45 </font>
            </div>
        </div>
    ",null,,,,,,,,,6
,,,,,html-keyboard-response,103,151958,0.0-6.9-3.9,2878,./stimuli//pack_shapes_diff/cat_1/diff_2/ex_1_2_1.png,arrowright,response,ArrowLeft,1,1,2,test,FALSE,,6
,,,,,html-keyboard-response,104,153464,0.0-6.9-4.9,null,"<p> <font color=""red"" size=""5vw""> Wrong category! </font> </p>",null,feedback,,,,,,,0.45,6
,,,,,html-keyboard-response,105,154533,0.0-6.10-0.10,1068,"
            
        <div style=""text-align: center; position: fixed; top: 5vh; left: 40vw;"">
            <div style=""margin:0 auto; width: 20vw; top: 8vh; font-size: 2vw""> 
            <font color=""green""> Bonus : $0.45 </font>
            </div>
        </div>
    
            <div> Please press any button to continue to the next trial.</div>
        ",arrowright,ITI,,,,,,,,6
,,,,,html-keyboard-response,106,155149,0.0-6.10-1.10,null,"
        
        <div style=""text-align: center; position: fixed; top: 5vh; left: 40vw;"">
            <div style=""margin:0 auto; width: 20vw; top: 8vh; font-size: 2vw""> 
            <font color=""green""> Bonus : $0.45 </font>
            </div>
        </div>
    
        <img class=""stim"" src=./stimuli//pack_shapes_diff/cat_2/diff_3/ex_2_3_15.png></img>
    ",null,stimulus,,,,,,,,6
,,,,,html-keyboard-response,107,156163,0.0-6.10-2.10,null,"
        <div style=""text-align: center; position: fixed; top: 5vh; left: 40vw;"">
            <div style=""margin:0 auto; width: 20vw; top: 8vh; font-size: 2vw""> 
            <font color=""green""> Bonus : $0.45 </font>
            </div>
        </div>
    ",null,,,,,,,,,6
,,,,,html-keyboard-response,108,157046,0.0-6.10-3.10,883,./stimuli//pack_shapes_diff/cat_2/diff_3/ex_2_3_15.png,arrowright,response,ArrowRight,15,2,3,test,TRUE,,6
,,,,,html-keyboard-response,109,158552,0.0-6.10-4.10,null,"<p> <font color=""green"" size=""5vw""> Correct category! </font> <br> <br> <font color=""green"" size=""8vw""> + $0.05 </font> </p>",null,feedback,,,,,,,0.5,6
,,,,,html-keyboard-response,110,159991,0.0-6.11-0.11,1438,"
            
        <div style=""text-align: center; position: fixed; top: 5vh; left: 40vw;"">
            <div style=""margin:0 auto; width: 20vw; top: 8vh; font-size: 2vw""> 
            <font color=""green""> Bonus : $0.5 </font>
            </div>
        </div>
    
            <div> Please press any button to continue to the next trial.</div>
        ",arrowleft,ITI,,,,,,,,6
,,,,,html-keyboard-response,111,160601,0.0-6.11-1.11,null,"
        
        <div style=""text-align: center; position: fixed; top: 5vh; left: 40vw;"">
            <div style=""margin:0 auto; width: 20vw; top: 8vh; font-size: 2vw""> 
            <font color=""green""> Bonus : $0.5 </font>
            </div>
        </div>
    
        <img class=""stim"" src=./stimuli//pack_shapes_diff/cat_1/diff_3/ex_1_3_3.png></img>
    ",null,stimulus,,,,,,,,6
,,,,,html-keyboard-response,112,161611,0.0-6.11-2.11,null,"
        <div style=""text-align: center; position: fixed; top: 5vh; left: 40vw;"">
            <div style=""margin:0 auto; width: 20vw; top: 8vh; font-size: 2vw""> 
            <font color=""green""> Bonus : $0.5 </font>
            </div>
        </div>
    ",null,,,,,,,,,6
,,,,,html-keyboard-response,113,162366,0.0-6.11-3.11,754,./stimuli//pack_shapes_diff/cat_1/diff_3/ex_1_3_3.png,arrowright,response,ArrowLeft,3,1,3,test,FALSE,,6
,,,,,html-keyboard-response,114,163871,0.0-6.11-4.11,null,"<p> <font color=""red"" size=""5vw""> Wrong category! </font> </p>",null,feedback,,,,,,,0.5,6
,,,,,html-keyboard-response,115,165326,0.0-6.12-0.12,1454,"
            
        <div style=""text-align: center; position: fixed; top: 5vh; left: 40vw;"">
            <div style=""margin:0 auto; width: 20vw; top: 8vh; font-size: 2vw""> 
            <font color=""green""> Bonus : $0.5 </font>
            </div>
        </div>
    
            <div> Please press any button to continue to the next trial.</div>
        ",arrowright,ITI,,,,,,,,6
,,,,,html-keyboard-response,116,165930,0.0-6.12-1.12,null,"
        
        <div style=""text-align: center; position: fixed; top: 5vh; left: 40vw;"">
            <div style=""margin:0 auto; width: 20vw; top: 8vh; font-size: 2vw""> 
            <font color=""green""> Bonus : $0.5 </font>
            </div>
        </div>
    
        <img class=""stim"" src=./stimuli//pack_shapes_diff/cat_2/diff_3/ex_2_3_13.png></img>
    ",null,stimulus,,,,,,,,6
,,,,,html-keyboard-response,117,166934,0.0-6.12-2.12,null,"
        <div style=""text-align: center; position: fixed; top: 5vh; left: 40vw;"">
            <div style=""margin:0 auto; width: 20vw; top: 8vh; font-size: 2vw""> 
            <font color=""green""> Bonus : $0.5 </font>
            </div>
        </div>
    ",null,,,,,,,,,6
,,,,,html-keyboard-response,118,167286,0.0-6.12-3.12,352,./stimuli//pack_shapes_diff/cat_2/diff_3/ex_2_3_13.png,arrowright,response,ArrowRight,13,2,3,test,TRUE,,6
,,,,,html-keyboard-response,119,168800,0.0-6.12-4.12,null,"<p> <font color=""green"" size=""5vw""> Correct category! </font> <br> <br> <font color=""green"" size=""8vw""> + $0.05 </font> </p>",null,feedback,,,,,,,0.55,6
,,,,,html-keyboard-response,120,169382,0.0-6.13-0.13,581,"
            
        <div style=""text-align: center; position: fixed; top: 5vh; left: 40vw;"">
            <div style=""margin:0 auto; width: 20vw; top: 8vh; font-size: 2vw""> 
            <font color=""green""> Bonus : $0.55 </font>
            </div>
        </div>
    
            <div> Please press any button to continue to the next trial.</div>
        ",arrowright,ITI,,,,,,,,6
,,,,,html-keyboard-response,121,169996,0.0-6.13-1.13,null,"
        
        <div style=""text-align: center; position: fixed; top: 5vh; left: 40vw;"">
            <div style=""margin:0 auto; width: 20vw; top: 8vh; font-size: 2vw""> 
            <font color=""green""> Bonus : $0.55 </font>
            </div>
        </div>
    
        <img class=""stim"" src=./stimuli//pack_shapes_diff/cat_1/diff_3/ex_1_3_7.png></img>
    ",null,stimulus,,,,,,,,6
,,,,,html-keyboard-response,122,171005,0.0-6.13-2.13,null,"
        <div style=""text-align: center; position: fixed; top: 5vh; left: 40vw;"">
            <div style=""margin:0 auto; width: 20vw; top: 8vh; font-size: 2vw""> 
            <font color=""green""> Bonus : $0.55 </font>
            </div>
        </div>
    ",null,,,,,,,,,6
,,,,,html-keyboard-response,123,171455,0.0-6.13-3.13,449,./stimuli//pack_shapes_diff/cat_1/diff_3/ex_1_3_7.png,arrowleft,response,ArrowLeft,7,1,3,test,TRUE,,6
,,,,,html-keyboard-response,124,172957,0.0-6.13-4.13,null,"<p> <font color=""green"" size=""5vw""> Correct category! </font> <br> <br> <font color=""green"" size=""8vw""> + $0.05 </font> </p>",null,feedback,,,,,,,0.6,6
,,,,,html-keyboard-response,125,173590,0.0-6.14-0.14,632,"
            
        <div style=""text-align: center; position: fixed; top: 5vh; left: 40vw;"">
            <div style=""margin:0 auto; width: 20vw; top: 8vh; font-size: 2vw""> 
            <font color=""green""> Bonus : $0.6 </font>
            </div>
        </div>
    
            <div> Please press any button to continue to the next trial.</div>
        ",arrowright,ITI,,,,,,,,6
,,,,,html-keyboard-response,126,174206,0.0-6.14-1.14,null,"
        
        <div style=""text-align: center; position: fixed; top: 5vh; left: 40vw;"">
            <div style=""margin:0 auto; width: 20vw; top: 8vh; font-size: 2vw""> 
            <font color=""green""> Bonus : $0.6 </font>
            </div>
        </div>
    
        <img class=""stim"" src=./stimuli//pack_shapes_diff/cat_2/diff_3/ex_2_3_16.png></img>
    ",null,stimulus,,,,,,,,6
,,,,,html-keyboard-response,127,175213,0.0-6.14-2.14,null,"
        <div style=""text-align: center; position: fixed; top: 5vh; left: 40vw;"">
            <div style=""margin:0 auto; width: 20vw; top: 8vh; font-size: 2vw""> 
            <font color=""green""> Bonus : $0.6 </font>
            </div>
        </div>
    ",null,,,,,,,,,6
,,,,,html-keyboard-response,128,176502,0.0-6.14-3.14,1288,./stimuli//pack_shapes_diff/cat_2/diff_3/ex_2_3_16.png,arrowright,response,ArrowRight,16,2,3,test,TRUE,,6
,,,,,html-keyboard-response,129,178006,0.0-6.14-4.14,null,"<p> <font color=""green"" size=""5vw""> Correct category! </font> <br> <br> <font color=""green"" size=""8vw""> + $0.05 </font> </p>",null,feedback,,,,,,,0.65,6
,,,,,html-keyboard-response,130,178663,0.0-6.15-0.15,655,"
            
        <div style=""text-align: center; position: fixed; top: 5vh; left: 40vw;"">
            <div style=""margin:0 auto; width: 20vw; top: 8vh; font-size: 2vw""> 
            <font color=""green""> Bonus : $0.65 </font>
            </div>
        </div>
    
            <div> Please press any button to continue to the next trial.</div>
        ",arrowright,ITI,,,,,,,,6
,,,,,html-keyboard-response,131,179272,0.0-6.15-1.15,null,"
        
        <div style=""text-align: center; position: fixed; top: 5vh; left: 40vw;"">
            <div style=""margin:0 auto; width: 20vw; top: 8vh; font-size: 2vw""> 
            <font color=""green""> Bonus : $0.65 </font>
            </div>
        </div>
    
        <img class=""stim"" src=./stimuli//pack_shapes_diff/cat_2/diff_4/ex_2_4_12.png></img>
    ",null,stimulus,,,,,,,,6
,,,,,html-keyboard-response,132,180274,0.0-6.15-2.15,null,"
        <div style=""text-align: center; position: fixed; top: 5vh; left: 40vw;"">
            <div style=""margin:0 auto; width: 20vw; top: 8vh; font-size: 2vw""> 
            <font color=""green""> Bonus : $0.65 </font>
            </div>
        </div>
    ",null,,,,,,,,,6
,,,,,html-keyboard-response,133,180710,0.0-6.15-3.15,435,./stimuli//pack_shapes_diff/cat_2/diff_4/ex_2_4_12.png,arrowright,response,ArrowRight,12,2,4,test,TRUE,,6
,,,,,html-keyboard-response,134,182218,0.0-6.15-4.15,null,"<p> <font color=""green"" size=""5vw""> Correct category! </font> <br> <br> <font color=""green"" size=""8vw""> + $0.05 </font> </p>",null,feedback,,,,,,,0.7,6
,,,,,html-keyboard-response,135,183159,0.0-6.16-0.16,940,"
            
        <div style=""text-align: center; position: fixed; top: 5vh; left: 40vw;"">
            <div style=""margin:0 auto; width: 20vw; top: 8vh; font-size: 2vw""> 
            <font color=""green""> Bonus : $0.7 </font>
            </div>
        </div>
    
            <div> Please press any button to continue to the next trial.</div>
        ",arrowright,ITI,,,,,,,,6
,,,,,html-keyboard-response,136,183773,0.0-6.16-1.16,null,"
        
        <div style=""text-align: center; position: fixed; top: 5vh; left: 40vw;"">
            <div style=""margin:0 auto; width: 20vw; top: 8vh; font-size: 2vw""> 
            <font color=""green""> Bonus : $0.7 </font>
            </div>
        </div>
    
        <img class=""stim"" src=./stimuli//pack_shapes_diff/cat_1/diff_4/ex_1_4_11.png></img>
    ",null,stimulus,,,,,,,,6
,,,,,html-keyboard-response,137,184785,0.0-6.16-2.16,null,"
        <div style=""text-align: center; position: fixed; top: 5vh; left: 40vw;"">
            <div style=""margin:0 auto; width: 20vw; top: 8vh; font-size: 2vw""> 
            <font color=""green""> Bonus : $0.7 </font>
            </div>
        </div>
    ",null,,,,,,,,,6
,,,,,html-keyboard-response,138,185142,0.0-6.16-3.16,357,./stimuli//pack_shapes_diff/cat_1/diff_4/ex_1_4_11.png,arrowleft,response,ArrowLeft,11,1,4,test,TRUE,,6
,,,,,html-keyboard-response,139,186651,0.0-6.16-4.16,null,"<p> <font color=""green"" size=""5vw""> Correct category! </font> <br> <br> <font color=""green"" size=""8vw""> + $0.05 </font> </p>",null,feedback,,,,,,,0.75,6
,,,,,html-keyboard-response,140,187534,0.0-6.17-0.17,882,"
            
        <div style=""text-align: center; position: fixed; top: 5vh; left: 40vw;"">
            <div style=""margin:0 auto; width: 20vw; top: 8vh; font-size: 2vw""> 
            <font color=""green""> Bonus : $0.75 </font>
            </div>
        </div>
    
            <div> Please press any button to continue to the next trial.</div>
        ",arrowright,ITI,,,,,,,,6
,,,,,html-keyboard-response,141,188148,0.0-6.17-1.17,null,"
        
        <div style=""text-align: center; position: fixed; top: 5vh; left: 40vw;"">
            <div style=""margin:0 auto; width: 20vw; top: 8vh; font-size: 2vw""> 
            <font color=""green""> Bonus : $0.75 </font>
            </div>
        </div>
    
        <img class=""stim"" src=./stimuli//pack_shapes_diff/cat_2/diff_4/ex_2_4_13.png></img>
    ",null,stimulus,,,,,,,,6
,,,,,html-keyboard-response,142,189151,0.0-6.17-2.17,null,"
        <div style=""text-align: center; position: fixed; top: 5vh; left: 40vw;"">
            <div style=""margin:0 auto; width: 20vw; top: 8vh; font-size: 2vw""> 
            <font color=""green""> Bonus : $0.75 </font>
            </div>
        </div>
    ",null,,,,,,,,,6
,,,,,html-keyboard-response,143,189926,0.0-6.17-3.17,774,./stimuli//pack_shapes_diff/cat_2/diff_4/ex_2_4_13.png,arrowright,response,ArrowRight,13,2,4,test,TRUE,,6
,,,,,html-keyboard-response,144,191443,0.0-6.17-4.17,null,"<p> <font color=""green"" size=""5vw""> Correct category! </font> <br> <br> <font color=""green"" size=""8vw""> + $0.05 </font> </p>",null,feedback,,,,,,,0.8,6
,,,,,html-keyboard-response,145,191982,0.0-6.18-0.18,539,"
            
        <div style=""text-align: center; position: fixed; top: 5vh; left: 40vw;"">
            <div style=""margin:0 auto; width: 20vw; top: 8vh; font-size: 2vw""> 
            <font color=""green""> Bonus : $0.8 </font>
            </div>
        </div>
    
            <div> Please press any button to continue to the next trial.</div>
        ",arrowright,ITI,,,,,,,,6
,,,,,html-keyboard-response,146,192599,0.0-6.18-1.18,null,"
        
        <div style=""text-align: center; position: fixed; top: 5vh; left: 40vw;"">
            <div style=""margin:0 auto; width: 20vw; top: 8vh; font-size: 2vw""> 
            <font color=""green""> Bonus : $0.8 </font>
            </div>
        </div>
    
        <img class=""stim"" src=./stimuli//pack_shapes_diff/cat_1/diff_4/ex_1_4_9.png></img>
    ",null,stimulus,,,,,,,,6
,,,,,html-keyboard-response,147,193613,0.0-6.18-2.18,null,"
        <div style=""text-align: center; position: fixed; top: 5vh; left: 40vw;"">
            <div style=""margin:0 auto; width: 20vw; top: 8vh; font-size: 2vw""> 
            <font color=""green""> Bonus : $0.8 </font>
            </div>
        </div>
    ",null,,,,,,,,,6
,,,,,html-keyboard-response,148,193975,0.0-6.18-3.18,361,./stimuli//pack_shapes_diff/cat_1/diff_4/ex_1_4_9.png,arrowleft,response,ArrowLeft,9,1,4,test,TRUE,,6
,,,,,html-keyboard-response,149,195476,0.0-6.18-4.18,null,"<p> <font color=""green"" size=""5vw""> Correct category! </font> <br> <br> <font color=""green"" size=""8vw""> + $0.05 </font> </p>",null,feedback,,,,,,,0.85,6
,,,,,html-keyboard-response,150,196110,0.0-6.19-0.19,633,"
            
        <div style=""text-align: center; position: fixed; top: 5vh; left: 40vw;"">
            <div style=""margin:0 auto; width: 20vw; top: 8vh; font-size: 2vw""> 
            <font color=""green""> Bonus : $0.85 </font>
            </div>
        </div>
    
            <div> Please press any button to continue to the next trial.</div>
        ",arrowup,ITI,,,,,,,,6
,,,,,html-keyboard-response,151,196725,0.0-6.19-1.19,null,"
        
        <div style=""text-align: center; position: fixed; top: 5vh; left: 40vw;"">
            <div style=""margin:0 auto; width: 20vw; top: 8vh; font-size: 2vw""> 
            <font color=""green""> Bonus : $0.85 </font>
            </div>
        </div>
    
        <img class=""stim"" src=./stimuli//pack_shapes_diff/cat_2/diff_4/ex_2_4_4.png></img>
    ",null,stimulus,,,,,,,,6
,,,,,html-keyboard-response,152,197737,0.0-6.19-2.19,null,"
        <div style=""text-align: center; position: fixed; top: 5vh; left: 40vw;"">
            <div style=""margin:0 auto; width: 20vw; top: 8vh; font-size: 2vw""> 
            <font color=""green""> Bonus : $0.85 </font>
            </div>
        </div>
    ",null,,,,,,,,,6
,,,,,html-keyboard-response,153,198038,0.0-6.19-3.19,300,./stimuli//pack_shapes_diff/cat_2/diff_4/ex_2_4_4.png,arrowleft,response,ArrowRight,4,2,4,test,FALSE,,6
,,,,,html-keyboard-response,154,199540,0.0-6.19-4.19,null,"<p> <font color=""red"" size=""5vw""> Wrong category! </font> </p>",null,feedback,,,,,,,0.85,6
,,,,,html-keyboard-response,155,200022,0.0-6.20-0.20,481,"
            
        <div style=""text-align: center; position: fixed; top: 5vh; left: 40vw;"">
            <div style=""margin:0 auto; width: 20vw; top: 8vh; font-size: 2vw""> 
            <font color=""green""> Bonus : $0.85 </font>
            </div>
        </div>
    
            <div> Please press any button to continue to the next trial.</div>
        ",arrowright,ITI,,,,,,,,6
,,,,,html-keyboard-response,156,200636,0.0-6.20-1.20,null,"
        
        <div style=""text-align: center; position: fixed; top: 5vh; left: 40vw;"">
            <div style=""margin:0 auto; width: 20vw; top: 8vh; font-size: 2vw""> 
            <font color=""green""> Bonus : $0.85 </font>
            </div>
        </div>
    
        <img class=""stim"" src=./stimuli//pack_shapes_diff/cat_2/diff_5/ex_2_5_13.png></img>
    ",null,stimulus,,,,,,,,6
,,,,,html-keyboard-response,157,201651,0.0-6.20-2.20,null,"
        <div style=""text-align: center; position: fixed; top: 5vh; left: 40vw;"">
            <div style=""margin:0 auto; width: 20vw; top: 8vh; font-size: 2vw""> 
            <font color=""green""> Bonus : $0.85 </font>
            </div>
        </div>
    ",null,,,,,,,,,6
,,,,,html-keyboard-response,158,202110,0.0-6.20-3.20,458,./stimuli//pack_shapes_diff/cat_2/diff_5/ex_2_5_13.png,arrowright,response,ArrowRight,13,2,5,test,TRUE,,6
,,,,,html-keyboard-response,159,203623,0.0-6.20-4.20,null,"<p> <font color=""green"" size=""5vw""> Correct category! </font> <br> <br> <font color=""green"" size=""8vw""> + $0.05 </font> </p>",null,feedback,,,,,,,0.9,6
,,,,,html-keyboard-response,160,204055,0.0-6.21-0.21,430,"
            
        <div style=""text-align: center; position: fixed; top: 5vh; left: 40vw;"">
            <div style=""margin:0 auto; width: 20vw; top: 8vh; font-size: 2vw""> 
            <font color=""green""> Bonus : $0.9 </font>
            </div>
        </div>
    
            <div> Please press any button to continue to the next trial.</div>
        ",arrowright,ITI,,,,,,,,6
,,,,,html-keyboard-response,161,204669,0.0-6.21-1.21,null,"
        
        <div style=""text-align: center; position: fixed; top: 5vh; left: 40vw;"">
            <div style=""margin:0 auto; width: 20vw; top: 8vh; font-size: 2vw""> 
            <font color=""green""> Bonus : $0.9 </font>
            </div>
        </div>
    
        <img class=""stim"" src=./stimuli//pack_shapes_diff/cat_1/diff_5/ex_1_5_10.png></img>
    ",null,stimulus,,,,,,,,6
,,,,,html-keyboard-response,162,205686,0.0-6.21-2.21,null,"
        <div style=""text-align: center; position: fixed; top: 5vh; left: 40vw;"">
            <div style=""margin:0 auto; width: 20vw; top: 8vh; font-size: 2vw""> 
            <font color=""green""> Bonus : $0.9 </font>
            </div>
        </div>
    ",null,,,,,,,,,6
,,,,,html-keyboard-response,163,206086,0.0-6.21-3.21,399,./stimuli//pack_shapes_diff/cat_1/diff_5/ex_1_5_10.png,arrowright,response,ArrowLeft,10,1,5,test,FALSE,,6
,,,,,html-keyboard-response,164,207590,0.0-6.21-4.21,null,"<p> <font color=""red"" size=""5vw""> Wrong category! </font> </p>",null,feedback,,,,,,,0.9,6
,,,,,html-keyboard-response,165,207934,0.0-6.22-0.22,343,"
            
        <div style=""text-align: center; position: fixed; top: 5vh; left: 40vw;"">
            <div style=""margin:0 auto; width: 20vw; top: 8vh; font-size: 2vw""> 
            <font color=""green""> Bonus : $0.9 </font>
            </div>
        </div>
    
            <div> Please press any button to continue to the next trial.</div>
        ",arrowright,ITI,,,,,,,,6
,,,,,html-keyboard-response,166,208538,0.0-6.22-1.22,null,"
        
        <div style=""text-align: center; position: fixed; top: 5vh; left: 40vw;"">
            <div style=""margin:0 auto; width: 20vw; top: 8vh; font-size: 2vw""> 
            <font color=""green""> Bonus : $0.9 </font>
            </div>
        </div>
    
        <img class=""stim"" src=./stimuli//pack_shapes_diff/cat_2/diff_5/ex_2_5_14.png></img>
    ",null,stimulus,,,,,,,,6
,,,,,html-keyboard-response,167,209555,0.0-6.22-2.22,null,"
        <div style=""text-align: center; position: fixed; top: 5vh; left: 40vw;"">
            <div style=""margin:0 auto; width: 20vw; top: 8vh; font-size: 2vw""> 
            <font color=""green""> Bonus : $0.9 </font>
            </div>
        </div>
    ",null,,,,,,,,,6
,,,,,html-keyboard-response,168,209878,0.0-6.22-3.22,322,./stimuli//pack_shapes_diff/cat_2/diff_5/ex_2_5_14.png,arrowright,response,ArrowRight,14,2,5,test,TRUE,,6
,,,,,html-keyboard-response,169,211381,0.0-6.22-4.22,null,"<p> <font color=""green"" size=""5vw""> Correct category! </font> <br> <br> <font color=""green"" size=""8vw""> + $0.05 </font> </p>",null,feedback,,,,,,,0.95,6
,,,,,html-keyboard-response,170,211677,0.0-6.23-0.23,296,"
            
        <div style=""text-align: center; position: fixed; top: 5vh; left: 40vw;"">
            <div style=""margin:0 auto; width: 20vw; top: 8vh; font-size: 2vw""> 
            <font color=""green""> Bonus : $0.95 </font>
            </div>
        </div>
    
            <div> Please press any button to continue to the next trial.</div>
        ",arrowright,ITI,,,,,,,,6
,,,,,html-keyboard-response,171,212286,0.0-6.23-1.23,null,"
        
        <div style=""text-align: center; position: fixed; top: 5vh; left: 40vw;"">
            <div style=""margin:0 auto; width: 20vw; top: 8vh; font-size: 2vw""> 
            <font color=""green""> Bonus : $0.95 </font>
            </div>
        </div>
    
        <img class=""stim"" src=./stimuli//pack_shapes_diff/cat_2/diff_5/ex_2_5_13.png></img>
    ",null,stimulus,,,,,,,,6
,,,,,html-keyboard-response,172,213301,0.0-6.23-2.23,null,"
        <div style=""text-align: center; position: fixed; top: 5vh; left: 40vw;"">
            <div style=""margin:0 auto; width: 20vw; top: 8vh; font-size: 2vw""> 
            <font color=""green""> Bonus : $0.95 </font>
            </div>
        </div>
    ",null,,,,,,,,,6
,,,,,html-keyboard-response,173,213574,0.0-6.23-3.23,272,./stimuli//pack_shapes_diff/cat_2/diff_5/ex_2_5_13.png,arrowright,response,ArrowRight,13,2,5,test,TRUE,,6
,,,,,html-keyboard-response,174,215085,0.0-6.23-4.23,null,"<p> <font color=""green"" size=""5vw""> Correct category! </font> <br> <br> <font color=""green"" size=""8vw""> + $0.05 </font> </p>",null,feedback,,,,,,,1,6
,,,,,html-keyboard-response,175,215631,0.0-6.24-0.24,544,"
            
        <div style=""text-align: center; position: fixed; top: 5vh; left: 40vw;"">
            <div style=""margin:0 auto; width: 20vw; top: 8vh; font-size: 2vw""> 
            <font color=""green""> Bonus : $1 </font>
            </div>
        </div>
    
            <div> Please press any button to continue to the next trial.</div>
        ",arrowright,ITI,,,,,,,,6
,,,,,html-keyboard-response,176,216242,0.0-6.24-1.24,null,"
        
        <div style=""text-align: center; position: fixed; top: 5vh; left: 40vw;"">
            <div style=""margin:0 auto; width: 20vw; top: 8vh; font-size: 2vw""> 
            <font color=""green""> Bonus : $1 </font>
            </div>
        </div>
    
        <img class=""stim"" src=./stimuli//pack_shapes_diff/cat_2/diff_5/ex_2_5_17.png></img>
    ",null,stimulus,,,,,,,,6
,,,,,html-keyboard-response,177,217257,0.0-6.24-2.24,null,"
        <div style=""text-align: center; position: fixed; top: 5vh; left: 40vw;"">
            <div style=""margin:0 auto; width: 20vw; top: 8vh; font-size: 2vw""> 
            <font color=""green""> Bonus : $1 </font>
            </div>
        </div>
    ",null,,,,,,,,,6
,,,,,html-keyboard-response,178,217598,0.0-6.24-3.24,340,./stimuli//pack_shapes_diff/cat_2/diff_5/ex_2_5_17.png,arrowright,response,ArrowRight,17,2,5,test,TRUE,,6
,,,,,html-keyboard-response,179,219107,0.0-6.24-4.24,null,"<p> <font color=""green"" size=""5vw""> Correct category! </font> <br> <br> <font color=""green"" size=""8vw""> + $0.05 </font> </p>",null,feedback,,,,,,,1.05,6
,,,,,html-keyboard-response,180,220150,0.0-6.25-0.25,1042,"
            
        <div style=""text-align: center; position: fixed; top: 5vh; left: 40vw;"">
            <div style=""margin:0 auto; width: 20vw; top: 8vh; font-size: 2vw""> 
            <font color=""green""> Bonus : $1.05 </font>
            </div>
        </div>
    
            <div> Please press any button to continue to the next trial.</div>
        ",arrowright,ITI,,,,,,,,6
,,,,,html-keyboard-response,181,220754,0.0-6.25-1.25,null,"
        
        <div style=""text-align: center; position: fixed; top: 5vh; left: 40vw;"">
            <div style=""margin:0 auto; width: 20vw; top: 8vh; font-size: 2vw""> 
            <font color=""green""> Bonus : $1.05 </font>
            </div>
        </div>
    
        <img class=""stim"" src=./stimuli//pack_shapes_diff/cat_1/diff_5/ex_1_5_9.png></img>
    ",null,stimulus,,,,,,,,6
,,,,,html-keyboard-response,182,221762,0.0-6.25-2.25,null,"
        <div style=""text-align: center; position: fixed; top: 5vh; left: 40vw;"">
            <div style=""margin:0 auto; width: 20vw; top: 8vh; font-size: 2vw""> 
            <font color=""green""> Bonus : $1.05 </font>
            </div>
        </div>
    ",null,,,,,,,,,6
,,,,,html-keyboard-response,183,222158,0.0-6.25-3.25,395,./stimuli//pack_shapes_diff/cat_1/diff_5/ex_1_5_9.png,arrowright,response,ArrowLeft,9,1,5,test,FALSE,,6
,,,,,html-keyboard-response,184,223667,0.0-6.25-4.25,null,"<p> <font color=""red"" size=""5vw""> Wrong category! </font> </p>",null,feedback,,,,,,,1.05,6
,,,,,html-keyboard-response,185,224110,0.0-6.26-0.26,442,"
            
        <div style=""text-align: center; position: fixed; top: 5vh; left: 40vw;"">
            <div style=""margin:0 auto; width: 20vw; top: 8vh; font-size: 2vw""> 
            <font color=""green""> Bonus : $1.05 </font>
            </div>
        </div>
    
            <div> Please press any button to continue to the next trial.</div>
        ",arrowright,ITI,,,,,,,,6
,,,,,html-keyboard-response,186,224727,0.0-6.26-1.26,null,"
        
        <div style=""text-align: center; position: fixed; top: 5vh; left: 40vw;"">
            <div style=""margin:0 auto; width: 20vw; top: 8vh; font-size: 2vw""> 
            <font color=""green""> Bonus : $1.05 </font>
            </div>
        </div>
    
        <img class=""stim"" src=./stimuli//pack_shapes_diff/cat_2/diff_4/ex_2_4_17.png></img>
    ",null,stimulus,,,,,,,,6
,,,,,html-keyboard-response,187,225743,0.0-6.26-2.26,null,"
        <div style=""text-align: center; position: fixed; top: 5vh; left: 40vw;"">
            <div style=""margin:0 auto; width: 20vw; top: 8vh; font-size: 2vw""> 
            <font color=""green""> Bonus : $1.05 </font>
            </div>
        </div>
    ",null,,,,,,,,,6
,,,,,html-keyboard-response,188,226070,0.0-6.26-3.26,327,./stimuli//pack_shapes_diff/cat_2/diff_4/ex_2_4_17.png,arrowleft,response,ArrowRight,17,2,4,test,FALSE,,6
,,,,,html-keyboard-response,189,227572,0.0-6.26-4.26,null,"<p> <font color=""red"" size=""5vw""> Wrong category! </font> </p>",null,feedback,,,,,,,1.05,6
,,,,,html-keyboard-response,190,228230,0.0-6.27-0.27,657,"
            
        <div style=""text-align: center; position: fixed; top: 5vh; left: 40vw;"">
            <div style=""margin:0 auto; width: 20vw; top: 8vh; font-size: 2vw""> 
            <font color=""green""> Bonus : $1.05 </font>
            </div>
        </div>
    
            <div> Please press any button to continue to the next trial.</div>
        ",arrowright,ITI,,,,,,,,6
,,,,,html-keyboard-response,191,228838,0.0-6.27-1.27,null,"
        
        <div style=""text-align: center; position: fixed; top: 5vh; left: 40vw;"">
            <div style=""margin:0 auto; width: 20vw; top: 8vh; font-size: 2vw""> 
            <font color=""green""> Bonus : $1.05 </font>
            </div>
        </div>
    
        <img class=""stim"" src=./stimuli//pack_shapes_diff/cat_2/diff_4/ex_2_4_3.png></img>
    ",null,stimulus,,,,,,,,6
,,,,,html-keyboard-response,192,229853,0.0-6.27-2.27,null,"
        <div style=""text-align: center; position: fixed; top: 5vh; left: 40vw;"">
            <div style=""margin:0 auto; width: 20vw; top: 8vh; font-size: 2vw""> 
            <font color=""green""> Bonus : $1.05 </font>
            </div>
        </div>
    ",null,,,,,,,,,6
,,,,,html-keyboard-response,193,230886,0.0-6.27-3.27,1032,./stimuli//pack_shapes_diff/cat_2/diff_4/ex_2_4_3.png,arrowright,response,ArrowRight,3,2,4,test,TRUE,,6
,,,,,html-keyboard-response,194,232391,0.0-6.27-4.27,null,"<p> <font color=""green"" size=""5vw""> Correct category! </font> <br> <br> <font color=""green"" size=""8vw""> + $0.05 </font> </p>",null,feedback,,,,,,,1.1,6
,,,,,html-keyboard-response,195,232781,0.0-6.28-0.28,389,"
            
        <div style=""text-align: center; position: fixed; top: 5vh; left: 40vw;"">
            <div style=""margin:0 auto; width: 20vw; top: 8vh; font-size: 2vw""> 
            <font color=""green""> Bonus : $1.1 </font>
            </div>
        </div>
    
            <div> Please press any button to continue to the next trial.</div>
        ",arrowright,ITI,,,,,,,,6
,,,,,html-keyboard-response,196,233387,0.0-6.28-1.28,null,"
        
        <div style=""text-align: center; position: fixed; top: 5vh; left: 40vw;"">
            <div style=""margin:0 auto; width: 20vw; top: 8vh; font-size: 2vw""> 
            <font color=""green""> Bonus : $1.1 </font>
            </div>
        </div>
    
        <img class=""stim"" src=./stimuli//pack_shapes_diff/cat_2/diff_4/ex_2_4_7.png></img>
    ",null,stimulus,,,,,,,,6
,,,,,html-keyboard-response,197,234402,0.0-6.28-2.28,null,"
        <div style=""text-align: center; position: fixed; top: 5vh; left: 40vw;"">
            <div style=""margin:0 auto; width: 20vw; top: 8vh; font-size: 2vw""> 
            <font color=""green""> Bonus : $1.1 </font>
            </div>
        </div>
    ",null,,,,,,,,,6
,,,,,html-keyboard-response,198,234949,0.0-6.28-3.28,546,./stimuli//pack_shapes_diff/cat_2/diff_4/ex_2_4_7.png,arrowright,response,ArrowRight,7,2,4,test,TRUE,,6
,,,,,html-keyboard-response,199,236456,0.0-6.28-4.28,null,"<p> <font color=""green"" size=""5vw""> Correct category! </font> <br> <br> <font color=""green"" size=""8vw""> + $0.05 </font> </p>",null,feedback,,,,,,,1.15,6
,,,,,html-keyboard-response,200,236997,0.0-6.29-0.29,538,"
            
        <div style=""text-align: center; position: fixed; top: 5vh; left: 40vw;"">
            <div style=""margin:0 auto; width: 20vw; top: 8vh; font-size: 2vw""> 
            <font color=""green""> Bonus : $1.15 </font>
            </div>
        </div>
    
            <div> Please press any button to continue to the next trial.</div>
        ",arrowright,ITI,,,,,,,,6
,,,,,html-keyboard-response,201,237601,0.0-6.29-1.29,null,"
        
        <div style=""text-align: center; position: fixed; top: 5vh; left: 40vw;"">
            <div style=""margin:0 auto; width: 20vw; top: 8vh; font-size: 2vw""> 
            <font color=""green""> Bonus : $1.15 </font>
            </div>
        </div>
    
        <img class=""stim"" src=./stimuli//pack_shapes_diff/cat_1/diff_4/ex_1_4_2.png></img>
    ",null,stimulus,,,,,,,,6
,,,,,html-keyboard-response,202,238617,0.0-6.29-2.29,null,"
        <div style=""text-align: center; position: fixed; top: 5vh; left: 40vw;"">
            <div style=""margin:0 auto; width: 20vw; top: 8vh; font-size: 2vw""> 
            <font color=""green""> Bonus : $1.15 </font>
            </div>
        </div>
    ",null,,,,,,,,,6
,,,,,html-keyboard-response,203,239029,0.0-6.29-3.29,411,./stimuli//pack_shapes_diff/cat_1/diff_4/ex_1_4_2.png,arrowright,response,ArrowLeft,2,1,4,test,FALSE,,6
,,,,,html-keyboard-response,204,240542,0.0-6.29-4.29,null,"<p> <font color=""red"" size=""5vw""> Wrong category! </font> </p>",null,feedback,,,,,,,1.15,6
,,,,,html-keyboard-response,205,240878,0.0-6.30-0.30,335,"
            
        <div style=""text-align: center; position: fixed; top: 5vh; left: 40vw;"">
            <div style=""margin:0 auto; width: 20vw; top: 8vh; font-size: 2vw""> 
            <font color=""green""> Bonus : $1.15 </font>
            </div>
        </div>
    
            <div> Please press any button to continue to the next trial.</div>
        ",arrowright,ITI,,,,,,,,6
,,,,,html-keyboard-response,206,241489,0.0-6.30-1.30,null,"
        
        <div style=""text-align: center; position: fixed; top: 5vh; left: 40vw;"">
            <div style=""margin:0 auto; width: 20vw; top: 8vh; font-size: 2vw""> 
            <font color=""green""> Bonus : $1.15 </font>
            </div>
        </div>
    
        <img class=""stim"" src=./stimuli//pack_shapes_diff/cat_1/diff_4/ex_1_4_13.png></img>
    ",null,stimulus,,,,,,,,6
,,,,,html-keyboard-response,207,242499,0.0-6.30-2.30,null,"
        <div style=""text-align: center; position: fixed; top: 5vh; left: 40vw;"">
            <div style=""margin:0 auto; width: 20vw; top: 8vh; font-size: 2vw""> 
            <font color=""green""> Bonus : $1.15 </font>
            </div>
        </div>
    ",null,,,,,,,,,6
,,,,,html-keyboard-response,208,242782,0.0-6.30-3.30,283,./stimuli//pack_shapes_diff/cat_1/diff_4/ex_1_4_13.png,arrowleft,response,ArrowLeft,13,1,4,test,TRUE,,6
,,,,,html-keyboard-response,209,244291,0.0-6.30-4.30,null,"<p> <font color=""green"" size=""5vw""> Correct category! </font> <br> <br> <font color=""green"" size=""8vw""> + $0.05 </font> </p>",null,feedback,,,,,,,1.2,6
,,,,,html-keyboard-response,210,244734,0.0-6.31-0.31,442,"
            
        <div style=""text-align: center; position: fixed; top: 5vh; left: 40vw;"">
            <div style=""margin:0 auto; width: 20vw; top: 8vh; font-size: 2vw""> 
            <font color=""green""> Bonus : $1.2 </font>
            </div>
        </div>
    
            <div> Please press any button to continue to the next trial.</div>
        ",arrowright,ITI,,,,,,,,6
,,,,,html-keyboard-response,211,245341,0.0-6.31-1.31,null,"
        
        <div style=""text-align: center; position: fixed; top: 5vh; left: 40vw;"">
            <div style=""margin:0 auto; width: 20vw; top: 8vh; font-size: 2vw""> 
            <font color=""green""> Bonus : $1.2 </font>
            </div>
        </div>
    
        <img class=""stim"" src=./stimuli//pack_shapes_diff/cat_1/diff_3/ex_1_3_11.png></img>
    ",null,stimulus,,,,,,,,6
,,,,,html-keyboard-response,212,246352,0.0-6.31-2.31,null,"
        <div style=""text-align: center; position: fixed; top: 5vh; left: 40vw;"">
            <div style=""margin:0 auto; width: 20vw; top: 8vh; font-size: 2vw""> 
            <font color=""green""> Bonus : $1.2 </font>
            </div>
        </div>
    ",null,,,,,,,,,6
,,,,,html-keyboard-response,213,246678,0.0-6.31-3.31,326,./stimuli//pack_shapes_diff/cat_1/diff_3/ex_1_3_11.png,arrowleft,response,ArrowLeft,11,1,3,test,TRUE,,6
,,,,,html-keyboard-response,214,248184,0.0-6.31-4.31,null,"<p> <font color=""green"" size=""5vw""> Correct category! </font> <br> <br> <font color=""green"" size=""8vw""> + $0.05 </font> </p>",null,feedback,,,,,,,1.25,6
,,,,,html-keyboard-response,215,248567,0.0-6.32-0.32,381,"
            
        <div style=""text-align: center; position: fixed; top: 5vh; left: 40vw;"">
            <div style=""margin:0 auto; width: 20vw; top: 8vh; font-size: 2vw""> 
            <font color=""green""> Bonus : $1.25 </font>
            </div>
        </div>
    
            <div> Please press any button to continue to the next trial.</div>
        ",arrowright,ITI,,,,,,,,6
,,,,,html-keyboard-response,216,249176,0.0-6.32-1.32,null,"
        
        <div style=""text-align: center; position: fixed; top: 5vh; left: 40vw;"">
            <div style=""margin:0 auto; width: 20vw; top: 8vh; font-size: 2vw""> 
            <font color=""green""> Bonus : $1.25 </font>
            </div>
        </div>
    
        <img class=""stim"" src=./stimuli//pack_shapes_diff/cat_1/diff_3/ex_1_3_14.png></img>
    ",null,stimulus,,,,,,,,6
,,,,,html-keyboard-response,217,250186,0.0-6.32-2.32,null,"
        <div style=""text-align: center; position: fixed; top: 5vh; left: 40vw;"">
            <div style=""margin:0 auto; width: 20vw; top: 8vh; font-size: 2vw""> 
            <font color=""green""> Bonus : $1.25 </font>
            </div>
        </div>
    ",null,,,,,,,,,6
,,,,,html-keyboard-response,218,250582,0.0-6.32-3.32,395,./stimuli//pack_shapes_diff/cat_1/diff_3/ex_1_3_14.png,arrowleft,response,ArrowLeft,14,1,3,test,TRUE,,6
,,,,,html-keyboard-response,219,252091,0.0-6.32-4.32,null,"<p> <font color=""green"" size=""5vw""> Correct category! </font> <br> <br> <font color=""green"" size=""8vw""> + $0.05 </font> </p>",null,feedback,,,,,,,1.3,6
,,,,,html-keyboard-response,220,252454,0.0-6.33-0.33,361,"
            
        <div style=""text-align: center; position: fixed; top: 5vh; left: 40vw;"">
            <div style=""margin:0 auto; width: 20vw; top: 8vh; font-size: 2vw""> 
            <font color=""green""> Bonus : $1.3 </font>
            </div>
        </div>
    
            <div> Please press any button to continue to the next trial.</div>
        ",arrowright,ITI,,,,,,,,6
,,,,,html-keyboard-response,221,253059,0.0-6.33-1.33,null,"
        
        <div style=""text-align: center; position: fixed; top: 5vh; left: 40vw;"">
            <div style=""margin:0 auto; width: 20vw; top: 8vh; font-size: 2vw""> 
            <font color=""green""> Bonus : $1.3 </font>
            </div>
        </div>
    
        <img class=""stim"" src=./stimuli//pack_shapes_diff/cat_2/diff_3/ex_2_3_6.png></img>
    ",null,stimulus,,,,,,,,6
,,,,,html-keyboard-response,222,254067,0.0-6.33-2.33,null,"
        <div style=""text-align: center; position: fixed; top: 5vh; left: 40vw;"">
            <div style=""margin:0 auto; width: 20vw; top: 8vh; font-size: 2vw""> 
            <font color=""green""> Bonus : $1.3 </font>
            </div>
        </div>
    ",null,,,,,,,,,6
,,,,,html-keyboard-response,223,254478,0.0-6.33-3.33,410,./stimuli//pack_shapes_diff/cat_2/diff_3/ex_2_3_6.png,arrowright,response,ArrowRight,6,2,3,test,TRUE,,6
,,,,,html-keyboard-response,224,255984,0.0-6.33-4.33,null,"<p> <font color=""green"" size=""5vw""> Correct category! </font> <br> <br> <font color=""green"" size=""8vw""> + $0.05 </font> </p>",null,feedback,,,,,,,1.35,6
,,,,,html-keyboard-response,225,256798,0.0-6.34-0.34,814,"
            
        <div style=""text-align: center; position: fixed; top: 5vh; left: 40vw;"">
            <div style=""margin:0 auto; width: 20vw; top: 8vh; font-size: 2vw""> 
            <font color=""green""> Bonus : $1.35 </font>
            </div>
        </div>
    
            <div> Please press any button to continue to the next trial.</div>
        ",arrowright,ITI,,,,,,,,6
,,,,,html-keyboard-response,226,257407,0.0-6.34-1.34,null,"
        
        <div style=""text-align: center; position: fixed; top: 5vh; left: 40vw;"">
            <div style=""margin:0 auto; width: 20vw; top: 8vh; font-size: 2vw""> 
            <font color=""green""> Bonus : $1.35 </font>
            </div>
        </div>
    
        <img class=""stim"" src=./stimuli//pack_shapes_diff/cat_2/diff_3/ex_2_3_4.png></img>
    ",null,stimulus,,,,,,,,6
,,,,,html-keyboard-response,227,258418,0.0-6.34-2.34,null,"
        <div style=""text-align: center; position: fixed; top: 5vh; left: 40vw;"">
            <div style=""margin:0 auto; width: 20vw; top: 8vh; font-size: 2vw""> 
            <font color=""green""> Bonus : $1.35 </font>
            </div>
        </div>
    ",null,,,,,,,,,6
,,,,,html-keyboard-response,228,258694,0.0-6.34-3.34,275,./stimuli//pack_shapes_diff/cat_2/diff_3/ex_2_3_4.png,arrowright,response,ArrowRight,4,2,3,test,TRUE,,6
,,,,,html-keyboard-response,229,260199,0.0-6.34-4.34,null,"<p> <font color=""green"" size=""5vw""> Correct category! </font> <br> <br> <font color=""green"" size=""8vw""> + $0.05 </font> </p>",null,feedback,,,,,,,1.4,6
,,,,,html-keyboard-response,230,260758,0.0-6.35-0.35,559,"
            
        <div style=""text-align: center; position: fixed; top: 5vh; left: 40vw;"">
            <div style=""margin:0 auto; width: 20vw; top: 8vh; font-size: 2vw""> 
            <font color=""green""> Bonus : $1.4 </font>
            </div>
        </div>
    
            <div> Please press any button to continue to the next trial.</div>
        ",arrowright,ITI,,,,,,,,6
,,,,,html-keyboard-response,231,261369,0.0-6.35-1.35,null,"
        
        <div style=""text-align: center; position: fixed; top: 5vh; left: 40vw;"">
            <div style=""margin:0 auto; width: 20vw; top: 8vh; font-size: 2vw""> 
            <font color=""green""> Bonus : $1.4 </font>
            </div>
        </div>
    
        <img class=""stim"" src=./stimuli//pack_shapes_diff/cat_2/diff_3/ex_2_3_13.png></img>
    ",null,stimulus,,,,,,,,6
,,,,,html-keyboard-response,232,262373,0.0-6.35-2.35,null,"
        <div style=""text-align: center; position: fixed; top: 5vh; left: 40vw;"">
            <div style=""margin:0 auto; width: 20vw; top: 8vh; font-size: 2vw""> 
            <font color=""green""> Bonus : $1.4 </font>
            </div>
        </div>
    ",null,,,,,,,,,6
,,,,,html-keyboard-response,233,262726,0.0-6.35-3.35,352,./stimuli//pack_shapes_diff/cat_2/diff_3/ex_2_3_13.png,arrowright,response,ArrowRight,13,2,3,test,TRUE,,6
,,,,,html-keyboard-response,234,264230,0.0-6.35-4.35,null,"<p> <font color=""green"" size=""5vw""> Correct category! </font> <br> <br> <font color=""green"" size=""8vw""> + $0.05 </font> </p>",null,feedback,,,,,,,1.45,6
,,,,,html-keyboard-response,235,264862,0.0-6.36-0.36,632,"
            
        <div style=""text-align: center; position: fixed; top: 5vh; left: 40vw;"">
            <div style=""margin:0 auto; width: 20vw; top: 8vh; font-size: 2vw""> 
            <font color=""green""> Bonus : $1.45 </font>
            </div>
        </div>
    
            <div> Please press any button to continue to the next trial.</div>
        ",arrowright,ITI,,,,,,,,6
,,,,,html-keyboard-response,236,265476,0.0-6.36-1.36,null,"
        
        <div style=""text-align: center; position: fixed; top: 5vh; left: 40vw;"">
            <div style=""margin:0 auto; width: 20vw; top: 8vh; font-size: 2vw""> 
            <font color=""green""> Bonus : $1.45 </font>
            </div>
        </div>
    
        <img class=""stim"" src=./stimuli//pack_shapes_diff/cat_2/diff_4/ex_2_4_13.png></img>
    ",null,stimulus,,,,,,,,6
,,,,,html-keyboard-response,237,266480,0.0-6.36-2.36,null,"
        <div style=""text-align: center; position: fixed; top: 5vh; left: 40vw;"">
            <div style=""margin:0 auto; width: 20vw; top: 8vh; font-size: 2vw""> 
            <font color=""green""> Bonus : $1.45 </font>
            </div>
        </div>
    ",null,,,,,,,,,6
,,,,,html-keyboard-response,238,266774,0.0-6.36-3.36,294,./stimuli//pack_shapes_diff/cat_2/diff_4/ex_2_4_13.png,arrowright,response,ArrowRight,13,2,4,test,TRUE,,6
,,,,,html-keyboard-response,239,268283,0.0-6.36-4.36,null,"<p> <font color=""green"" size=""5vw""> Correct category! </font> <br> <br> <font color=""green"" size=""8vw""> + $0.05 </font> </p>",null,feedback,,,,,,,1.5,6
,,,,,html-keyboard-response,240,268822,0.0-6.37-0.37,539,"
            
        <div style=""text-align: center; position: fixed; top: 5vh; left: 40vw;"">
            <div style=""margin:0 auto; width: 20vw; top: 8vh; font-size: 2vw""> 
            <font color=""green""> Bonus : $1.5 </font>
            </div>
        </div>
    
            <div> Please press any button to continue to the next trial.</div>
        ",arrowright,ITI,,,,,,,,6
,,,,,html-keyboard-response,241,269426,0.0-6.37-1.37,null,"
        
        <div style=""text-align: center; position: fixed; top: 5vh; left: 40vw;"">
            <div style=""margin:0 auto; width: 20vw; top: 8vh; font-size: 2vw""> 
            <font color=""green""> Bonus : $1.5 </font>
            </div>
        </div>
    
        <img class=""stim"" src=./stimuli//pack_shapes_diff/cat_1/diff_4/ex_1_4_13.png></img>
    ",null,stimulus,,,,,,,,6
,,,,,html-keyboard-response,242,270437,0.0-6.37-2.37,null,"
        <div style=""text-align: center; position: fixed; top: 5vh; left: 40vw;"">
            <div style=""margin:0 auto; width: 20vw; top: 8vh; font-size: 2vw""> 
            <font color=""green""> Bonus : $1.5 </font>
            </div>
        </div>
    ",null,,,,,,,,,6
,,,,,html-keyboard-response,243,270958,0.0-6.37-3.37,520,./stimuli//pack_shapes_diff/cat_1/diff_4/ex_1_4_13.png,arrowleft,response,ArrowLeft,13,1,4,test,TRUE,,6
,,,,,html-keyboard-response,244,272462,0.0-6.37-4.37,null,"<p> <font color=""green"" size=""5vw""> Correct category! </font> <br> <br> <font color=""green"" size=""8vw""> + $0.05 </font> </p>",null,feedback,,,,,,,1.55,6
,,,,,html-keyboard-response,245,272910,0.0-6.38-0.38,447,"
            
        <div style=""text-align: center; position: fixed; top: 5vh; left: 40vw;"">
            <div style=""margin:0 auto; width: 20vw; top: 8vh; font-size: 2vw""> 
            <font color=""green""> Bonus : $1.55 </font>
            </div>
        </div>
    
            <div> Please press any button to continue to the next trial.</div>
        ",arrowright,ITI,,,,,,,,6
,,,,,html-keyboard-response,246,273527,0.0-6.38-1.38,null,"
        
        <div style=""text-align: center; position: fixed; top: 5vh; left: 40vw;"">
            <div style=""margin:0 auto; width: 20vw; top: 8vh; font-size: 2vw""> 
            <font color=""green""> Bonus : $1.55 </font>
            </div>
        </div>
    
        <img class=""stim"" src=./stimuli//pack_shapes_diff/cat_1/diff_4/ex_1_4_2.png></img>
    ",null,stimulus,,,,,,,,6
,,,,,html-keyboard-response,247,274538,0.0-6.38-2.38,null,"
        <div style=""text-align: center; position: fixed; top: 5vh; left: 40vw;"">
            <div style=""margin:0 auto; width: 20vw; top: 8vh; font-size: 2vw""> 
            <font color=""green""> Bonus : $1.55 </font>
            </div>
        </div>
    ",null,,,,,,,,,6
,,,,,html-keyboard-response,248,274870,0.0-6.38-3.38,331,./stimuli//pack_shapes_diff/cat_1/diff_4/ex_1_4_2.png,arrowright,response,ArrowLeft,2,1,4,test,FALSE,,6
,,,,,html-keyboard-response,249,276371,0.0-6.38-4.38,null,"<p> <font color=""red"" size=""5vw""> Wrong category! </font> </p>",null,feedback,,,,,,,1.55,6
,,,,,html-keyboard-response,250,276886,0.0-6.39-0.39,514,"
            
        <div style=""text-align: center; position: fixed; top: 5vh; left: 40vw;"">
            <div style=""margin:0 auto; width: 20vw; top: 8vh; font-size: 2vw""> 
            <font color=""green""> Bonus : $1.55 </font>
            </div>
        </div>
    
            <div> Please press any button to continue to the next trial.</div>
        ",arrowright,ITI,,,,,,,,6
,,,,,html-keyboard-response,251,277501,0.0-6.39-1.39,null,"
        
        <div style=""text-align: center; position: fixed; top: 5vh; left: 40vw;"">
            <div style=""margin:0 auto; width: 20vw; top: 8vh; font-size: 2vw""> 
            <font color=""green""> Bonus : $1.55 </font>
            </div>
        </div>
    
        <img class=""stim"" src=./stimuli//pack_shapes_diff/cat_1/diff_4/ex_1_4_5.png></img>
    ",null,stimulus,,,,,,,,6
,,,,,html-keyboard-response,252,278516,0.0-6.39-2.39,null,"
        <div style=""text-align: center; position: fixed; top: 5vh; left: 40vw;"">
            <div style=""margin:0 auto; width: 20vw; top: 8vh; font-size: 2vw""> 
            <font color=""green""> Bonus : $1.55 </font>
            </div>
        </div>
    ",null,,,,,,,,,6
,,,,,html-keyboard-response,253,278822,0.0-6.39-3.39,305,./stimuli//pack_shapes_diff/cat_1/diff_4/ex_1_4_5.png,arrowleft,response,ArrowLeft,5,1,4,test,TRUE,,6
,,,,,html-keyboard-response,254,280333,0.0-6.39-4.39,null,"<p> <font color=""green"" size=""5vw""> Correct category! </font> <br> <br> <font color=""green"" size=""8vw""> + $0.05 </font> </p>",null,feedback,,,,,,,1.6,6
,,,,,html-keyboard-response,255,280742,0.0-6.40-0.40,408,"
            
        <div style=""text-align: center; position: fixed; top: 5vh; left: 40vw;"">
            <div style=""margin:0 auto; width: 20vw; top: 8vh; font-size: 2vw""> 
            <font color=""green""> Bonus : $1.6 </font>
            </div>
        </div>
    
            <div> Please press any button to continue to the next trial.</div>
        ",arrowright,ITI,,,,,,,,6
,,,,,html-keyboard-response,256,281349,0.0-6.40-1.40,null,"
        
        <div style=""text-align: center; position: fixed; top: 5vh; left: 40vw;"">
            <div style=""margin:0 auto; width: 20vw; top: 8vh; font-size: 2vw""> 
            <font color=""green""> Bonus : $1.6 </font>
            </div>
        </div>
    
        <img class=""stim"" src=./stimuli//pack_shapes_diff/cat_2/diff_4/ex_2_4_16.png></img>
    ",null,stimulus,,,,,,,,6
,,,,,html-keyboard-response,257,282351,0.0-6.40-2.40,null,"
        <div style=""text-align: center; position: fixed; top: 5vh; left: 40vw;"">
            <div style=""margin:0 auto; width: 20vw; top: 8vh; font-size: 2vw""> 
            <font color=""green""> Bonus : $1.6 </font>
            </div>
        </div>
    ",null,,,,,,,,,6
,,,,,html-keyboard-response,258,282638,0.0-6.40-3.40,286,./stimuli//pack_shapes_diff/cat_2/diff_4/ex_2_4_16.png,arrowleft,response,ArrowRight,16,2,4,test,FALSE,,6
,,,,,html-keyboard-response,259,284143,0.0-6.40-4.40,null,"<p> <font color=""red"" size=""5vw""> Wrong category! </font> </p>",null,feedback,,,,,,,1.6,6
,,,,,html-keyboard-response,260,284582,0.0-6.41-0.41,438,"
            
        <div style=""text-align: center; position: fixed; top: 5vh; left: 40vw;"">
            <div style=""margin:0 auto; width: 20vw; top: 8vh; font-size: 2vw""> 
            <font color=""green""> Bonus : $1.6 </font>
            </div>
        </div>
    
            <div> Please press any button to continue to the next trial.</div>
        ",arrowright,ITI,,,,,,,,6
,,,,,html-keyboard-response,261,285187,0.0-6.41-1.41,null,"
        
        <div style=""text-align: center; position: fixed; top: 5vh; left: 40vw;"">
            <div style=""margin:0 auto; width: 20vw; top: 8vh; font-size: 2vw""> 
            <font color=""green""> Bonus : $1.6 </font>
            </div>
        </div>
    
        <img class=""stim"" src=./stimuli//pack_shapes_diff/cat_2/diff_3/ex_2_3_9.png></img>
    ",null,stimulus,,,,,,,,6
,,,,,html-keyboard-response,262,286188,0.0-6.41-2.41,null,"
        <div style=""text-align: center; position: fixed; top: 5vh; left: 40vw;"">
            <div style=""margin:0 auto; width: 20vw; top: 8vh; font-size: 2vw""> 
            <font color=""green""> Bonus : $1.6 </font>
            </div>
        </div>
    ",null,,,,,,,,,6
,,,,,html-keyboard-response,263,286590,0.0-6.41-3.41,401,./stimuli//pack_shapes_diff/cat_2/diff_3/ex_2_3_9.png,arrowright,response,ArrowRight,9,2,3,test,TRUE,,6
,,,,,html-keyboard-response,264,288094,0.0-6.41-4.41,null,"<p> <font color=""green"" size=""5vw""> Correct category! </font> <br> <br> <font color=""green"" size=""8vw""> + $0.05 </font> </p>",null,feedback,,,,,,,1.65,6
,,,,,html-keyboard-response,265,288438,0.0-6.42-0.42,343,"
            
        <div style=""text-align: center; position: fixed; top: 5vh; left: 40vw;"">
            <div style=""margin:0 auto; width: 20vw; top: 8vh; font-size: 2vw""> 
            <font color=""green""> Bonus : $1.65 </font>
            </div>
        </div>
    
            <div> Please press any button to continue to the next trial.</div>
        ",arrowright,ITI,,,,,,,,6
,,,,,html-keyboard-response,266,289049,0.0-6.42-1.42,null,"
        
        <div style=""text-align: center; position: fixed; top: 5vh; left: 40vw;"">
            <div style=""margin:0 auto; width: 20vw; top: 8vh; font-size: 2vw""> 
            <font color=""green""> Bonus : $1.65 </font>
            </div>
        </div>
    
        <img class=""stim"" src=./stimuli//pack_shapes_diff/cat_1/diff_3/ex_1_3_4.png></img>
    ",null,stimulus,,,,,,,,6
,,,,,html-keyboard-response,267,290063,0.0-6.42-2.42,null,"
        <div style=""text-align: center; position: fixed; top: 5vh; left: 40vw;"">
            <div style=""margin:0 auto; width: 20vw; top: 8vh; font-size: 2vw""> 
            <font color=""green""> Bonus : $1.65 </font>
            </div>
        </div>
    ",null,,,,,,,,,6
,,,,,html-keyboard-response,268,290390,0.0-6.42-3.42,326,./stimuli//pack_shapes_diff/cat_1/diff_3/ex_1_3_4.png,arrowright,response,ArrowLeft,4,1,3,test,FALSE,,6
,,,,,html-keyboard-response,269,291904,0.0-6.42-4.42,null,"<p> <font color=""red"" size=""5vw""> Wrong category! </font> </p>",null,feedback,,,,,,,1.65,6
,,,,,html-keyboard-response,270,292229,0.0-6.43-0.43,324,"
            
        <div style=""text-align: center; position: fixed; top: 5vh; left: 40vw;"">
            <div style=""margin:0 auto; width: 20vw; top: 8vh; font-size: 2vw""> 
            <font color=""green""> Bonus : $1.65 </font>
            </div>
        </div>
    
            <div> Please press any button to continue to the next trial.</div>
        ",arrowright,ITI,,,,,,,,6
,,,,,html-keyboard-response,271,292841,0.0-6.43-1.43,null,"
        
        <div style=""text-align: center; position: fixed; top: 5vh; left: 40vw;"">
            <div style=""margin:0 auto; width: 20vw; top: 8vh; font-size: 2vw""> 
            <font color=""green""> Bonus : $1.65 </font>
            </div>
        </div>
    
        <img class=""stim"" src=./stimuli//pack_shapes_diff/cat_1/diff_3/ex_1_3_14.png></img>
    ",null,stimulus,,,,,,,,6
,,,,,html-keyboard-response,272,293848,0.0-6.43-2.43,null,"
        <div style=""text-align: center; position: fixed; top: 5vh; left: 40vw;"">
            <div style=""margin:0 auto; width: 20vw; top: 8vh; font-size: 2vw""> 
            <font color=""green""> Bonus : $1.65 </font>
            </div>
        </div>
    ",null,,,,,,,,,6
,,,,,html-keyboard-response,273,294151,0.0-6.43-3.43,302,./stimuli//pack_shapes_diff/cat_1/diff_3/ex_1_3_14.png,arrowleft,response,ArrowLeft,14,1,3,test,TRUE,,6
,,,,,html-keyboard-response,274,295668,0.0-6.43-4.43,null,"<p> <font color=""green"" size=""5vw""> Correct category! </font> <br> <br> <font color=""green"" size=""8vw""> + $0.05 </font> </p>",null,feedback,,,,,,,1.7,6
,,,,,html-keyboard-response,275,295974,0.0-6.44-0.44,305,"
            
        <div style=""text-align: center; position: fixed; top: 5vh; left: 40vw;"">
            <div style=""margin:0 auto; width: 20vw; top: 8vh; font-size: 2vw""> 
            <font color=""green""> Bonus : $1.7 </font>
            </div>
        </div>
    
            <div> Please press any button to continue to the next trial.</div>
        ",arrowright,ITI,,,,,,,,6
,,,,,html-keyboard-response,276,296590,0.0-6.44-1.44,null,"
        
        <div style=""text-align: center; position: fixed; top: 5vh; left: 40vw;"">
            <div style=""margin:0 auto; width: 20vw; top: 8vh; font-size: 2vw""> 
            <font color=""green""> Bonus : $1.7 </font>
            </div>
        </div>
    
        <img class=""stim"" src=./stimuli//pack_shapes_diff/cat_2/diff_3/ex_2_3_15.png></img>
    ",null,stimulus,,,,,,,,6
,,,,,html-keyboard-response,277,297604,0.0-6.44-2.44,null,"
        <div style=""text-align: center; position: fixed; top: 5vh; left: 40vw;"">
            <div style=""margin:0 auto; width: 20vw; top: 8vh; font-size: 2vw""> 
            <font color=""green""> Bonus : $1.7 </font>
            </div>
        </div>
    ",null,,,,,,,,,6
,,,,,html-keyboard-response,278,298462,0.0-6.44-3.44,857,./stimuli//pack_shapes_diff/cat_2/diff_3/ex_2_3_15.png,arrowleft,response,ArrowRight,15,2,3,test,FALSE,,6
,,,,,html-keyboard-response,279,299978,0.0-6.44-4.44,null,"<p> <font color=""red"" size=""5vw""> Wrong category! </font> </p>",null,feedback,,,,,,,1.7,6
,,,,,html-keyboard-response,280,300246,0.0-6.45-0.45,267,"
            
        <div style=""text-align: center; position: fixed; top: 5vh; left: 40vw;"">
            <div style=""margin:0 auto; width: 20vw; top: 8vh; font-size: 2vw""> 
            <font color=""green""> Bonus : $1.7 </font>
            </div>
        </div>
    
            <div> Please press any button to continue to the next trial.</div>
        ",arrowright,ITI,,,,,,,,6
,,,,,html-keyboard-response,281,300854,0.0-6.45-1.45,null,"
        
        <div style=""text-align: center; position: fixed; top: 5vh; left: 40vw;"">
            <div style=""margin:0 auto; width: 20vw; top: 8vh; font-size: 2vw""> 
            <font color=""green""> Bonus : $1.7 </font>
            </div>
        </div>
    
        <img class=""stim"" src=./stimuli//pack_shapes_diff/cat_1/diff_3/ex_1_3_16.png></img>
    ",null,stimulus,,,,,,,,6
,,,,,html-keyboard-response,282,301866,0.0-6.45-2.45,null,"
        <div style=""text-align: center; position: fixed; top: 5vh; left: 40vw;"">
            <div style=""margin:0 auto; width: 20vw; top: 8vh; font-size: 2vw""> 
            <font color=""green""> Bonus : $1.7 </font>
            </div>
        </div>
    ",null,,,,,,,,,6
,,,,,html-keyboard-response,283,302374,0.0-6.45-3.45,507,./stimuli//pack_shapes_diff/cat_1/diff_3/ex_1_3_16.png,arrowleft,response,ArrowLeft,16,1,3,test,TRUE,,6
,,,,,html-keyboard-response,284,303880,0.0-6.45-4.45,null,"<p> <font color=""green"" size=""5vw""> Correct category! </font> <br> <br> <font color=""green"" size=""8vw""> + $0.05 </font> </p>",null,feedback,,,,,,,1.75,6
,,,,,html-keyboard-response,285,304286,0.0-6.46-0.46,405,"
            
        <div style=""text-align: center; position: fixed; top: 5vh; left: 40vw;"">
            <div style=""margin:0 auto; width: 20vw; top: 8vh; font-size: 2vw""> 
            <font color=""green""> Bonus : $1.75 </font>
            </div>
        </div>
    
            <div> Please press any button to continue to the next trial.</div>
        ",arrowright,ITI,,,,,,,,6
,,,,,html-keyboard-response,286,304893,0.0-6.46-1.46,null,"
        
        <div style=""text-align: center; position: fixed; top: 5vh; left: 40vw;"">
            <div style=""margin:0 auto; width: 20vw; top: 8vh; font-size: 2vw""> 
            <font color=""green""> Bonus : $1.75 </font>
            </div>
        </div>
    
        <img class=""stim"" src=./stimuli//pack_shapes_diff/cat_1/diff_2/ex_1_2_4.png></img>
    ",null,stimulus,,,,,,,,6
,,,,,html-keyboard-response,287,305904,0.0-6.46-2.46,null,"
        <div style=""text-align: center; position: fixed; top: 5vh; left: 40vw;"">
            <div style=""margin:0 auto; width: 20vw; top: 8vh; font-size: 2vw""> 
            <font color=""green""> Bonus : $1.75 </font>
            </div>
        </div>
    ",null,,,,,,,,,6
,,,,,html-keyboard-response,288,306230,0.0-6.46-3.46,325,./stimuli//pack_shapes_diff/cat_1/diff_2/ex_1_2_4.png,arrowright,response,ArrowLeft,4,1,2,test,FALSE,,6
,,,,,html-keyboard-response,289,307736,0.0-6.46-4.46,null,"<p> <font color=""red"" size=""5vw""> Wrong category! </font> </p>",null,feedback,,,,,,,1.75,6
,,,,,html-keyboard-response,290,308590,0.0-6.47-0.47,854,"
            
        <div style=""text-align: center; position: fixed; top: 5vh; left: 40vw;"">
            <div style=""margin:0 auto; width: 20vw; top: 8vh; font-size: 2vw""> 
            <font color=""green""> Bonus : $1.75 </font>
            </div>
        </div>
    
            <div> Please press any button to continue to the next trial.</div>
        ",arrowright,ITI,,,,,,,,6
,,,,,html-keyboard-response,291,309206,0.0-6.47-1.47,null,"
        
        <div style=""text-align: center; position: fixed; top: 5vh; left: 40vw;"">
            <div style=""margin:0 auto; width: 20vw; top: 8vh; font-size: 2vw""> 
            <font color=""green""> Bonus : $1.75 </font>
            </div>
        </div>
    
        <img class=""stim"" src=./stimuli//pack_shapes_diff/cat_2/diff_2/ex_2_2_9.png></img>
    ",null,stimulus,,,,,,,,6
,,,,,html-keyboard-response,292,310207,0.0-6.47-2.47,null,"
        <div style=""text-align: center; position: fixed; top: 5vh; left: 40vw;"">
            <div style=""margin:0 auto; width: 20vw; top: 8vh; font-size: 2vw""> 
            <font color=""green""> Bonus : $1.75 </font>
            </div>
        </div>
    ",null,,,,,,,,,6
,,,,,html-keyboard-response,293,310550,0.0-6.47-3.47,342,./stimuli//pack_shapes_diff/cat_2/diff_2/ex_2_2_9.png,arrowleft,response,ArrowRight,9,2,2,test,FALSE,,6
,,,,,html-keyboard-response,294,312061,0.0-6.47-4.47,null,"<p> <font color=""red"" size=""5vw""> Wrong category! </font> </p>",null,feedback,,,,,,,1.75,6
,,,,,html-keyboard-response,295,312174,0.0-6.48-0.48,112,"
            
        <div style=""text-align: center; position: fixed; top: 5vh; left: 40vw;"">
            <div style=""margin:0 auto; width: 20vw; top: 8vh; font-size: 2vw""> 
            <font color=""green""> Bonus : $1.75 </font>
            </div>
        </div>
    
            <div> Please press any button to continue to the next trial.</div>
        ",arrowright,ITI,,,,,,,,6
,,,,,html-keyboard-response,296,312778,0.0-6.48-1.48,null,"
        
        <div style=""text-align: center; position: fixed; top: 5vh; left: 40vw;"">
            <div style=""margin:0 auto; width: 20vw; top: 8vh; font-size: 2vw""> 
            <font color=""green""> Bonus : $1.75 </font>
            </div>
        </div>
    
        <img class=""stim"" src=./stimuli//pack_shapes_diff/cat_2/diff_2/ex_2_2_11.png></img>
    ",null,stimulus,,,,,,,,6
,,,,,html-keyboard-response,297,313784,0.0-6.48-2.48,null,"
        <div style=""text-align: center; position: fixed; top: 5vh; left: 40vw;"">
            <div style=""margin:0 auto; width: 20vw; top: 8vh; font-size: 2vw""> 
            <font color=""green""> Bonus : $1.75 </font>
            </div>
        </div>
    ",null,,,,,,,,,6
,,,,,html-keyboard-response,298,314110,0.0-6.48-3.48,325,./stimuli//pack_shapes_diff/cat_2/diff_2/ex_2_2_11.png,arrowright,response,ArrowRight,11,2,2,test,TRUE,,6
,,,,,html-keyboard-response,299,315621,0.0-6.48-4.48,null,"<p> <font color=""green"" size=""5vw""> Correct category! </font> <br> <br> <font color=""green"" size=""8vw""> + $0.05 </font> </p>",null,feedback,,,,,,,1.8,6
,,,,,html-keyboard-response,300,316046,0.0-6.49-0.49,424,"
            
        <div style=""text-align: center; position: fixed; top: 5vh; left: 40vw;"">
            <div style=""margin:0 auto; width: 20vw; top: 8vh; font-size: 2vw""> 
            <font color=""green""> Bonus : $1.8 </font>
            </div>
        </div>
    
            <div> Please press any button to continue to the next trial.</div>
        ",arrowright,ITI,,,,,,,,6
,,,,,html-keyboard-response,301,316652,0.0-6.49-1.49,null,"
        
        <div style=""text-align: center; position: fixed; top: 5vh; left: 40vw;"">
            <div style=""margin:0 auto; width: 20vw; top: 8vh; font-size: 2vw""> 
            <font color=""green""> Bonus : $1.8 </font>
            </div>
        </div>
    
        <img class=""stim"" src=./stimuli//pack_shapes_diff/cat_2/diff_2/ex_2_2_6.png></img>
    ",null,stimulus,,,,,,,,6
,,,,,html-keyboard-response,302,317665,0.0-6.49-2.49,null,"
        <div style=""text-align: center; position: fixed; top: 5vh; left: 40vw;"">
            <div style=""margin:0 auto; width: 20vw; top: 8vh; font-size: 2vw""> 
            <font color=""green""> Bonus : $1.8 </font>
            </div>
        </div>
    ",null,,,,,,,,,6
,,,,,html-keyboard-response,303,317990,0.0-6.49-3.49,324,./stimuli//pack_shapes_diff/cat_2/diff_2/ex_2_2_6.png,arrowright,response,ArrowRight,6,2,2,test,TRUE,,6
,,,,,html-keyboard-response,304,319492,0.0-6.49-4.49,null,"<p> <font color=""green"" size=""5vw""> Correct category! </font> <br> <br> <font color=""green"" size=""8vw""> + $0.05 </font> </p>",null,feedback,,,,,,,1.85,6
,,,,,html-keyboard-response,305,319885,0.0-6.50-0.50,392,"
            
        <div style=""text-align: center; position: fixed; top: 5vh; left: 40vw;"">
            <div style=""margin:0 auto; width: 20vw; top: 8vh; font-size: 2vw""> 
            <font color=""green""> Bonus : $1.85 </font>
            </div>
        </div>
    
            <div> Please press any button to continue to the next trial.</div>
        ",arrowright,ITI,,,,,,,,6
,,,,,html-keyboard-response,306,320498,0.0-6.50-1.50,null,"
        
        <div style=""text-align: center; position: fixed; top: 5vh; left: 40vw;"">
            <div style=""margin:0 auto; width: 20vw; top: 8vh; font-size: 2vw""> 
            <font color=""green""> Bonus : $1.85 </font>
            </div>
        </div>
    
        <img class=""stim"" src=./stimuli//pack_shapes_diff/cat_2/diff_2/ex_2_2_11.png></img>
    ",null,stimulus,,,,,,,,6
,,,,,html-keyboard-response,307,321504,0.0-6.50-2.50,null,"
        <div style=""text-align: center; position: fixed; top: 5vh; left: 40vw;"">
            <div style=""margin:0 auto; width: 20vw; top: 8vh; font-size: 2vw""> 
            <font color=""green""> Bonus : $1.85 </font>
            </div>
        </div>
    ",null,,,,,,,,,6
,,,,,html-keyboard-response,308,321838,0.0-6.50-3.50,333,./stimuli//pack_shapes_diff/cat_2/diff_2/ex_2_2_11.png,arrowright,response,ArrowRight,11,2,2,test,TRUE,,6
,,,,,html-keyboard-response,309,323340,0.0-6.50-4.50,null,"<p> <font color=""green"" size=""5vw""> Correct category! </font> <br> <br> <font color=""green"" size=""8vw""> + $0.05 </font> </p>",null,feedback,,,,,,,1.9,6
,,,,,html-keyboard-response,310,323814,0.0-6.51-0.51,474,"
            
        <div style=""text-align: center; position: fixed; top: 5vh; left: 40vw;"">
            <div style=""margin:0 auto; width: 20vw; top: 8vh; font-size: 2vw""> 
            <font color=""green""> Bonus : $1.9 </font>
            </div>
        </div>
    
            <div> Please press any button to continue to the next trial.</div>
        ",arrowright,ITI,,,,,,,,6
,,,,,html-keyboard-response,311,324432,0.0-6.51-1.51,null,"
        
        <div style=""text-align: center; position: fixed; top: 5vh; left: 40vw;"">
            <div style=""margin:0 auto; width: 20vw; top: 8vh; font-size: 2vw""> 
            <font color=""green""> Bonus : $1.9 </font>
            </div>
        </div>
    
        <img class=""stim"" src=./stimuli//pack_shapes_diff/cat_2/diff_1/ex_2_1_3.png></img>
    ",null,stimulus,,,,,,,,6
,,,,,html-keyboard-response,312,325444,0.0-6.51-2.51,null,"
        <div style=""text-align: center; position: fixed; top: 5vh; left: 40vw;"">
            <div style=""margin:0 auto; width: 20vw; top: 8vh; font-size: 2vw""> 
            <font color=""green""> Bonus : $1.9 </font>
            </div>
        </div>
    ",null,,,,,,,,,6
,,,,,html-keyboard-response,313,325750,0.0-6.51-3.51,306,./stimuli//pack_shapes_diff/cat_2/diff_1/ex_2_1_3.png,arrowright,response,ArrowRight,3,2,1,test,TRUE,,6
