success,timeout,failed_images,failed_audio,failed_video,trial_type,trial_index,time_elapsed,internal_node_id,rt,stimulus,response,task,correct_response,exemplar_ID,category,difficulty,phase,correct,bonus,subject_id
TRUE,FALSE,[],[],[],preload,0,3,0.0-0.0,,,,,,,,,,,,3
,,,,,html-keyboard-response,1,4138,0.0-1.0,4134,Welcome to the Category Learning experiment! Press any key to continue.,enter,welcome,,,,,,,,3
,,,,,html-keyboard-response,2,13579,0.0-2.0,9440,"<p>You will be shown images of black shapes. Some are category A, some are category B.
            <br>You will not know in advance which category a specific shape belongs to.</p>
            <p>After you see an image, you will be asked to guess its category <b>(left arrow for category A, right arrow for category B)</b></p>
            <p>After you choose, the screen will show you whether you were correct or not.</p>
            <p><b>You will receive a bonus payment of $0.05 for each correct answer!</b></p>
            <p> So you can increase your bonus by guessing correctly, and by guessing as quickly as possible so you move on to the next image sooner.</p>
            <p>Press any key to continue.</p>",arrowright,introduction_1,,,,,,,,3
,,,,,html-keyboard-response,3,17010,0.0-3.0,3431,"<p> <b>The first 10 trials are a practice round that will not count towards your bonus payment.</b></p>
            <p> You will be notified when practice finishes and the test begins. </p>
            <p> Press any key to begin the practice round.</p>",arrowright,introduction_2,,,,,,,,3
,,,,,html-keyboard-response,4,19010,0.0-4.0-0.0,1999,"<div style=""text-align: center; position: fixed; top: 5vh; left: 40vw;"">
            <div style=""margin:0 auto; width: 20vw; top: 8vh; font-size: 2vw""> 
            <font color=""green""> Bonus : $0 </font>
            </div>
        </div>
    
            <div> Please press any button to continue to the next trial.</div>",arrowright,ITI,,,,,,,,3
,,,,,html-keyboard-response,5,19621,0.0-4.0-1.0,null,"<div style=""text-align: center; position: fixed; top: 5vh; left: 40vw;"">
            <div style=""margin:0 auto; width: 20vw; top: 8vh; font-size: 2vw""> 
            <font color=""green""> Bonus : $0 </font>
            </div>
        </div>
    
        <img class=""stim"" src=./stimuli//pack_shapes_diff/cat_2/diff_1/ex_2_1_17.png></img>",null,stimulus,,,,,,,,3
,,,,,html-keyboard-response,6,20636,0.0-4.0-2.0,null,"<div style=""text-align: center; position: fixed; top: 5vh; left: 40vw;"">
            <div style=""margin:0 auto; width: 20vw; top: 8vh; font-size: 2vw""> 
            <font color=""green""> Bonus : $0 </font>
            </div>
        </div>",null,,,,,,,,,3
,,,,,html-keyboard-response,7,20730,0.0-4.0-3.0,93,./stimuli//pack_shapes_diff/cat_2/diff_1/ex_2_1_17.png,arrowleft,response,ArrowRight,17,2,1,train,FALSE,,3
,,,,,html-keyboard-response,8,22237,0.0-4.0-4.0,null,"<p> <font color=""red"" size=""5vw""> Wrong category! </font> </p>",null,feedback,,,,,,,0,3
,,,,,html-keyboard-response,9,23322,0.0-4.0-0.1,1084,"<div style=""text-align: center; position: fixed; top: 5vh; left: 40vw;"">
            <div style=""margin:0 auto; width: 20vw; top: 8vh; font-size: 2vw""> 
            <font color=""green""> Bonus : $0 </font>
            </div>
        </div>
    
            <div> Please press any button to continue to the next trial.</div>",arrowright,ITI,,,,,,,,3
,,,,,html-keyboard-response,10,23938,0.0-4.0-1.1,null,"<div style=""text-align: center; position: fixed; top: 5vh; left: 40vw;"">
            <div style=""margin:0 auto; width: 20vw; top: 8vh; font-size: 2vw""> 
            <font color=""green""> Bonus : $0 </font>
            </div>
        </div>
    
        <img class=""stim"" src=./stimuli//pack_shapes_diff/cat_2/diff_2/ex_2_2_7.png></img>",null,stimulus,,,,,,,,3
,,,,,html-keyboard-response,11,24942,0.0-4.0-2.1,null,"<div style=""text-align: center; position: fixed; top: 5vh; left: 40vw;"">
            <div style=""margin:0 auto; width: 20vw; top: 8vh; font-size: 2vw""> 
            <font color=""green""> Bonus : $0 </font>
            </div>
        </div>",null,,,,,,,,,3
,,,,,html-keyboard-response,12,25250,0.0-4.0-3.1,308,./stimuli//pack_shapes_diff/cat_2/diff_2/ex_2_2_7.png,arrowright,response,ArrowRight,7,2,2,train,TRUE,,3
,,,,,html-keyboard-response,13,26757,0.0-4.0-4.1,null,"<p> <font color=""green"" size=""5vw""> Correct category! </font> </p>",null,feedback,,,,,,,0,3
,,,,,html-keyboard-response,14,27354,0.0-4.0-0.2,597,"<div style=""text-align: center; position: fixed; top: 5vh; left: 40vw;"">
            <div style=""margin:0 auto; width: 20vw; top: 8vh; font-size: 2vw""> 
            <font color=""green""> Bonus : $0 </font>
            </div>
        </div>
    
            <div> Please press any button to continue to the next trial.</div>",arrowright,ITI,,,,,,,,3
,,,,,html-keyboard-response,15,27970,0.0-4.0-1.2,null,"<div style=""text-align: center; position: fixed; top: 5vh; left: 40vw;"">
            <div style=""margin:0 auto; width: 20vw; top: 8vh; font-size: 2vw""> 
            <font color=""green""> Bonus : $0 </font>
            </div>
        </div>
    
        <img class=""stim"" src=./stimuli//pack_shapes_diff/cat_2/diff_2/ex_2_2_14.png></img>",null,stimulus,,,,,,,,3
,,,,,html-keyboard-response,16,28984,0.0-4.0-2.2,null,"<div style=""text-align: center; position: fixed; top: 5vh; left: 40vw;"">
            <div style=""margin:0 auto; width: 20vw; top: 8vh; font-size: 2vw""> 
            <font color=""green""> Bonus : $0 </font>
            </div>
        </div>",null,,,,,,,,,3
,,,,,html-keyboard-response,17,29386,0.0-4.0-3.2,402,./stimuli//pack_shapes_diff/cat_2/diff_2/ex_2_2_14.png,arrowright,response,ArrowRight,14,2,2,train,TRUE,,3
,,,,,html-keyboard-response,18,30894,0.0-4.0-4.2,null,"<p> <font color=""green"" size=""5vw""> Correct category! </font> </p>",null,feedback,,,,,,,0,3
,,,,,html-keyboard-response,19,31378,0.0-4.0-0.3,483,"<div style=""text-align: center; position: fixed; top: 5vh; left: 40vw;"">
            <div style=""margin:0 auto; width: 20vw; top: 8vh; font-size: 2vw""> 
            <font color=""green""> Bonus : $0 </font>
            </div>
        </div>
    
            <div> Please press any button to continue to the next trial.</div>",arrowright,ITI,,,,,,,,3
,,,,,html-keyboard-response,20,31987,0.0-4.0-1.3,null,"<div style=""text-align: center; position: fixed; top: 5vh; left: 40vw;"">
            <div style=""margin:0 auto; width: 20vw; top: 8vh; font-size: 2vw""> 
            <font color=""green""> Bonus : $0 </font>
            </div>
        </div>
    
        <img class=""stim"" src=./stimuli//pack_shapes_diff/cat_2/diff_1/ex_2_1_14.png></img>",null,stimulus,,,,,,,,3
,,,,,html-keyboard-response,21,32990,0.0-4.0-2.3,null,"<div style=""text-align: center; position: fixed; top: 5vh; left: 40vw;"">
            <div style=""margin:0 auto; width: 20vw; top: 8vh; font-size: 2vw""> 
            <font color=""green""> Bonus : $0 </font>
            </div>
        </div>",null,,,,,,,,,3
,,,,,html-keyboard-response,22,33410,0.0-4.0-3.3,420,./stimuli//pack_shapes_diff/cat_2/diff_1/ex_2_1_14.png,arrowright,response,ArrowRight,14,2,1,train,TRUE,,3
,,,,,html-keyboard-response,23,34923,0.0-4.0-4.3,null,"<p> <font color=""green"" size=""5vw""> Correct category! </font> </p>",null,feedback,,,,,,,0,3
,,,,,html-keyboard-response,24,37235,0.0-4.0-0.4,2311,"<div style=""text-align: center; position: fixed; top: 5vh; left: 40vw;"">
            <div style=""margin:0 auto; width: 20vw; top: 8vh; font-size: 2vw""> 
            <font color=""green""> Bonus : $0 </font>
            </div>
        </div>
    
            <div> Please press any button to continue to the next trial.</div>",arrowright,ITI,,,,,,,,3
,,,,,html-keyboard-response,25,37845,0.0-4.0-1.4,null,"<div style=""text-align: center; position: fixed; top: 5vh; left: 40vw;"">
            <div style=""margin:0 auto; width: 20vw; top: 8vh; font-size: 2vw""> 
            <font color=""green""> Bonus : $0 </font>
            </div>
        </div>
    
        <img class=""stim"" src=./stimuli//pack_shapes_diff/cat_1/diff_1/ex_1_1_13.png></img>",null,stimulus,,,,,,,,3
,,,,,html-keyboard-response,26,38860,0.0-4.0-2.4,null,"<div style=""text-align: center; position: fixed; top: 5vh; left: 40vw;"">
            <div style=""margin:0 auto; width: 20vw; top: 8vh; font-size: 2vw""> 
            <font color=""green""> Bonus : $0 </font>
            </div>
        </div>",null,,,,,,,,,3
,,,,,html-keyboard-response,27,39114,0.0-4.0-3.4,253,./stimuli//pack_shapes_diff/cat_1/diff_1/ex_1_1_13.png,arrowleft,response,ArrowLeft,13,1,1,train,TRUE,,3
,,,,,html-keyboard-response,28,40622,0.0-4.0-4.4,null,"<p> <font color=""green"" size=""5vw""> Correct category! </font> </p>",null,feedback,,,,,,,0,3
,,,,,html-keyboard-response,29,41114,0.0-4.0-0.5,491,"<div style=""text-align: center; position: fixed; top: 5vh; left: 40vw;"">
            <div style=""margin:0 auto; width: 20vw; top: 8vh; font-size: 2vw""> 
            <font color=""green""> Bonus : $0 </font>
            </div>
        </div>
    
            <div> Please press any button to continue to the next trial.</div>",arrowright,ITI,,,,,,,,3
,,,,,html-keyboard-response,30,41725,0.0-4.0-1.5,null,"<div style=""text-align: center; position: fixed; top: 5vh; left: 40vw;"">
            <div style=""margin:0 auto; width: 20vw; top: 8vh; font-size: 2vw""> 
            <font color=""green""> Bonus : $0 </font>
            </div>
        </div>
    
        <img class=""stim"" src=./stimuli//pack_shapes_diff/cat_1/diff_1/ex_1_1_3.png></img>",null,stimulus,,,,,,,,3
,,,,,html-keyboard-response,31,42738,0.0-4.0-2.5,null,"<div style=""text-align: center; position: fixed; top: 5vh; left: 40vw;"">
            <div style=""margin:0 auto; width: 20vw; top: 8vh; font-size: 2vw""> 
            <font color=""green""> Bonus : $0 </font>
            </div>
        </div>",null,,,,,,,,,3
,,,,,html-keyboard-response,32,43002,0.0-4.0-3.5,264,./stimuli//pack_shapes_diff/cat_1/diff_1/ex_1_1_3.png,arrowleft,response,ArrowLeft,3,1,1,train,TRUE,,3
,,,,,html-keyboard-response,33,44511,0.0-4.0-4.5,null,"<p> <font color=""green"" size=""5vw""> Correct category! </font> </p>",null,feedback,,,,,,,0,3
,,,,,html-keyboard-response,34,45018,0.0-4.0-0.6,506,"<div style=""text-align: center; position: fixed; top: 5vh; left: 40vw;"">
            <div style=""margin:0 auto; width: 20vw; top: 8vh; font-size: 2vw""> 
            <font color=""green""> Bonus : $0 </font>
            </div>
        </div>
    
            <div> Please press any button to continue to the next trial.</div>",arrowleft,ITI,,,,,,,,3
,,,,,html-keyboard-response,35,45628,0.0-4.0-1.6,null,"<div style=""text-align: center; position: fixed; top: 5vh; left: 40vw;"">
            <div style=""margin:0 auto; width: 20vw; top: 8vh; font-size: 2vw""> 
            <font color=""green""> Bonus : $0 </font>
            </div>
        </div>
    
        <img class=""stim"" src=./stimuli//pack_shapes_diff/cat_1/diff_2/ex_1_2_6.png></img>",null,stimulus,,,,,,,,3
,,,,,html-keyboard-response,36,46643,0.0-4.0-2.6,null,"<div style=""text-align: center; position: fixed; top: 5vh; left: 40vw;"">
            <div style=""margin:0 auto; width: 20vw; top: 8vh; font-size: 2vw""> 
            <font color=""green""> Bonus : $0 </font>
            </div>
        </div>",null,,,,,,,,,3
,,,,,html-keyboard-response,37,46874,0.0-4.0-3.6,231,./stimuli//pack_shapes_diff/cat_1/diff_2/ex_1_2_6.png,arrowleft,response,ArrowLeft,6,1,2,train,TRUE,,3
,,,,,html-keyboard-response,38,48383,0.0-4.0-4.6,null,"<p> <font color=""green"" size=""5vw""> Correct category! </font> </p>",null,feedback,,,,,,,0,3
,,,,,html-keyboard-response,39,48834,0.0-4.0-0.7,450,"<div style=""text-align: center; position: fixed; top: 5vh; left: 40vw;"">
            <div style=""margin:0 auto; width: 20vw; top: 8vh; font-size: 2vw""> 
            <font color=""green""> Bonus : $0 </font>
            </div>
        </div>
    
            <div> Please press any button to continue to the next trial.</div>",arrowleft,ITI,,,,,,,,3
,,,,,html-keyboard-response,40,49446,0.0-4.0-1.7,null,"<div style=""text-align: center; position: fixed; top: 5vh; left: 40vw;"">
            <div style=""margin:0 auto; width: 20vw; top: 8vh; font-size: 2vw""> 
            <font color=""green""> Bonus : $0 </font>
            </div>
        </div>
    
        <img class=""stim"" src=./stimuli//pack_shapes_diff/cat_2/diff_1/ex_2_1_13.png></img>",null,stimulus,,,,,,,,3
,,,,,html-keyboard-response,41,50450,0.0-4.0-2.7,null,"<div style=""text-align: center; position: fixed; top: 5vh; left: 40vw;"">
            <div style=""margin:0 auto; width: 20vw; top: 8vh; font-size: 2vw""> 
            <font color=""green""> Bonus : $0 </font>
            </div>
        </div>",null,,,,,,,,,3
,,,,,html-keyboard-response,42,50777,0.0-4.0-3.7,327,./stimuli//pack_shapes_diff/cat_2/diff_1/ex_2_1_13.png,arrowright,response,ArrowRight,13,2,1,train,TRUE,,3
,,,,,html-keyboard-response,43,52290,0.0-4.0-4.7,null,"<p> <font color=""green"" size=""5vw""> Correct category! </font> </p>",null,feedback,,,,,,,0,3
,,,,,html-keyboard-response,44,52914,0.0-4.0-0.8,624,"<div style=""text-align: center; position: fixed; top: 5vh; left: 40vw;"">
            <div style=""margin:0 auto; width: 20vw; top: 8vh; font-size: 2vw""> 
            <font color=""green""> Bonus : $0 </font>
            </div>
        </div>
    
            <div> Please press any button to continue to the next trial.</div>",arrowleft,ITI,,,,,,,,3
,,,,,html-keyboard-response,45,53525,0.0-4.0-1.8,null,"<div style=""text-align: center; position: fixed; top: 5vh; left: 40vw;"">
            <div style=""margin:0 auto; width: 20vw; top: 8vh; font-size: 2vw""> 
            <font color=""green""> Bonus : $0 </font>
            </div>
        </div>
    
        <img class=""stim"" src=./stimuli//pack_shapes_diff/cat_1/diff_1/ex_1_1_8.png></img>",null,stimulus,,,,,,,,3
,,,,,html-keyboard-response,46,54538,0.0-4.0-2.8,null,"<div style=""text-align: center; position: fixed; top: 5vh; left: 40vw;"">
            <div style=""margin:0 auto; width: 20vw; top: 8vh; font-size: 2vw""> 
            <font color=""green""> Bonus : $0 </font>
            </div>
        </div>",null,,,,,,,,,3
,,,,,html-keyboard-response,47,54561,0.0-4.0-3.8,23,./stimuli//pack_shapes_diff/cat_1/diff_1/ex_1_1_8.png,arrowleft,response,ArrowLeft,8,1,1,train,TRUE,,3
,,,,,html-keyboard-response,48,56064,0.0-4.0-4.8,null,"<p> <font color=""green"" size=""5vw""> Correct category! </font> </p>",null,feedback,,,,,,,0,3
,,,,,html-keyboard-response,49,56529,0.0-4.0-0.9,465,"<div style=""text-align: center; position: fixed; top: 5vh; left: 40vw;"">
            <div style=""margin:0 auto; width: 20vw; top: 8vh; font-size: 2vw""> 
            <font color=""green""> Bonus : $0 </font>
            </div>
        </div>
    
            <div> Please press any button to continue to the next trial.</div>",arrowleft,ITI,,,,,,,,3
,,,,,html-keyboard-response,50,57141,0.0-4.0-1.9,null,"<div style=""text-align: center; position: fixed; top: 5vh; left: 40vw;"">
            <div style=""margin:0 auto; width: 20vw; top: 8vh; font-size: 2vw""> 
            <font color=""green""> Bonus : $0 </font>
            </div>
        </div>
    
        <img class=""stim"" src=./stimuli//pack_shapes_diff/cat_1/diff_2/ex_1_2_8.png></img>",null,stimulus,,,,,,,,3
,,,,,html-keyboard-response,51,58146,0.0-4.0-2.9,null,"<div style=""text-align: center; position: fixed; top: 5vh; left: 40vw;"">
            <div style=""margin:0 auto; width: 20vw; top: 8vh; font-size: 2vw""> 
            <font color=""green""> Bonus : $0 </font>
            </div>
        </div>",null,,,,,,,,,3
,,,,,html-keyboard-response,52,58402,0.0-4.0-3.9,255,./stimuli//pack_shapes_diff/cat_1/diff_2/ex_1_2_8.png,arrowleft,response,ArrowLeft,8,1,2,train,TRUE,,3
,,,,,html-keyboard-response,53,59903,0.0-4.0-4.9,null,"<p> <font color=""green"" size=""5vw""> Correct category! </font> </p>",null,feedback,,,,,,,0,3
,,,,,html-keyboard-response,54,61417,0.0-5.0,1514,"<b> <p> The practice round has finished.</p>
            <b> For the rest of the experiment you will receive a $0.05 bonus for each correct answer!</b>
            <p> Press any key to begin the test. </p>",arrowleft,intermission,,,,,,,,3
,,,,,html-keyboard-response,55,62386,0.0-6.0-0.0,968,"<div style=""text-align: center; position: fixed; top: 5vh; left: 40vw;"">
            <div style=""margin:0 auto; width: 20vw; top: 8vh; font-size: 2vw""> 
            <font color=""green""> Bonus : $0 </font>
            </div>
        </div>
    
            <div> Please press any button to continue to the next trial.</div>",arrowleft,ITI,,,,,,,,3
,,,,,html-keyboard-response,56,62995,0.0-6.0-1.0,null,"<div style=""text-align: center; position: fixed; top: 5vh; left: 40vw;"">
            <div style=""margin:0 auto; width: 20vw; top: 8vh; font-size: 2vw""> 
            <font color=""green""> Bonus : $0 </font>
            </div>
        </div>
    
        <img class=""stim"" src=./stimuli//pack_shapes_diff/cat_1/diff_1/ex_1_1_12.png></img>",null,stimulus,,,,,,,,3
,,,,,html-keyboard-response,57,64005,0.0-6.0-2.0,null,"<div style=""text-align: center; position: fixed; top: 5vh; left: 40vw;"">
            <div style=""margin:0 auto; width: 20vw; top: 8vh; font-size: 2vw""> 
            <font color=""green""> Bonus : $0 </font>
            </div>
        </div>",null,,,,,,,,,3
,,,,,html-keyboard-response,58,64297,0.0-6.0-3.0,291,./stimuli//pack_shapes_diff/cat_1/diff_1/ex_1_1_12.png,arrowleft,response,ArrowLeft,12,1,1,test,TRUE,,3
,,,,,html-keyboard-response,59,65806,0.0-6.0-4.0,null,"<p> <font color=""green"" size=""5vw""> Correct category! </font> <br> <br> <font color=""green"" size=""8vw""> + $0.05 </font> </p>",null,feedback,,,,,,,0.05,3
,,,,,html-keyboard-response,60,66249,0.0-6.1-0.1,442,"<div style=""text-align: center; position: fixed; top: 5vh; left: 40vw;"">
            <div style=""margin:0 auto; width: 20vw; top: 8vh; font-size: 2vw""> 
            <font color=""green""> Bonus : $0.05 </font>
            </div>
        </div>
    
            <div> Please press any button to continue to the next trial.</div>",arrowleft,ITI,,,,,,,,3
,,,,,html-keyboard-response,61,66861,0.0-6.1-1.1,null,"<div style=""text-align: center; position: fixed; top: 5vh; left: 40vw;"">
            <div style=""margin:0 auto; width: 20vw; top: 8vh; font-size: 2vw""> 
            <font color=""green""> Bonus : $0.05 </font>
            </div>
        </div>
    
        <img class=""stim"" src=./stimuli//pack_shapes_diff/cat_2/diff_1/ex_2_1_10.png></img>",null,stimulus,,,,,,,,3
,,,,,html-keyboard-response,62,67874,0.0-6.1-2.1,null,"<div style=""text-align: center; position: fixed; top: 5vh; left: 40vw;"">
            <div style=""margin:0 auto; width: 20vw; top: 8vh; font-size: 2vw""> 
            <font color=""green""> Bonus : $0.05 </font>
            </div>
        </div>",null,,,,,,,,,3
,,,,,html-keyboard-response,63,68081,0.0-6.1-3.1,207,./stimuli//pack_shapes_diff/cat_2/diff_1/ex_2_1_10.png,arrowright,response,ArrowRight,10,2,1,test,TRUE,,3
,,,,,html-keyboard-response,64,69597,0.0-6.1-4.1,null,"<p> <font color=""green"" size=""5vw""> Correct category! </font> <br> <br> <font color=""green"" size=""8vw""> + $0.05 </font> </p>",null,feedback,,,,,,,0.1,3
,,,,,html-keyboard-response,65,70081,0.0-6.2-0.2,483,"<div style=""text-align: center; position: fixed; top: 5vh; left: 40vw;"">
            <div style=""margin:0 auto; width: 20vw; top: 8vh; font-size: 2vw""> 
            <font color=""green""> Bonus : $0.1 </font>
            </div>
        </div>
    
            <div> Please press any button to continue to the next trial.</div>",arrowleft,ITI,,,,,,,,3
,,,,,html-keyboard-response,66,70688,0.0-6.2-1.2,null,"<div style=""text-align: center; position: fixed; top: 5vh; left: 40vw;"">
            <div style=""margin:0 auto; width: 20vw; top: 8vh; font-size: 2vw""> 
            <font color=""green""> Bonus : $0.1 </font>
            </div>
        </div>
    
        <img class=""stim"" src=./stimuli//pack_shapes_diff/cat_2/diff_1/ex_2_1_12.png></img>",null,stimulus,,,,,,,,3
,,,,,html-keyboard-response,67,71691,0.0-6.2-2.2,null,"<div style=""text-align: center; position: fixed; top: 5vh; left: 40vw;"">
            <div style=""margin:0 auto; width: 20vw; top: 8vh; font-size: 2vw""> 
            <font color=""green""> Bonus : $0.1 </font>
            </div>
        </div>",null,,,,,,,,,3
,,,,,html-keyboard-response,68,71898,0.0-6.2-3.2,206,./stimuli//pack_shapes_diff/cat_2/diff_1/ex_2_1_12.png,arrowright,response,ArrowRight,12,2,1,test,TRUE,,3
,,,,,html-keyboard-response,69,73402,0.0-6.2-4.2,null,"<p> <font color=""green"" size=""5vw""> Correct category! </font> <br> <br> <font color=""green"" size=""8vw""> + $0.05 </font> </p>",null,feedback,,,,,,,0.15,3
,,,,,html-keyboard-response,70,73889,0.0-6.3-0.3,487,"<div style=""text-align: center; position: fixed; top: 5vh; left: 40vw;"">
            <div style=""margin:0 auto; width: 20vw; top: 8vh; font-size: 2vw""> 
            <font color=""green""> Bonus : $0.15 </font>
            </div>
        </div>
    
            <div> Please press any button to continue to the next trial.</div>",arrowleft,ITI,,,,,,,,3
,,,,,html-keyboard-response,71,74494,0.0-6.3-1.3,null,"<div style=""text-align: center; position: fixed; top: 5vh; left: 40vw;"">
            <div style=""margin:0 auto; width: 20vw; top: 8vh; font-size: 2vw""> 
            <font color=""green""> Bonus : $0.15 </font>
            </div>
        </div>
    
        <img class=""stim"" src=./stimuli//pack_shapes_diff/cat_1/diff_1/ex_1_1_17.png></img>",null,stimulus,,,,,,,,3
,,,,,html-keyboard-response,72,75496,0.0-6.3-2.3,null,"<div style=""text-align: center; position: fixed; top: 5vh; left: 40vw;"">
            <div style=""margin:0 auto; width: 20vw; top: 8vh; font-size: 2vw""> 
            <font color=""green""> Bonus : $0.15 </font>
            </div>
        </div>",null,,,,,,,,,3
,,,,,html-keyboard-response,73,75722,0.0-6.3-3.3,225,./stimuli//pack_shapes_diff/cat_1/diff_1/ex_1_1_17.png,arrowleft,response,ArrowLeft,17,1,1,test,TRUE,,3
,,,,,html-keyboard-response,74,77230,0.0-6.3-4.3,null,"<p> <font color=""green"" size=""5vw""> Correct category! </font> <br> <br> <font color=""green"" size=""8vw""> + $0.05 </font> </p>",null,feedback,,,,,,,0.2,3
,,,,,html-keyboard-response,75,78873,0.0-6.4-0.4,1643,"<div style=""text-align: center; position: fixed; top: 5vh; left: 40vw;"">
            <div style=""margin:0 auto; width: 20vw; top: 8vh; font-size: 2vw""> 
            <font color=""green""> Bonus : $0.2 </font>
            </div>
        </div>
    
            <div> Please press any button to continue to the next trial.</div>",arrowright,ITI,,,,,,,,3
,,,,,html-keyboard-response,76,79477,0.0-6.4-1.4,null,"<div style=""text-align: center; position: fixed; top: 5vh; left: 40vw;"">
            <div style=""margin:0 auto; width: 20vw; top: 8vh; font-size: 2vw""> 
            <font color=""green""> Bonus : $0.2 </font>
            </div>
        </div>
    
        <img class=""stim"" src=./stimuli//pack_shapes_diff/cat_1/diff_1/ex_1_1_10.png></img>",null,stimulus,,,,,,,,3
,,,,,html-keyboard-response,77,80492,0.0-6.4-2.4,null,"<div style=""text-align: center; position: fixed; top: 5vh; left: 40vw;"">
            <div style=""margin:0 auto; width: 20vw; top: 8vh; font-size: 2vw""> 
            <font color=""green""> Bonus : $0.2 </font>
            </div>
        </div>",null,,,,,,,,,3
,,,,,html-keyboard-response,78,80729,0.0-6.4-3.4,237,./stimuli//pack_shapes_diff/cat_1/diff_1/ex_1_1_10.png,arrowleft,response,ArrowLeft,10,1,1,test,TRUE,,3
,,,,,html-keyboard-response,79,82234,0.0-6.4-4.4,null,"<p> <font color=""green"" size=""5vw""> Correct category! </font> <br> <br> <font color=""green"" size=""8vw""> + $0.05 </font> </p>",null,feedback,,,,,,,0.25,3
,,,,,html-keyboard-response,80,82914,0.0-6.5-0.5,680,"<div style=""text-align: center; position: fixed; top: 5vh; left: 40vw;"">
            <div style=""margin:0 auto; width: 20vw; top: 8vh; font-size: 2vw""> 
            <font color=""green""> Bonus : $0.25 </font>
            </div>
        </div>
    
            <div> Please press any button to continue to the next trial.</div>",arrowleft,ITI,,,,,,,,3
,,,,,html-keyboard-response,81,83522,0.0-6.5-1.5,null,"<div style=""text-align: center; position: fixed; top: 5vh; left: 40vw;"">
            <div style=""margin:0 auto; width: 20vw; top: 8vh; font-size: 2vw""> 
            <font color=""green""> Bonus : $0.25 </font>
            </div>
        </div>
    
        <img class=""stim"" src=./stimuli//pack_shapes_diff/cat_1/diff_2/ex_1_2_9.png></img>",null,stimulus,,,,,,,,3
,,,,,html-keyboard-response,82,84524,0.0-6.5-2.5,null,"<div style=""text-align: center; position: fixed; top: 5vh; left: 40vw;"">
            <div style=""margin:0 auto; width: 20vw; top: 8vh; font-size: 2vw""> 
            <font color=""green""> Bonus : $0.25 </font>
            </div>
        </div>",null,,,,,,,,,3
,,,,,html-keyboard-response,83,84777,0.0-6.5-3.5,253,./stimuli//pack_shapes_diff/cat_1/diff_2/ex_1_2_9.png,arrowleft,response,ArrowLeft,9,1,2,test,TRUE,,3
,,,,,html-keyboard-response,84,86293,0.0-6.5-4.5,null,"<p> <font color=""green"" size=""5vw""> Correct category! </font> <br> <br> <font color=""green"" size=""8vw""> + $0.05 </font> </p>",null,feedback,,,,,,,0.3,3
,,,,,html-keyboard-response,85,86746,0.0-6.6-0.6,452,"<div style=""text-align: center; position: fixed; top: 5vh; left: 40vw;"">
            <div style=""margin:0 auto; width: 20vw; top: 8vh; font-size: 2vw""> 
            <font color=""green""> Bonus : $0.3 </font>
            </div>
        </div>
    
            <div> Please press any button to continue to the next trial.</div>",arrowleft,ITI,,,,,,,,3
,,,,,html-keyboard-response,86,87352,0.0-6.6-1.6,null,"<div style=""text-align: center; position: fixed; top: 5vh; left: 40vw;"">
            <div style=""margin:0 auto; width: 20vw; top: 8vh; font-size: 2vw""> 
            <font color=""green""> Bonus : $0.3 </font>
            </div>
        </div>
    
        <img class=""stim"" src=./stimuli//pack_shapes_diff/cat_1/diff_2/ex_1_2_14.png></img>",null,stimulus,,,,,,,,3
,,,,,html-keyboard-response,87,88357,0.0-6.6-2.6,null,"<div style=""text-align: center; position: fixed; top: 5vh; left: 40vw;"">
            <div style=""margin:0 auto; width: 20vw; top: 8vh; font-size: 2vw""> 
            <font color=""green""> Bonus : $0.3 </font>
            </div>
        </div>",null,,,,,,,,,3
,,,,,html-keyboard-response,88,88658,0.0-6.6-3.6,301,./stimuli//pack_shapes_diff/cat_1/diff_2/ex_1_2_14.png,arrowleft,response,ArrowLeft,14,1,2,test,TRUE,,3
,,,,,html-keyboard-response,89,90162,0.0-6.6-4.6,1504,"<p> <font color=""green"" size=""5vw""> Correct category! </font> <br> <br> <font color=""green"" size=""8vw""> + $0.05 </font> </p>",arrowleft,feedback,,,,,,,0.35,3
,,,,,html-keyboard-response,90,90849,0.0-6.7-0.7,687,"<div style=""text-align: center; position: fixed; top: 5vh; left: 40vw;"">
            <div style=""margin:0 auto; width: 20vw; top: 8vh; font-size: 2vw""> 
            <font color=""green""> Bonus : $0.35 </font>
            </div>
        </div>
    
            <div> Please press any button to continue to the next trial.</div>",arrowleft,ITI,,,,,,,,3
,,,,,html-keyboard-response,91,91465,0.0-6.7-1.7,null,"<div style=""text-align: center; position: fixed; top: 5vh; left: 40vw;"">
            <div style=""margin:0 auto; width: 20vw; top: 8vh; font-size: 2vw""> 
            <font color=""green""> Bonus : $0.35 </font>
            </div>
        </div>
    
        <img class=""stim"" src=./stimuli//pack_shapes_diff/cat_1/diff_2/ex_1_2_14.png></img>",null,stimulus,,,,,,,,3
,,,,,html-keyboard-response,92,92480,0.0-6.7-2.7,null,"<div style=""text-align: center; position: fixed; top: 5vh; left: 40vw;"">
            <div style=""margin:0 auto; width: 20vw; top: 8vh; font-size: 2vw""> 
            <font color=""green""> Bonus : $0.35 </font>
            </div>
        </div>",null,,,,,,,,,3
,,,,,html-keyboard-response,93,92722,0.0-6.7-3.7,241,./stimuli//pack_shapes_diff/cat_1/diff_2/ex_1_2_14.png,arrowleft,response,ArrowLeft,14,1,2,test,TRUE,,3
,,,,,html-keyboard-response,94,94228,0.0-6.7-4.7,null,"<p> <font color=""green"" size=""5vw""> Correct category! </font> <br> <br> <font color=""green"" size=""8vw""> + $0.05 </font> </p>",null,feedback,,,,,,,0.4,3
,,,,,html-keyboard-response,95,94986,0.0-6.8-0.8,757,"<div style=""text-align: center; position: fixed; top: 5vh; left: 40vw;"">
            <div style=""margin:0 auto; width: 20vw; top: 8vh; font-size: 2vw""> 
            <font color=""green""> Bonus : $0.4 </font>
            </div>
        </div>
    
            <div> Please press any button to continue to the next trial.</div>",arrowleft,ITI,,,,,,,,3
,,,,,html-keyboard-response,96,95593,0.0-6.8-1.8,null,"<div style=""text-align: center; position: fixed; top: 5vh; left: 40vw;"">
            <div style=""margin:0 auto; width: 20vw; top: 8vh; font-size: 2vw""> 
            <font color=""green""> Bonus : $0.4 </font>
            </div>
        </div>
    
        <img class=""stim"" src=./stimuli//pack_shapes_diff/cat_2/diff_2/ex_2_2_11.png></img>",null,stimulus,,,,,,,,3
,,,,,html-keyboard-response,97,96594,0.0-6.8-2.8,null,"<div style=""text-align: center; position: fixed; top: 5vh; left: 40vw;"">
            <div style=""margin:0 auto; width: 20vw; top: 8vh; font-size: 2vw""> 
            <font color=""green""> Bonus : $0.4 </font>
            </div>
        </div>",null,,,,,,,,,3
,,,,,html-keyboard-response,98,96954,0.0-6.8-3.8,359,./stimuli//pack_shapes_diff/cat_2/diff_2/ex_2_2_11.png,arrowright,response,ArrowRight,11,2,2,test,TRUE,,3
,,,,,html-keyboard-response,99,98462,0.0-6.8-4.8,null,"<p> <font color=""green"" size=""5vw""> Correct category! </font> <br> <br> <font color=""green"" size=""8vw""> + $0.05 </font> </p>",null,feedback,,,,,,,0.45,3
,,,,,html-keyboard-response,100,98930,0.0-6.9-0.9,467,"<div style=""text-align: center; position: fixed; top: 5vh; left: 40vw;"">
            <div style=""margin:0 auto; width: 20vw; top: 8vh; font-size: 2vw""> 
            <font color=""green""> Bonus : $0.45 </font>
            </div>
        </div>
    
            <div> Please press any button to continue to the next trial.</div>",arrowleft,ITI,,,,,,,,3
,,,,,html-keyboard-response,101,99543,0.0-6.9-1.9,null,"<div style=""text-align: center; position: fixed; top: 5vh; left: 40vw;"">
            <div style=""margin:0 auto; width: 20vw; top: 8vh; font-size: 2vw""> 
            <font color=""green""> Bonus : $0.45 </font>
            </div>
        </div>
    
        <img class=""stim"" src=./stimuli//pack_shapes_diff/cat_1/diff_2/ex_1_2_13.png></img>",null,stimulus,,,,,,,,3
,,,,,html-keyboard-response,102,100557,0.0-6.9-2.9,null,"<div style=""text-align: center; position: fixed; top: 5vh; left: 40vw;"">
            <div style=""margin:0 auto; width: 20vw; top: 8vh; font-size: 2vw""> 
            <font color=""green""> Bonus : $0.45 </font>
            </div>
        </div>",null,,,,,,,,,3
,,,,,html-keyboard-response,103,100793,0.0-6.9-3.9,236,./stimuli//pack_shapes_diff/cat_1/diff_2/ex_1_2_13.png,arrowleft,response,ArrowLeft,13,1,2,test,TRUE,,3
,,,,,html-keyboard-response,104,102296,0.0-6.9-4.9,null,"<p> <font color=""green"" size=""5vw""> Correct category! </font> <br> <br> <font color=""green"" size=""8vw""> + $0.05 </font> </p>",null,feedback,,,,,,,0.5,3
,,,,,html-keyboard-response,105,102882,0.0-6.10-0.10,585,"<div style=""text-align: center; position: fixed; top: 5vh; left: 40vw;"">
            <div style=""margin:0 auto; width: 20vw; top: 8vh; font-size: 2vw""> 
            <font color=""green""> Bonus : $0.5 </font>
            </div>
        </div>
    
            <div> Please press any button to continue to the next trial.</div>",arrowleft,ITI,,,,,,,,3
,,,,,html-keyboard-response,106,103486,0.0-6.10-1.10,null,"<div style=""text-align: center; position: fixed; top: 5vh; left: 40vw;"">
            <div style=""margin:0 auto; width: 20vw; top: 8vh; font-size: 2vw""> 
            <font color=""green""> Bonus : $0.5 </font>
            </div>
        </div>
    
        <img class=""stim"" src=./stimuli//pack_shapes_diff/cat_1/diff_3/ex_1_3_12.png></img>",null,stimulus,,,,,,,,3
,,,,,html-keyboard-response,107,104501,0.0-6.10-2.10,null,"<div style=""text-align: center; position: fixed; top: 5vh; left: 40vw;"">
            <div style=""margin:0 auto; width: 20vw; top: 8vh; font-size: 2vw""> 
            <font color=""green""> Bonus : $0.5 </font>
            </div>
        </div>",null,,,,,,,,,3
,,,,,html-keyboard-response,108,104738,0.0-6.10-3.10,237,./stimuli//pack_shapes_diff/cat_1/diff_3/ex_1_3_12.png,arrowleft,response,ArrowLeft,12,1,3,test,TRUE,,3
,,,,,html-keyboard-response,109,106248,0.0-6.10-4.10,null,"<p> <font color=""green"" size=""5vw""> Correct category! </font> <br> <br> <font color=""green"" size=""8vw""> + $0.05 </font> </p>",null,feedback,,,,,,,0.55,3
,,,,,html-keyboard-response,110,107249,0.0-6.11-0.11,1001,"<div style=""text-align: center; position: fixed; top: 5vh; left: 40vw;"">
            <div style=""margin:0 auto; width: 20vw; top: 8vh; font-size: 2vw""> 
            <font color=""green""> Bonus : $0.55 </font>
            </div>
        </div>
    
            <div> Please press any button to continue to the next trial.</div>",arrowleft,ITI,,,,,,,,3
,,,,,html-keyboard-response,111,107851,0.0-6.11-1.11,null,"<div style=""text-align: center; position: fixed; top: 5vh; left: 40vw;"">
            <div style=""margin:0 auto; width: 20vw; top: 8vh; font-size: 2vw""> 
            <font color=""green""> Bonus : $0.55 </font>
            </div>
        </div>
    
        <img class=""stim"" src=./stimuli//pack_shapes_diff/cat_1/diff_3/ex_1_3_9.png></img>",null,stimulus,,,,,,,,3
,,,,,html-keyboard-response,112,108854,0.0-6.11-2.11,null,"<div style=""text-align: center; position: fixed; top: 5vh; left: 40vw;"">
            <div style=""margin:0 auto; width: 20vw; top: 8vh; font-size: 2vw""> 
            <font color=""green""> Bonus : $0.55 </font>
            </div>
        </div>",null,,,,,,,,,3
,,,,,html-keyboard-response,113,109034,0.0-6.11-3.11,179,./stimuli//pack_shapes_diff/cat_1/diff_3/ex_1_3_9.png,arrowleft,response,ArrowLeft,9,1,3,test,TRUE,,3
,,,,,html-keyboard-response,114,110535,0.0-6.11-4.11,null,"<p> <font color=""green"" size=""5vw""> Correct category! </font> <br> <br> <font color=""green"" size=""8vw""> + $0.05 </font> </p>",null,feedback,,,,,,,0.6,3
,,,,,html-keyboard-response,115,111058,0.0-6.12-0.12,523,"<div style=""text-align: center; position: fixed; top: 5vh; left: 40vw;"">
            <div style=""margin:0 auto; width: 20vw; top: 8vh; font-size: 2vw""> 
            <font color=""green""> Bonus : $0.6 </font>
            </div>
        </div>
    
            <div> Please press any button to continue to the next trial.</div>",arrowleft,ITI,,,,,,,,3
,,,,,html-keyboard-response,116,111660,0.0-6.12-1.12,null,"<div style=""text-align: center; position: fixed; top: 5vh; left: 40vw;"">
            <div style=""margin:0 auto; width: 20vw; top: 8vh; font-size: 2vw""> 
            <font color=""green""> Bonus : $0.6 </font>
            </div>
        </div>
    
        <img class=""stim"" src=./stimuli//pack_shapes_diff/cat_1/diff_3/ex_1_3_14.png></img>",null,stimulus,,,,,,,,3
,,,,,html-keyboard-response,117,112661,0.0-6.12-2.12,null,"<div style=""text-align: center; position: fixed; top: 5vh; left: 40vw;"">
            <div style=""margin:0 auto; width: 20vw; top: 8vh; font-size: 2vw""> 
            <font color=""green""> Bonus : $0.6 </font>
            </div>
        </div>",null,,,,,,,,,3
,,,,,html-keyboard-response,118,112834,0.0-6.12-3.12,173,./stimuli//pack_shapes_diff/cat_1/diff_3/ex_1_3_14.png,arrowleft,response,ArrowLeft,14,1,3,test,TRUE,,3
,,,,,html-keyboard-response,119,114337,0.0-6.12-4.12,null,"<p> <font color=""green"" size=""5vw""> Correct category! </font> <br> <br> <font color=""green"" size=""8vw""> + $0.05 </font> </p>",null,feedback,,,,,,,0.65,3
,,,,,html-keyboard-response,120,114810,0.0-6.13-0.13,472,"<div style=""text-align: center; position: fixed; top: 5vh; left: 40vw;"">
            <div style=""margin:0 auto; width: 20vw; top: 8vh; font-size: 2vw""> 
            <font color=""green""> Bonus : $0.65 </font>
            </div>
        </div>
    
            <div> Please press any button to continue to the next trial.</div>",arrowleft,ITI,,,,,,,,3
,,,,,html-keyboard-response,121,115412,0.0-6.13-1.13,null,"<div style=""text-align: center; position: fixed; top: 5vh; left: 40vw;"">
            <div style=""margin:0 auto; width: 20vw; top: 8vh; font-size: 2vw""> 
            <font color=""green""> Bonus : $0.65 </font>
            </div>
        </div>
    
        <img class=""stim"" src=./stimuli//pack_shapes_diff/cat_2/diff_3/ex_2_3_9.png></img>",null,stimulus,,,,,,,,3
,,,,,html-keyboard-response,122,116424,0.0-6.13-2.13,null,"<div style=""text-align: center; position: fixed; top: 5vh; left: 40vw;"">
            <div style=""margin:0 auto; width: 20vw; top: 8vh; font-size: 2vw""> 
            <font color=""green""> Bonus : $0.65 </font>
            </div>
        </div>",null,,,,,,,,,3
,,,,,html-keyboard-response,123,116649,0.0-6.13-3.13,224,./stimuli//pack_shapes_diff/cat_2/diff_3/ex_2_3_9.png,arrowright,response,ArrowRight,9,2,3,test,TRUE,,3
,,,,,html-keyboard-response,124,118154,0.0-6.13-4.13,null,"<p> <font color=""green"" size=""5vw""> Correct category! </font> <br> <br> <font color=""green"" size=""8vw""> + $0.05 </font> </p>",null,feedback,,,,,,,0.7,3
,,,,,html-keyboard-response,125,118586,0.0-6.14-0.14,431,"<div style=""text-align: center; position: fixed; top: 5vh; left: 40vw;"">
            <div style=""margin:0 auto; width: 20vw; top: 8vh; font-size: 2vw""> 
            <font color=""green""> Bonus : $0.7 </font>
            </div>
        </div>
    
            <div> Please press any button to continue to the next trial.</div>",arrowleft,ITI,,,,,,,,3
,,,,,html-keyboard-response,126,119201,0.0-6.14-1.14,null,"<div style=""text-align: center; position: fixed; top: 5vh; left: 40vw;"">
            <div style=""margin:0 auto; width: 20vw; top: 8vh; font-size: 2vw""> 
            <font color=""green""> Bonus : $0.7 </font>
            </div>
        </div>
    
        <img class=""stim"" src=./stimuli//pack_shapes_diff/cat_2/diff_3/ex_2_3_3.png></img>",null,stimulus,,,,,,,,3
,,,,,html-keyboard-response,127,120215,0.0-6.14-2.14,null,"<div style=""text-align: center; position: fixed; top: 5vh; left: 40vw;"">
            <div style=""margin:0 auto; width: 20vw; top: 8vh; font-size: 2vw""> 
            <font color=""green""> Bonus : $0.7 </font>
            </div>
        </div>",null,,,,,,,,,3
,,,,,html-keyboard-response,128,120617,0.0-6.14-3.14,401,./stimuli//pack_shapes_diff/cat_2/diff_3/ex_2_3_3.png,arrowright,response,ArrowRight,3,2,3,test,TRUE,,3
,,,,,html-keyboard-response,129,122126,0.0-6.14-4.14,null,"<p> <font color=""green"" size=""5vw""> Correct category! </font> <br> <br> <font color=""green"" size=""8vw""> + $0.05 </font> </p>",null,feedback,,,,,,,0.75,3
,,,,,html-keyboard-response,130,122666,0.0-6.15-0.15,540,"<div style=""text-align: center; position: fixed; top: 5vh; left: 40vw;"">
            <div style=""margin:0 auto; width: 20vw; top: 8vh; font-size: 2vw""> 
            <font color=""green""> Bonus : $0.75 </font>
            </div>
        </div>
    
            <div> Please press any button to continue to the next trial.</div>",arrowleft,ITI,,,,,,,,3
,,,,,html-keyboard-response,131,123278,0.0-6.15-1.15,null,"<div style=""text-align: center; position: fixed; top: 5vh; left: 40vw;"">
            <div style=""margin:0 auto; width: 20vw; top: 8vh; font-size: 2vw""> 
            <font color=""green""> Bonus : $0.75 </font>
            </div>
        </div>
    
        <img class=""stim"" src=./stimuli//pack_shapes_diff/cat_1/diff_4/ex_1_4_8.png></img>",null,stimulus,,,,,,,,3
,,,,,html-keyboard-response,132,124281,0.0-6.15-2.15,null,"<div style=""text-align: center; position: fixed; top: 5vh; left: 40vw;"">
            <div style=""margin:0 auto; width: 20vw; top: 8vh; font-size: 2vw""> 
            <font color=""green""> Bonus : $0.75 </font>
            </div>
        </div>",null,,,,,,,,,3
,,,,,html-keyboard-response,133,124474,0.0-6.15-3.15,192,./stimuli//pack_shapes_diff/cat_1/diff_4/ex_1_4_8.png,arrowleft,response,ArrowLeft,8,1,4,test,TRUE,,3
,,,,,html-keyboard-response,134,125990,0.0-6.15-4.15,null,"<p> <font color=""green"" size=""5vw""> Correct category! </font> <br> <br> <font color=""green"" size=""8vw""> + $0.05 </font> </p>",null,feedback,,,,,,,0.8,3
,,,,,html-keyboard-response,135,126955,0.0-6.16-0.16,964,"<div style=""text-align: center; position: fixed; top: 5vh; left: 40vw;"">
            <div style=""margin:0 auto; width: 20vw; top: 8vh; font-size: 2vw""> 
            <font color=""green""> Bonus : $0.8 </font>
            </div>
        </div>
    
            <div> Please press any button to continue to the next trial.</div>",arrowleft,ITI,,,,,,,,3
,,,,,html-keyboard-response,136,127559,0.0-6.16-1.16,null,"<div style=""text-align: center; position: fixed; top: 5vh; left: 40vw;"">
            <div style=""margin:0 auto; width: 20vw; top: 8vh; font-size: 2vw""> 
            <font color=""green""> Bonus : $0.8 </font>
            </div>
        </div>
    
        <img class=""stim"" src=./stimuli//pack_shapes_diff/cat_1/diff_4/ex_1_4_1.png></img>",null,stimulus,,,,,,,,3
,,,,,html-keyboard-response,137,128565,0.0-6.16-2.16,null,"<div style=""text-align: center; position: fixed; top: 5vh; left: 40vw;"">
            <div style=""margin:0 auto; width: 20vw; top: 8vh; font-size: 2vw""> 
            <font color=""green""> Bonus : $0.8 </font>
            </div>
        </div>",null,,,,,,,,,3
,,,,,html-keyboard-response,138,128658,0.0-6.16-3.16,92,./stimuli//pack_shapes_diff/cat_1/diff_4/ex_1_4_1.png,arrowleft,response,ArrowLeft,1,1,4,test,TRUE,,3
,,,,,html-keyboard-response,139,130172,0.0-6.16-4.16,null,"<p> <font color=""green"" size=""5vw""> Correct category! </font> <br> <br> <font color=""green"" size=""8vw""> + $0.05 </font> </p>",null,feedback,,,,,,,0.85,3
,,,,,html-keyboard-response,140,131258,0.0-6.17-0.17,1085,"<div style=""text-align: center; position: fixed; top: 5vh; left: 40vw;"">
            <div style=""margin:0 auto; width: 20vw; top: 8vh; font-size: 2vw""> 
            <font color=""green""> Bonus : $0.85 </font>
            </div>
        </div>
    
            <div> Please press any button to continue to the next trial.</div>",arrowleft,ITI,,,,,,,,3
,,,,,html-keyboard-response,141,131863,0.0-6.17-1.17,null,"<div style=""text-align: center; position: fixed; top: 5vh; left: 40vw;"">
            <div style=""margin:0 auto; width: 20vw; top: 8vh; font-size: 2vw""> 
            <font color=""green""> Bonus : $0.85 </font>
            </div>
        </div>
    
        <img class=""stim"" src=./stimuli//pack_shapes_diff/cat_1/diff_4/ex_1_4_9.png></img>",null,stimulus,,,,,,,,3
,,,,,html-keyboard-response,142,132869,0.0-6.17-2.17,null,"<div style=""text-align: center; position: fixed; top: 5vh; left: 40vw;"">
            <div style=""margin:0 auto; width: 20vw; top: 8vh; font-size: 2vw""> 
            <font color=""green""> Bonus : $0.85 </font>
            </div>
        </div>",null,,,,,,,,,3
,,,,,html-keyboard-response,143,133066,0.0-6.17-3.17,196,./stimuli//pack_shapes_diff/cat_1/diff_4/ex_1_4_9.png,arrowleft,response,ArrowLeft,9,1,4,test,TRUE,,3
,,,,,html-keyboard-response,144,134571,0.0-6.17-4.17,null,"<p> <font color=""green"" size=""5vw""> Correct category! </font> <br> <br> <font color=""green"" size=""8vw""> + $0.05 </font> </p>",null,feedback,,,,,,,0.9,3
,,,,,html-keyboard-response,145,134955,0.0-6.18-0.18,383,"<div style=""text-align: center; position: fixed; top: 5vh; left: 40vw;"">
            <div style=""margin:0 auto; width: 20vw; top: 8vh; font-size: 2vw""> 
            <font color=""green""> Bonus : $0.9 </font>
            </div>
        </div>
    
            <div> Please press any button to continue to the next trial.</div>",arrowleft,ITI,,,,,,,,3
,,,,,html-keyboard-response,146,135570,0.0-6.18-1.18,null,"<div style=""text-align: center; position: fixed; top: 5vh; left: 40vw;"">
            <div style=""margin:0 auto; width: 20vw; top: 8vh; font-size: 2vw""> 
            <font color=""green""> Bonus : $0.9 </font>
            </div>
        </div>
    
        <img class=""stim"" src=./stimuli//pack_shapes_diff/cat_1/diff_4/ex_1_4_1.png></img>",null,stimulus,,,,,,,,3
,,,,,html-keyboard-response,147,136587,0.0-6.18-2.18,null,"<div style=""text-align: center; position: fixed; top: 5vh; left: 40vw;"">
            <div style=""margin:0 auto; width: 20vw; top: 8vh; font-size: 2vw""> 
            <font color=""green""> Bonus : $0.9 </font>
            </div>
        </div>",null,,,,,,,,,3
,,,,,html-keyboard-response,148,136850,0.0-6.18-3.18,262,./stimuli//pack_shapes_diff/cat_1/diff_4/ex_1_4_1.png,arrowleft,response,ArrowLeft,1,1,4,test,TRUE,,3
,,,,,html-keyboard-response,149,138362,0.0-6.18-4.18,null,"<p> <font color=""green"" size=""5vw""> Correct category! </font> <br> <br> <font color=""green"" size=""8vw""> + $0.05 </font> </p>",null,feedback,,,,,,,0.95,3
,,,,,html-keyboard-response,150,138674,0.0-6.19-0.19,312,"<div style=""text-align: center; position: fixed; top: 5vh; left: 40vw;"">
            <div style=""margin:0 auto; width: 20vw; top: 8vh; font-size: 2vw""> 
            <font color=""green""> Bonus : $0.95 </font>
            </div>
        </div>
    
            <div> Please press any button to continue to the next trial.</div>",arrowleft,ITI,,,,,,,,3
,,,,,html-keyboard-response,151,139287,0.0-6.19-1.19,null,"<div style=""text-align: center; position: fixed; top: 5vh; left: 40vw;"">
            <div style=""margin:0 auto; width: 20vw; top: 8vh; font-size: 2vw""> 
            <font color=""green""> Bonus : $0.95 </font>
            </div>
        </div>
    
        <img class=""stim"" src=./stimuli//pack_shapes_diff/cat_1/diff_4/ex_1_4_8.png></img>",null,stimulus,,,,,,,,3
,,,,,html-keyboard-response,152,140288,0.0-6.19-2.19,null,"<div style=""text-align: center; position: fixed; top: 5vh; left: 40vw;"">
            <div style=""margin:0 auto; width: 20vw; top: 8vh; font-size: 2vw""> 
            <font color=""green""> Bonus : $0.95 </font>
            </div>
        </div>",null,,,,,,,,,3
,,,,,html-keyboard-response,153,140513,0.0-6.19-3.19,225,./stimuli//pack_shapes_diff/cat_1/diff_4/ex_1_4_8.png,arrowleft,response,ArrowLeft,8,1,4,test,TRUE,,3
,,,,,html-keyboard-response,154,142025,0.0-6.19-4.19,null,"<p> <font color=""green"" size=""5vw""> Correct category! </font> <br> <br> <font color=""green"" size=""8vw""> + $0.05 </font> </p>",null,feedback,,,,,,,1,3
,,,,,html-keyboard-response,155,142450,0.0-6.20-0.20,425,"<div style=""text-align: center; position: fixed; top: 5vh; left: 40vw;"">
            <div style=""margin:0 auto; width: 20vw; top: 8vh; font-size: 2vw""> 
            <font color=""green""> Bonus : $1 </font>
            </div>
        </div>
    
            <div> Please press any button to continue to the next trial.</div>",arrowleft,ITI,,,,,,,,3
,,,,,html-keyboard-response,156,143057,0.0-6.20-1.20,null,"<div style=""text-align: center; position: fixed; top: 5vh; left: 40vw;"">
            <div style=""margin:0 auto; width: 20vw; top: 8vh; font-size: 2vw""> 
            <font color=""green""> Bonus : $1 </font>
            </div>
        </div>
    
        <img class=""stim"" src=./stimuli//pack_shapes_diff/cat_1/diff_5/ex_1_5_2.png></img>",null,stimulus,,,,,,,,3
,,,,,html-keyboard-response,157,144072,0.0-6.20-2.20,null,"<div style=""text-align: center; position: fixed; top: 5vh; left: 40vw;"">
            <div style=""margin:0 auto; width: 20vw; top: 8vh; font-size: 2vw""> 
            <font color=""green""> Bonus : $1 </font>
            </div>
        </div>",null,,,,,,,,,3
,,,,,html-keyboard-response,158,144378,0.0-6.20-3.20,305,./stimuli//pack_shapes_diff/cat_1/diff_5/ex_1_5_2.png,arrowleft,response,ArrowLeft,2,1,5,test,TRUE,,3
,,,,,html-keyboard-response,159,145888,0.0-6.20-4.20,null,"<p> <font color=""green"" size=""5vw""> Correct category! </font> <br> <br> <font color=""green"" size=""8vw""> + $0.05 </font> </p>",null,feedback,,,,,,,1.05,3
,,,,,html-keyboard-response,160,146394,0.0-6.21-0.21,505,"<div style=""text-align: center; position: fixed; top: 5vh; left: 40vw;"">
            <div style=""margin:0 auto; width: 20vw; top: 8vh; font-size: 2vw""> 
            <font color=""green""> Bonus : $1.05 </font>
            </div>
        </div>
    
            <div> Please press any button to continue to the next trial.</div>",arrowleft,ITI,,,,,,,,3
,,,,,html-keyboard-response,161,147000,0.0-6.21-1.21,null,"<div style=""text-align: center; position: fixed; top: 5vh; left: 40vw;"">
            <div style=""margin:0 auto; width: 20vw; top: 8vh; font-size: 2vw""> 
            <font color=""green""> Bonus : $1.05 </font>
            </div>
        </div>
    
        <img class=""stim"" src=./stimuli//pack_shapes_diff/cat_1/diff_5/ex_1_5_7.png></img>",null,stimulus,,,,,,,,3
,,,,,html-keyboard-response,162,148016,0.0-6.21-2.21,null,"<div style=""text-align: center; position: fixed; top: 5vh; left: 40vw;"">
            <div style=""margin:0 auto; width: 20vw; top: 8vh; font-size: 2vw""> 
            <font color=""green""> Bonus : $1.05 </font>
            </div>
        </div>",null,,,,,,,,,3
,,,,,html-keyboard-response,163,148298,0.0-6.21-3.21,282,./stimuli//pack_shapes_diff/cat_1/diff_5/ex_1_5_7.png,arrowleft,response,ArrowLeft,7,1,5,test,TRUE,,3
,,,,,html-keyboard-response,164,149812,0.0-6.21-4.21,null,"<p> <font color=""green"" size=""5vw""> Correct category! </font> <br> <br> <font color=""green"" size=""8vw""> + $0.05 </font> </p>",null,feedback,,,,,,,1.1,3
,,,,,html-keyboard-response,165,150251,0.0-6.22-0.22,439,"<div style=""text-align: center; position: fixed; top: 5vh; left: 40vw;"">
            <div style=""margin:0 auto; width: 20vw; top: 8vh; font-size: 2vw""> 
            <font color=""green""> Bonus : $1.1 </font>
            </div>
        </div>
    
            <div> Please press any button to continue to the next trial.</div>",arrowleft,ITI,,,,,,,,3
,,,,,html-keyboard-response,166,150854,0.0-6.22-1.22,null,"<div style=""text-align: center; position: fixed; top: 5vh; left: 40vw;"">
            <div style=""margin:0 auto; width: 20vw; top: 8vh; font-size: 2vw""> 
            <font color=""green""> Bonus : $1.1 </font>
            </div>
        </div>
    
        <img class=""stim"" src=./stimuli//pack_shapes_diff/cat_1/diff_5/ex_1_5_12.png></img>",null,stimulus,,,,,,,,3
,,,,,html-keyboard-response,167,151858,0.0-6.22-2.22,null,"<div style=""text-align: center; position: fixed; top: 5vh; left: 40vw;"">
            <div style=""margin:0 auto; width: 20vw; top: 8vh; font-size: 2vw""> 
            <font color=""green""> Bonus : $1.1 </font>
            </div>
        </div>",null,,,,,,,,,3
,,,,,html-keyboard-response,168,152441,0.0-6.22-3.22,583,./stimuli//pack_shapes_diff/cat_1/diff_5/ex_1_5_12.png,arrowleft,response,ArrowLeft,12,1,5,test,TRUE,,3
,,,,,html-keyboard-response,169,153952,0.0-6.22-4.22,null,"<p> <font color=""green"" size=""5vw""> Correct category! </font> <br> <br> <font color=""green"" size=""8vw""> + $0.05 </font> </p>",null,feedback,,,,,,,1.15,3
,,,,,html-keyboard-response,170,154370,0.0-6.23-0.23,416,"<div style=""text-align: center; position: fixed; top: 5vh; left: 40vw;"">
            <div style=""margin:0 auto; width: 20vw; top: 8vh; font-size: 2vw""> 
            <font color=""green""> Bonus : $1.15 </font>
            </div>
        </div>
    
            <div> Please press any button to continue to the next trial.</div>",arrowleft,ITI,,,,,,,,3
,,,,,html-keyboard-response,171,154980,0.0-6.23-1.23,null,"<div style=""text-align: center; position: fixed; top: 5vh; left: 40vw;"">
            <div style=""margin:0 auto; width: 20vw; top: 8vh; font-size: 2vw""> 
            <font color=""green""> Bonus : $1.15 </font>
            </div>
        </div>
    
        <img class=""stim"" src=./stimuli//pack_shapes_diff/cat_1/diff_5/ex_1_5_11.png></img>",null,stimulus,,,,,,,,3
,,,,,html-keyboard-response,172,155994,0.0-6.23-2.23,null,"<div style=""text-align: center; position: fixed; top: 5vh; left: 40vw;"">
            <div style=""margin:0 auto; width: 20vw; top: 8vh; font-size: 2vw""> 
            <font color=""green""> Bonus : $1.15 </font>
            </div>
        </div>",null,,,,,,,,,3
,,,,,html-keyboard-response,173,156274,0.0-6.23-3.23,279,./stimuli//pack_shapes_diff/cat_1/diff_5/ex_1_5_11.png,arrowleft,response,ArrowLeft,11,1,5,test,TRUE,,3
,,,,,html-keyboard-response,174,157790,0.0-6.23-4.23,null,"<p> <font color=""green"" size=""5vw""> Correct category! </font> <br> <br> <font color=""green"" size=""8vw""> + $0.05 </font> </p>",null,feedback,,,,,,,1.2,3
,,,,,html-keyboard-response,175,158083,0.0-6.24-0.24,292,"<div style=""text-align: center; position: fixed; top: 5vh; left: 40vw;"">
            <div style=""margin:0 auto; width: 20vw; top: 8vh; font-size: 2vw""> 
            <font color=""green""> Bonus : $1.2 </font>
            </div>
        </div>
    
            <div> Please press any button to continue to the next trial.</div>",arrowleft,ITI,,,,,,,,3
,,,,,html-keyboard-response,176,158696,0.0-6.24-1.24,null,"<div style=""text-align: center; position: fixed; top: 5vh; left: 40vw;"">
            <div style=""margin:0 auto; width: 20vw; top: 8vh; font-size: 2vw""> 
            <font color=""green""> Bonus : $1.2 </font>
            </div>
        </div>
    
        <img class=""stim"" src=./stimuli//pack_shapes_diff/cat_2/diff_5/ex_2_5_2.png></img>",null,stimulus,,,,,,,,3
,,,,,html-keyboard-response,177,159697,0.0-6.24-2.24,null,"<div style=""text-align: center; position: fixed; top: 5vh; left: 40vw;"">
            <div style=""margin:0 auto; width: 20vw; top: 8vh; font-size: 2vw""> 
            <font color=""green""> Bonus : $1.2 </font>
            </div>
        </div>",null,,,,,,,,,3
,,,,,html-keyboard-response,178,159938,0.0-6.24-3.24,240,./stimuli//pack_shapes_diff/cat_2/diff_5/ex_2_5_2.png,arrowleft,response,ArrowRight,2,2,5,test,FALSE,,3
,,,,,html-keyboard-response,179,160722,0.0-6.24-4.24,784,"<p> <font color=""red"" size=""5vw""> Wrong category! </font> </p>",arrowleft,feedback,,,,,,,1.2,3
,,,,,html-keyboard-response,180,161177,0.0-6.25-0.25,455,"<div style=""text-align: center; position: fixed; top: 5vh; left: 40vw;"">
            <div style=""margin:0 auto; width: 20vw; top: 8vh; font-size: 2vw""> 
            <font color=""green""> Bonus : $1.2 </font>
            </div>
        </div>
    
            <div> Please press any button to continue to the next trial.</div>",arrowleft,ITI,,,,,,,,3
,,,,,html-keyboard-response,181,161789,0.0-6.25-1.25,null,"<div style=""text-align: center; position: fixed; top: 5vh; left: 40vw;"">
            <div style=""margin:0 auto; width: 20vw; top: 8vh; font-size: 2vw""> 
            <font color=""green""> Bonus : $1.2 </font>
            </div>
        </div>
    
        <img class=""stim"" src=./stimuli//pack_shapes_diff/cat_2/diff_5/ex_2_5_15.png></img>",null,stimulus,,,,,,,,3
,,,,,html-keyboard-response,182,162793,0.0-6.25-2.25,null,"<div style=""text-align: center; position: fixed; top: 5vh; left: 40vw;"">
            <div style=""margin:0 auto; width: 20vw; top: 8vh; font-size: 2vw""> 
            <font color=""green""> Bonus : $1.2 </font>
            </div>
        </div>",null,,,,,,,,,3
,,,,,html-keyboard-response,183,163033,0.0-6.25-3.25,240,./stimuli//pack_shapes_diff/cat_2/diff_5/ex_2_5_15.png,arrowleft,response,ArrowRight,15,2,5,test,FALSE,,3
,,,,,html-keyboard-response,184,163849,0.0-6.25-4.25,816,"<p> <font color=""red"" size=""5vw""> Wrong category! </font> </p>",arrowleft,feedback,,,,,,,1.2,3
,,,,,html-keyboard-response,185,164329,0.0-6.26-0.26,480,"<div style=""text-align: center; position: fixed; top: 5vh; left: 40vw;"">
            <div style=""margin:0 auto; width: 20vw; top: 8vh; font-size: 2vw""> 
            <font color=""green""> Bonus : $1.2 </font>
            </div>
        </div>
    
            <div> Please press any button to continue to the next trial.</div>",arrowleft,ITI,,,,,,,,3
,,,,,html-keyboard-response,186,164944,0.0-6.26-1.26,null,"<div style=""text-align: center; position: fixed; top: 5vh; left: 40vw;"">
            <div style=""margin:0 auto; width: 20vw; top: 8vh; font-size: 2vw""> 
            <font color=""green""> Bonus : $1.2 </font>
            </div>
        </div>
    
        <img class=""stim"" src=./stimuli//pack_shapes_diff/cat_2/diff_4/ex_2_4_16.png></img>",null,stimulus,,,,,,,,3
,,,,,html-keyboard-response,187,165960,0.0-6.26-2.26,null,"<div style=""text-align: center; position: fixed; top: 5vh; left: 40vw;"">
            <div style=""margin:0 auto; width: 20vw; top: 8vh; font-size: 2vw""> 
            <font color=""green""> Bonus : $1.2 </font>
            </div>
        </div>",null,,,,,,,,,3
,,,,,html-keyboard-response,188,166298,0.0-6.26-3.26,338,./stimuli//pack_shapes_diff/cat_2/diff_4/ex_2_4_16.png,arrowright,response,ArrowRight,16,2,4,test,TRUE,,3
,,,,,html-keyboard-response,189,167026,0.0-6.26-4.26,728,"<p> <font color=""green"" size=""5vw""> Correct category! </font> <br> <br> <font color=""green"" size=""8vw""> + $0.05 </font> </p>",arrowright,feedback,,,,,,,1.25,3
,,,,,html-keyboard-response,190,167546,0.0-6.27-0.27,520,"<div style=""text-align: center; position: fixed; top: 5vh; left: 40vw;"">
            <div style=""margin:0 auto; width: 20vw; top: 8vh; font-size: 2vw""> 
            <font color=""green""> Bonus : $1.25 </font>
            </div>
        </div>
    
            <div> Please press any button to continue to the next trial.</div>",arrowright,ITI,,,,,,,,3
,,,,,html-keyboard-response,191,168155,0.0-6.27-1.27,null,"<div style=""text-align: center; position: fixed; top: 5vh; left: 40vw;"">
            <div style=""margin:0 auto; width: 20vw; top: 8vh; font-size: 2vw""> 
            <font color=""green""> Bonus : $1.25 </font>
            </div>
        </div>
    
        <img class=""stim"" src=./stimuli//pack_shapes_diff/cat_1/diff_4/ex_1_4_4.png></img>",null,stimulus,,,,,,,,3
,,,,,html-keyboard-response,192,169169,0.0-6.27-2.27,null,"<div style=""text-align: center; position: fixed; top: 5vh; left: 40vw;"">
            <div style=""margin:0 auto; width: 20vw; top: 8vh; font-size: 2vw""> 
            <font color=""green""> Bonus : $1.25 </font>
            </div>
        </div>",null,,,,,,,,,3
,,,,,html-keyboard-response,193,169370,0.0-6.27-3.27,201,./stimuli//pack_shapes_diff/cat_1/diff_4/ex_1_4_4.png,arrowleft,response,ArrowLeft,4,1,4,test,TRUE,,3
,,,,,html-keyboard-response,194,170872,0.0-6.27-4.27,null,"<p> <font color=""green"" size=""5vw""> Correct category! </font> <br> <br> <font color=""green"" size=""8vw""> + $0.05 </font> </p>",null,feedback,,,,,,,1.3,3
,,,,,html-keyboard-response,195,171242,0.0-6.28-0.28,370,"<div style=""text-align: center; position: fixed; top: 5vh; left: 40vw;"">
            <div style=""margin:0 auto; width: 20vw; top: 8vh; font-size: 2vw""> 
            <font color=""green""> Bonus : $1.3 </font>
            </div>
        </div>
    
            <div> Please press any button to continue to the next trial.</div>",arrowleft,ITI,,,,,,,,3
,,,,,html-keyboard-response,196,171852,0.0-6.28-1.28,null,"<div style=""text-align: center; position: fixed; top: 5vh; left: 40vw;"">
            <div style=""margin:0 auto; width: 20vw; top: 8vh; font-size: 2vw""> 
            <font color=""green""> Bonus : $1.3 </font>
            </div>
        </div>
    
        <img class=""stim"" src=./stimuli//pack_shapes_diff/cat_2/diff_4/ex_2_4_11.png></img>",null,stimulus,,,,,,,,3
,,,,,html-keyboard-response,197,172854,0.0-6.28-2.28,null,"<div style=""text-align: center; position: fixed; top: 5vh; left: 40vw;"">
            <div style=""margin:0 auto; width: 20vw; top: 8vh; font-size: 2vw""> 
            <font color=""green""> Bonus : $1.3 </font>
            </div>
        </div>",null,,,,,,,,,3
,,,,,html-keyboard-response,198,172954,0.0-6.28-3.28,99,./stimuli//pack_shapes_diff/cat_2/diff_4/ex_2_4_11.png,arrowright,response,ArrowRight,11,2,4,test,TRUE,,3
,,,,,html-keyboard-response,199,174460,0.0-6.28-4.28,null,"<p> <font color=""green"" size=""5vw""> Correct category! </font> <br> <br> <font color=""green"" size=""8vw""> + $0.05 </font> </p>",null,feedback,,,,,,,1.35,3
,,,,,html-keyboard-response,200,174938,0.0-6.29-0.29,477,"<div style=""text-align: center; position: fixed; top: 5vh; left: 40vw;"">
            <div style=""margin:0 auto; width: 20vw; top: 8vh; font-size: 2vw""> 
            <font color=""green""> Bonus : $1.35 </font>
            </div>
        </div>
    
            <div> Please press any button to continue to the next trial.</div>",arrowleft,ITI,,,,,,,,3
,,,,,html-keyboard-response,201,175542,0.0-6.29-1.29,null,"<div style=""text-align: center; position: fixed; top: 5vh; left: 40vw;"">
            <div style=""margin:0 auto; width: 20vw; top: 8vh; font-size: 2vw""> 
            <font color=""green""> Bonus : $1.35 </font>
            </div>
        </div>
    
        <img class=""stim"" src=./stimuli//pack_shapes_diff/cat_2/diff_4/ex_2_4_17.png></img>",null,stimulus,,,,,,,,3
,,,,,html-keyboard-response,202,176550,0.0-6.29-2.29,null,"<div style=""text-align: center; position: fixed; top: 5vh; left: 40vw;"">
            <div style=""margin:0 auto; width: 20vw; top: 8vh; font-size: 2vw""> 
            <font color=""green""> Bonus : $1.35 </font>
            </div>
        </div>",null,,,,,,,,,3
,,,,,html-keyboard-response,203,176883,0.0-6.29-3.29,332,./stimuli//pack_shapes_diff/cat_2/diff_4/ex_2_4_17.png,arrowright,response,ArrowRight,17,2,4,test,TRUE,,3
,,,,,html-keyboard-response,204,178385,0.0-6.29-4.29,null,"<p> <font color=""green"" size=""5vw""> Correct category! </font> <br> <br> <font color=""green"" size=""8vw""> + $0.05 </font> </p>",null,feedback,,,,,,,1.4,3
,,,,,html-keyboard-response,205,178674,0.0-6.30-0.30,288,"<div style=""text-align: center; position: fixed; top: 5vh; left: 40vw;"">
            <div style=""margin:0 auto; width: 20vw; top: 8vh; font-size: 2vw""> 
            <font color=""green""> Bonus : $1.4 </font>
            </div>
        </div>
    
            <div> Please press any button to continue to the next trial.</div>",arrowleft,ITI,,,,,,,,3
,,,,,html-keyboard-response,206,179277,0.0-6.30-1.30,null,"<div style=""text-align: center; position: fixed; top: 5vh; left: 40vw;"">
            <div style=""margin:0 auto; width: 20vw; top: 8vh; font-size: 2vw""> 
            <font color=""green""> Bonus : $1.4 </font>
            </div>
        </div>
    
        <img class=""stim"" src=./stimuli//pack_shapes_diff/cat_1/diff_4/ex_1_4_13.png></img>",null,stimulus,,,,,,,,3
,,,,,html-keyboard-response,207,180282,0.0-6.30-2.30,null,"<div style=""text-align: center; position: fixed; top: 5vh; left: 40vw;"">
            <div style=""margin:0 auto; width: 20vw; top: 8vh; font-size: 2vw""> 
            <font color=""green""> Bonus : $1.4 </font>
            </div>
        </div>",null,,,,,,,,,3
,,,,,html-keyboard-response,208,180514,0.0-6.30-3.30,232,./stimuli//pack_shapes_diff/cat_1/diff_4/ex_1_4_13.png,arrowleft,response,ArrowLeft,13,1,4,test,TRUE,,3
,,,,,html-keyboard-response,209,181346,0.0-6.30-4.30,831,"<p> <font color=""green"" size=""5vw""> Correct category! </font> <br> <br> <font color=""green"" size=""8vw""> + $0.05 </font> </p>",arrowleft,feedback,,,,,,,1.45,3
,,,,,html-keyboard-response,210,181762,0.0-6.31-0.31,416,"<div style=""text-align: center; position: fixed; top: 5vh; left: 40vw;"">
            <div style=""margin:0 auto; width: 20vw; top: 8vh; font-size: 2vw""> 
            <font color=""green""> Bonus : $1.45 </font>
            </div>
        </div>
    
            <div> Please press any button to continue to the next trial.</div>",arrowleft,ITI,,,,,,,,3
,,,,,html-keyboard-response,211,182377,0.0-6.31-1.31,null,"<div style=""text-align: center; position: fixed; top: 5vh; left: 40vw;"">
            <div style=""margin:0 auto; width: 20vw; top: 8vh; font-size: 2vw""> 
            <font color=""green""> Bonus : $1.45 </font>
            </div>
        </div>
    
        <img class=""stim"" src=./stimuli//pack_shapes_diff/cat_1/diff_5/ex_1_5_7.png></img>",null,stimulus,,,,,,,,3
,,,,,html-keyboard-response,212,183390,0.0-6.31-2.31,null,"<div style=""text-align: center; position: fixed; top: 5vh; left: 40vw;"">
            <div style=""margin:0 auto; width: 20vw; top: 8vh; font-size: 2vw""> 
            <font color=""green""> Bonus : $1.45 </font>
            </div>
        </div>",null,,,,,,,,,3
,,,,,html-keyboard-response,213,183754,0.0-6.31-3.31,363,./stimuli//pack_shapes_diff/cat_1/diff_5/ex_1_5_7.png,arrowleft,response,ArrowLeft,7,1,5,test,TRUE,,3
,,,,,html-keyboard-response,214,184257,0.0-6.31-4.31,503,"<p> <font color=""green"" size=""5vw""> Correct category! </font> <br> <br> <font color=""green"" size=""8vw""> + $0.05 </font> </p>",arrowleft,feedback,,,,,,,1.5,3
,,,,,html-keyboard-response,215,185081,0.0-6.32-0.32,823,"<div style=""text-align: center; position: fixed; top: 5vh; left: 40vw;"">
            <div style=""margin:0 auto; width: 20vw; top: 8vh; font-size: 2vw""> 
            <font color=""green""> Bonus : $1.5 </font>
            </div>
        </div>
    
            <div> Please press any button to continue to the next trial.</div>",arrowleft,ITI,,,,,,,,3
,,,,,html-keyboard-response,216,185691,0.0-6.32-1.32,null,"<div style=""text-align: center; position: fixed; top: 5vh; left: 40vw;"">
            <div style=""margin:0 auto; width: 20vw; top: 8vh; font-size: 2vw""> 
            <font color=""green""> Bonus : $1.5 </font>
            </div>
        </div>
    
        <img class=""stim"" src=./stimuli//pack_shapes_diff/cat_2/diff_5/ex_2_5_5.png></img>",null,stimulus,,,,,,,,3
,,,,,html-keyboard-response,217,186705,0.0-6.32-2.32,null,"<div style=""text-align: center; position: fixed; top: 5vh; left: 40vw;"">
            <div style=""margin:0 auto; width: 20vw; top: 8vh; font-size: 2vw""> 
            <font color=""green""> Bonus : $1.5 </font>
            </div>
        </div>",null,,,,,,,,,3
,,,,,html-keyboard-response,218,186874,0.0-6.32-3.32,168,./stimuli//pack_shapes_diff/cat_2/diff_5/ex_2_5_5.png,arrowright,response,ArrowRight,5,2,5,test,TRUE,,3
,,,,,html-keyboard-response,219,187402,0.0-6.32-4.32,528,"<p> <font color=""green"" size=""5vw""> Correct category! </font> <br> <br> <font color=""green"" size=""8vw""> + $0.05 </font> </p>",arrowleft,feedback,,,,,,,1.55,3
,,,,,html-keyboard-response,220,188234,0.0-6.33-0.33,831,"<div style=""text-align: center; position: fixed; top: 5vh; left: 40vw;"">
            <div style=""margin:0 auto; width: 20vw; top: 8vh; font-size: 2vw""> 
            <font color=""green""> Bonus : $1.55 </font>
            </div>
        </div>
    
            <div> Please press any button to continue to the next trial.</div>",arrowleft,ITI,,,,,,,,3
,,,,,html-keyboard-response,221,188841,0.0-6.33-1.33,null,"<div style=""text-align: center; position: fixed; top: 5vh; left: 40vw;"">
            <div style=""margin:0 auto; width: 20vw; top: 8vh; font-size: 2vw""> 
            <font color=""green""> Bonus : $1.55 </font>
            </div>
        </div>
    
        <img class=""stim"" src=./stimuli//pack_shapes_diff/cat_1/diff_5/ex_1_5_3.png></img>",null,stimulus,,,,,,,,3
,,,,,html-keyboard-response,222,189842,0.0-6.33-2.33,null,"<div style=""text-align: center; position: fixed; top: 5vh; left: 40vw;"">
            <div style=""margin:0 auto; width: 20vw; top: 8vh; font-size: 2vw""> 
            <font color=""green""> Bonus : $1.55 </font>
            </div>
        </div>",null,,,,,,,,,3
,,,,,html-keyboard-response,223,190049,0.0-6.33-3.33,207,./stimuli//pack_shapes_diff/cat_1/diff_5/ex_1_5_3.png,arrowleft,response,ArrowLeft,3,1,5,test,TRUE,,3
,,,,,html-keyboard-response,224,190393,0.0-6.33-4.33,344,"<p> <font color=""green"" size=""5vw""> Correct category! </font> <br> <br> <font color=""green"" size=""8vw""> + $0.05 </font> </p>",arrowleft,feedback,,,,,,,1.6,3
,,,,,html-keyboard-response,225,190746,0.0-6.34-0.34,352,"<div style=""text-align: center; position: fixed; top: 5vh; left: 40vw;"">
            <div style=""margin:0 auto; width: 20vw; top: 8vh; font-size: 2vw""> 
            <font color=""green""> Bonus : $1.6 </font>
            </div>
        </div>
    
            <div> Please press any button to continue to the next trial.</div>",arrowleft,ITI,,,,,,,,3
,,,,,html-keyboard-response,226,191347,0.0-6.34-1.34,null,"<div style=""text-align: center; position: fixed; top: 5vh; left: 40vw;"">
            <div style=""margin:0 auto; width: 20vw; top: 8vh; font-size: 2vw""> 
            <font color=""green""> Bonus : $1.6 </font>
            </div>
        </div>
    
        <img class=""stim"" src=./stimuli//pack_shapes_diff/cat_2/diff_5/ex_2_5_7.png></img>",null,stimulus,,,,,,,,3
,,,,,html-keyboard-response,227,192350,0.0-6.34-2.34,null,"<div style=""text-align: center; position: fixed; top: 5vh; left: 40vw;"">
            <div style=""margin:0 auto; width: 20vw; top: 8vh; font-size: 2vw""> 
            <font color=""green""> Bonus : $1.6 </font>
            </div>
        </div>",null,,,,,,,,,3
,,,,,html-keyboard-response,228,192627,0.0-6.34-3.34,276,./stimuli//pack_shapes_diff/cat_2/diff_5/ex_2_5_7.png,arrowright,response,ArrowRight,7,2,5,test,TRUE,,3
,,,,,html-keyboard-response,229,192922,0.0-6.34-4.34,295,"<p> <font color=""green"" size=""5vw""> Correct category! </font> <br> <br> <font color=""green"" size=""8vw""> + $0.05 </font> </p>",arrowleft,feedback,,,,,,,1.65,3
,,,,,html-keyboard-response,230,193289,0.0-6.35-0.35,367,"<div style=""text-align: center; position: fixed; top: 5vh; left: 40vw;"">
            <div style=""margin:0 auto; width: 20vw; top: 8vh; font-size: 2vw""> 
            <font color=""green""> Bonus : $1.65 </font>
            </div>
        </div>
    
            <div> Please press any button to continue to the next trial.</div>",arrowleft,ITI,,,,,,,,3
,,,,,html-keyboard-response,231,193899,0.0-6.35-1.35,null,"<div style=""text-align: center; position: fixed; top: 5vh; left: 40vw;"">
            <div style=""margin:0 auto; width: 20vw; top: 8vh; font-size: 2vw""> 
            <font color=""green""> Bonus : $1.65 </font>
            </div>
        </div>
    
        <img class=""stim"" src=./stimuli//pack_shapes_diff/cat_1/diff_5/ex_1_5_15.png></img>",null,stimulus,,,,,,,,3
,,,,,html-keyboard-response,232,194914,0.0-6.35-2.35,null,"<div style=""text-align: center; position: fixed; top: 5vh; left: 40vw;"">
            <div style=""margin:0 auto; width: 20vw; top: 8vh; font-size: 2vw""> 
            <font color=""green""> Bonus : $1.65 </font>
            </div>
        </div>",null,,,,,,,,,3
,,,,,html-keyboard-response,233,194922,0.0-6.35-3.35,7,./stimuli//pack_shapes_diff/cat_1/diff_5/ex_1_5_15.png,arrowright,response,ArrowLeft,15,1,5,test,FALSE,,3
,,,,,html-keyboard-response,234,195114,0.0-6.35-4.35,192,"<p> <font color=""red"" size=""5vw""> Wrong category! </font> </p>",arrowright,feedback,,,,,,,1.65,3
,,,,,html-keyboard-response,235,195714,0.0-6.36-0.36,600,"<div style=""text-align: center; position: fixed; top: 5vh; left: 40vw;"">
            <div style=""margin:0 auto; width: 20vw; top: 8vh; font-size: 2vw""> 
            <font color=""green""> Bonus : $1.65 </font>
            </div>
        </div>
    
            <div> Please press any button to continue to the next trial.</div>",arrowleft,ITI,,,,,,,,3
,,,,,html-keyboard-response,236,196326,0.0-6.36-1.36,null,"<div style=""text-align: center; position: fixed; top: 5vh; left: 40vw;"">
            <div style=""margin:0 auto; width: 20vw; top: 8vh; font-size: 2vw""> 
            <font color=""green""> Bonus : $1.65 </font>
            </div>
        </div>
    
        <img class=""stim"" src=./stimuli//pack_shapes_diff/cat_2/diff_5/ex_2_5_1.png></img>",null,stimulus,,,,,,,,3
,,,,,html-keyboard-response,237,197337,0.0-6.36-2.36,null,"<div style=""text-align: center; position: fixed; top: 5vh; left: 40vw;"">
            <div style=""margin:0 auto; width: 20vw; top: 8vh; font-size: 2vw""> 
            <font color=""green""> Bonus : $1.65 </font>
            </div>
        </div>",null,,,,,,,,,3
,,,,,html-keyboard-response,238,197410,0.0-6.36-3.36,72,./stimuli//pack_shapes_diff/cat_2/diff_5/ex_2_5_1.png,arrowright,response,ArrowRight,1,2,5,test,TRUE,,3
,,,,,html-keyboard-response,239,197921,0.0-6.36-4.36,512,"<p> <font color=""green"" size=""5vw""> Correct category! </font> <br> <br> <font color=""green"" size=""8vw""> + $0.05 </font> </p>",arrowleft,feedback,,,,,,,1.7,3
,,,,,html-keyboard-response,240,198338,0.0-6.37-0.37,416,"<div style=""text-align: center; position: fixed; top: 5vh; left: 40vw;"">
            <div style=""margin:0 auto; width: 20vw; top: 8vh; font-size: 2vw""> 
            <font color=""green""> Bonus : $1.7 </font>
            </div>
        </div>
    
            <div> Please press any button to continue to the next trial.</div>",arrowleft,ITI,,,,,,,,3
,,,,,html-keyboard-response,241,198949,0.0-6.37-1.37,null,"<div style=""text-align: center; position: fixed; top: 5vh; left: 40vw;"">
            <div style=""margin:0 auto; width: 20vw; top: 8vh; font-size: 2vw""> 
            <font color=""green""> Bonus : $1.7 </font>
            </div>
        </div>
    
        <img class=""stim"" src=./stimuli//pack_shapes_diff/cat_2/diff_5/ex_2_5_16.png></img>",null,stimulus,,,,,,,,3
,,,,,html-keyboard-response,242,199963,0.0-6.37-2.37,null,"<div style=""text-align: center; position: fixed; top: 5vh; left: 40vw;"">
            <div style=""margin:0 auto; width: 20vw; top: 8vh; font-size: 2vw""> 
            <font color=""green""> Bonus : $1.7 </font>
            </div>
        </div>",null,,,,,,,,,3
,,,,,html-keyboard-response,243,200186,0.0-6.37-3.37,223,./stimuli//pack_shapes_diff/cat_2/diff_5/ex_2_5_16.png,arrowleft,response,ArrowRight,16,2,5,test,FALSE,,3
,,,,,html-keyboard-response,244,200922,0.0-6.37-4.37,735,"<p> <font color=""red"" size=""5vw""> Wrong category! </font> </p>",arrowleft,feedback,,,,,,,1.7,3
,,,,,html-keyboard-response,245,201618,0.0-6.38-0.38,695,"<div style=""text-align: center; position: fixed; top: 5vh; left: 40vw;"">
            <div style=""margin:0 auto; width: 20vw; top: 8vh; font-size: 2vw""> 
            <font color=""green""> Bonus : $1.7 </font>
            </div>
        </div>
    
            <div> Please press any button to continue to the next trial.</div>",arrowleft,ITI,,,,,,,,3
,,,,,html-keyboard-response,246,202224,0.0-6.38-1.38,null,"<div style=""text-align: center; position: fixed; top: 5vh; left: 40vw;"">
            <div style=""margin:0 auto; width: 20vw; top: 8vh; font-size: 2vw""> 
            <font color=""green""> Bonus : $1.7 </font>
            </div>
        </div>
    
        <img class=""stim"" src=./stimuli//pack_shapes_diff/cat_1/diff_4/ex_1_4_8.png></img>",null,stimulus,,,,,,,,3
,,,,,html-keyboard-response,247,203238,0.0-6.38-2.38,null,"<div style=""text-align: center; position: fixed; top: 5vh; left: 40vw;"">
            <div style=""margin:0 auto; width: 20vw; top: 8vh; font-size: 2vw""> 
            <font color=""green""> Bonus : $1.7 </font>
            </div>
        </div>",null,,,,,,,,,3
,,,,,html-keyboard-response,248,203513,0.0-6.38-3.38,275,./stimuli//pack_shapes_diff/cat_1/diff_4/ex_1_4_8.png,arrowleft,response,ArrowLeft,8,1,4,test,TRUE,,3
,,,,,html-keyboard-response,249,203961,0.0-6.38-4.38,447,"<p> <font color=""green"" size=""5vw""> Correct category! </font> <br> <br> <font color=""green"" size=""8vw""> + $0.05 </font> </p>",arrowleft,feedback,,,,,,,1.75,3
,,,,,html-keyboard-response,250,204866,0.0-6.39-0.39,904,"<div style=""text-align: center; position: fixed; top: 5vh; left: 40vw;"">
            <div style=""margin:0 auto; width: 20vw; top: 8vh; font-size: 2vw""> 
            <font color=""green""> Bonus : $1.75 </font>
            </div>
        </div>
    
            <div> Please press any button to continue to the next trial.</div>",arrowleft,ITI,,,,,,,,3
,,,,,html-keyboard-response,251,205470,0.0-6.39-1.39,null,"<div style=""text-align: center; position: fixed; top: 5vh; left: 40vw;"">
            <div style=""margin:0 auto; width: 20vw; top: 8vh; font-size: 2vw""> 
            <font color=""green""> Bonus : $1.75 </font>
            </div>
        </div>
    
        <img class=""stim"" src=./stimuli//pack_shapes_diff/cat_1/diff_4/ex_1_4_11.png></img>",null,stimulus,,,,,,,,3
,,,,,html-keyboard-response,252,206478,0.0-6.39-2.39,null,"<div style=""text-align: center; position: fixed; top: 5vh; left: 40vw;"">
            <div style=""margin:0 auto; width: 20vw; top: 8vh; font-size: 2vw""> 
            <font color=""green""> Bonus : $1.75 </font>
            </div>
        </div>",null,,,,,,,,,3
,,,,,html-keyboard-response,253,206618,0.0-6.39-3.39,140,./stimuli//pack_shapes_diff/cat_1/diff_4/ex_1_4_11.png,arrowleft,response,ArrowLeft,11,1,4,test,TRUE,,3
,,,,,html-keyboard-response,254,207017,0.0-6.39-4.39,399,"<p> <font color=""green"" size=""5vw""> Correct category! </font> <br> <br> <font color=""green"" size=""8vw""> + $0.05 </font> </p>",arrowleft,feedback,,,,,,,1.8,3
,,,,,html-keyboard-response,255,207402,0.0-6.40-0.40,384,"<div style=""text-align: center; position: fixed; top: 5vh; left: 40vw;"">
            <div style=""margin:0 auto; width: 20vw; top: 8vh; font-size: 2vw""> 
            <font color=""green""> Bonus : $1.8 </font>
            </div>
        </div>
    
            <div> Please press any button to continue to the next trial.</div>",arrowleft,ITI,,,,,,,,3
,,,,,html-keyboard-response,256,208009,0.0-6.40-1.40,null,"<div style=""text-align: center; position: fixed; top: 5vh; left: 40vw;"">
            <div style=""margin:0 auto; width: 20vw; top: 8vh; font-size: 2vw""> 
            <font color=""green""> Bonus : $1.8 </font>
            </div>
        </div>
    
        <img class=""stim"" src=./stimuli//pack_shapes_diff/cat_2/diff_4/ex_2_4_3.png></img>",null,stimulus,,,,,,,,3
,,,,,html-keyboard-response,257,209022,0.0-6.40-2.40,null,"<div style=""text-align: center; position: fixed; top: 5vh; left: 40vw;"">
            <div style=""margin:0 auto; width: 20vw; top: 8vh; font-size: 2vw""> 
            <font color=""green""> Bonus : $1.8 </font>
            </div>
        </div>",null,,,,,,,,,3
,,,,,html-keyboard-response,258,209081,0.0-6.40-3.40,59,./stimuli//pack_shapes_diff/cat_2/diff_4/ex_2_4_3.png,arrowright,response,ArrowRight,3,2,4,test,TRUE,,3
,,,,,html-keyboard-response,259,209490,0.0-6.40-4.40,408,"<p> <font color=""green"" size=""5vw""> Correct category! </font> <br> <br> <font color=""green"" size=""8vw""> + $0.05 </font> </p>",arrowleft,feedback,,,,,,,1.85,3
,,,,,html-keyboard-response,260,210353,0.0-6.41-0.41,863,"<div style=""text-align: center; position: fixed; top: 5vh; left: 40vw;"">
            <div style=""margin:0 auto; width: 20vw; top: 8vh; font-size: 2vw""> 
            <font color=""green""> Bonus : $1.85 </font>
            </div>
        </div>
    
            <div> Please press any button to continue to the next trial.</div>",arrowleft,ITI,,,,,,,,3
,,,,,html-keyboard-response,261,210969,0.0-6.41-1.41,null,"<div style=""text-align: center; position: fixed; top: 5vh; left: 40vw;"">
            <div style=""margin:0 auto; width: 20vw; top: 8vh; font-size: 2vw""> 
            <font color=""green""> Bonus : $1.85 </font>
            </div>
        </div>
    
        <img class=""stim"" src=./stimuli//pack_shapes_diff/cat_1/diff_4/ex_1_4_13.png></img>",null,stimulus,,,,,,,,3
,,,,,html-keyboard-response,262,211983,0.0-6.41-2.41,null,"<div style=""text-align: center; position: fixed; top: 5vh; left: 40vw;"">
            <div style=""margin:0 auto; width: 20vw; top: 8vh; font-size: 2vw""> 
            <font color=""green""> Bonus : $1.85 </font>
            </div>
        </div>",null,,,,,,,,,3
,,,,,html-keyboard-response,263,212178,0.0-6.41-3.41,194,./stimuli//pack_shapes_diff/cat_1/diff_4/ex_1_4_13.png,arrowright,response,ArrowLeft,13,1,4,test,FALSE,,3
,,,,,html-keyboard-response,264,212673,0.0-6.41-4.41,495,"<p> <font color=""red"" size=""5vw""> Wrong category! </font> </p>",arrowleft,feedback,,,,,,,1.85,3
,,,,,html-keyboard-response,265,213050,0.0-6.42-0.42,376,"<div style=""text-align: center; position: fixed; top: 5vh; left: 40vw;"">
            <div style=""margin:0 auto; width: 20vw; top: 8vh; font-size: 2vw""> 
            <font color=""green""> Bonus : $1.85 </font>
            </div>
        </div>
    
            <div> Please press any button to continue to the next trial.</div>",arrowleft,ITI,,,,,,,,3
,,,,,html-keyboard-response,266,213655,0.0-6.42-1.42,null,"<div style=""text-align: center; position: fixed; top: 5vh; left: 40vw;"">
            <div style=""margin:0 auto; width: 20vw; top: 8vh; font-size: 2vw""> 
            <font color=""green""> Bonus : $1.85 </font>
            </div>
        </div>
    
        <img class=""stim"" src=./stimuli//pack_shapes_diff/cat_1/diff_4/ex_1_4_2.png></img>",null,stimulus,,,,,,,,3
,,,,,html-keyboard-response,267,214656,0.0-6.42-2.42,null,"<div style=""text-align: center; position: fixed; top: 5vh; left: 40vw;"">
            <div style=""margin:0 auto; width: 20vw; top: 8vh; font-size: 2vw""> 
            <font color=""green""> Bonus : $1.85 </font>
            </div>
        </div>",null,,,,,,,,,3
,,,,,html-keyboard-response,268,214857,0.0-6.42-3.42,201,./stimuli//pack_shapes_diff/cat_1/diff_4/ex_1_4_2.png,arrowleft,response,ArrowLeft,2,1,4,test,TRUE,,3
,,,,,html-keyboard-response,269,216010,0.0-6.42-4.42,1152,"<p> <font color=""green"" size=""5vw""> Correct category! </font> <br> <br> <font color=""green"" size=""8vw""> + $0.05 </font> </p>",arrowleft,feedback,,,,,,,1.9,3
,,,,,html-keyboard-response,270,216553,0.0-6.43-0.43,544,"<div style=""text-align: center; position: fixed; top: 5vh; left: 40vw;"">
            <div style=""margin:0 auto; width: 20vw; top: 8vh; font-size: 2vw""> 
            <font color=""green""> Bonus : $1.9 </font>
            </div>
        </div>
    
            <div> Please press any button to continue to the next trial.</div>",arrowleft,ITI,,,,,,,,3
,,,,,html-keyboard-response,271,217157,0.0-6.43-1.43,null,"<div style=""text-align: center; position: fixed; top: 5vh; left: 40vw;"">
            <div style=""margin:0 auto; width: 20vw; top: 8vh; font-size: 2vw""> 
            <font color=""green""> Bonus : $1.9 </font>
            </div>
        </div>
    
        <img class=""stim"" src=./stimuli//pack_shapes_diff/cat_2/diff_5/ex_2_5_4.png></img>",null,stimulus,,,,,,,,3
,,,,,html-keyboard-response,272,218170,0.0-6.43-2.43,null,"<div style=""text-align: center; position: fixed; top: 5vh; left: 40vw;"">
            <div style=""margin:0 auto; width: 20vw; top: 8vh; font-size: 2vw""> 
            <font color=""green""> Bonus : $1.9 </font>
            </div>
        </div>",null,,,,,,,,,3
,,,,,html-keyboard-response,273,218257,0.0-6.43-3.43,87,./stimuli//pack_shapes_diff/cat_2/diff_5/ex_2_5_4.png,arrowright,response,ArrowRight,4,2,5,test,TRUE,,3
,,,,,html-keyboard-response,274,218729,0.0-6.43-4.43,472,"<p> <font color=""green"" size=""5vw""> Correct category! </font> <br> <br> <font color=""green"" size=""8vw""> + $0.05 </font> </p>",arrowleft,feedback,,,,,,,1.95,3
,,,,,html-keyboard-response,275,219089,0.0-6.44-0.44,360,"<div style=""text-align: center; position: fixed; top: 5vh; left: 40vw;"">
            <div style=""margin:0 auto; width: 20vw; top: 8vh; font-size: 2vw""> 
            <font color=""green""> Bonus : $1.95 </font>
            </div>
        </div>
    
            <div> Please press any button to continue to the next trial.</div>",arrowleft,ITI,,,,,,,,3
,,,,,html-keyboard-response,276,219702,0.0-6.44-1.44,null,"<div style=""text-align: center; position: fixed; top: 5vh; left: 40vw;"">
            <div style=""margin:0 auto; width: 20vw; top: 8vh; font-size: 2vw""> 
            <font color=""green""> Bonus : $1.95 </font>
            </div>
        </div>
    
        <img class=""stim"" src=./stimuli//pack_shapes_diff/cat_2/diff_5/ex_2_5_3.png></img>",null,stimulus,,,,,,,,3
,,,,,html-keyboard-response,277,220704,0.0-6.44-2.44,null,"<div style=""text-align: center; position: fixed; top: 5vh; left: 40vw;"">
            <div style=""margin:0 auto; width: 20vw; top: 8vh; font-size: 2vw""> 
            <font color=""green""> Bonus : $1.95 </font>
            </div>
        </div>",null,,,,,,,,,3
,,,,,html-keyboard-response,278,220834,0.0-6.44-3.44,129,./stimuli//pack_shapes_diff/cat_2/diff_5/ex_2_5_3.png,arrowright,response,ArrowRight,3,2,5,test,TRUE,,3
,,,,,html-keyboard-response,279,221258,0.0-6.44-4.44,424,"<p> <font color=""green"" size=""5vw""> Correct category! </font> <br> <br> <font color=""green"" size=""8vw""> + $0.05 </font> </p>",arrowright,feedback,,,,,,,2,3
,,,,,html-keyboard-response,280,222033,0.0-6.45-0.45,775,"<div style=""text-align: center; position: fixed; top: 5vh; left: 40vw;"">
            <div style=""margin:0 auto; width: 20vw; top: 8vh; font-size: 2vw""> 
            <font color=""green""> Bonus : $2 </font>
            </div>
        </div>
    
            <div> Please press any button to continue to the next trial.</div>",arrowright,ITI,,,,,,,,3
,,,,,html-keyboard-response,281,222648,0.0-6.45-1.45,null,"<div style=""text-align: center; position: fixed; top: 5vh; left: 40vw;"">
            <div style=""margin:0 auto; width: 20vw; top: 8vh; font-size: 2vw""> 
            <font color=""green""> Bonus : $2 </font>
            </div>
        </div>
    
        <img class=""stim"" src=./stimuli//pack_shapes_diff/cat_2/diff_5/ex_2_5_14.png></img>",null,stimulus,,,,,,,,3
,,,,,html-keyboard-response,282,223663,0.0-6.45-2.45,null,"<div style=""text-align: center; position: fixed; top: 5vh; left: 40vw;"">
            <div style=""margin:0 auto; width: 20vw; top: 8vh; font-size: 2vw""> 
            <font color=""green""> Bonus : $2 </font>
            </div>
        </div>",null,,,,,,,,,3
,,,,,html-keyboard-response,283,223922,0.0-6.45-3.45,259,./stimuli//pack_shapes_diff/cat_2/diff_5/ex_2_5_14.png,arrowleft,response,ArrowRight,14,2,5,test,FALSE,,3
,,,,,html-keyboard-response,284,224418,0.0-6.45-4.45,495,"<p> <font color=""red"" size=""5vw""> Wrong category! </font> </p>",arrowleft,feedback,,,,,,,2,3
,,,,,html-keyboard-response,285,224738,0.0-6.46-0.46,320,"<div style=""text-align: center; position: fixed; top: 5vh; left: 40vw;"">
            <div style=""margin:0 auto; width: 20vw; top: 8vh; font-size: 2vw""> 
            <font color=""green""> Bonus : $2 </font>
            </div>
        </div>
    
            <div> Please press any button to continue to the next trial.</div>",arrowleft,ITI,,,,,,,,3
,,,,,html-keyboard-response,286,225345,0.0-6.46-1.46,null,"<div style=""text-align: center; position: fixed; top: 5vh; left: 40vw;"">
            <div style=""margin:0 auto; width: 20vw; top: 8vh; font-size: 2vw""> 
            <font color=""green""> Bonus : $2 </font>
            </div>
        </div>
    
        <img class=""stim"" src=./stimuli//pack_shapes_diff/cat_2/diff_5/ex_2_5_14.png></img>",null,stimulus,,,,,,,,3
,,,,,html-keyboard-response,287,226353,0.0-6.46-2.46,null,"<div style=""text-align: center; position: fixed; top: 5vh; left: 40vw;"">
            <div style=""margin:0 auto; width: 20vw; top: 8vh; font-size: 2vw""> 
            <font color=""green""> Bonus : $2 </font>
            </div>
        </div>",null,,,,,,,,,3
,,,,,html-keyboard-response,288,226602,0.0-6.46-3.46,248,./stimuli//pack_shapes_diff/cat_2/diff_5/ex_2_5_14.png,arrowright,response,ArrowRight,14,2,5,test,TRUE,,3
,,,,,html-keyboard-response,289,227002,0.0-6.46-4.46,400,"<p> <font color=""green"" size=""5vw""> Correct category! </font> <br> <br> <font color=""green"" size=""8vw""> + $0.05 </font> </p>",arrowleft,feedback,,,,,,,2.05,3
,,,,,html-keyboard-response,290,227386,0.0-6.47-0.47,384,"<div style=""text-align: center; position: fixed; top: 5vh; left: 40vw;"">
            <div style=""margin:0 auto; width: 20vw; top: 8vh; font-size: 2vw""> 
            <font color=""green""> Bonus : $2.05 </font>
            </div>
        </div>
    
            <div> Please press any button to continue to the next trial.</div>",arrowleft,ITI,,,,,,,,3
,,,,,html-keyboard-response,291,227992,0.0-6.47-1.47,null,"<div style=""text-align: center; position: fixed; top: 5vh; left: 40vw;"">
            <div style=""margin:0 auto; width: 20vw; top: 8vh; font-size: 2vw""> 
            <font color=""green""> Bonus : $2.05 </font>
            </div>
        </div>
    
        <img class=""stim"" src=./stimuli//pack_shapes_diff/cat_1/diff_5/ex_1_5_2.png></img>",null,stimulus,,,,,,,,3
,,,,,html-keyboard-response,292,228994,0.0-6.47-2.47,null,"<div style=""text-align: center; position: fixed; top: 5vh; left: 40vw;"">
            <div style=""margin:0 auto; width: 20vw; top: 8vh; font-size: 2vw""> 
            <font color=""green""> Bonus : $2.05 </font>
            </div>
        </div>",null,,,,,,,,,3
,,,,,html-keyboard-response,293,229250,0.0-6.47-3.47,256,./stimuli//pack_shapes_diff/cat_1/diff_5/ex_1_5_2.png,arrowleft,response,ArrowLeft,2,1,5,test,TRUE,,3
,,,,,html-keyboard-response,294,229577,0.0-6.47-4.47,327,"<p> <font color=""green"" size=""5vw""> Correct category! </font> <br> <br> <font color=""green"" size=""8vw""> + $0.05 </font> </p>",arrowleft,feedback,,,,,,,2.1,3
,,,,,html-keyboard-response,295,230147,0.0-6.48-0.48,569,"<div style=""text-align: center; position: fixed; top: 5vh; left: 40vw;"">
            <div style=""margin:0 auto; width: 20vw; top: 8vh; font-size: 2vw""> 
            <font color=""green""> Bonus : $2.1 </font>
            </div>
        </div>
    
            <div> Please press any button to continue to the next trial.</div>",arrowleft,ITI,,,,,,,,3
,,,,,html-keyboard-response,296,230758,0.0-6.48-1.48,null,"<div style=""text-align: center; position: fixed; top: 5vh; left: 40vw;"">
            <div style=""margin:0 auto; width: 20vw; top: 8vh; font-size: 2vw""> 
            <font color=""green""> Bonus : $2.1 </font>
            </div>
        </div>
    
        <img class=""stim"" src=./stimuli//pack_shapes_diff/cat_2/diff_5/ex_2_5_8.png></img>",null,stimulus,,,,,,,,3
,,,,,html-keyboard-response,297,231773,0.0-6.48-2.48,null,"<div style=""text-align: center; position: fixed; top: 5vh; left: 40vw;"">
            <div style=""margin:0 auto; width: 20vw; top: 8vh; font-size: 2vw""> 
            <font color=""green""> Bonus : $2.1 </font>
            </div>
        </div>",null,,,,,,,,,3
,,,,,html-keyboard-response,298,231905,0.0-6.48-3.48,132,./stimuli//pack_shapes_diff/cat_2/diff_5/ex_2_5_8.png,arrowright,response,ArrowRight,8,2,5,test,TRUE,,3
,,,,,html-keyboard-response,299,232322,0.0-6.48-4.48,416,"<p> <font color=""green"" size=""5vw""> Correct category! </font> <br> <br> <font color=""green"" size=""8vw""> + $0.05 </font> </p>",arrowleft,feedback,,,,,,,2.15,3
,,,,,html-keyboard-response,300,232873,0.0-6.49-0.49,551,"<div style=""text-align: center; position: fixed; top: 5vh; left: 40vw;"">
            <div style=""margin:0 auto; width: 20vw; top: 8vh; font-size: 2vw""> 
            <font color=""green""> Bonus : $2.15 </font>
            </div>
        </div>
    
            <div> Please press any button to continue to the next trial.</div>",arrowleft,ITI,,,,,,,,3
,,,,,html-keyboard-response,301,233486,0.0-6.49-1.49,null,"<div style=""text-align: center; position: fixed; top: 5vh; left: 40vw;"">
            <div style=""margin:0 auto; width: 20vw; top: 8vh; font-size: 2vw""> 
            <font color=""green""> Bonus : $2.15 </font>
            </div>
        </div>
    
        <img class=""stim"" src=./stimuli//pack_shapes_diff/cat_1/diff_5/ex_1_5_13.png></img>",null,stimulus,,,,,,,,3
,,,,,html-keyboard-response,302,234500,0.0-6.49-2.49,null,"<div style=""text-align: center; position: fixed; top: 5vh; left: 40vw;"">
            <div style=""margin:0 auto; width: 20vw; top: 8vh; font-size: 2vw""> 
            <font color=""green""> Bonus : $2.15 </font>
            </div>
        </div>",null,,,,,,,,,3
,,,,,html-keyboard-response,303,234562,0.0-6.49-3.49,62,./stimuli//pack_shapes_diff/cat_1/diff_5/ex_1_5_13.png,arrowright,response,ArrowLeft,13,1,5,test,FALSE,,3
,,,,,html-keyboard-response,304,234737,0.0-6.49-4.49,175,"<p> <font color=""red"" size=""5vw""> Wrong category! </font> </p>",arrowright,feedback,,,,,,,2.15,3
,,,,,html-keyboard-response,305,235210,0.0-6.50-0.50,472,"<div style=""text-align: center; position: fixed; top: 5vh; left: 40vw;"">
            <div style=""margin:0 auto; width: 20vw; top: 8vh; font-size: 2vw""> 
            <font color=""green""> Bonus : $2.15 </font>
            </div>
        </div>
    
            <div> Please press any button to continue to the next trial.</div>",arrowleft,ITI,,,,,,,,3
,,,,,html-keyboard-response,306,235812,0.0-6.50-1.50,null,"<div style=""text-align: center; position: fixed; top: 5vh; left: 40vw;"">
            <div style=""margin:0 auto; width: 20vw; top: 8vh; font-size: 2vw""> 
            <font color=""green""> Bonus : $2.15 </font>
            </div>
        </div>
    
        <img class=""stim"" src=./stimuli//pack_shapes_diff/cat_1/diff_4/ex_1_4_2.png></img>",null,stimulus,,,,,,,,3
,,,,,html-keyboard-response,307,236826,0.0-6.50-2.50,null,"<div style=""text-align: center; position: fixed; top: 5vh; left: 40vw;"">
            <div style=""margin:0 auto; width: 20vw; top: 8vh; font-size: 2vw""> 
            <font color=""green""> Bonus : $2.15 </font>
            </div>
        </div>",null,,,,,,,,,3
,,,,,html-keyboard-response,308,237154,0.0-6.50-3.50,327,./stimuli//pack_shapes_diff/cat_1/diff_4/ex_1_4_2.png,arrowleft,response,ArrowLeft,2,1,4,test,TRUE,,3
,,,,,html-keyboard-response,309,237498,0.0-6.50-4.50,344,"<p> <font color=""green"" size=""5vw""> Correct category! </font> <br> <br> <font color=""green"" size=""8vw""> + $0.05 </font> </p>",arrowleft,feedback,,,,,,,2.2,3
,,,,,html-keyboard-response,310,238170,0.0-6.51-0.51,671,"<div style=""text-align: center; position: fixed; top: 5vh; left: 40vw;"">
            <div style=""margin:0 auto; width: 20vw; top: 8vh; font-size: 2vw""> 
            <font color=""green""> Bonus : $2.2 </font>
            </div>
        </div>
    
            <div> Please press any button to continue to the next trial.</div>",arrowleft,ITI,,,,,,,,3
,,,,,html-keyboard-response,311,238781,0.0-6.51-1.51,null,"<div style=""text-align: center; position: fixed; top: 5vh; left: 40vw;"">
            <div style=""margin:0 auto; width: 20vw; top: 8vh; font-size: 2vw""> 
            <font color=""green""> Bonus : $2.2 </font>
            </div>
        </div>
    
        <img class=""stim"" src=./stimuli//pack_shapes_diff/cat_1/diff_4/ex_1_4_10.png></img>",null,stimulus,,,,,,,,3
,,,,,html-keyboard-response,312,239793,0.0-6.51-2.51,null,"<div style=""text-align: center; position: fixed; top: 5vh; left: 40vw;"">
            <div style=""margin:0 auto; width: 20vw; top: 8vh; font-size: 2vw""> 
            <font color=""green""> Bonus : $2.2 </font>
            </div>
        </div>",null,,,,,,,,,3
,,,,,html-keyboard-response,313,241410,0.0-6.51-3.51,1616,./stimuli//pack_shapes_diff/cat_1/diff_4/ex_1_4_10.png,arrowright,response,ArrowLeft,10,1,4,test,FALSE,,3
,,,,,html-keyboard-response,314,241794,0.0-6.51-4.51,383,"<p> <font color=""red"" size=""5vw""> Wrong category! </font> </p>",arrowleft,feedback,,,,,,,2.2,3
,,,,,html-keyboard-response,315,241994,0.0-6.52-0.52,200,"<div style=""text-align: center; position: fixed; top: 5vh; left: 40vw;"">
            <div style=""margin:0 auto; width: 20vw; top: 8vh; font-size: 2vw""> 
            <font color=""green""> Bonus : $2.2 </font>
            </div>
        </div>
    
            <div> Please press any button to continue to the next trial.</div>",arrowleft,ITI,,,,,,,,3
,,,,,html-keyboard-response,316,242597,0.0-6.52-1.52,null,"<div style=""text-align: center; position: fixed; top: 5vh; left: 40vw;"">
            <div style=""margin:0 auto; width: 20vw; top: 8vh; font-size: 2vw""> 
            <font color=""green""> Bonus : $2.2 </font>
            </div>
        </div>
    
        <img class=""stim"" src=./stimuli//pack_shapes_diff/cat_2/diff_4/ex_2_4_3.png></img>",null,stimulus,,,,,,,,3
,,,,,html-keyboard-response,317,243611,0.0-6.52-2.52,null,"<div style=""text-align: center; position: fixed; top: 5vh; left: 40vw;"">
            <div style=""margin:0 auto; width: 20vw; top: 8vh; font-size: 2vw""> 
            <font color=""green""> Bonus : $2.2 </font>
            </div>
        </div>",null,,,,,,,,,3
,,,,,html-keyboard-response,318,243658,0.0-6.52-3.52,46,./stimuli//pack_shapes_diff/cat_2/diff_4/ex_2_4_3.png,arrowright,response,ArrowRight,3,2,4,test,TRUE,,3
,,,,,html-keyboard-response,319,244137,0.0-6.52-4.52,479,"<p> <font color=""green"" size=""5vw""> Correct category! </font> <br> <br> <font color=""green"" size=""8vw""> + $0.05 </font> </p>",arrowleft,feedback,,,,,,,2.25,3
,,,,,html-keyboard-response,320,244434,0.0-6.53-0.53,296,"<div style=""text-align: center; position: fixed; top: 5vh; left: 40vw;"">
            <div style=""margin:0 auto; width: 20vw; top: 8vh; font-size: 2vw""> 
            <font color=""green""> Bonus : $2.25 </font>
            </div>
        </div>
    
            <div> Please press any button to continue to the next trial.</div>",arrowleft,ITI,,,,,,,,3
,,,,,html-keyboard-response,321,245037,0.0-6.53-1.53,null,"<div style=""text-align: center; position: fixed; top: 5vh; left: 40vw;"">
            <div style=""margin:0 auto; width: 20vw; top: 8vh; font-size: 2vw""> 
            <font color=""green""> Bonus : $2.25 </font>
            </div>
        </div>
    
        <img class=""stim"" src=./stimuli//pack_shapes_diff/cat_2/diff_4/ex_2_4_3.png></img>",null,stimulus,,,,,,,,3
,,,,,html-keyboard-response,322,246052,0.0-6.53-2.53,null,"<div style=""text-align: center; position: fixed; top: 5vh; left: 40vw;"">
            <div style=""margin:0 auto; width: 20vw; top: 8vh; font-size: 2vw""> 
            <font color=""green""> Bonus : $2.25 </font>
            </div>
        </div>",null,,,,,,,,,3
,,,,,html-keyboard-response,323,246329,0.0-6.53-3.53,276,./stimuli//pack_shapes_diff/cat_2/diff_4/ex_2_4_3.png,arrowright,response,ArrowRight,3,2,4,test,TRUE,,3
,,,,,html-keyboard-response,324,246665,0.0-6.53-4.53,336,"<p> <font color=""green"" size=""5vw""> Correct category! </font> <br> <br> <font color=""green"" size=""8vw""> + $0.05 </font> </p>",arrowleft,feedback,,,,,,,2.3,3
,,,,,html-keyboard-response,325,246971,0.0-6.54-0.54,305,"<div style=""text-align: center; position: fixed; top: 5vh; left: 40vw;"">
            <div style=""margin:0 auto; width: 20vw; top: 8vh; font-size: 2vw""> 
            <font color=""green""> Bonus : $2.3 </font>
            </div>
        </div>
    
            <div> Please press any button to continue to the next trial.</div>",arrowleft,ITI,,,,,,,,3
,,,,,html-keyboard-response,326,247580,0.0-6.54-1.54,null,"<div style=""text-align: center; position: fixed; top: 5vh; left: 40vw;"">
            <div style=""margin:0 auto; width: 20vw; top: 8vh; font-size: 2vw""> 
            <font color=""green""> Bonus : $2.3 </font>
            </div>
        </div>
    
