success,timeout,failed_images,failed_audio,failed_video,trial_type,trial_index,time_elapsed,internal_node_id,rt,stimulus,response,task,correct_response,exemplar_ID,category,difficulty,phase,correct,bonus,subject_id
TRUE,FALSE,[],[],[],preload,0,2,0.0-0.0,,,,,,,,,,,,5
,,,,,html-keyboard-response,1,2069,0.0-1.0,2066,Welcome to the Category Learning experiment! Press any key to continue.,j,welcome,,,,,,,,5
,,,,,html-keyboard-response,2,28540,0.0-2.0,26469,"
            <p>You will be shown images of black shapes. Some are category A, some are category B.
            <br>You will not know in advance which category a specific shape belongs to.</p>
            <p>After you see an image, you will be asked to guess its category <b>(left arrow for category A, right arrow for category B)</b></p>
            <p>After you choose, the screen will show you whether you were correct or not.</p>
            <p><b>You will receive a bonus payment of $0.05 for each correct answer!</b></p>
            <p> So you can increase your bonus by guessing correctly, and by guessing as quickly as possible so you move on to the next image sooner.</p>
            <p>Press any key to continue.</p>
            ",arrowright,introduction_1,,,,,,,,5
,,,,,html-keyboard-response,3,34327,0.0-3.0,5786,"
            <p> <b>The first 10 trials are a practice round that will not count towards your bonus payment.</b></p>
            <p> You will be notified when practice finishes and the test begins. </p>
            <p> Press any key to begin the practice round.</p>
            ",arrowright,introduction_2,,,,,,,,5
,,,,,html-keyboard-response,4,36074,0.0-4.0-0.0,1747,"
            
        <div style=""text-align: center; position: fixed; top: 5vh; left: 40vw;"">
            <div style=""margin:0 auto; width: 20vw; top: 8vh; font-size: 2vw""> 
            <font color=""green""> Bonus : $0 </font>
            </div>
        </div>
    
            <div> Please press any button to continue to the next trial.</div>
        ",arrowright,ITI,,,,,,,,5
,,,,,html-keyboard-response,5,36681,0.0-4.0-1.0,null,"
        
        <div style=""text-align: center; position: fixed; top: 5vh; left: 40vw;"">
            <div style=""margin:0 auto; width: 20vw; top: 8vh; font-size: 2vw""> 
            <font color=""green""> Bonus : $0 </font>
            </div>
        </div>
    
        <img class=""stim"" src=./stimuli//pack_shapes_diff/cat_2/diff_2/ex_2_2_3.png></img>
    ",null,stimulus,,,,,,,,5
,,,,,html-keyboard-response,6,37695,0.0-4.0-2.0,null,"
        <div style=""text-align: center; position: fixed; top: 5vh; left: 40vw;"">
            <div style=""margin:0 auto; width: 20vw; top: 8vh; font-size: 2vw""> 
            <font color=""green""> Bonus : $0 </font>
            </div>
        </div>
    ",null,,,,,,,,,5
,,,,,html-keyboard-response,7,38815,0.0-4.0-3.0,1118,./stimuli//pack_shapes_diff/cat_2/diff_2/ex_2_2_3.png,arrowright,response,ArrowRight,3,2,2,train,TRUE,,5
,,,,,html-keyboard-response,8,40326,0.0-4.0-4.0,null,"<p> <font color=""green"" size=""5vw""> Correct category! </font> </p>",null,feedback,,,,,,,0,5
,,,,,html-keyboard-response,9,41688,0.0-4.0-0.1,1361,"
            
        <div style=""text-align: center; position: fixed; top: 5vh; left: 40vw;"">
            <div style=""margin:0 auto; width: 20vw; top: 8vh; font-size: 2vw""> 
            <font color=""green""> Bonus : $0 </font>
            </div>
        </div>
    
            <div> Please press any button to continue to the next trial.</div>
        ",arrowright,ITI,,,,,,,,5
,,,,,html-keyboard-response,10,42302,0.0-4.0-1.1,null,"
        
        <div style=""text-align: center; position: fixed; top: 5vh; left: 40vw;"">
            <div style=""margin:0 auto; width: 20vw; top: 8vh; font-size: 2vw""> 
            <font color=""green""> Bonus : $0 </font>
            </div>
        </div>
    
        <img class=""stim"" src=./stimuli//pack_shapes_diff/cat_2/diff_1/ex_2_1_10.png></img>
    ",null,stimulus,,,,,,,,5
,,,,,html-keyboard-response,11,43308,0.0-4.0-2.1,null,"
        <div style=""text-align: center; position: fixed; top: 5vh; left: 40vw;"">
            <div style=""margin:0 auto; width: 20vw; top: 8vh; font-size: 2vw""> 
            <font color=""green""> Bonus : $0 </font>
            </div>
        </div>
    ",null,,,,,,,,,5
,,,,,html-keyboard-response,12,43635,0.0-4.0-3.1,326,./stimuli//pack_shapes_diff/cat_2/diff_1/ex_2_1_10.png,arrowright,response,ArrowRight,10,2,1,train,TRUE,,5
,,,,,html-keyboard-response,13,45147,0.0-4.0-4.1,null,"<p> <font color=""green"" size=""5vw""> Correct category! </font> </p>",null,feedback,,,,,,,0,5
,,,,,html-keyboard-response,14,46059,0.0-4.0-0.2,911,"
            
        <div style=""text-align: center; position: fixed; top: 5vh; left: 40vw;"">
            <div style=""margin:0 auto; width: 20vw; top: 8vh; font-size: 2vw""> 
            <font color=""green""> Bonus : $0 </font>
            </div>
        </div>
    
            <div> Please press any button to continue to the next trial.</div>
        ",arrowright,ITI,,,,,,,,5
,,,,,html-keyboard-response,15,46665,0.0-4.0-1.2,null,"
        
        <div style=""text-align: center; position: fixed; top: 5vh; left: 40vw;"">
            <div style=""margin:0 auto; width: 20vw; top: 8vh; font-size: 2vw""> 
            <font color=""green""> Bonus : $0 </font>
            </div>
        </div>
    
        <img class=""stim"" src=./stimuli//pack_shapes_diff/cat_1/diff_2/ex_1_2_1.png></img>
    ",null,stimulus,,,,,,,,5
,,,,,html-keyboard-response,16,47672,0.0-4.0-2.2,null,"
        <div style=""text-align: center; position: fixed; top: 5vh; left: 40vw;"">
            <div style=""margin:0 auto; width: 20vw; top: 8vh; font-size: 2vw""> 
            <font color=""green""> Bonus : $0 </font>
            </div>
        </div>
    ",null,,,,,,,,,5
,,,,,html-keyboard-response,17,48137,0.0-4.0-3.2,465,./stimuli//pack_shapes_diff/cat_1/diff_2/ex_1_2_1.png,arrowleft,response,ArrowLeft,1,1,2,train,TRUE,,5
,,,,,html-keyboard-response,18,49642,0.0-4.0-4.2,null,"<p> <font color=""green"" size=""5vw""> Correct category! </font> </p>",null,feedback,,,,,,,0,5
,,,,,html-keyboard-response,19,50817,0.0-4.0-0.3,1174,"
            
        <div style=""text-align: center; position: fixed; top: 5vh; left: 40vw;"">
            <div style=""margin:0 auto; width: 20vw; top: 8vh; font-size: 2vw""> 
            <font color=""green""> Bonus : $0 </font>
            </div>
        </div>
    
            <div> Please press any button to continue to the next trial.</div>
        ",arrowright,ITI,,,,,,,,5
,,,,,html-keyboard-response,20,51432,0.0-4.0-1.3,null,"
        
        <div style=""text-align: center; position: fixed; top: 5vh; left: 40vw;"">
            <div style=""margin:0 auto; width: 20vw; top: 8vh; font-size: 2vw""> 
            <font color=""green""> Bonus : $0 </font>
            </div>
        </div>
    
        <img class=""stim"" src=./stimuli//pack_shapes_diff/cat_1/diff_1/ex_1_1_16.png></img>
    ",null,stimulus,,,,,,,,5
,,,,,html-keyboard-response,21,52435,0.0-4.0-2.3,null,"
        <div style=""text-align: center; position: fixed; top: 5vh; left: 40vw;"">
            <div style=""margin:0 auto; width: 20vw; top: 8vh; font-size: 2vw""> 
            <font color=""green""> Bonus : $0 </font>
            </div>
        </div>
    ",null,,,,,,,,,5
,,,,,html-keyboard-response,22,53018,0.0-4.0-3.3,582,./stimuli//pack_shapes_diff/cat_1/diff_1/ex_1_1_16.png,arrowright,response,ArrowLeft,16,1,1,train,FALSE,,5
,,,,,html-keyboard-response,23,54522,0.0-4.0-4.3,null,"<p> <font color=""red"" size=""5vw""> Wrong category! </font> </p>",null,feedback,,,,,,,0,5
,,,,,html-keyboard-response,24,55372,0.0-4.0-0.4,849,"
            
        <div style=""text-align: center; position: fixed; top: 5vh; left: 40vw;"">
            <div style=""margin:0 auto; width: 20vw; top: 8vh; font-size: 2vw""> 
            <font color=""green""> Bonus : $0 </font>
            </div>
        </div>
    
            <div> Please press any button to continue to the next trial.</div>
        ",arrowright,ITI,,,,,,,,5
,,,,,html-keyboard-response,25,55989,0.0-4.0-1.4,null,"
        
        <div style=""text-align: center; position: fixed; top: 5vh; left: 40vw;"">
            <div style=""margin:0 auto; width: 20vw; top: 8vh; font-size: 2vw""> 
            <font color=""green""> Bonus : $0 </font>
            </div>
        </div>
    
        <img class=""stim"" src=./stimuli//pack_shapes_diff/cat_1/diff_1/ex_1_1_17.png></img>
    ",null,stimulus,,,,,,,,5
,,,,,html-keyboard-response,26,56995,0.0-4.0-2.4,null,"
        <div style=""text-align: center; position: fixed; top: 5vh; left: 40vw;"">
            <div style=""margin:0 auto; width: 20vw; top: 8vh; font-size: 2vw""> 
            <font color=""green""> Bonus : $0 </font>
            </div>
        </div>
    ",null,,,,,,,,,5
,,,,,html-keyboard-response,27,57359,0.0-4.0-3.4,364,./stimuli//pack_shapes_diff/cat_1/diff_1/ex_1_1_17.png,arrowleft,response,ArrowLeft,17,1,1,train,TRUE,,5
,,,,,html-keyboard-response,28,58870,0.0-4.0-4.4,null,"<p> <font color=""green"" size=""5vw""> Correct category! </font> </p>",null,feedback,,,,,,,0,5
,,,,,html-keyboard-response,29,59858,0.0-4.0-0.5,987,"
            
        <div style=""text-align: center; position: fixed; top: 5vh; left: 40vw;"">
            <div style=""margin:0 auto; width: 20vw; top: 8vh; font-size: 2vw""> 
            <font color=""green""> Bonus : $0 </font>
            </div>
        </div>
    
            <div> Please press any button to continue to the next trial.</div>
        ",arrowright,ITI,,,,,,,,5
,,,,,html-keyboard-response,30,60473,0.0-4.0-1.5,null,"
        
        <div style=""text-align: center; position: fixed; top: 5vh; left: 40vw;"">
            <div style=""margin:0 auto; width: 20vw; top: 8vh; font-size: 2vw""> 
            <font color=""green""> Bonus : $0 </font>
            </div>
        </div>
    
        <img class=""stim"" src=./stimuli//pack_shapes_diff/cat_2/diff_1/ex_2_1_4.png></img>
    ",null,stimulus,,,,,,,,5
,,,,,html-keyboard-response,31,61477,0.0-4.0-2.5,null,"
        <div style=""text-align: center; position: fixed; top: 5vh; left: 40vw;"">
            <div style=""margin:0 auto; width: 20vw; top: 8vh; font-size: 2vw""> 
            <font color=""green""> Bonus : $0 </font>
            </div>
        </div>
    ",null,,,,,,,,,5
,,,,,html-keyboard-response,32,62032,0.0-4.0-3.5,554,./stimuli//pack_shapes_diff/cat_2/diff_1/ex_2_1_4.png,arrowright,response,ArrowRight,4,2,1,train,TRUE,,5
,,,,,html-keyboard-response,33,63077,0.0-4.0-4.5,1045,"<p> <font color=""green"" size=""5vw""> Correct category! </font> </p>",arrowright,feedback,,,,,,,0,5
,,,,,html-keyboard-response,34,63683,0.0-4.0-0.6,605,"
            
        <div style=""text-align: center; position: fixed; top: 5vh; left: 40vw;"">
            <div style=""margin:0 auto; width: 20vw; top: 8vh; font-size: 2vw""> 
            <font color=""green""> Bonus : $0 </font>
            </div>
        </div>
    
            <div> Please press any button to continue to the next trial.</div>
        ",arrowright,ITI,,,,,,,,5
,,,,,html-keyboard-response,35,64292,0.0-4.0-1.6,null,"
        
        <div style=""text-align: center; position: fixed; top: 5vh; left: 40vw;"">
            <div style=""margin:0 auto; width: 20vw; top: 8vh; font-size: 2vw""> 
            <font color=""green""> Bonus : $0 </font>
            </div>
        </div>
    
        <img class=""stim"" src=./stimuli//pack_shapes_diff/cat_1/diff_2/ex_1_2_2.png></img>
    ",null,stimulus,,,,,,,,5
,,,,,html-keyboard-response,36,65310,0.0-4.0-2.6,null,"
        <div style=""text-align: center; position: fixed; top: 5vh; left: 40vw;"">
            <div style=""margin:0 auto; width: 20vw; top: 8vh; font-size: 2vw""> 
            <font color=""green""> Bonus : $0 </font>
            </div>
        </div>
    ",null,,,,,,,,,5
,,,,,html-keyboard-response,37,65656,0.0-4.0-3.6,346,./stimuli//pack_shapes_diff/cat_1/diff_2/ex_1_2_2.png,arrowleft,response,ArrowLeft,2,1,2,train,TRUE,,5
,,,,,html-keyboard-response,38,67170,0.0-4.0-4.6,null,"<p> <font color=""green"" size=""5vw""> Correct category! </font> </p>",null,feedback,,,,,,,0,5
,,,,,html-keyboard-response,39,68030,0.0-4.0-0.7,859,"
            
        <div style=""text-align: center; position: fixed; top: 5vh; left: 40vw;"">
            <div style=""margin:0 auto; width: 20vw; top: 8vh; font-size: 2vw""> 
            <font color=""green""> Bonus : $0 </font>
            </div>
        </div>
    
            <div> Please press any button to continue to the next trial.</div>
        ",arrowright,ITI,,,,,,,,5
,,,,,html-keyboard-response,40,68645,0.0-4.0-1.7,null,"
        
        <div style=""text-align: center; position: fixed; top: 5vh; left: 40vw;"">
            <div style=""margin:0 auto; width: 20vw; top: 8vh; font-size: 2vw""> 
            <font color=""green""> Bonus : $0 </font>
            </div>
        </div>
    
        <img class=""stim"" src=./stimuli//pack_shapes_diff/cat_1/diff_1/ex_1_1_9.png></img>
    ",null,stimulus,,,,,,,,5
,,,,,html-keyboard-response,41,69657,0.0-4.0-2.7,null,"
        <div style=""text-align: center; position: fixed; top: 5vh; left: 40vw;"">
            <div style=""margin:0 auto; width: 20vw; top: 8vh; font-size: 2vw""> 
            <font color=""green""> Bonus : $0 </font>
            </div>
        </div>
    ",null,,,,,,,,,5
,,,,,html-keyboard-response,42,70173,0.0-4.0-3.7,515,./stimuli//pack_shapes_diff/cat_1/diff_1/ex_1_1_9.png,arrowleft,response,ArrowLeft,9,1,1,train,TRUE,,5
,,,,,html-keyboard-response,43,71674,0.0-4.0-4.7,null,"<p> <font color=""green"" size=""5vw""> Correct category! </font> </p>",null,feedback,,,,,,,0,5
,,,,,html-keyboard-response,44,73116,0.0-4.0-0.8,1441,"
            
        <div style=""text-align: center; position: fixed; top: 5vh; left: 40vw;"">
            <div style=""margin:0 auto; width: 20vw; top: 8vh; font-size: 2vw""> 
            <font color=""green""> Bonus : $0 </font>
            </div>
        </div>
    
            <div> Please press any button to continue to the next trial.</div>
        ",arrowright,ITI,,,,,,,,5
,,,,,html-keyboard-response,45,73724,0.0-4.0-1.8,null,"
        
        <div style=""text-align: center; position: fixed; top: 5vh; left: 40vw;"">
            <div style=""margin:0 auto; width: 20vw; top: 8vh; font-size: 2vw""> 
            <font color=""green""> Bonus : $0 </font>
            </div>
        </div>
    
        <img class=""stim"" src=./stimuli//pack_shapes_diff/cat_2/diff_2/ex_2_2_14.png></img>
    ",null,stimulus,,,,,,,,5
,,,,,html-keyboard-response,46,74728,0.0-4.0-2.8,null,"
        <div style=""text-align: center; position: fixed; top: 5vh; left: 40vw;"">
            <div style=""margin:0 auto; width: 20vw; top: 8vh; font-size: 2vw""> 
            <font color=""green""> Bonus : $0 </font>
            </div>
        </div>
    ",null,,,,,,,,,5
,,,,,html-keyboard-response,47,75209,0.0-4.0-3.8,480,./stimuli//pack_shapes_diff/cat_2/diff_2/ex_2_2_14.png,arrowright,response,ArrowRight,14,2,2,train,TRUE,,5
,,,,,html-keyboard-response,48,76727,0.0-4.0-4.8,null,"<p> <font color=""green"" size=""5vw""> Correct category! </font> </p>",null,feedback,,,,,,,0,5
,,,,,html-keyboard-response,49,77969,0.0-4.0-0.9,1241,"
            
        <div style=""text-align: center; position: fixed; top: 5vh; left: 40vw;"">
            <div style=""margin:0 auto; width: 20vw; top: 8vh; font-size: 2vw""> 
            <font color=""green""> Bonus : $0 </font>
            </div>
        </div>
    
            <div> Please press any button to continue to the next trial.</div>
        ",arrowright,ITI,,,,,,,,5
,,,,,html-keyboard-response,50,78582,0.0-4.0-1.9,null,"
        
        <div style=""text-align: center; position: fixed; top: 5vh; left: 40vw;"">
            <div style=""margin:0 auto; width: 20vw; top: 8vh; font-size: 2vw""> 
            <font color=""green""> Bonus : $0 </font>
            </div>
        </div>
    
        <img class=""stim"" src=./stimuli//pack_shapes_diff/cat_2/diff_1/ex_2_1_7.png></img>
    ",null,stimulus,,,,,,,,5
,,,,,html-keyboard-response,51,79598,0.0-4.0-2.9,null,"
        <div style=""text-align: center; position: fixed; top: 5vh; left: 40vw;"">
            <div style=""margin:0 auto; width: 20vw; top: 8vh; font-size: 2vw""> 
            <font color=""green""> Bonus : $0 </font>
            </div>
        </div>
    ",null,,,,,,,,,5
,,,,,html-keyboard-response,52,80011,0.0-4.0-3.9,412,./stimuli//pack_shapes_diff/cat_2/diff_1/ex_2_1_7.png,arrowright,response,ArrowRight,7,2,1,train,TRUE,,5
,,,,,html-keyboard-response,53,81519,0.0-4.0-4.9,null,"<p> <font color=""green"" size=""5vw""> Correct category! </font> </p>",null,feedback,,,,,,,0,5
,,,,,html-keyboard-response,54,104491,0.0-5.0,22980,"
            <b> <p> The practice round has finished.</p>
            <b> For the rest of the experiment you will receive a $0.05 bonus for each correct answer!</b>
            <p> Press any key to begin the test. </p>
            ",arrowright,intermission,,,,,,,,5
,,,,,html-keyboard-response,55,105758,0.0-6.0-0.0,1267,"
            
        <div style=""text-align: center; position: fixed; top: 5vh; left: 40vw;"">
            <div style=""margin:0 auto; width: 20vw; top: 8vh; font-size: 2vw""> 
            <font color=""green""> Bonus : $0 </font>
            </div>
        </div>
    
            <div> Please press any button to continue to the next trial.</div>
        ",arrowright,ITI,,,,,,,,5
,,,,,html-keyboard-response,56,106363,0.0-6.0-1.0,null,"
        
        <div style=""text-align: center; position: fixed; top: 5vh; left: 40vw;"">
            <div style=""margin:0 auto; width: 20vw; top: 8vh; font-size: 2vw""> 
            <font color=""green""> Bonus : $0 </font>
            </div>
        </div>
    
        <img class=""stim"" src=./stimuli//pack_shapes_diff/cat_2/diff_1/ex_2_1_3.png></img>
    ",null,stimulus,,,,,,,,5
,,,,,html-keyboard-response,57,107369,0.0-6.0-2.0,null,"
        <div style=""text-align: center; position: fixed; top: 5vh; left: 40vw;"">
            <div style=""margin:0 auto; width: 20vw; top: 8vh; font-size: 2vw""> 
            <font color=""green""> Bonus : $0 </font>
            </div>
        </div>
    ",null,,,,,,,,,5
,,,,,html-keyboard-response,58,107776,0.0-6.0-3.0,406,./stimuli//pack_shapes_diff/cat_2/diff_1/ex_2_1_3.png,arrowright,response,ArrowRight,3,2,1,test,TRUE,,5
,,,,,html-keyboard-response,59,109288,0.0-6.0-4.0,null,"<p> <font color=""green"" size=""5vw""> Correct category! </font> <br> <br> <font color=""green"" size=""8vw""> + $0.05 </font> </p>",null,feedback,,,,,,,0.05,5
,,,,,html-keyboard-response,60,110149,0.0-6.1-0.1,859,"
            
        <div style=""text-align: center; position: fixed; top: 5vh; left: 40vw;"">
            <div style=""margin:0 auto; width: 20vw; top: 8vh; font-size: 2vw""> 
            <font color=""green""> Bonus : $0.05 </font>
            </div>
        </div>
    
            <div> Please press any button to continue to the next trial.</div>
        ",arrowright,ITI,,,,,,,,5
,,,,,html-keyboard-response,61,110761,0.0-6.1-1.1,null,"
        
        <div style=""text-align: center; position: fixed; top: 5vh; left: 40vw;"">
            <div style=""margin:0 auto; width: 20vw; top: 8vh; font-size: 2vw""> 
            <font color=""green""> Bonus : $0.05 </font>
            </div>
        </div>
    
        <img class=""stim"" src=./stimuli//pack_shapes_diff/cat_1/diff_1/ex_1_1_5.png></img>
    ",null,stimulus,,,,,,,,5
,,,,,html-keyboard-response,62,111773,0.0-6.1-2.1,null,"
        <div style=""text-align: center; position: fixed; top: 5vh; left: 40vw;"">
            <div style=""margin:0 auto; width: 20vw; top: 8vh; font-size: 2vw""> 
            <font color=""green""> Bonus : $0.05 </font>
            </div>
        </div>
    ",null,,,,,,,,,5
,,,,,html-keyboard-response,63,112292,0.0-6.1-3.1,519,./stimuli//pack_shapes_diff/cat_1/diff_1/ex_1_1_5.png,arrowleft,response,ArrowLeft,5,1,1,test,TRUE,,5
,,,,,html-keyboard-response,64,113807,0.0-6.1-4.1,null,"<p> <font color=""green"" size=""5vw""> Correct category! </font> <br> <br> <font color=""green"" size=""8vw""> + $0.05 </font> </p>",null,feedback,,,,,,,0.1,5
,,,,,html-keyboard-response,65,114646,0.0-6.2-0.2,838,"
            
        <div style=""text-align: center; position: fixed; top: 5vh; left: 40vw;"">
            <div style=""margin:0 auto; width: 20vw; top: 8vh; font-size: 2vw""> 
            <font color=""green""> Bonus : $0.1 </font>
            </div>
        </div>
    
            <div> Please press any button to continue to the next trial.</div>
        ",arrowright,ITI,,,,,,,,5
,,,,,html-keyboard-response,66,115249,0.0-6.2-1.2,null,"
        
        <div style=""text-align: center; position: fixed; top: 5vh; left: 40vw;"">
            <div style=""margin:0 auto; width: 20vw; top: 8vh; font-size: 2vw""> 
            <font color=""green""> Bonus : $0.1 </font>
            </div>
        </div>
    
        <img class=""stim"" src=./stimuli//pack_shapes_diff/cat_1/diff_1/ex_1_1_10.png></img>
    ",null,stimulus,,,,,,,,5
,,,,,html-keyboard-response,67,116261,0.0-6.2-2.2,null,"
        <div style=""text-align: center; position: fixed; top: 5vh; left: 40vw;"">
            <div style=""margin:0 auto; width: 20vw; top: 8vh; font-size: 2vw""> 
            <font color=""green""> Bonus : $0.1 </font>
            </div>
        </div>
    ",null,,,,,,,,,5
,,,,,html-keyboard-response,68,116728,0.0-6.2-3.2,467,./stimuli//pack_shapes_diff/cat_1/diff_1/ex_1_1_10.png,arrowleft,response,ArrowLeft,10,1,1,test,TRUE,,5
,,,,,html-keyboard-response,69,118237,0.0-6.2-4.2,null,"<p> <font color=""green"" size=""5vw""> Correct category! </font> <br> <br> <font color=""green"" size=""8vw""> + $0.05 </font> </p>",null,feedback,,,,,,,0.15,5
,,,,,html-keyboard-response,70,118977,0.0-6.3-0.3,739,"
            
        <div style=""text-align: center; position: fixed; top: 5vh; left: 40vw;"">
            <div style=""margin:0 auto; width: 20vw; top: 8vh; font-size: 2vw""> 
            <font color=""green""> Bonus : $0.15 </font>
            </div>
        </div>
    
            <div> Please press any button to continue to the next trial.</div>
        ",arrowright,ITI,,,,,,,,5
,,,,,html-keyboard-response,71,119585,0.0-6.3-1.3,null,"
        
        <div style=""text-align: center; position: fixed; top: 5vh; left: 40vw;"">
            <div style=""margin:0 auto; width: 20vw; top: 8vh; font-size: 2vw""> 
            <font color=""green""> Bonus : $0.15 </font>
            </div>
        </div>
    
        <img class=""stim"" src=./stimuli//pack_shapes_diff/cat_2/diff_1/ex_2_1_12.png></img>
    ",null,stimulus,,,,,,,,5
,,,,,html-keyboard-response,72,120597,0.0-6.3-2.3,null,"
        <div style=""text-align: center; position: fixed; top: 5vh; left: 40vw;"">
            <div style=""margin:0 auto; width: 20vw; top: 8vh; font-size: 2vw""> 
            <font color=""green""> Bonus : $0.15 </font>
            </div>
        </div>
    ",null,,,,,,,,,5
,,,,,html-keyboard-response,73,120926,0.0-6.3-3.3,327,./stimuli//pack_shapes_diff/cat_2/diff_1/ex_2_1_12.png,arrowright,response,ArrowRight,12,2,1,test,TRUE,,5
,,,,,html-keyboard-response,74,122434,0.0-6.3-4.3,null,"<p> <font color=""green"" size=""5vw""> Correct category! </font> <br> <br> <font color=""green"" size=""8vw""> + $0.05 </font> </p>",null,feedback,,,,,,,0.2,5
,,,,,html-keyboard-response,75,122746,0.0-6.4-0.4,312,"
            
        <div style=""text-align: center; position: fixed; top: 5vh; left: 40vw;"">
            <div style=""margin:0 auto; width: 20vw; top: 8vh; font-size: 2vw""> 
            <font color=""green""> Bonus : $0.2 </font>
            </div>
        </div>
    
            <div> Please press any button to continue to the next trial.</div>
        ",arrowright,ITI,,,,,,,,5
,,,,,html-keyboard-response,76,123354,0.0-6.4-1.4,null,"
        
        <div style=""text-align: center; position: fixed; top: 5vh; left: 40vw;"">
            <div style=""margin:0 auto; width: 20vw; top: 8vh; font-size: 2vw""> 
            <font color=""green""> Bonus : $0.2 </font>
            </div>
        </div>
    
        <img class=""stim"" src=./stimuli//pack_shapes_diff/cat_1/diff_1/ex_1_1_8.png></img>
    ",null,stimulus,,,,,,,,5
,,,,,html-keyboard-response,77,124358,0.0-6.4-2.4,null,"
        <div style=""text-align: center; position: fixed; top: 5vh; left: 40vw;"">
            <div style=""margin:0 auto; width: 20vw; top: 8vh; font-size: 2vw""> 
            <font color=""green""> Bonus : $0.2 </font>
            </div>
        </div>
    ",null,,,,,,,,,5
,,,,,html-keyboard-response,78,124701,0.0-6.4-3.4,343,./stimuli//pack_shapes_diff/cat_1/diff_1/ex_1_1_8.png,arrowleft,response,ArrowLeft,8,1,1,test,TRUE,,5
,,,,,html-keyboard-response,79,124985,0.0-6.4-4.4,283,"<p> <font color=""green"" size=""5vw""> Correct category! </font> <br> <br> <font color=""green"" size=""8vw""> + $0.05 </font> </p>",arrowleft,feedback,,,,,,,0.25,5
,,,,,html-keyboard-response,80,125927,0.0-6.5-0.5,941,"
            
        <div style=""text-align: center; position: fixed; top: 5vh; left: 40vw;"">
            <div style=""margin:0 auto; width: 20vw; top: 8vh; font-size: 2vw""> 
            <font color=""green""> Bonus : $0.25 </font>
            </div>
        </div>
    
            <div> Please press any button to continue to the next trial.</div>
        ",arrowright,ITI,,,,,,,,5
,,,,,html-keyboard-response,81,126539,0.0-6.5-1.5,null,"
        
        <div style=""text-align: center; position: fixed; top: 5vh; left: 40vw;"">
            <div style=""margin:0 auto; width: 20vw; top: 8vh; font-size: 2vw""> 
            <font color=""green""> Bonus : $0.25 </font>
            </div>
        </div>
    
        <img class=""stim"" src=./stimuli//pack_shapes_diff/cat_1/diff_2/ex_1_2_13.png></img>
    ",null,stimulus,,,,,,,,5
,,,,,html-keyboard-response,82,127542,0.0-6.5-2.5,null,"
        <div style=""text-align: center; position: fixed; top: 5vh; left: 40vw;"">
            <div style=""margin:0 auto; width: 20vw; top: 8vh; font-size: 2vw""> 
            <font color=""green""> Bonus : $0.25 </font>
            </div>
        </div>
    ",null,,,,,,,,,5
,,,,,html-keyboard-response,83,127829,0.0-6.5-3.5,287,./stimuli//pack_shapes_diff/cat_1/diff_2/ex_1_2_13.png,arrowleft,response,ArrowLeft,13,1,2,test,TRUE,,5
,,,,,html-keyboard-response,84,128115,0.0-6.5-4.5,285,"<p> <font color=""green"" size=""5vw""> Correct category! </font> <br> <br> <font color=""green"" size=""8vw""> + $0.05 </font> </p>",arrowleft,feedback,,,,,,,0.3,5
,,,,,html-keyboard-response,85,128986,0.0-6.6-0.6,871,"
            
        <div style=""text-align: center; position: fixed; top: 5vh; left: 40vw;"">
            <div style=""margin:0 auto; width: 20vw; top: 8vh; font-size: 2vw""> 
            <font color=""green""> Bonus : $0.3 </font>
            </div>
        </div>
    
            <div> Please press any button to continue to the next trial.</div>
        ",arrowright,ITI,,,,,,,,5
,,,,,html-keyboard-response,86,129591,0.0-6.6-1.6,null,"
        
        <div style=""text-align: center; position: fixed; top: 5vh; left: 40vw;"">
            <div style=""margin:0 auto; width: 20vw; top: 8vh; font-size: 2vw""> 
            <font color=""green""> Bonus : $0.3 </font>
            </div>
        </div>
    
        <img class=""stim"" src=./stimuli//pack_shapes_diff/cat_2/diff_2/ex_2_2_4.png></img>
    ",null,stimulus,,,,,,,,5
,,,,,html-keyboard-response,87,130599,0.0-6.6-2.6,null,"
        <div style=""text-align: center; position: fixed; top: 5vh; left: 40vw;"">
            <div style=""margin:0 auto; width: 20vw; top: 8vh; font-size: 2vw""> 
            <font color=""green""> Bonus : $0.3 </font>
            </div>
        </div>
    ",null,,,,,,,,,5
,,,,,html-keyboard-response,88,130884,0.0-6.6-3.6,284,./stimuli//pack_shapes_diff/cat_2/diff_2/ex_2_2_4.png,arrowright,response,ArrowRight,4,2,2,test,TRUE,,5
,,,,,html-keyboard-response,89,131264,0.0-6.6-4.6,380,"<p> <font color=""green"" size=""5vw""> Correct category! </font> <br> <br> <font color=""green"" size=""8vw""> + $0.05 </font> </p>",arrowright,feedback,,,,,,,0.35,5
,,,,,html-keyboard-response,90,131780,0.0-6.7-0.7,515,"
            
        <div style=""text-align: center; position: fixed; top: 5vh; left: 40vw;"">
            <div style=""margin:0 auto; width: 20vw; top: 8vh; font-size: 2vw""> 
            <font color=""green""> Bonus : $0.35 </font>
            </div>
        </div>
    
            <div> Please press any button to continue to the next trial.</div>
        ",arrowright,ITI,,,,,,,,5
,,,,,html-keyboard-response,91,132397,0.0-6.7-1.7,null,"
        
        <div style=""text-align: center; position: fixed; top: 5vh; left: 40vw;"">
            <div style=""margin:0 auto; width: 20vw; top: 8vh; font-size: 2vw""> 
            <font color=""green""> Bonus : $0.35 </font>
            </div>
        </div>
    
        <img class=""stim"" src=./stimuli//pack_shapes_diff/cat_1/diff_2/ex_1_2_7.png></img>
    ",null,stimulus,,,,,,,,5
,,,,,html-keyboard-response,92,133406,0.0-6.7-2.7,null,"
        <div style=""text-align: center; position: fixed; top: 5vh; left: 40vw;"">
            <div style=""margin:0 auto; width: 20vw; top: 8vh; font-size: 2vw""> 
            <font color=""green""> Bonus : $0.35 </font>
            </div>
        </div>
    ",null,,,,,,,,,5
,,,,,html-keyboard-response,93,133779,0.0-6.7-3.7,372,./stimuli//pack_shapes_diff/cat_1/diff_2/ex_1_2_7.png,arrowleft,response,ArrowLeft,7,1,2,test,TRUE,,5
,,,,,html-keyboard-response,94,134078,0.0-6.7-4.7,298,"<p> <font color=""green"" size=""5vw""> Correct category! </font> <br> <br> <font color=""green"" size=""8vw""> + $0.05 </font> </p>",arrowleft,feedback,,,,,,,0.4,5
,,,,,html-keyboard-response,95,134529,0.0-6.8-0.8,450,"
            
        <div style=""text-align: center; position: fixed; top: 5vh; left: 40vw;"">
            <div style=""margin:0 auto; width: 20vw; top: 8vh; font-size: 2vw""> 
            <font color=""green""> Bonus : $0.4 </font>
            </div>
        </div>
    
            <div> Please press any button to continue to the next trial.</div>
        ",arrowleft,ITI,,,,,,,,5
,,,,,html-keyboard-response,96,135138,0.0-6.8-1.8,null,"
        
        <div style=""text-align: center; position: fixed; top: 5vh; left: 40vw;"">
            <div style=""margin:0 auto; width: 20vw; top: 8vh; font-size: 2vw""> 
            <font color=""green""> Bonus : $0.4 </font>
            </div>
        </div>
    
        <img class=""stim"" src=./stimuli//pack_shapes_diff/cat_2/diff_2/ex_2_2_1.png></img>
    ",null,stimulus,,,,,,,,5
,,,,,html-keyboard-response,97,136153,0.0-6.8-2.8,null,"
        <div style=""text-align: center; position: fixed; top: 5vh; left: 40vw;"">
            <div style=""margin:0 auto; width: 20vw; top: 8vh; font-size: 2vw""> 
            <font color=""green""> Bonus : $0.4 </font>
            </div>
        </div>
    ",null,,,,,,,,,5
,,,,,html-keyboard-response,98,136476,0.0-6.8-3.8,323,./stimuli//pack_shapes_diff/cat_2/diff_2/ex_2_2_1.png,arrowright,response,ArrowRight,1,2,2,test,TRUE,,5
,,,,,html-keyboard-response,99,136722,0.0-6.8-4.8,245,"<p> <font color=""green"" size=""5vw""> Correct category! </font> <br> <br> <font color=""green"" size=""8vw""> + $0.05 </font> </p>",arrowright,feedback,,,,,,,0.45,5
,,,,,html-keyboard-response,100,137082,0.0-6.9-0.9,360,"
            
        <div style=""text-align: center; position: fixed; top: 5vh; left: 40vw;"">
            <div style=""margin:0 auto; width: 20vw; top: 8vh; font-size: 2vw""> 
            <font color=""green""> Bonus : $0.45 </font>
            </div>
        </div>
    
            <div> Please press any button to continue to the next trial.</div>
        ",arrowright,ITI,,,,,,,,5
,,,,,html-keyboard-response,101,137698,0.0-6.9-1.9,null,"
        
        <div style=""text-align: center; position: fixed; top: 5vh; left: 40vw;"">
            <div style=""margin:0 auto; width: 20vw; top: 8vh; font-size: 2vw""> 
            <font color=""green""> Bonus : $0.45 </font>
            </div>
        </div>
    
        <img class=""stim"" src=./stimuli//pack_shapes_diff/cat_2/diff_2/ex_2_2_2.png></img>
    ",null,stimulus,,,,,,,,5
,,,,,html-keyboard-response,102,138703,0.0-6.9-2.9,null,"
        <div style=""text-align: center; position: fixed; top: 5vh; left: 40vw;"">
            <div style=""margin:0 auto; width: 20vw; top: 8vh; font-size: 2vw""> 
            <font color=""green""> Bonus : $0.45 </font>
            </div>
        </div>
    ",null,,,,,,,,,5
,,,,,html-keyboard-response,103,139000,0.0-6.9-3.9,296,./stimuli//pack_shapes_diff/cat_2/diff_2/ex_2_2_2.png,arrowright,response,ArrowRight,2,2,2,test,TRUE,,5
,,,,,html-keyboard-response,104,139272,0.0-6.9-4.9,271,"<p> <font color=""green"" size=""5vw""> Correct category! </font> <br> <br> <font color=""green"" size=""8vw""> + $0.05 </font> </p>",arrowright,feedback,,,,,,,0.5,5
,,,,,html-keyboard-response,105,140027,0.0-6.10-0.10,754,"
            
        <div style=""text-align: center; position: fixed; top: 5vh; left: 40vw;"">
            <div style=""margin:0 auto; width: 20vw; top: 8vh; font-size: 2vw""> 
            <font color=""green""> Bonus : $0.5 </font>
            </div>
        </div>
    
            <div> Please press any button to continue to the next trial.</div>
        ",arrowright,ITI,,,,,,,,5
,,,,,html-keyboard-response,106,140644,0.0-6.10-1.10,null,"
        
        <div style=""text-align: center; position: fixed; top: 5vh; left: 40vw;"">
            <div style=""margin:0 auto; width: 20vw; top: 8vh; font-size: 2vw""> 
            <font color=""green""> Bonus : $0.5 </font>
            </div>
        </div>
    
        <img class=""stim"" src=./stimuli//pack_shapes_diff/cat_2/diff_3/ex_2_3_8.png></img>
    ",null,stimulus,,,,,,,,5
,,,,,html-keyboard-response,107,141661,0.0-6.10-2.10,null,"
        <div style=""text-align: center; position: fixed; top: 5vh; left: 40vw;"">
            <div style=""margin:0 auto; width: 20vw; top: 8vh; font-size: 2vw""> 
            <font color=""green""> Bonus : $0.5 </font>
            </div>
        </div>
    ",null,,,,,,,,,5
,,,,,html-keyboard-response,108,141965,0.0-6.10-3.10,303,./stimuli//pack_shapes_diff/cat_2/diff_3/ex_2_3_8.png,arrowright,response,ArrowRight,8,2,3,test,TRUE,,5
,,,,,html-keyboard-response,109,142320,0.0-6.10-4.10,354,"<p> <font color=""green"" size=""5vw""> Correct category! </font> <br> <br> <font color=""green"" size=""8vw""> + $0.05 </font> </p>",arrowright,feedback,,,,,,,0.55,5
,,,,,html-keyboard-response,110,142805,0.0-6.11-0.11,485,"
            
        <div style=""text-align: center; position: fixed; top: 5vh; left: 40vw;"">
            <div style=""margin:0 auto; width: 20vw; top: 8vh; font-size: 2vw""> 
            <font color=""green""> Bonus : $0.55 </font>
            </div>
        </div>
    
            <div> Please press any button to continue to the next trial.</div>
        ",arrowright,ITI,,,,,,,,5
,,,,,html-keyboard-response,111,143408,0.0-6.11-1.11,null,"
        
        <div style=""text-align: center; position: fixed; top: 5vh; left: 40vw;"">
            <div style=""margin:0 auto; width: 20vw; top: 8vh; font-size: 2vw""> 
            <font color=""green""> Bonus : $0.55 </font>
            </div>
        </div>
    
        <img class=""stim"" src=./stimuli//pack_shapes_diff/cat_2/diff_3/ex_2_3_17.png></img>
    ",null,stimulus,,,,,,,,5
,,,,,html-keyboard-response,112,144420,0.0-6.11-2.11,null,"
        <div style=""text-align: center; position: fixed; top: 5vh; left: 40vw;"">
            <div style=""margin:0 auto; width: 20vw; top: 8vh; font-size: 2vw""> 
            <font color=""green""> Bonus : $0.55 </font>
            </div>
        </div>
    ",null,,,,,,,,,5
,,,,,html-keyboard-response,113,145005,0.0-6.11-3.11,584,./stimuli//pack_shapes_diff/cat_2/diff_3/ex_2_3_17.png,arrowright,response,ArrowRight,17,2,3,test,TRUE,,5
,,,,,html-keyboard-response,114,145400,0.0-6.11-4.11,394,"<p> <font color=""green"" size=""5vw""> Correct category! </font> <br> <br> <font color=""green"" size=""8vw""> + $0.05 </font> </p>",arrowright,feedback,,,,,,,0.6,5
,,,,,html-keyboard-response,115,145936,0.0-6.12-0.12,536,"
            
        <div style=""text-align: center; position: fixed; top: 5vh; left: 40vw;"">
            <div style=""margin:0 auto; width: 20vw; top: 8vh; font-size: 2vw""> 
            <font color=""green""> Bonus : $0.6 </font>
            </div>
        </div>
    
            <div> Please press any button to continue to the next trial.</div>
        ",arrowright,ITI,,,,,,,,5
,,,,,html-keyboard-response,116,146546,0.0-6.12-1.12,null,"
        
        <div style=""text-align: center; position: fixed; top: 5vh; left: 40vw;"">
            <div style=""margin:0 auto; width: 20vw; top: 8vh; font-size: 2vw""> 
            <font color=""green""> Bonus : $0.6 </font>
            </div>
        </div>
    
        <img class=""stim"" src=./stimuli//pack_shapes_diff/cat_2/diff_3/ex_2_3_11.png></img>
    ",null,stimulus,,,,,,,,5
,,,,,html-keyboard-response,117,147560,0.0-6.12-2.12,null,"
        <div style=""text-align: center; position: fixed; top: 5vh; left: 40vw;"">
            <div style=""margin:0 auto; width: 20vw; top: 8vh; font-size: 2vw""> 
            <font color=""green""> Bonus : $0.6 </font>
            </div>
        </div>
    ",null,,,,,,,,,5
,,,,,html-keyboard-response,118,147875,0.0-6.12-3.12,313,./stimuli//pack_shapes_diff/cat_2/diff_3/ex_2_3_11.png,arrowright,response,ArrowRight,11,2,3,test,TRUE,,5
,,,,,html-keyboard-response,119,148178,0.0-6.12-4.12,303,"<p> <font color=""green"" size=""5vw""> Correct category! </font> <br> <br> <font color=""green"" size=""8vw""> + $0.05 </font> </p>",arrowright,feedback,,,,,,,0.65,5
,,,,,html-keyboard-response,120,148664,0.0-6.13-0.13,485,"
            
        <div style=""text-align: center; position: fixed; top: 5vh; left: 40vw;"">
            <div style=""margin:0 auto; width: 20vw; top: 8vh; font-size: 2vw""> 
            <font color=""green""> Bonus : $0.65 </font>
            </div>
        </div>
    
            <div> Please press any button to continue to the next trial.</div>
        ",arrowright,ITI,,,,,,,,5
,,,,,html-keyboard-response,121,149280,0.0-6.13-1.13,null,"
        
        <div style=""text-align: center; position: fixed; top: 5vh; left: 40vw;"">
            <div style=""margin:0 auto; width: 20vw; top: 8vh; font-size: 2vw""> 
            <font color=""green""> Bonus : $0.65 </font>
            </div>
        </div>
    
        <img class=""stim"" src=./stimuli//pack_shapes_diff/cat_2/diff_3/ex_2_3_12.png></img>
    ",null,stimulus,,,,,,,,5
,,,,,html-keyboard-response,122,150287,0.0-6.13-2.13,null,"
        <div style=""text-align: center; position: fixed; top: 5vh; left: 40vw;"">
            <div style=""margin:0 auto; width: 20vw; top: 8vh; font-size: 2vw""> 
            <font color=""green""> Bonus : $0.65 </font>
            </div>
        </div>
    ",null,,,,,,,,,5
,,,,,html-keyboard-response,123,150542,0.0-6.13-3.13,255,./stimuli//pack_shapes_diff/cat_2/diff_3/ex_2_3_12.png,arrowright,response,ArrowRight,12,2,3,test,TRUE,,5
,,,,,html-keyboard-response,124,150727,0.0-6.13-4.13,184,"<p> <font color=""green"" size=""5vw""> Correct category! </font> <br> <br> <font color=""green"" size=""8vw""> + $0.05 </font> </p>",arrowright,feedback,,,,,,,0.7,5
,,,,,html-keyboard-response,125,151122,0.0-6.14-0.14,394,"
            
        <div style=""text-align: center; position: fixed; top: 5vh; left: 40vw;"">
            <div style=""margin:0 auto; width: 20vw; top: 8vh; font-size: 2vw""> 
            <font color=""green""> Bonus : $0.7 </font>
            </div>
        </div>
    
            <div> Please press any button to continue to the next trial.</div>
        ",arrowright,ITI,,,,,,,,5
,,,,,html-keyboard-response,126,151737,0.0-6.14-1.14,null,"
        
        <div style=""text-align: center; position: fixed; top: 5vh; left: 40vw;"">
            <div style=""margin:0 auto; width: 20vw; top: 8vh; font-size: 2vw""> 
            <font color=""green""> Bonus : $0.7 </font>
            </div>
        </div>
    
        <img class=""stim"" src=./stimuli//pack_shapes_diff/cat_1/diff_3/ex_1_3_4.png></img>
    ",null,stimulus,,,,,,,,5
,,,,,html-keyboard-response,127,152744,0.0-6.14-2.14,null,"
        <div style=""text-align: center; position: fixed; top: 5vh; left: 40vw;"">
            <div style=""margin:0 auto; width: 20vw; top: 8vh; font-size: 2vw""> 
            <font color=""green""> Bonus : $0.7 </font>
            </div>
        </div>
    ",null,,,,,,,,,5
,,,,,html-keyboard-response,128,152966,0.0-6.14-3.14,221,./stimuli//pack_shapes_diff/cat_1/diff_3/ex_1_3_4.png,arrowleft,response,ArrowLeft,4,1,3,test,TRUE,,5
,,,,,html-keyboard-response,129,153306,0.0-6.14-4.14,339,"<p> <font color=""green"" size=""5vw""> Correct category! </font> <br> <br> <font color=""green"" size=""8vw""> + $0.05 </font> </p>",arrowleft,feedback,,,,,,,0.75,5
,,,,,html-keyboard-response,130,153666,0.0-6.15-0.15,360,"
            
        <div style=""text-align: center; position: fixed; top: 5vh; left: 40vw;"">
            <div style=""margin:0 auto; width: 20vw; top: 8vh; font-size: 2vw""> 
            <font color=""green""> Bonus : $0.75 </font>
            </div>
        </div>
    
            <div> Please press any button to continue to the next trial.</div>
        ",arrowleft,ITI,,,,,,,,5
,,,,,html-keyboard-response,131,154280,0.0-6.15-1.15,null,"
        
        <div style=""text-align: center; position: fixed; top: 5vh; left: 40vw;"">
            <div style=""margin:0 auto; width: 20vw; top: 8vh; font-size: 2vw""> 
            <font color=""green""> Bonus : $0.75 </font>
            </div>
        </div>
    
        <img class=""stim"" src=./stimuli//pack_shapes_diff/cat_2/diff_4/ex_2_4_4.png></img>
    ",null,stimulus,,,,,,,,5
,,,,,html-keyboard-response,132,155288,0.0-6.15-2.15,null,"
        <div style=""text-align: center; position: fixed; top: 5vh; left: 40vw;"">
            <div style=""margin:0 auto; width: 20vw; top: 8vh; font-size: 2vw""> 
            <font color=""green""> Bonus : $0.75 </font>
            </div>
        </div>
    ",null,,,,,,,,,5
,,,,,html-keyboard-response,133,155548,0.0-6.15-3.15,260,./stimuli//pack_shapes_diff/cat_2/diff_4/ex_2_4_4.png,arrowright,response,ArrowRight,4,2,4,test,TRUE,,5
,,,,,html-keyboard-response,134,155779,0.0-6.15-4.15,230,"<p> <font color=""green"" size=""5vw""> Correct category! </font> <br> <br> <font color=""green"" size=""8vw""> + $0.05 </font> </p>",arrowright,feedback,,,,,,,0.8,5
,,,,,html-keyboard-response,135,156101,0.0-6.16-0.16,321,"
            
        <div style=""text-align: center; position: fixed; top: 5vh; left: 40vw;"">
            <div style=""margin:0 auto; width: 20vw; top: 8vh; font-size: 2vw""> 
            <font color=""green""> Bonus : $0.8 </font>
            </div>
        </div>
    
            <div> Please press any button to continue to the next trial.</div>
        ",arrowright,ITI,,,,,,,,5
,,,,,html-keyboard-response,136,156715,0.0-6.16-1.16,null,"
        
        <div style=""text-align: center; position: fixed; top: 5vh; left: 40vw;"">
            <div style=""margin:0 auto; width: 20vw; top: 8vh; font-size: 2vw""> 
            <font color=""green""> Bonus : $0.8 </font>
            </div>
        </div>
    
        <img class=""stim"" src=./stimuli//pack_shapes_diff/cat_1/diff_4/ex_1_4_8.png></img>
    ",null,stimulus,,,,,,,,5
,,,,,html-keyboard-response,137,157723,0.0-6.16-2.16,null,"
        <div style=""text-align: center; position: fixed; top: 5vh; left: 40vw;"">
            <div style=""margin:0 auto; width: 20vw; top: 8vh; font-size: 2vw""> 
            <font color=""green""> Bonus : $0.8 </font>
            </div>
        </div>
    ",null,,,,,,,,,5
,,,,,html-keyboard-response,138,158199,0.0-6.16-3.16,475,./stimuli//pack_shapes_diff/cat_1/diff_4/ex_1_4_8.png,arrowright,response,ArrowLeft,8,1,4,test,FALSE,,5
,,,,,html-keyboard-response,139,159049,0.0-6.16-4.16,849,"<p> <font color=""red"" size=""5vw""> Wrong category! </font> </p>",arrowright,feedback,,,,,,,0.8,5
,,,,,html-keyboard-response,140,159485,0.0-6.17-0.17,435,"
            
        <div style=""text-align: center; position: fixed; top: 5vh; left: 40vw;"">
            <div style=""margin:0 auto; width: 20vw; top: 8vh; font-size: 2vw""> 
            <font color=""green""> Bonus : $0.8 </font>
            </div>
        </div>
    
            <div> Please press any button to continue to the next trial.</div>
        ",arrowright,ITI,,,,,,,,5
,,,,,html-keyboard-response,141,160090,0.0-6.17-1.17,null,"
        
        <div style=""text-align: center; position: fixed; top: 5vh; left: 40vw;"">
            <div style=""margin:0 auto; width: 20vw; top: 8vh; font-size: 2vw""> 
            <font color=""green""> Bonus : $0.8 </font>
            </div>
        </div>
    
        <img class=""stim"" src=./stimuli//pack_shapes_diff/cat_2/diff_4/ex_2_4_17.png></img>
    ",null,stimulus,,,,,,,,5
,,,,,html-keyboard-response,142,161106,0.0-6.17-2.17,null,"
        <div style=""text-align: center; position: fixed; top: 5vh; left: 40vw;"">
            <div style=""margin:0 auto; width: 20vw; top: 8vh; font-size: 2vw""> 
            <font color=""green""> Bonus : $0.8 </font>
            </div>
        </div>
    ",null,,,,,,,,,5
,,,,,html-keyboard-response,143,161503,0.0-6.17-3.17,395,./stimuli//pack_shapes_diff/cat_2/diff_4/ex_2_4_17.png,arrowright,response,ArrowRight,17,2,4,test,TRUE,,5
,,,,,html-keyboard-response,144,161878,0.0-6.17-4.17,375,"<p> <font color=""green"" size=""5vw""> Correct category! </font> <br> <br> <font color=""green"" size=""8vw""> + $0.05 </font> </p>",arrowright,feedback,,,,,,,0.85,5
,,,,,html-keyboard-response,145,162193,0.0-6.18-0.18,314,"
            
        <div style=""text-align: center; position: fixed; top: 5vh; left: 40vw;"">
            <div style=""margin:0 auto; width: 20vw; top: 8vh; font-size: 2vw""> 
            <font color=""green""> Bonus : $0.85 </font>
            </div>
        </div>
    
            <div> Please press any button to continue to the next trial.</div>
        ",arrowright,ITI,,,,,,,,5
,,,,,html-keyboard-response,146,162799,0.0-6.18-1.18,null,"
        
        <div style=""text-align: center; position: fixed; top: 5vh; left: 40vw;"">
            <div style=""margin:0 auto; width: 20vw; top: 8vh; font-size: 2vw""> 
            <font color=""green""> Bonus : $0.85 </font>
            </div>
        </div>
    
        <img class=""stim"" src=./stimuli//pack_shapes_diff/cat_1/diff_4/ex_1_4_12.png></img>
    ",null,stimulus,,,,,,,,5
,,,,,html-keyboard-response,147,163805,0.0-6.18-2.18,null,"
        <div style=""text-align: center; position: fixed; top: 5vh; left: 40vw;"">
            <div style=""margin:0 auto; width: 20vw; top: 8vh; font-size: 2vw""> 
            <font color=""green""> Bonus : $0.85 </font>
            </div>
        </div>
    ",null,,,,,,,,,5
,,,,,html-keyboard-response,148,164121,0.0-6.18-3.18,314,./stimuli//pack_shapes_diff/cat_1/diff_4/ex_1_4_12.png,arrowleft,response,ArrowLeft,12,1,4,test,TRUE,,5
,,,,,html-keyboard-response,149,164501,0.0-6.18-4.18,371,"<p> <font color=""green"" size=""5vw""> Correct category! </font> <br> <br> <font color=""green"" size=""8vw""> + $0.05 </font> </p>",arrowleft,feedback,,,,,,,0.9,5
,,,,,html-keyboard-response,150,164826,0.0-6.19-0.19,324,"
            
        <div style=""text-align: center; position: fixed; top: 5vh; left: 40vw;"">
            <div style=""margin:0 auto; width: 20vw; top: 8vh; font-size: 2vw""> 
            <font color=""green""> Bonus : $0.9 </font>
            </div>
        </div>
    
            <div> Please press any button to continue to the next trial.</div>
        ",arrowleft,ITI,,,,,,,,5
,,,,,html-keyboard-response,151,165430,0.0-6.19-1.19,null,"
        
        <div style=""text-align: center; position: fixed; top: 5vh; left: 40vw;"">
            <div style=""margin:0 auto; width: 20vw; top: 8vh; font-size: 2vw""> 
            <font color=""green""> Bonus : $0.9 </font>
            </div>
        </div>
    
        <img class=""stim"" src=./stimuli//pack_shapes_diff/cat_1/diff_4/ex_1_4_6.png></img>
    ",null,stimulus,,,,,,,,5
,,,,,html-keyboard-response,152,166444,0.0-6.19-2.19,null,"
        <div style=""text-align: center; position: fixed; top: 5vh; left: 40vw;"">
            <div style=""margin:0 auto; width: 20vw; top: 8vh; font-size: 2vw""> 
            <font color=""green""> Bonus : $0.9 </font>
            </div>
        </div>
    ",null,,,,,,,,,5
,,,,,html-keyboard-response,153,166784,0.0-6.19-3.19,339,./stimuli//pack_shapes_diff/cat_1/diff_4/ex_1_4_6.png,arrowright,response,ArrowLeft,6,1,4,test,FALSE,,5
,,,,,html-keyboard-response,154,167254,0.0-6.19-4.19,470,"<p> <font color=""red"" size=""5vw""> Wrong category! </font> </p>",arrowright,feedback,,,,,,,0.9,5
,,,,,html-keyboard-response,155,167581,0.0-6.20-0.20,325,"
            
        <div style=""text-align: center; position: fixed; top: 5vh; left: 40vw;"">
            <div style=""margin:0 auto; width: 20vw; top: 8vh; font-size: 2vw""> 
            <font color=""green""> Bonus : $0.9 </font>
            </div>
        </div>
    
            <div> Please press any button to continue to the next trial.</div>
        ",arrowright,ITI,,,,,,,,5
,,,,,html-keyboard-response,156,168197,0.0-6.20-1.20,null,"
        
        <div style=""text-align: center; position: fixed; top: 5vh; left: 40vw;"">
            <div style=""margin:0 auto; width: 20vw; top: 8vh; font-size: 2vw""> 
            <font color=""green""> Bonus : $0.9 </font>
            </div>
        </div>
    
        <img class=""stim"" src=./stimuli//pack_shapes_diff/cat_1/diff_3/ex_1_3_15.png></img>
    ",null,stimulus,,,,,,,,5
,,,,,html-keyboard-response,157,169211,0.0-6.20-2.20,null,"
        <div style=""text-align: center; position: fixed; top: 5vh; left: 40vw;"">
            <div style=""margin:0 auto; width: 20vw; top: 8vh; font-size: 2vw""> 
            <font color=""green""> Bonus : $0.9 </font>
            </div>
        </div>
    ",null,,,,,,,,,5
,,,,,html-keyboard-response,158,169462,0.0-6.20-3.20,251,./stimuli//pack_shapes_diff/cat_1/diff_3/ex_1_3_15.png,arrowleft,response,ArrowLeft,15,1,3,test,TRUE,,5
,,,,,html-keyboard-response,159,169788,0.0-6.20-4.20,325,"<p> <font color=""green"" size=""5vw""> Correct category! </font> <br> <br> <font color=""green"" size=""8vw""> + $0.05 </font> </p>",arrowleft,feedback,,,,,,,0.95,5
,,,,,html-keyboard-response,160,170198,0.0-6.21-0.21,409,"
            
        <div style=""text-align: center; position: fixed; top: 5vh; left: 40vw;"">
            <div style=""margin:0 auto; width: 20vw; top: 8vh; font-size: 2vw""> 
            <font color=""green""> Bonus : $0.95 </font>
            </div>
        </div>
    
            <div> Please press any button to continue to the next trial.</div>
        ",arrowleft,ITI,,,,,,,,5
,,,,,html-keyboard-response,161,170801,0.0-6.21-1.21,null,"
        
        <div style=""text-align: center; position: fixed; top: 5vh; left: 40vw;"">
            <div style=""margin:0 auto; width: 20vw; top: 8vh; font-size: 2vw""> 
            <font color=""green""> Bonus : $0.95 </font>
            </div>
        </div>
    
        <img class=""stim"" src=./stimuli//pack_shapes_diff/cat_2/diff_3/ex_2_3_11.png></img>
    ",null,stimulus,,,,,,,,5
,,,,,html-keyboard-response,162,171813,0.0-6.21-2.21,null,"
        <div style=""text-align: center; position: fixed; top: 5vh; left: 40vw;"">
            <div style=""margin:0 auto; width: 20vw; top: 8vh; font-size: 2vw""> 
            <font color=""green""> Bonus : $0.95 </font>
            </div>
        </div>
    ",null,,,,,,,,,5
,,,,,html-keyboard-response,163,172086,0.0-6.21-3.21,273,./stimuli//pack_shapes_diff/cat_2/diff_3/ex_2_3_11.png,arrowright,response,ArrowRight,11,2,3,test,TRUE,,5
,,,,,html-keyboard-response,164,172422,0.0-6.21-4.21,335,"<p> <font color=""green"" size=""5vw""> Correct category! </font> <br> <br> <font color=""green"" size=""8vw""> + $0.05 </font> </p>",arrowright,feedback,,,,,,,1,5
,,,,,html-keyboard-response,165,172752,0.0-6.22-0.22,329,"
            
        <div style=""text-align: center; position: fixed; top: 5vh; left: 40vw;"">
            <div style=""margin:0 auto; width: 20vw; top: 8vh; font-size: 2vw""> 
            <font color=""green""> Bonus : $1 </font>
            </div>
        </div>
    
            <div> Please press any button to continue to the next trial.</div>
        ",arrowright,ITI,,,,,,,,5
,,,,,html-keyboard-response,166,173359,0.0-6.22-1.22,null,"
        
        <div style=""text-align: center; position: fixed; top: 5vh; left: 40vw;"">
            <div style=""margin:0 auto; width: 20vw; top: 8vh; font-size: 2vw""> 
            <font color=""green""> Bonus : $1 </font>
            </div>
        </div>
    
        <img class=""stim"" src=./stimuli//pack_shapes_diff/cat_1/diff_3/ex_1_3_10.png></img>
    ",null,stimulus,,,,,,,,5
,,,,,html-keyboard-response,167,174365,0.0-6.22-2.22,null,"
        <div style=""text-align: center; position: fixed; top: 5vh; left: 40vw;"">
            <div style=""margin:0 auto; width: 20vw; top: 8vh; font-size: 2vw""> 
            <font color=""green""> Bonus : $1 </font>
            </div>
        </div>
    ",null,,,,,,,,,5
,,,,,html-keyboard-response,168,174595,0.0-6.22-3.22,229,./stimuli//pack_shapes_diff/cat_1/diff_3/ex_1_3_10.png,arrowleft,response,ArrowLeft,10,1,3,test,TRUE,,5
,,,,,html-keyboard-response,169,174921,0.0-6.22-4.22,326,"<p> <font color=""green"" size=""5vw""> Correct category! </font> <br> <br> <font color=""green"" size=""8vw""> + $0.05 </font> </p>",arrowleft,feedback,,,,,,,1.05,5
,,,,,html-keyboard-response,170,175275,0.0-6.23-0.23,354,"
            
        <div style=""text-align: center; position: fixed; top: 5vh; left: 40vw;"">
            <div style=""margin:0 auto; width: 20vw; top: 8vh; font-size: 2vw""> 
            <font color=""green""> Bonus : $1.05 </font>
            </div>
        </div>
    
            <div> Please press any button to continue to the next trial.</div>
        ",arrowleft,ITI,,,,,,,,5
,,,,,html-keyboard-response,171,175888,0.0-6.23-1.23,null,"
        
        <div style=""text-align: center; position: fixed; top: 5vh; left: 40vw;"">
            <div style=""margin:0 auto; width: 20vw; top: 8vh; font-size: 2vw""> 
            <font color=""green""> Bonus : $1.05 </font>
            </div>
        </div>
    
        <img class=""stim"" src=./stimuli//pack_shapes_diff/cat_2/diff_3/ex_2_3_17.png></img>
    ",null,stimulus,,,,,,,,5
,,,,,html-keyboard-response,172,176897,0.0-6.23-2.23,null,"
        <div style=""text-align: center; position: fixed; top: 5vh; left: 40vw;"">
            <div style=""margin:0 auto; width: 20vw; top: 8vh; font-size: 2vw""> 
            <font color=""green""> Bonus : $1.05 </font>
            </div>
        </div>
    ",null,,,,,,,,,5
,,,,,html-keyboard-response,173,177223,0.0-6.23-3.23,325,./stimuli//pack_shapes_diff/cat_2/diff_3/ex_2_3_17.png,arrowleft,response,ArrowRight,17,2,3,test,FALSE,,5
,,,,,html-keyboard-response,174,177709,0.0-6.23-4.23,485,"<p> <font color=""red"" size=""5vw""> Wrong category! </font> </p>",arrowleft,feedback,,,,,,,1.05,5
,,,,,html-keyboard-response,175,178025,0.0-6.24-0.24,315,"
            
        <div style=""text-align: center; position: fixed; top: 5vh; left: 40vw;"">
            <div style=""margin:0 auto; width: 20vw; top: 8vh; font-size: 2vw""> 
            <font color=""green""> Bonus : $1.05 </font>
            </div>
        </div>
    
            <div> Please press any button to continue to the next trial.</div>
        ",arrowleft,ITI,,,,,,,,5
,,,,,html-keyboard-response,176,178630,0.0-6.24-1.24,null,"
        
        <div style=""text-align: center; position: fixed; top: 5vh; left: 40vw;"">
            <div style=""margin:0 auto; width: 20vw; top: 8vh; font-size: 2vw""> 
            <font color=""green""> Bonus : $1.05 </font>
            </div>
        </div>
    
        <img class=""stim"" src=./stimuli//pack_shapes_diff/cat_1/diff_3/ex_1_3_17.png></img>
    ",null,stimulus,,,,,,,,5
,,,,,html-keyboard-response,177,179640,0.0-6.24-2.24,null,"
        <div style=""text-align: center; position: fixed; top: 5vh; left: 40vw;"">
            <div style=""margin:0 auto; width: 20vw; top: 8vh; font-size: 2vw""> 
            <font color=""green""> Bonus : $1.05 </font>
            </div>
        </div>
    ",null,,,,,,,,,5
,,,,,html-keyboard-response,178,179998,0.0-6.24-3.24,357,./stimuli//pack_shapes_diff/cat_1/diff_3/ex_1_3_17.png,arrowleft,response,ArrowLeft,17,1,3,test,TRUE,,5
,,,,,html-keyboard-response,179,180363,0.0-6.24-4.24,363,"<p> <font color=""green"" size=""5vw""> Correct category! </font> <br> <br> <font color=""green"" size=""8vw""> + $0.05 </font> </p>",arrowleft,feedback,,,,,,,1.1,5
,,,,,html-keyboard-response,180,180688,0.0-6.25-0.25,325,"
            
        <div style=""text-align: center; position: fixed; top: 5vh; left: 40vw;"">
            <div style=""margin:0 auto; width: 20vw; top: 8vh; font-size: 2vw""> 
            <font color=""green""> Bonus : $1.1 </font>
            </div>
        </div>
    
            <div> Please press any button to continue to the next trial.</div>
        ",arrowleft,ITI,,,,,,,,5
,,,,,html-keyboard-response,181,181306,0.0-6.25-1.25,null,"
        
        <div style=""text-align: center; position: fixed; top: 5vh; left: 40vw;"">
            <div style=""margin:0 auto; width: 20vw; top: 8vh; font-size: 2vw""> 
            <font color=""green""> Bonus : $1.1 </font>
            </div>
        </div>
    
        <img class=""stim"" src=./stimuli//pack_shapes_diff/cat_1/diff_4/ex_1_4_3.png></img>
    ",null,stimulus,,,,,,,,5
,,,,,html-keyboard-response,182,182319,0.0-6.25-2.25,null,"
        <div style=""text-align: center; position: fixed; top: 5vh; left: 40vw;"">
            <div style=""margin:0 auto; width: 20vw; top: 8vh; font-size: 2vw""> 
            <font color=""green""> Bonus : $1.1 </font>
            </div>
        </div>
    ",null,,,,,,,,,5
,,,,,html-keyboard-response,183,182671,0.0-6.25-3.25,351,./stimuli//pack_shapes_diff/cat_1/diff_4/ex_1_4_3.png,arrowright,response,ArrowLeft,3,1,4,test,FALSE,,5
,,,,,html-keyboard-response,184,183176,0.0-6.25-4.25,505,"<p> <font color=""red"" size=""5vw""> Wrong category! </font> </p>",arrowright,feedback,,,,,,,1.1,5
,,,,,html-keyboard-response,185,183482,0.0-6.26-0.26,305,"
            
        <div style=""text-align: center; position: fixed; top: 5vh; left: 40vw;"">
            <div style=""margin:0 auto; width: 20vw; top: 8vh; font-size: 2vw""> 
            <font color=""green""> Bonus : $1.1 </font>
            </div>
        </div>
    
            <div> Please press any button to continue to the next trial.</div>
        ",arrowright,ITI,,,,,,,,5
,,,,,html-keyboard-response,186,184088,0.0-6.26-1.26,null,"
        
        <div style=""text-align: center; position: fixed; top: 5vh; left: 40vw;"">
            <div style=""margin:0 auto; width: 20vw; top: 8vh; font-size: 2vw""> 
            <font color=""green""> Bonus : $1.1 </font>
            </div>
        </div>
    
        <img class=""stim"" src=./stimuli//pack_shapes_diff/cat_2/diff_4/ex_2_4_7.png></img>
    ",null,stimulus,,,,,,,,5
,,,,,html-keyboard-response,187,185090,0.0-6.26-2.26,null,"
        <div style=""text-align: center; position: fixed; top: 5vh; left: 40vw;"">
            <div style=""margin:0 auto; width: 20vw; top: 8vh; font-size: 2vw""> 
            <font color=""green""> Bonus : $1.1 </font>
            </div>
        </div>
    ",null,,,,,,,,,5
,,,,,html-keyboard-response,188,185325,0.0-6.26-3.26,233,./stimuli//pack_shapes_diff/cat_2/diff_4/ex_2_4_7.png,arrowright,response,ArrowRight,7,2,4,test,TRUE,,5
,,,,,html-keyboard-response,189,185589,0.0-6.26-4.26,264,"<p> <font color=""green"" size=""5vw""> Correct category! </font> <br> <br> <font color=""green"" size=""8vw""> + $0.05 </font> </p>",arrowright,feedback,,,,,,,1.15,5
,,,,,html-keyboard-response,190,185910,0.0-6.27-0.27,321,"
            
        <div style=""text-align: center; position: fixed; top: 5vh; left: 40vw;"">
            <div style=""margin:0 auto; width: 20vw; top: 8vh; font-size: 2vw""> 
            <font color=""green""> Bonus : $1.15 </font>
            </div>
        </div>
    
            <div> Please press any button to continue to the next trial.</div>
        ",arrowright,ITI,,,,,,,,5
,,,,,html-keyboard-response,191,186518,0.0-6.27-1.27,null,"
        
        <div style=""text-align: center; position: fixed; top: 5vh; left: 40vw;"">
            <div style=""margin:0 auto; width: 20vw; top: 8vh; font-size: 2vw""> 
            <font color=""green""> Bonus : $1.15 </font>
            </div>
        </div>
    
        <img class=""stim"" src=./stimuli//pack_shapes_diff/cat_1/diff_4/ex_1_4_3.png></img>
    ",null,stimulus,,,,,,,,5
,,,,,html-keyboard-response,192,187524,0.0-6.27-2.27,null,"
        <div style=""text-align: center; position: fixed; top: 5vh; left: 40vw;"">
            <div style=""margin:0 auto; width: 20vw; top: 8vh; font-size: 2vw""> 
            <font color=""green""> Bonus : $1.15 </font>
            </div>
        </div>
    ",null,,,,,,,,,5
,,,,,html-keyboard-response,193,188036,0.0-6.27-3.27,512,./stimuli//pack_shapes_diff/cat_1/diff_4/ex_1_4_3.png,arrowright,response,ArrowLeft,3,1,4,test,FALSE,,5
,,,,,html-keyboard-response,194,188458,0.0-6.27-4.27,422,"<p> <font color=""red"" size=""5vw""> Wrong category! </font> </p>",arrowright,feedback,,,,,,,1.15,5
,,,,,html-keyboard-response,195,188734,0.0-6.28-0.28,275,"
            
        <div style=""text-align: center; position: fixed; top: 5vh; left: 40vw;"">
            <div style=""margin:0 auto; width: 20vw; top: 8vh; font-size: 2vw""> 
            <font color=""green""> Bonus : $1.15 </font>
            </div>
        </div>
    
            <div> Please press any button to continue to the next trial.</div>
        ",arrowright,ITI,,,,,,,,5
,,,,,html-keyboard-response,196,189337,0.0-6.28-1.28,null,"
        
        <div style=""text-align: center; position: fixed; top: 5vh; left: 40vw;"">
            <div style=""margin:0 auto; width: 20vw; top: 8vh; font-size: 2vw""> 
            <font color=""green""> Bonus : $1.15 </font>
            </div>
        </div>
    
        <img class=""stim"" src=./stimuli//pack_shapes_diff/cat_2/diff_4/ex_2_4_8.png></img>
    ",null,stimulus,,,,,,,,5
,,,,,html-keyboard-response,197,190338,0.0-6.28-2.28,null,"
        <div style=""text-align: center; position: fixed; top: 5vh; left: 40vw;"">
            <div style=""margin:0 auto; width: 20vw; top: 8vh; font-size: 2vw""> 
            <font color=""green""> Bonus : $1.15 </font>
            </div>
        </div>
    ",null,,,,,,,,,5
,,,,,html-keyboard-response,198,190617,0.0-6.28-3.28,278,./stimuli//pack_shapes_diff/cat_2/diff_4/ex_2_4_8.png,arrowright,response,ArrowRight,8,2,4,test,TRUE,,5
,,,,,html-keyboard-response,199,190917,0.0-6.28-4.28,300,"<p> <font color=""green"" size=""5vw""> Correct category! </font> <br> <br> <font color=""green"" size=""8vw""> + $0.05 </font> </p>",arrowright,feedback,,,,,,,1.2,5
,,,,,html-keyboard-response,200,191117,0.0-6.29-0.29,199,"
            
        <div style=""text-align: center; position: fixed; top: 5vh; left: 40vw;"">
            <div style=""margin:0 auto; width: 20vw; top: 8vh; font-size: 2vw""> 
            <font color=""green""> Bonus : $1.2 </font>
            </div>
        </div>
    
            <div> Please press any button to continue to the next trial.</div>
        ",arrowright,ITI,,,,,,,,5
,,,,,html-keyboard-response,201,191723,0.0-6.29-1.29,null,"
        
        <div style=""text-align: center; position: fixed; top: 5vh; left: 40vw;"">
            <div style=""margin:0 auto; width: 20vw; top: 8vh; font-size: 2vw""> 
            <font color=""green""> Bonus : $1.2 </font>
            </div>
        </div>
    
        <img class=""stim"" src=./stimuli//pack_shapes_diff/cat_1/diff_4/ex_1_4_16.png></img>
    ",null,stimulus,,,,,,,,5
,,,,,html-keyboard-response,202,192729,0.0-6.29-2.29,null,"
        <div style=""text-align: center; position: fixed; top: 5vh; left: 40vw;"">
            <div style=""margin:0 auto; width: 20vw; top: 8vh; font-size: 2vw""> 
            <font color=""green""> Bonus : $1.2 </font>
            </div>
        </div>
    ",null,,,,,,,,,5
,,,,,html-keyboard-response,203,193036,0.0-6.29-3.29,306,./stimuli//pack_shapes_diff/cat_1/diff_4/ex_1_4_16.png,arrowleft,response,ArrowLeft,16,1,4,test,TRUE,,5
,,,,,html-keyboard-response,204,193350,0.0-6.29-4.29,314,"<p> <font color=""green"" size=""5vw""> Correct category! </font> <br> <br> <font color=""green"" size=""8vw""> + $0.05 </font> </p>",arrowleft,feedback,,,,,,,1.25,5
,,,,,html-keyboard-response,205,193641,0.0-6.30-0.30,290,"
            
        <div style=""text-align: center; position: fixed; top: 5vh; left: 40vw;"">
            <div style=""margin:0 auto; width: 20vw; top: 8vh; font-size: 2vw""> 
            <font color=""green""> Bonus : $1.25 </font>
            </div>
        </div>
    
            <div> Please press any button to continue to the next trial.</div>
        ",arrowleft,ITI,,,,,,,,5
,,,,,html-keyboard-response,206,194255,0.0-6.30-1.30,null,"
        
        <div style=""text-align: center; position: fixed; top: 5vh; left: 40vw;"">
            <div style=""margin:0 auto; width: 20vw; top: 8vh; font-size: 2vw""> 
            <font color=""green""> Bonus : $1.25 </font>
            </div>
        </div>
    
        <img class=""stim"" src=./stimuli//pack_shapes_diff/cat_1/diff_3/ex_1_3_14.png></img>
    ",null,stimulus,,,,,,,,5
,,,,,html-keyboard-response,207,195261,0.0-6.30-2.30,null,"
        <div style=""text-align: center; position: fixed; top: 5vh; left: 40vw;"">
            <div style=""margin:0 auto; width: 20vw; top: 8vh; font-size: 2vw""> 
            <font color=""green""> Bonus : $1.25 </font>
            </div>
        </div>
    ",null,,,,,,,,,5
,,,,,html-keyboard-response,208,195523,0.0-6.30-3.30,261,./stimuli//pack_shapes_diff/cat_1/diff_3/ex_1_3_14.png,arrowleft,response,ArrowLeft,14,1,3,test,TRUE,,5
,,,,,html-keyboard-response,209,195729,0.0-6.30-4.30,205,"<p> <font color=""green"" size=""5vw""> Correct category! </font> <br> <br> <font color=""green"" size=""8vw""> + $0.05 </font> </p>",arrowleft,feedback,,,,,,,1.3,5
,,,,,html-keyboard-response,210,196139,0.0-6.31-0.31,409,"
            
        <div style=""text-align: center; position: fixed; top: 5vh; left: 40vw;"">
            <div style=""margin:0 auto; width: 20vw; top: 8vh; font-size: 2vw""> 
            <font color=""green""> Bonus : $1.3 </font>
            </div>
        </div>
    
            <div> Please press any button to continue to the next trial.</div>
        ",arrowleft,ITI,,,,,,,,5
,,,,,html-keyboard-response,211,196741,0.0-6.31-1.31,null,"
        
        <div style=""text-align: center; position: fixed; top: 5vh; left: 40vw;"">
            <div style=""margin:0 auto; width: 20vw; top: 8vh; font-size: 2vw""> 
            <font color=""green""> Bonus : $1.3 </font>
            </div>
        </div>
    
        <img class=""stim"" src=./stimuli//pack_shapes_diff/cat_2/diff_3/ex_2_3_6.png></img>
    ",null,stimulus,,,,,,,,5
,,,,,html-keyboard-response,212,197751,0.0-6.31-2.31,null,"
        <div style=""text-align: center; position: fixed; top: 5vh; left: 40vw;"">
            <div style=""margin:0 auto; width: 20vw; top: 8vh; font-size: 2vw""> 
            <font color=""green""> Bonus : $1.3 </font>
            </div>
        </div>
    ",null,,,,,,,,,5
,,,,,html-keyboard-response,213,198012,0.0-6.31-3.31,261,./stimuli//pack_shapes_diff/cat_2/diff_3/ex_2_3_6.png,arrowright,response,ArrowRight,6,2,3,test,TRUE,,5
,,,,,html-keyboard-response,214,198282,0.0-6.31-4.31,270,"<p> <font color=""green"" size=""5vw""> Correct category! </font> <br> <br> <font color=""green"" size=""8vw""> + $0.05 </font> </p>",arrowright,feedback,,,,,,,1.35,5
,,,,,html-keyboard-response,215,198432,0.0-6.32-0.32,149,"
            
        <div style=""text-align: center; position: fixed; top: 5vh; left: 40vw;"">
            <div style=""margin:0 auto; width: 20vw; top: 8vh; font-size: 2vw""> 
            <font color=""green""> Bonus : $1.35 </font>
            </div>
        </div>
    
            <div> Please press any button to continue to the next trial.</div>
        ",arrowright,ITI,,,,,,,,5
,,,,,html-keyboard-response,216,199043,0.0-6.32-1.32,null,"
        
        <div style=""text-align: center; position: fixed; top: 5vh; left: 40vw;"">
            <div style=""margin:0 auto; width: 20vw; top: 8vh; font-size: 2vw""> 
            <font color=""green""> Bonus : $1.35 </font>
            </div>
        </div>
    
        <img class=""stim"" src=./stimuli//pack_shapes_diff/cat_2/diff_3/ex_2_3_7.png></img>
    ",null,stimulus,,,,,,,,5
,,,,,html-keyboard-response,217,200061,0.0-6.32-2.32,null,"
        <div style=""text-align: center; position: fixed; top: 5vh; left: 40vw;"">
            <div style=""margin:0 auto; width: 20vw; top: 8vh; font-size: 2vw""> 
            <font color=""green""> Bonus : $1.35 </font>
            </div>
        </div>
    ",null,,,,,,,,,5
,,,,,html-keyboard-response,218,200290,0.0-6.32-3.32,228,./stimuli//pack_shapes_diff/cat_2/diff_3/ex_2_3_7.png,arrowright,response,ArrowRight,7,2,3,test,TRUE,,5
,,,,,html-keyboard-response,219,200475,0.0-6.32-4.32,184,"<p> <font color=""green"" size=""5vw""> Correct category! </font> <br> <br> <font color=""green"" size=""8vw""> + $0.05 </font> </p>",arrowright,feedback,,,,,,,1.4,5
,,,,,html-keyboard-response,220,200616,0.0-6.33-0.33,140,"
            
        <div style=""text-align: center; position: fixed; top: 5vh; left: 40vw;"">
            <div style=""margin:0 auto; width: 20vw; top: 8vh; font-size: 2vw""> 
            <font color=""green""> Bonus : $1.4 </font>
            </div>
        </div>
    
            <div> Please press any button to continue to the next trial.</div>
        ",arrowright,ITI,,,,,,,,5
,,,,,html-keyboard-response,221,201231,0.0-6.33-1.33,null,"
        
        <div style=""text-align: center; position: fixed; top: 5vh; left: 40vw;"">
            <div style=""margin:0 auto; width: 20vw; top: 8vh; font-size: 2vw""> 
            <font color=""green""> Bonus : $1.4 </font>
            </div>
        </div>
    
        <img class=""stim"" src=./stimuli//pack_shapes_diff/cat_1/diff_3/ex_1_3_5.png></img>
    ",null,stimulus,,,,,,,,5
,,,,,html-keyboard-response,222,202237,0.0-6.33-2.33,null,"
        <div style=""text-align: center; position: fixed; top: 5vh; left: 40vw;"">
            <div style=""margin:0 auto; width: 20vw; top: 8vh; font-size: 2vw""> 
            <font color=""green""> Bonus : $1.4 </font>
            </div>
        </div>
    ",null,,,,,,,,,5
,,,,,html-keyboard-response,223,202643,0.0-6.33-3.33,405,./stimuli//pack_shapes_diff/cat_1/diff_3/ex_1_3_5.png,arrowleft,response,ArrowLeft,5,1,3,test,TRUE,,5
,,,,,html-keyboard-response,224,202964,0.0-6.33-4.33,320,"<p> <font color=""green"" size=""5vw""> Correct category! </font> <br> <br> <font color=""green"" size=""8vw""> + $0.05 </font> </p>",arrowleft,feedback,,,,,,,1.45,5
,,,,,html-keyboard-response,225,203109,0.0-6.34-0.34,144,"
            
        <div style=""text-align: center; position: fixed; top: 5vh; left: 40vw;"">
            <div style=""margin:0 auto; width: 20vw; top: 8vh; font-size: 2vw""> 
            <font color=""green""> Bonus : $1.45 </font>
            </div>
        </div>
    
            <div> Please press any button to continue to the next trial.</div>
        ",arrowleft,ITI,,,,,,,,5
,,,,,html-keyboard-response,226,203716,0.0-6.34-1.34,null,"
        
        <div style=""text-align: center; position: fixed; top: 5vh; left: 40vw;"">
            <div style=""margin:0 auto; width: 20vw; top: 8vh; font-size: 2vw""> 
            <font color=""green""> Bonus : $1.45 </font>
            </div>
        </div>
    
        <img class=""stim"" src=./stimuli//pack_shapes_diff/cat_1/diff_3/ex_1_3_10.png></img>
    ",null,stimulus,,,,,,,,5
,,,,,html-keyboard-response,227,204731,0.0-6.34-2.34,null,"
        <div style=""text-align: center; position: fixed; top: 5vh; left: 40vw;"">
            <div style=""margin:0 auto; width: 20vw; top: 8vh; font-size: 2vw""> 
            <font color=""green""> Bonus : $1.45 </font>
            </div>
        </div>
    ",null,,,,,,,,,5
,,,,,html-keyboard-response,228,205017,0.0-6.34-3.34,285,./stimuli//pack_shapes_diff/cat_1/diff_3/ex_1_3_10.png,arrowleft,response,ArrowLeft,10,1,3,test,TRUE,,5
,,,,,html-keyboard-response,229,205192,0.0-6.34-4.34,174,"<p> <font color=""green"" size=""5vw""> Correct category! </font> <br> <br> <font color=""green"" size=""8vw""> + $0.05 </font> </p>",arrowleft,feedback,,,,,,,1.5,5
,,,,,html-keyboard-response,230,205703,0.0-6.35-0.35,510,"
            
        <div style=""text-align: center; position: fixed; top: 5vh; left: 40vw;"">
            <div style=""margin:0 auto; width: 20vw; top: 8vh; font-size: 2vw""> 
            <font color=""green""> Bonus : $1.5 </font>
            </div>
        </div>
    
            <div> Please press any button to continue to the next trial.</div>
        ",arrowleft,ITI,,,,,,,,5
,,,,,html-keyboard-response,231,206319,0.0-6.35-1.35,null,"
        
        <div style=""text-align: center; position: fixed; top: 5vh; left: 40vw;"">
            <div style=""margin:0 auto; width: 20vw; top: 8vh; font-size: 2vw""> 
            <font color=""green""> Bonus : $1.5 </font>
            </div>
        </div>
    
        <img class=""stim"" src=./stimuli//pack_shapes_diff/cat_1/diff_4/ex_1_4_13.png></img>
    ",null,stimulus,,,,,,,,5
,,,,,html-keyboard-response,232,207331,0.0-6.35-2.35,null,"
        <div style=""text-align: center; position: fixed; top: 5vh; left: 40vw;"">
            <div style=""margin:0 auto; width: 20vw; top: 8vh; font-size: 2vw""> 
            <font color=""green""> Bonus : $1.5 </font>
            </div>
        </div>
    ",null,,,,,,,,,5
,,,,,html-keyboard-response,233,207595,0.0-6.35-3.35,263,./stimuli//pack_shapes_diff/cat_1/diff_4/ex_1_4_13.png,arrowleft,response,ArrowLeft,13,1,4,test,TRUE,,5
,,,,,html-keyboard-response,234,207840,0.0-6.35-4.35,245,"<p> <font color=""green"" size=""5vw""> Correct category! </font> <br> <br> <font color=""green"" size=""8vw""> + $0.05 </font> </p>",arrowleft,feedback,,,,,,,1.55,5
,,,,,html-keyboard-response,235,207991,0.0-6.36-0.36,150,"
            
        <div style=""text-align: center; position: fixed; top: 5vh; left: 40vw;"">
            <div style=""margin:0 auto; width: 20vw; top: 8vh; font-size: 2vw""> 
            <font color=""green""> Bonus : $1.55 </font>
            </div>
        </div>
    
            <div> Please press any button to continue to the next trial.</div>
        ",arrowleft,ITI,,,,,,,,5
,,,,,html-keyboard-response,236,208607,0.0-6.36-1.36,null,"
        
        <div style=""text-align: center; position: fixed; top: 5vh; left: 40vw;"">
            <div style=""margin:0 auto; width: 20vw; top: 8vh; font-size: 2vw""> 
            <font color=""green""> Bonus : $1.55 </font>
            </div>
        </div>
    
        <img class=""stim"" src=./stimuli//pack_shapes_diff/cat_2/diff_4/ex_2_4_9.png></img>
    ",null,stimulus,,,,,,,,5
,,,,,html-keyboard-response,237,209614,0.0-6.36-2.36,null,"
        <div style=""text-align: center; position: fixed; top: 5vh; left: 40vw;"">
            <div style=""margin:0 auto; width: 20vw; top: 8vh; font-size: 2vw""> 
            <font color=""green""> Bonus : $1.55 </font>
            </div>
        </div>
    ",null,,,,,,,,,5
,,,,,html-keyboard-response,238,209865,0.0-6.36-3.36,250,./stimuli//pack_shapes_diff/cat_2/diff_4/ex_2_4_9.png,arrowright,response,ArrowRight,9,2,4,test,TRUE,,5
,,,,,html-keyboard-response,239,210169,0.0-6.36-4.36,303,"<p> <font color=""green"" size=""5vw""> Correct category! </font> <br> <br> <font color=""green"" size=""8vw""> + $0.05 </font> </p>",arrowright,feedback,,,,,,,1.6,5
,,,,,html-keyboard-response,240,210329,0.0-6.37-0.37,159,"
            
        <div style=""text-align: center; position: fixed; top: 5vh; left: 40vw;"">
            <div style=""margin:0 auto; width: 20vw; top: 8vh; font-size: 2vw""> 
            <font color=""green""> Bonus : $1.6 </font>
            </div>
        </div>
    
            <div> Please press any button to continue to the next trial.</div>
        ",arrowright,ITI,,,,,,,,5
,,,,,html-keyboard-response,241,210943,0.0-6.37-1.37,null,"
        
        <div style=""text-align: center; position: fixed; top: 5vh; left: 40vw;"">
            <div style=""margin:0 auto; width: 20vw; top: 8vh; font-size: 2vw""> 
            <font color=""green""> Bonus : $1.6 </font>
            </div>
        </div>
    
        <img class=""stim"" src=./stimuli//pack_shapes_diff/cat_2/diff_4/ex_2_4_8.png></img>
    ",null,stimulus,,,,,,,,5
,,,,,html-keyboard-response,242,211954,0.0-6.37-2.37,null,"
        <div style=""text-align: center; position: fixed; top: 5vh; left: 40vw;"">
            <div style=""margin:0 auto; width: 20vw; top: 8vh; font-size: 2vw""> 
            <font color=""green""> Bonus : $1.6 </font>
            </div>
        </div>
    ",null,,,,,,,,,5
,,,,,html-keyboard-response,243,212236,0.0-6.37-3.37,281,./stimuli//pack_shapes_diff/cat_2/diff_4/ex_2_4_8.png,arrowright,response,ArrowRight,8,2,4,test,TRUE,,5
,,,,,html-keyboard-response,244,212422,0.0-6.37-4.37,186,"<p> <font color=""green"" size=""5vw""> Correct category! </font> <br> <br> <font color=""green"" size=""8vw""> + $0.05 </font> </p>",arrowright,feedback,,,,,,,1.65,5
,,,,,html-keyboard-response,245,213108,0.0-6.38-0.38,685,"
            
        <div style=""text-align: center; position: fixed; top: 5vh; left: 40vw;"">
            <div style=""margin:0 auto; width: 20vw; top: 8vh; font-size: 2vw""> 
            <font color=""green""> Bonus : $1.65 </font>
            </div>
        </div>
    
            <div> Please press any button to continue to the next trial.</div>
        ",arrowright,ITI,,,,,,,,5
,,,,,html-keyboard-response,246,213711,0.0-6.38-1.38,null,"
        
        <div style=""text-align: center; position: fixed; top: 5vh; left: 40vw;"">
            <div style=""margin:0 auto; width: 20vw; top: 8vh; font-size: 2vw""> 
            <font color=""green""> Bonus : $1.65 </font>
            </div>
        </div>
    
        <img class=""stim"" src=./stimuli//pack_shapes_diff/cat_1/diff_4/ex_1_4_7.png></img>
    ",null,stimulus,,,,,,,,5
,,,,,html-keyboard-response,247,214725,0.0-6.38-2.38,null,"
        <div style=""text-align: center; position: fixed; top: 5vh; left: 40vw;"">
            <div style=""margin:0 auto; width: 20vw; top: 8vh; font-size: 2vw""> 
            <font color=""green""> Bonus : $1.65 </font>
            </div>
        </div>
    ",null,,,,,,,,,5
,,,,,html-keyboard-response,248,215026,0.0-6.38-3.38,300,./stimuli//pack_shapes_diff/cat_1/diff_4/ex_1_4_7.png,arrowleft,response,ArrowLeft,7,1,4,test,TRUE,,5
,,,,,html-keyboard-response,249,215316,0.0-6.38-4.38,289,"<p> <font color=""green"" size=""5vw""> Correct category! </font> <br> <br> <font color=""green"" size=""8vw""> + $0.05 </font> </p>",arrowleft,feedback,,,,,,,1.7,5
,,,,,html-keyboard-response,250,215461,0.0-6.39-0.39,144,"
            
        <div style=""text-align: center; position: fixed; top: 5vh; left: 40vw;"">
            <div style=""margin:0 auto; width: 20vw; top: 8vh; font-size: 2vw""> 
            <font color=""green""> Bonus : $1.7 </font>
            </div>
        </div>
    
            <div> Please press any button to continue to the next trial.</div>
        ",arrowleft,ITI,,,,,,,,5
,,,,,html-keyboard-response,251,216075,0.0-6.39-1.39,null,"
        
        <div style=""text-align: center; position: fixed; top: 5vh; left: 40vw;"">
            <div style=""margin:0 auto; width: 20vw; top: 8vh; font-size: 2vw""> 
            <font color=""green""> Bonus : $1.7 </font>
            </div>
        </div>
    
        <img class=""stim"" src=./stimuli//pack_shapes_diff/cat_2/diff_4/ex_2_4_12.png></img>
    ",null,stimulus,,,,,,,,5
,,,,,html-keyboard-response,252,217085,0.0-6.39-2.39,null,"
        <div style=""text-align: center; position: fixed; top: 5vh; left: 40vw;"">
            <div style=""margin:0 auto; width: 20vw; top: 8vh; font-size: 2vw""> 
            <font color=""green""> Bonus : $1.7 </font>
            </div>
        </div>
    ",null,,,,,,,,,5
,,,,,html-keyboard-response,253,217438,0.0-6.39-3.39,353,./stimuli//pack_shapes_diff/cat_2/diff_4/ex_2_4_12.png,arrowright,response,ArrowRight,12,2,4,test,TRUE,,5
,,,,,html-keyboard-response,254,217794,0.0-6.39-4.39,355,"<p> <font color=""green"" size=""5vw""> Correct category! </font> <br> <br> <font color=""green"" size=""8vw""> + $0.05 </font> </p>",arrowright,feedback,,,,,,,1.75,5
,,,,,html-keyboard-response,255,217944,0.0-6.40-0.40,149,"
            
        <div style=""text-align: center; position: fixed; top: 5vh; left: 40vw;"">
            <div style=""margin:0 auto; width: 20vw; top: 8vh; font-size: 2vw""> 
            <font color=""green""> Bonus : $1.75 </font>
            </div>
        </div>
    
            <div> Please press any button to continue to the next trial.</div>
        ",arrowright,ITI,,,,,,,,5
,,,,,html-keyboard-response,256,218554,0.0-6.40-1.40,null,"
        
        <div style=""text-align: center; position: fixed; top: 5vh; left: 40vw;"">
            <div style=""margin:0 auto; width: 20vw; top: 8vh; font-size: 2vw""> 
            <font color=""green""> Bonus : $1.75 </font>
            </div>
        </div>
    
        <img class=""stim"" src=./stimuli//pack_shapes_diff/cat_1/diff_5/ex_1_5_7.png></img>
    ",null,stimulus,,,,,,,,5
,,,,,html-keyboard-response,257,219559,0.0-6.40-2.40,null,"
        <div style=""text-align: center; position: fixed; top: 5vh; left: 40vw;"">
            <div style=""margin:0 auto; width: 20vw; top: 8vh; font-size: 2vw""> 
            <font color=""green""> Bonus : $1.75 </font>
            </div>
        </div>
    ",null,,,,,,,,,5
,,,,,html-keyboard-response,258,219882,0.0-6.40-3.40,322,./stimuli//pack_shapes_diff/cat_1/diff_5/ex_1_5_7.png,arrowleft,response,ArrowLeft,7,1,5,test,TRUE,,5
,,,,,html-keyboard-response,259,220182,0.0-6.40-4.40,299,"<p> <font color=""green"" size=""5vw""> Correct category! </font> <br> <br> <font color=""green"" size=""8vw""> + $0.05 </font> </p>",arrowleft,feedback,,,,,,,1.8,5
,,,,,html-keyboard-response,260,220317,0.0-6.41-0.41,135,"
            
        <div style=""text-align: center; position: fixed; top: 5vh; left: 40vw;"">
            <div style=""margin:0 auto; width: 20vw; top: 8vh; font-size: 2vw""> 
            <font color=""green""> Bonus : $1.8 </font>
            </div>
        </div>
    
            <div> Please press any button to continue to the next trial.</div>
        ",arrowleft,ITI,,,,,,,,5
,,,,,html-keyboard-response,261,220920,0.0-6.41-1.41,null,"
        
        <div style=""text-align: center; position: fixed; top: 5vh; left: 40vw;"">
            <div style=""margin:0 auto; width: 20vw; top: 8vh; font-size: 2vw""> 
            <font color=""green""> Bonus : $1.8 </font>
            </div>
        </div>
    
        <img class=""stim"" src=./stimuli//pack_shapes_diff/cat_2/diff_5/ex_2_5_3.png></img>
    ",null,stimulus,,,,,,,,5
,,,,,html-keyboard-response,262,221931,0.0-6.41-2.41,null,"
        <div style=""text-align: center; position: fixed; top: 5vh; left: 40vw;"">
            <div style=""margin:0 auto; width: 20vw; top: 8vh; font-size: 2vw""> 
            <font color=""green""> Bonus : $1.8 </font>
            </div>
        </div>
    ",null,,,,,,,,,5
,,,,,html-keyboard-response,263,222591,0.0-6.41-3.41,659,./stimuli//pack_shapes_diff/cat_2/diff_5/ex_2_5_3.png,arrowleft,response,ArrowRight,3,2,5,test,FALSE,,5
,,,,,html-keyboard-response,264,223032,0.0-6.41-4.41,441,"<p> <font color=""red"" size=""5vw""> Wrong category! </font> </p>",arrowleft,feedback,,,,,,,1.8,5
,,,,,html-keyboard-response,265,223317,0.0-6.42-0.42,284,"
            
        <div style=""text-align: center; position: fixed; top: 5vh; left: 40vw;"">
            <div style=""margin:0 auto; width: 20vw; top: 8vh; font-size: 2vw""> 
            <font color=""green""> Bonus : $1.8 </font>
            </div>
        </div>
    
            <div> Please press any button to continue to the next trial.</div>
        ",arrowleft,ITI,,,,,,,,5
,,,,,html-keyboard-response,266,223931,0.0-6.42-1.42,null,"
        
        <div style=""text-align: center; position: fixed; top: 5vh; left: 40vw;"">
            <div style=""margin:0 auto; width: 20vw; top: 8vh; font-size: 2vw""> 
            <font color=""green""> Bonus : $1.8 </font>
            </div>
        </div>
    
        <img class=""stim"" src=./stimuli//pack_shapes_diff/cat_2/diff_5/ex_2_5_4.png></img>
    ",null,stimulus,,,,,,,,5
,,,,,html-keyboard-response,267,224947,0.0-6.42-2.42,null,"
        <div style=""text-align: center; position: fixed; top: 5vh; left: 40vw;"">
            <div style=""margin:0 auto; width: 20vw; top: 8vh; font-size: 2vw""> 
            <font color=""green""> Bonus : $1.8 </font>
            </div>
        </div>
    ",null,,,,,,,,,5
,,,,,html-keyboard-response,268,225189,0.0-6.42-3.42,241,./stimuli//pack_shapes_diff/cat_2/diff_5/ex_2_5_4.png,arrowright,response,ArrowRight,4,2,5,test,TRUE,,5
,,,,,html-keyboard-response,269,225464,0.0-6.42-4.42,275,"<p> <font color=""green"" size=""5vw""> Correct category! </font> <br> <br> <font color=""green"" size=""8vw""> + $0.05 </font> </p>",arrowright,feedback,,,,,,,1.85,5
,,,,,html-keyboard-response,270,225675,0.0-6.43-0.43,210,"
            
        <div style=""text-align: center; position: fixed; top: 5vh; left: 40vw;"">
            <div style=""margin:0 auto; width: 20vw; top: 8vh; font-size: 2vw""> 
            <font color=""green""> Bonus : $1.85 </font>
            </div>
        </div>
    
            <div> Please press any button to continue to the next trial.</div>
        ",arrowright,ITI,,,,,,,,5
,,,,,html-keyboard-response,271,226287,0.0-6.43-1.43,null,"
        
        <div style=""text-align: center; position: fixed; top: 5vh; left: 40vw;"">
            <div style=""margin:0 auto; width: 20vw; top: 8vh; font-size: 2vw""> 
            <font color=""green""> Bonus : $1.85 </font>
            </div>
        </div>
    
        <img class=""stim"" src=./stimuli//pack_shapes_diff/cat_1/diff_5/ex_1_5_1.png></img>
    ",null,stimulus,,,,,,,,5
,,,,,html-keyboard-response,272,227292,0.0-6.43-2.43,null,"
        <div style=""text-align: center; position: fixed; top: 5vh; left: 40vw;"">
            <div style=""margin:0 auto; width: 20vw; top: 8vh; font-size: 2vw""> 
            <font color=""green""> Bonus : $1.85 </font>
            </div>
        </div>
    ",null,,,,,,,,,5
,,,,,html-keyboard-response,273,227537,0.0-6.43-3.43,244,./stimuli//pack_shapes_diff/cat_1/diff_5/ex_1_5_1.png,arrowright,response,ArrowLeft,1,1,5,test,FALSE,,5
,,,,,html-keyboard-response,274,227888,0.0-6.43-4.43,350,"<p> <font color=""red"" size=""5vw""> Wrong category! </font> </p>",arrowright,feedback,,,,,,,1.85,5
,,,,,html-keyboard-response,275,228178,0.0-6.44-0.44,289,"
            
        <div style=""text-align: center; position: fixed; top: 5vh; left: 40vw;"">
            <div style=""margin:0 auto; width: 20vw; top: 8vh; font-size: 2vw""> 
            <font color=""green""> Bonus : $1.85 </font>
            </div>
        </div>
    
            <div> Please press any button to continue to the next trial.</div>
        ",arrowright,ITI,,,,,,,,5
,,,,,html-keyboard-response,276,228796,0.0-6.44-1.44,null,"
        
        <div style=""text-align: center; position: fixed; top: 5vh; left: 40vw;"">
            <div style=""margin:0 auto; width: 20vw; top: 8vh; font-size: 2vw""> 
            <font color=""green""> Bonus : $1.85 </font>
            </div>
        </div>
    
        <img class=""stim"" src=./stimuli//pack_shapes_diff/cat_2/diff_5/ex_2_5_17.png></img>
    ",null,stimulus,,,,,,,,5
,,,,,html-keyboard-response,277,229808,0.0-6.44-2.44,null,"
        <div style=""text-align: center; position: fixed; top: 5vh; left: 40vw;"">
            <div style=""margin:0 auto; width: 20vw; top: 8vh; font-size: 2vw""> 
            <font color=""green""> Bonus : $1.85 </font>
            </div>
        </div>
    ",null,,,,,,,,,5
,,,,,html-keyboard-response,278,230093,0.0-6.44-3.44,283,./stimuli//pack_shapes_diff/cat_2/diff_5/ex_2_5_17.png,arrowleft,response,ArrowRight,17,2,5,test,FALSE,,5
,,,,,html-keyboard-response,279,230742,0.0-6.44-4.44,648,"<p> <font color=""red"" size=""5vw""> Wrong category! </font> </p>",arrowleft,feedback,,,,,,,1.85,5
,,,,,html-keyboard-response,280,231873,0.0-6.45-0.45,1130,"
            
        <div style=""text-align: center; position: fixed; top: 5vh; left: 40vw;"">
            <div style=""margin:0 auto; width: 20vw; top: 8vh; font-size: 2vw""> 
            <font color=""green""> Bonus : $1.85 </font>
            </div>
        </div>
    
            <div> Please press any button to continue to the next trial.</div>
        ",arrowleft,ITI,,,,,,,,5
,,,,,html-keyboard-response,281,232474,0.0-6.45-1.45,null,"
        
        <div style=""text-align: center; position: fixed; top: 5vh; left: 40vw;"">
            <div style=""margin:0 auto; width: 20vw; top: 8vh; font-size: 2vw""> 
            <font color=""green""> Bonus : $1.85 </font>
            </div>
        </div>
    
        <img class=""stim"" src=./stimuli//pack_shapes_diff/cat_2/diff_4/ex_2_4_8.png></img>
    ",null,stimulus,,,,,,,,5
,,,,,html-keyboard-response,282,233478,0.0-6.45-2.45,null,"
        <div style=""text-align: center; position: fixed; top: 5vh; left: 40vw;"">
            <div style=""margin:0 auto; width: 20vw; top: 8vh; font-size: 2vw""> 
            <font color=""green""> Bonus : $1.85 </font>
            </div>
        </div>
    ",null,,,,,,,,,5
,,,,,html-keyboard-response,283,233791,0.0-6.45-3.45,311,./stimuli//pack_shapes_diff/cat_2/diff_4/ex_2_4_8.png,arrowright,response,ArrowRight,8,2,4,test,TRUE,,5
,,,,,html-keyboard-response,284,234121,0.0-6.45-4.45,330,"<p> <font color=""green"" size=""5vw""> Correct category! </font> <br> <br> <font color=""green"" size=""8vw""> + $0.05 </font> </p>",arrowright,feedback,,,,,,,1.9,5
,,,,,html-keyboard-response,285,234422,0.0-6.46-0.46,300,"
            
        <div style=""text-align: center; position: fixed; top: 5vh; left: 40vw;"">
            <div style=""margin:0 auto; width: 20vw; top: 8vh; font-size: 2vw""> 
            <font color=""green""> Bonus : $1.9 </font>
            </div>
        </div>
    
            <div> Please press any button to continue to the next trial.</div>
        ",arrowright,ITI,,,,,,,,5
,,,,,html-keyboard-response,286,235036,0.0-6.46-1.46,null,"
        
        <div style=""text-align: center; position: fixed; top: 5vh; left: 40vw;"">
            <div style=""margin:0 auto; width: 20vw; top: 8vh; font-size: 2vw""> 
            <font color=""green""> Bonus : $1.9 </font>
            </div>
        </div>
    
        <img class=""stim"" src=./stimuli//pack_shapes_diff/cat_2/diff_4/ex_2_4_7.png></img>
    ",null,stimulus,,,,,,,,5
,,,,,html-keyboard-response,287,236054,0.0-6.46-2.46,null,"
        <div style=""text-align: center; position: fixed; top: 5vh; left: 40vw;"">
            <div style=""margin:0 auto; width: 20vw; top: 8vh; font-size: 2vw""> 
            <font color=""green""> Bonus : $1.9 </font>
            </div>
        </div>
    ",null,,,,,,,,,5
,,,,,html-keyboard-response,288,236294,0.0-6.46-3.46,239,./stimuli//pack_shapes_diff/cat_2/diff_4/ex_2_4_7.png,arrowright,response,ArrowRight,7,2,4,test,TRUE,,5
,,,,,html-keyboard-response,289,236500,0.0-6.46-4.46,206,"<p> <font color=""green"" size=""5vw""> Correct category! </font> <br> <br> <font color=""green"" size=""8vw""> + $0.05 </font> </p>",arrowright,feedback,,,,,,,1.95,5
,,,,,html-keyboard-response,290,236955,0.0-6.47-0.47,454,"
            
        <div style=""text-align: center; position: fixed; top: 5vh; left: 40vw;"">
            <div style=""margin:0 auto; width: 20vw; top: 8vh; font-size: 2vw""> 
            <font color=""green""> Bonus : $1.95 </font>
            </div>
        </div>
    
            <div> Please press any button to continue to the next trial.</div>
        ",arrowright,ITI,,,,,,,,5
,,,,,html-keyboard-response,291,237564,0.0-6.47-1.47,null,"
        
        <div style=""text-align: center; position: fixed; top: 5vh; left: 40vw;"">
            <div style=""margin:0 auto; width: 20vw; top: 8vh; font-size: 2vw""> 
            <font color=""green""> Bonus : $1.95 </font>
            </div>
        </div>
    
        <img class=""stim"" src=./stimuli//pack_shapes_diff/cat_2/diff_4/ex_2_4_17.png></img>
    ",null,stimulus,,,,,,,,5
,,,,,html-keyboard-response,292,238578,0.0-6.47-2.47,null,"
        <div style=""text-align: center; position: fixed; top: 5vh; left: 40vw;"">
            <div style=""margin:0 auto; width: 20vw; top: 8vh; font-size: 2vw""> 
            <font color=""green""> Bonus : $1.95 </font>
            </div>
        </div>
    ",null,,,,,,,,,5
,,,,,html-keyboard-response,293,238858,0.0-6.47-3.47,278,./stimuli//pack_shapes_diff/cat_2/diff_4/ex_2_4_17.png,arrowright,response,ArrowRight,17,2,4,test,TRUE,,5
,,,,,html-keyboard-response,294,239049,0.0-6.47-4.47,190,"<p> <font color=""green"" size=""5vw""> Correct category! </font> <br> <br> <font color=""green"" size=""8vw""> + $0.05 </font> </p>",arrowright,feedback,,,,,,,2,5
,,,,,html-keyboard-response,295,239554,0.0-6.48-0.48,504,"
            
        <div style=""text-align: center; position: fixed; top: 5vh; left: 40vw;"">
            <div style=""margin:0 auto; width: 20vw; top: 8vh; font-size: 2vw""> 
            <font color=""green""> Bonus : $2 </font>
            </div>
        </div>
    
            <div> Please press any button to continue to the next trial.</div>
        ",arrowright,ITI,,,,,,,,5
,,,,,html-keyboard-response,296,240163,0.0-6.48-1.48,null,"
        
        <div style=""text-align: center; position: fixed; top: 5vh; left: 40vw;"">
            <div style=""margin:0 auto; width: 20vw; top: 8vh; font-size: 2vw""> 
            <font color=""green""> Bonus : $2 </font>
            </div>
        </div>
    
        <img class=""stim"" src=./stimuli//pack_shapes_diff/cat_2/diff_4/ex_2_4_15.png></img>
    ",null,stimulus,,,,,,,,5
,,,,,html-keyboard-response,297,241173,0.0-6.48-2.48,null,"
        <div style=""text-align: center; position: fixed; top: 5vh; left: 40vw;"">
            <div style=""margin:0 auto; width: 20vw; top: 8vh; font-size: 2vw""> 
            <font color=""green""> Bonus : $2 </font>
            </div>
        </div>
    ",null,,,,,,,,,5
,,,,,html-keyboard-response,298,241451,0.0-6.48-3.48,277,./stimuli//pack_shapes_diff/cat_2/diff_4/ex_2_4_15.png,arrowright,response,ArrowRight,15,2,4,test,TRUE,,5
,,,,,html-keyboard-response,299,241616,0.0-6.48-4.48,164,"<p> <font color=""green"" size=""5vw""> Correct category! </font> <br> <br> <font color=""green"" size=""8vw""> + $0.05 </font> </p>",arrowright,feedback,,,,,,,2.05,5
,,,,,html-keyboard-response,300,241962,0.0-6.49-0.49,345,"
            
        <div style=""text-align: center; position: fixed; top: 5vh; left: 40vw;"">
            <div style=""margin:0 auto; width: 20vw; top: 8vh; font-size: 2vw""> 
            <font color=""green""> Bonus : $2.05 </font>
            </div>
        </div>
    
            <div> Please press any button to continue to the next trial.</div>
        ",arrowright,ITI,,,,,,,,5
,,,,,html-keyboard-response,301,242569,0.0-6.49-1.49,null,"
        
        <div style=""text-align: center; position: fixed; top: 5vh; left: 40vw;"">
            <div style=""margin:0 auto; width: 20vw; top: 8vh; font-size: 2vw""> 
            <font color=""green""> Bonus : $2.05 </font>
            </div>
        </div>
    
        <img class=""stim"" src=./stimuli//pack_shapes_diff/cat_1/diff_4/ex_1_4_15.png></img>
    ",null,stimulus,,,,,,,,5
,,,,,html-keyboard-response,302,243580,0.0-6.49-2.49,null,"
        <div style=""text-align: center; position: fixed; top: 5vh; left: 40vw;"">
            <div style=""margin:0 auto; width: 20vw; top: 8vh; font-size: 2vw""> 
            <font color=""green""> Bonus : $2.05 </font>
            </div>
        </div>
    ",null,,,,,,,,,5
,,,,,html-keyboard-response,303,243880,0.0-6.49-3.49,299,./stimuli//pack_shapes_diff/cat_1/diff_4/ex_1_4_15.png,arrowleft,response,ArrowLeft,15,1,4,test,TRUE,,5
,,,,,html-keyboard-response,304,244180,0.0-6.49-4.49,299,"<p> <font color=""green"" size=""5vw""> Correct category! </font> <br> <br> <font color=""green"" size=""8vw""> + $0.05 </font> </p>",arrowleft,feedback,,,,,,,2.1,5
,,,,,html-keyboard-response,305,244320,0.0-6.50-0.50,139,"
            
        <div style=""text-align: center; position: fixed; top: 5vh; left: 40vw;"">
            <div style=""margin:0 auto; width: 20vw; top: 8vh; font-size: 2vw""> 
            <font color=""green""> Bonus : $2.1 </font>
            </div>
        </div>
    
            <div> Please press any button to continue to the next trial.</div>
        ",arrowleft,ITI,,,,,,,,5
,,,,,html-keyboard-response,306,244930,0.0-6.50-1.50,null,"
        
        <div style=""text-align: center; position: fixed; top: 5vh; left: 40vw;"">
            <div style=""margin:0 auto; width: 20vw; top: 8vh; font-size: 2vw""> 
            <font color=""green""> Bonus : $2.1 </font>
            </div>
        </div>
    
        <img class=""stim"" src=./stimuli//pack_shapes_diff/cat_1/diff_5/ex_1_5_4.png></img>
    ",null,stimulus,,,,,,,,5
,,,,,html-keyboard-response,307,245942,0.0-6.50-2.50,null,"
        <div style=""text-align: center; position: fixed; top: 5vh; left: 40vw;"">
            <div style=""margin:0 auto; width: 20vw; top: 8vh; font-size: 2vw""> 
            <font color=""green""> Bonus : $2.1 </font>
            </div>
        </div>
    ",null,,,,,,,,,5
,,,,,html-keyboard-response,308,246243,0.0-6.50-3.50,300,./stimuli//pack_shapes_diff/cat_1/diff_5/ex_1_5_4.png,arrowleft,response,ArrowLeft,4,1,5,test,TRUE,,5
,,,,,html-keyboard-response,309,246533,0.0-6.50-4.50,289,"<p> <font color=""green"" size=""5vw""> Correct category! </font> <br> <br> <font color=""green"" size=""8vw""> + $0.05 </font> </p>",arrowleft,feedback,,,,,,,2.15,5
,,,,,html-keyboard-response,310,246683,0.0-6.51-0.51,150,"
            
        <div style=""text-align: center; position: fixed; top: 5vh; left: 40vw;"">
            <div style=""margin:0 auto; width: 20vw; top: 8vh; font-size: 2vw""> 
            <font color=""green""> Bonus : $2.15 </font>
            </div>
        </div>
    
            <div> Please press any button to continue to the next trial.</div>
        ",arrowleft,ITI,,,,,,,,5
,,,,,html-keyboard-response,311,247292,0.0-6.51-1.51,null,"
        
        <div style=""text-align: center; position: fixed; top: 5vh; left: 40vw;"">
            <div style=""margin:0 auto; width: 20vw; top: 8vh; font-size: 2vw""> 
            <font color=""green""> Bonus : $2.15 </font>
            </div>
        </div>
    
        <img class=""stim"" src=./stimuli//pack_shapes_diff/cat_1/diff_5/ex_1_5_7.png></img>
    ",null,stimulus,,,,,,,,5
,,,,,html-keyboard-response,312,248295,0.0-6.51-2.51,null,"
