"success","timeout","failed_images","failed_audio","failed_video","trial_type","trial_index","time_elapsed","internal_node_id","subject_id","study_id","session_id","rt","stimulus","response","task","correct_response","exemplar_ID","category","difficulty","phase","correct","bonus"
"true","false","[]","[]","[]","preload","0","2","0.0-0.0","653bb4bb22879f0a935901b2","656d9e5e2de4f984cfed7d4d","656d9ee8b57e6b639363b787","","","","","","","","","","",""
"","","","","","html-keyboard-response","1","2395","0.0-1.0","653bb4bb22879f0a935901b2","656d9e5e2de4f984cfed7d4d","656d9ee8b57e6b639363b787","2392","Welcome to the Category Learning experiment! Press any key to continue."," ","welcome","","","","","","",""
"","","","","","html-keyboard-response","2","25624","0.0-2.0","653bb4bb22879f0a935901b2","656d9e5e2de4f984cfed7d4d","656d9ee8b57e6b639363b787","23229","
            <p>You will be shown images of white shapes. Some are category A, some are category B.
            <br>You will not know in advance which category a specific shape belongs to.</p>
            <p>After you see an image, you will be asked to guess its category <b>(left arrow for category A, right arrow for category B)</b></p>
            <p>After you choose, the screen will show you whether you were correct or not.</p>
            <p><b>You will receive a bonus payment of $0.05 for each correct answer!</b></p>
            <p><b>You will lose $0.05 from your bonus payment for each incorrect answer! The bonus can not become less that $0.</b></p>
            <p>Press any key to continue.</p>
            "," ","introduction_1","","","","","","",""
"","","","","","html-keyboard-response","3","29978","0.0-3.0","653bb4bb22879f0a935901b2","656d9e5e2de4f984cfed7d4d","656d9ee8b57e6b639363b787","4353","
            <p> <b>The first 10 trials are a practice round that will not count towards your bonus payment.</b></p>
            <p> You will be notified when practice finishes and the test begins. </p>
            <p> Press any key to begin the practice round.</p>
            "," ","introduction_2","","","","","","",""
"","","","","","html-keyboard-response","4","36386","0.0-4.0-0.0","653bb4bb22879f0a935901b2","656d9e5e2de4f984cfed7d4d","656d9ee8b57e6b639363b787","6407","
            
        <div style=""text-align: center; position: fixed; top: 5vh; left: 40vw;"">
            <div style=""margin:0 auto; width: 20vw; top: 8vh; font-size: 2vw""> 
            <font color=""green""> Bonus : $0 </font>
            </div>
        </div>
    
            <div> Please press any key to continue to the next image.</div>
        "," ","ITI","","","","","","",""
"","","","","","html-keyboard-response","5","37003","0.0-4.0-1.0","653bb4bb22879f0a935901b2","656d9e5e2de4f984cfed7d4d","656d9ee8b57e6b639363b787","null","
        
        <div style=""text-align: center; position: fixed; top: 5vh; left: 40vw;"">
            <div style=""margin:0 auto; width: 20vw; top: 8vh; font-size: 2vw""> 
            <font color=""green""> Bonus : $0 </font>
            </div>
        </div>
    
        <img class=""stim"" src=./stimuli//pack_shapes_1/cat_1/diff_2/ex_1_2_9.png></img>
    ","null","stimulus","","","","","","",""
"","","","","","html-keyboard-response","6","38017","0.0-4.0-2.0","653bb4bb22879f0a935901b2","656d9e5e2de4f984cfed7d4d","656d9ee8b57e6b639363b787","null","
        <div style=""text-align: center; position: fixed; top: 5vh; left: 40vw;"">
            <div style=""margin:0 auto; width: 20vw; top: 8vh; font-size: 2vw""> 
            <font color=""green""> Bonus : $0 </font>
            </div>
        </div>
    ","null","","","","","","","",""
"","","","","","html-keyboard-response","7","41038","0.0-4.0-3.0","653bb4bb22879f0a935901b2","656d9e5e2de4f984cfed7d4d","656d9ee8b57e6b639363b787","3020","./stimuli//pack_shapes_1/cat_1/diff_2/ex_1_2_9.png","arrowleft","response","ArrowLeft","9","1","2","train","true",""
"","","","","","html-keyboard-response","8","42543","0.0-4.0-4.0","653bb4bb22879f0a935901b2","656d9e5e2de4f984cfed7d4d","656d9ee8b57e6b639363b787","null","<p><font color=""green"" size=""5vw""> Correct category! </font></p>","null","feedback","","","","","","","0"
"","","","","","html-keyboard-response","9","44010","0.0-4.0-0.1","653bb4bb22879f0a935901b2","656d9e5e2de4f984cfed7d4d","656d9ee8b57e6b639363b787","1466","
            
        <div style=""text-align: center; position: fixed; top: 5vh; left: 40vw;"">
            <div style=""margin:0 auto; width: 20vw; top: 8vh; font-size: 2vw""> 
            <font color=""green""> Bonus : $0 </font>
            </div>
        </div>
    
            <div> Please press any key to continue to the next image.</div>
        "," ","ITI","","","","","","",""
"","","","","","html-keyboard-response","10","44615","0.0-4.0-1.1","653bb4bb22879f0a935901b2","656d9e5e2de4f984cfed7d4d","656d9ee8b57e6b639363b787","null","
        
        <div style=""text-align: center; position: fixed; top: 5vh; left: 40vw;"">
            <div style=""margin:0 auto; width: 20vw; top: 8vh; font-size: 2vw""> 
            <font color=""green""> Bonus : $0 </font>
            </div>
        </div>
    
        <img class=""stim"" src=./stimuli//pack_shapes_1/cat_1/diff_1/ex_1_1_9.png></img>
    ","null","stimulus","","","","","","",""
"","","","","","html-keyboard-response","11","45628","0.0-4.0-2.1","653bb4bb22879f0a935901b2","656d9e5e2de4f984cfed7d4d","656d9ee8b57e6b639363b787","null","
        <div style=""text-align: center; position: fixed; top: 5vh; left: 40vw;"">
            <div style=""margin:0 auto; width: 20vw; top: 8vh; font-size: 2vw""> 
            <font color=""green""> Bonus : $0 </font>
            </div>
        </div>
    ","null","","","","","","","",""
"","","","","","html-keyboard-response","12","46656","0.0-4.0-3.1","653bb4bb22879f0a935901b2","656d9e5e2de4f984cfed7d4d","656d9ee8b57e6b639363b787","1027","./stimuli//pack_shapes_1/cat_1/diff_1/ex_1_1_9.png","arrowleft","response","ArrowLeft","9","1","1","train","true",""
"","","","","","html-keyboard-response","13","48166","0.0-4.0-4.1","653bb4bb22879f0a935901b2","656d9e5e2de4f984cfed7d4d","656d9ee8b57e6b639363b787","null","<p><font color=""green"" size=""5vw""> Correct category! </font></p>","null","feedback","","","","","","","0"
"","","","","","html-keyboard-response","14","49672","0.0-4.0-0.2","653bb4bb22879f0a935901b2","656d9e5e2de4f984cfed7d4d","656d9ee8b57e6b639363b787","1506","
            
        <div style=""text-align: center; position: fixed; top: 5vh; left: 40vw;"">
            <div style=""margin:0 auto; width: 20vw; top: 8vh; font-size: 2vw""> 
            <font color=""green""> Bonus : $0 </font>
            </div>
        </div>
    
            <div> Please press any key to continue to the next image.</div>
        "," ","ITI","","","","","","",""
"","","","","","html-keyboard-response","15","50284","0.0-4.0-1.2","653bb4bb22879f0a935901b2","656d9e5e2de4f984cfed7d4d","656d9ee8b57e6b639363b787","null","
        
        <div style=""text-align: center; position: fixed; top: 5vh; left: 40vw;"">
            <div style=""margin:0 auto; width: 20vw; top: 8vh; font-size: 2vw""> 
            <font color=""green""> Bonus : $0 </font>
            </div>
        </div>
    
        <img class=""stim"" src=./stimuli//pack_shapes_1/cat_2/diff_1/ex_2_1_5.png></img>
    ","null","stimulus","","","","","","",""
"","","","","","html-keyboard-response","16","51298","0.0-4.0-2.2","653bb4bb22879f0a935901b2","656d9e5e2de4f984cfed7d4d","656d9ee8b57e6b639363b787","null","
        <div style=""text-align: center; position: fixed; top: 5vh; left: 40vw;"">
            <div style=""margin:0 auto; width: 20vw; top: 8vh; font-size: 2vw""> 
            <font color=""green""> Bonus : $0 </font>
            </div>
        </div>
    ","null","","","","","","","",""
"","","","","","html-keyboard-response","17","53942","0.0-4.0-3.2","653bb4bb22879f0a935901b2","656d9e5e2de4f984cfed7d4d","656d9ee8b57e6b639363b787","2643","./stimuli//pack_shapes_1/cat_2/diff_1/ex_2_1_5.png","arrowleft","response","ArrowRight","5","2","1","train","false",""
"","","","","","html-keyboard-response","18","55443","0.0-4.0-4.2","653bb4bb22879f0a935901b2","656d9e5e2de4f984cfed7d4d","656d9ee8b57e6b639363b787","null","<p> <font color=""red"" size=""5vw""> Wrong category! </font> </p>","null","feedback","","","","","","","0"
"","","","","","html-keyboard-response","19","65805","0.0-4.0-0.3","653bb4bb22879f0a935901b2","656d9e5e2de4f984cfed7d4d","656d9ee8b57e6b639363b787","10360","
            
        <div style=""text-align: center; position: fixed; top: 5vh; left: 40vw;"">
            <div style=""margin:0 auto; width: 20vw; top: 8vh; font-size: 2vw""> 
            <font color=""green""> Bonus : $0 </font>
            </div>
        </div>
    
            <div> Please press any key to continue to the next image.</div>
        "," ","ITI","","","","","","",""
"","","","","","html-keyboard-response","20","66411","0.0-4.0-1.3","653bb4bb22879f0a935901b2","656d9e5e2de4f984cfed7d4d","656d9ee8b57e6b639363b787","null","
        
        <div style=""text-align: center; position: fixed; top: 5vh; left: 40vw;"">
            <div style=""margin:0 auto; width: 20vw; top: 8vh; font-size: 2vw""> 
            <font color=""green""> Bonus : $0 </font>
            </div>
        </div>
    
        <img class=""stim"" src=./stimuli//pack_shapes_1/cat_1/diff_1/ex_1_1_14.png></img>
    ","null","stimulus","","","","","","",""
"","","","","","html-keyboard-response","21","67425","0.0-4.0-2.3","653bb4bb22879f0a935901b2","656d9e5e2de4f984cfed7d4d","656d9ee8b57e6b639363b787","null","
        <div style=""text-align: center; position: fixed; top: 5vh; left: 40vw;"">
            <div style=""margin:0 auto; width: 20vw; top: 8vh; font-size: 2vw""> 
            <font color=""green""> Bonus : $0 </font>
            </div>
        </div>
    ","null","","","","","","","",""
"","","","","","html-keyboard-response","22","67855","0.0-4.0-3.3","653bb4bb22879f0a935901b2","656d9e5e2de4f984cfed7d4d","656d9ee8b57e6b639363b787","429","./stimuli//pack_shapes_1/cat_1/diff_1/ex_1_1_14.png","arrowleft","response","ArrowLeft","14","1","1","train","true",""
"","","","","","html-keyboard-response","23","69358","0.0-4.0-4.3","653bb4bb22879f0a935901b2","656d9e5e2de4f984cfed7d4d","656d9ee8b57e6b639363b787","null","<p><font color=""green"" size=""5vw""> Correct category! </font></p>","null","feedback","","","","","","","0"
"","","","","","html-keyboard-response","24","70454","0.0-4.0-0.4","653bb4bb22879f0a935901b2","656d9e5e2de4f984cfed7d4d","656d9ee8b57e6b639363b787","1095","
            
        <div style=""text-align: center; position: fixed; top: 5vh; left: 40vw;"">
            <div style=""margin:0 auto; width: 20vw; top: 8vh; font-size: 2vw""> 
            <font color=""green""> Bonus : $0 </font>
            </div>
        </div>
    
            <div> Please press any key to continue to the next image.</div>
        "," ","ITI","","","","","","",""
"","","","","","html-keyboard-response","25","71069","0.0-4.0-1.4","653bb4bb22879f0a935901b2","656d9e5e2de4f984cfed7d4d","656d9ee8b57e6b639363b787","null","
        
        <div style=""text-align: center; position: fixed; top: 5vh; left: 40vw;"">
            <div style=""margin:0 auto; width: 20vw; top: 8vh; font-size: 2vw""> 
            <font color=""green""> Bonus : $0 </font>
            </div>
        </div>
    
        <img class=""stim"" src=./stimuli//pack_shapes_1/cat_2/diff_1/ex_2_1_4.png></img>
    ","null","stimulus","","","","","","",""
"","","","","","html-keyboard-response","26","72084","0.0-4.0-2.4","653bb4bb22879f0a935901b2","656d9e5e2de4f984cfed7d4d","656d9ee8b57e6b639363b787","null","
        <div style=""text-align: center; position: fixed; top: 5vh; left: 40vw;"">
            <div style=""margin:0 auto; width: 20vw; top: 8vh; font-size: 2vw""> 
            <font color=""green""> Bonus : $0 </font>
            </div>
        </div>
    ","null","","","","","","","",""
"","","","","","html-keyboard-response","27","72525","0.0-4.0-3.4","653bb4bb22879f0a935901b2","656d9e5e2de4f984cfed7d4d","656d9ee8b57e6b639363b787","441","./stimuli//pack_shapes_1/cat_2/diff_1/ex_2_1_4.png","arrowright","response","ArrowRight","4","2","1","train","true",""
"","","","","","html-keyboard-response","28","74027","0.0-4.0-4.4","653bb4bb22879f0a935901b2","656d9e5e2de4f984cfed7d4d","656d9ee8b57e6b639363b787","null","<p><font color=""green"" size=""5vw""> Correct category! </font></p>","null","feedback","","","","","","","0"
"","","","","","html-keyboard-response","29","74649","0.0-4.0-0.5","653bb4bb22879f0a935901b2","656d9e5e2de4f984cfed7d4d","656d9ee8b57e6b639363b787","622","
            
        <div style=""text-align: center; position: fixed; top: 5vh; left: 40vw;"">
            <div style=""margin:0 auto; width: 20vw; top: 8vh; font-size: 2vw""> 
            <font color=""green""> Bonus : $0 </font>
            </div>
        </div>
    
            <div> Please press any key to continue to the next image.</div>
        "," ","ITI","","","","","","",""
"","","","","","html-keyboard-response","30","75264","0.0-4.0-1.5","653bb4bb22879f0a935901b2","656d9e5e2de4f984cfed7d4d","656d9ee8b57e6b639363b787","null","
        
        <div style=""text-align: center; position: fixed; top: 5vh; left: 40vw;"">
            <div style=""margin:0 auto; width: 20vw; top: 8vh; font-size: 2vw""> 
            <font color=""green""> Bonus : $0 </font>
            </div>
        </div>
    
        <img class=""stim"" src=./stimuli//pack_shapes_1/cat_2/diff_2/ex_2_2_10.png></img>
    ","null","stimulus","","","","","","",""
"","","","","","html-keyboard-response","31","76274","0.0-4.0-2.5","653bb4bb22879f0a935901b2","656d9e5e2de4f984cfed7d4d","656d9ee8b57e6b639363b787","null","
        <div style=""text-align: center; position: fixed; top: 5vh; left: 40vw;"">
            <div style=""margin:0 auto; width: 20vw; top: 8vh; font-size: 2vw""> 
            <font color=""green""> Bonus : $0 </font>
            </div>
        </div>
    ","null","","","","","","","",""
"","","","","","html-keyboard-response","32","77155","0.0-4.0-3.5","653bb4bb22879f0a935901b2","656d9e5e2de4f984cfed7d4d","656d9ee8b57e6b639363b787","879","./stimuli//pack_shapes_1/cat_2/diff_2/ex_2_2_10.png","arrowright","response","ArrowRight","10","2","2","train","true",""
"","","","","","html-keyboard-response","33","78669","0.0-4.0-4.5","653bb4bb22879f0a935901b2","656d9e5e2de4f984cfed7d4d","656d9ee8b57e6b639363b787","null","<p><font color=""green"" size=""5vw""> Correct category! </font></p>","null","feedback","","","","","","","0"
"","","","","","html-keyboard-response","34","79195","0.0-4.0-0.6","653bb4bb22879f0a935901b2","656d9e5e2de4f984cfed7d4d","656d9ee8b57e6b639363b787","525","
            
        <div style=""text-align: center; position: fixed; top: 5vh; left: 40vw;"">
            <div style=""margin:0 auto; width: 20vw; top: 8vh; font-size: 2vw""> 
            <font color=""green""> Bonus : $0 </font>
            </div>
        </div>
    
            <div> Please press any key to continue to the next image.</div>
        "," ","ITI","","","","","","",""
"","","","","","html-keyboard-response","35","79807","0.0-4.0-1.6","653bb4bb22879f0a935901b2","656d9e5e2de4f984cfed7d4d","656d9ee8b57e6b639363b787","null","
        
        <div style=""text-align: center; position: fixed; top: 5vh; left: 40vw;"">
            <div style=""margin:0 auto; width: 20vw; top: 8vh; font-size: 2vw""> 
            <font color=""green""> Bonus : $0 </font>
            </div>
        </div>
    
        <img class=""stim"" src=./stimuli//pack_shapes_1/cat_2/diff_2/ex_2_2_13.png></img>
    ","null","stimulus","","","","","","",""
"","","","","","html-keyboard-response","36","80809","0.0-4.0-2.6","653bb4bb22879f0a935901b2","656d9e5e2de4f984cfed7d4d","656d9ee8b57e6b639363b787","null","
        <div style=""text-align: center; position: fixed; top: 5vh; left: 40vw;"">
            <div style=""margin:0 auto; width: 20vw; top: 8vh; font-size: 2vw""> 
            <font color=""green""> Bonus : $0 </font>
            </div>
        </div>
    ","null","","","","","","","",""
"","","","","","html-keyboard-response","37","81213","0.0-4.0-3.6","653bb4bb22879f0a935901b2","656d9e5e2de4f984cfed7d4d","656d9ee8b57e6b639363b787","404","./stimuli//pack_shapes_1/cat_2/diff_2/ex_2_2_13.png","arrowright","response","ArrowRight","13","2","2","train","true",""
"","","","","","html-keyboard-response","38","82718","0.0-4.0-4.6","653bb4bb22879f0a935901b2","656d9e5e2de4f984cfed7d4d","656d9ee8b57e6b639363b787","null","<p><font color=""green"" size=""5vw""> Correct category! </font></p>","null","feedback","","","","","","","0"
"","","","","","html-keyboard-response","39","83457","0.0-4.0-0.7","653bb4bb22879f0a935901b2","656d9e5e2de4f984cfed7d4d","656d9ee8b57e6b639363b787","738","
            
        <div style=""text-align: center; position: fixed; top: 5vh; left: 40vw;"">
            <div style=""margin:0 auto; width: 20vw; top: 8vh; font-size: 2vw""> 
            <font color=""green""> Bonus : $0 </font>
            </div>
        </div>
    
            <div> Please press any key to continue to the next image.</div>
        "," ","ITI","","","","","","",""
"","","","","","html-keyboard-response","40","84071","0.0-4.0-1.7","653bb4bb22879f0a935901b2","656d9e5e2de4f984cfed7d4d","656d9ee8b57e6b639363b787","null","
        
        <div style=""text-align: center; position: fixed; top: 5vh; left: 40vw;"">
            <div style=""margin:0 auto; width: 20vw; top: 8vh; font-size: 2vw""> 
            <font color=""green""> Bonus : $0 </font>
            </div>
        </div>
    
        <img class=""stim"" src=./stimuli//pack_shapes_1/cat_1/diff_1/ex_1_1_16.png></img>
    ","null","stimulus","","","","","","",""
"","","","","","html-keyboard-response","41","85084","0.0-4.0-2.7","653bb4bb22879f0a935901b2","656d9e5e2de4f984cfed7d4d","656d9ee8b57e6b639363b787","null","
        <div style=""text-align: center; position: fixed; top: 5vh; left: 40vw;"">
            <div style=""margin:0 auto; width: 20vw; top: 8vh; font-size: 2vw""> 
            <font color=""green""> Bonus : $0 </font>
            </div>
        </div>
    ","null","","","","","","","",""
"","","","","","html-keyboard-response","42","85746","0.0-4.0-3.7","653bb4bb22879f0a935901b2","656d9e5e2de4f984cfed7d4d","656d9ee8b57e6b639363b787","661","./stimuli//pack_shapes_1/cat_1/diff_1/ex_1_1_16.png","arrowleft","response","ArrowLeft","16","1","1","train","true",""
"","","","","","html-keyboard-response","43","87249","0.0-4.0-4.7","653bb4bb22879f0a935901b2","656d9e5e2de4f984cfed7d4d","656d9ee8b57e6b639363b787","null","<p><font color=""green"" size=""5vw""> Correct category! </font></p>","null","feedback","","","","","","","0"
"","","","","","html-keyboard-response","44","88042","0.0-4.0-0.8","653bb4bb22879f0a935901b2","656d9e5e2de4f984cfed7d4d","656d9ee8b57e6b639363b787","792","
            
        <div style=""text-align: center; position: fixed; top: 5vh; left: 40vw;"">
            <div style=""margin:0 auto; width: 20vw; top: 8vh; font-size: 2vw""> 
            <font color=""green""> Bonus : $0 </font>
            </div>
        </div>
    
            <div> Please press any key to continue to the next image.</div>
        "," ","ITI","","","","","","",""
"","","","","","html-keyboard-response","45","88652","0.0-4.0-1.8","653bb4bb22879f0a935901b2","656d9e5e2de4f984cfed7d4d","656d9ee8b57e6b639363b787","null","
        
        <div style=""text-align: center; position: fixed; top: 5vh; left: 40vw;"">
            <div style=""margin:0 auto; width: 20vw; top: 8vh; font-size: 2vw""> 
            <font color=""green""> Bonus : $0 </font>
            </div>
        </div>
    
        <img class=""stim"" src=./stimuli//pack_shapes_1/cat_1/diff_2/ex_1_2_4.png></img>
    ","null","stimulus","","","","","","",""
"","","","","","html-keyboard-response","46","89665","0.0-4.0-2.8","653bb4bb22879f0a935901b2","656d9e5e2de4f984cfed7d4d","656d9ee8b57e6b639363b787","null","
        <div style=""text-align: center; position: fixed; top: 5vh; left: 40vw;"">
            <div style=""margin:0 auto; width: 20vw; top: 8vh; font-size: 2vw""> 
            <font color=""green""> Bonus : $0 </font>
            </div>
        </div>
    ","null","","","","","","","",""
"","","","","","html-keyboard-response","47","89743","0.0-4.0-3.8","653bb4bb22879f0a935901b2","656d9e5e2de4f984cfed7d4d","656d9ee8b57e6b639363b787","78","./stimuli//pack_shapes_1/cat_1/diff_2/ex_1_2_4.png","arrowleft","response","ArrowLeft","4","1","2","train","true",""
"","","","","","html-keyboard-response","48","91256","0.0-4.0-4.8","653bb4bb22879f0a935901b2","656d9e5e2de4f984cfed7d4d","656d9ee8b57e6b639363b787","null","<p><font color=""green"" size=""5vw""> Correct category! </font></p>","null","feedback","","","","","","","0"
"","","","","","html-keyboard-response","49","91940","0.0-4.0-0.9","653bb4bb22879f0a935901b2","656d9e5e2de4f984cfed7d4d","656d9ee8b57e6b639363b787","684","
            
        <div style=""text-align: center; position: fixed; top: 5vh; left: 40vw;"">
            <div style=""margin:0 auto; width: 20vw; top: 8vh; font-size: 2vw""> 
            <font color=""green""> Bonus : $0 </font>
            </div>
        </div>
    
            <div> Please press any key to continue to the next image.</div>
        "," ","ITI","","","","","","",""
"","","","","","html-keyboard-response","50","92549","0.0-4.0-1.9","653bb4bb22879f0a935901b2","656d9e5e2de4f984cfed7d4d","656d9ee8b57e6b639363b787","null","
        
        <div style=""text-align: center; position: fixed; top: 5vh; left: 40vw;"">
            <div style=""margin:0 auto; width: 20vw; top: 8vh; font-size: 2vw""> 
            <font color=""green""> Bonus : $0 </font>
            </div>
        </div>
    
        <img class=""stim"" src=./stimuli//pack_shapes_1/cat_2/diff_1/ex_2_1_13.png></img>
    ","null","stimulus","","","","","","",""
"","","","","","html-keyboard-response","51","93551","0.0-4.0-2.9","653bb4bb22879f0a935901b2","656d9e5e2de4f984cfed7d4d","656d9ee8b57e6b639363b787","null","
        <div style=""text-align: center; position: fixed; top: 5vh; left: 40vw;"">
            <div style=""margin:0 auto; width: 20vw; top: 8vh; font-size: 2vw""> 
            <font color=""green""> Bonus : $0 </font>
            </div>
        </div>
    ","null","","","","","","","",""
"","","","","","html-keyboard-response","52","94149","0.0-4.0-3.9","653bb4bb22879f0a935901b2","656d9e5e2de4f984cfed7d4d","656d9ee8b57e6b639363b787","597","./stimuli//pack_shapes_1/cat_2/diff_1/ex_2_1_13.png","arrowright","response","ArrowRight","13","2","1","train","true",""
"","","","","","html-keyboard-response","53","95658","0.0-4.0-4.9","653bb4bb22879f0a935901b2","656d9e5e2de4f984cfed7d4d","656d9ee8b57e6b639363b787","null","<p><font color=""green"" size=""5vw""> Correct category! </font></p>","null","feedback","","","","","","","0"
"","","","","","html-keyboard-response","54","100403","0.0-5.0","653bb4bb22879f0a935901b2","656d9e5e2de4f984cfed7d4d","656d9ee8b57e6b639363b787","4744","
            <b> <p> The practice round has finished.</p>
            <p> For the rest of the experiment you will receive a $0.05 bonus for each correct answer and lose $0.05 from your bonus for each incorrect answer!</p>
            <p> The bonus can not become less than $0. </b>
            <p> Press any key to begin the test. </p>
            "," ","intermission","","","","","","",""
"","","","","","html-keyboard-response","55","104951","0.0-6.0-0.0","653bb4bb22879f0a935901b2","656d9e5e2de4f984cfed7d4d","656d9ee8b57e6b639363b787","4547","
            
        <div style=""text-align: center; position: fixed; top: 5vh; left: 40vw;"">
            <div style=""margin:0 auto; width: 20vw; top: 8vh; font-size: 2vw""> 
            <font color=""green""> Bonus : $0 </font>
            </div>
        </div>
    
            <div> Please press any key to continue to the next image.</div>
        "," ","ITI","","","","","","",""
"","","","","","html-keyboard-response","56","105558","0.0-6.0-1.0","653bb4bb22879f0a935901b2","656d9e5e2de4f984cfed7d4d","656d9ee8b57e6b639363b787","null","
        
        <div style=""text-align: center; position: fixed; top: 5vh; left: 40vw;"">
            <div style=""margin:0 auto; width: 20vw; top: 8vh; font-size: 2vw""> 
            <font color=""green""> Bonus : $0 </font>
            </div>
        </div>
    
        <img class=""stim"" src=./stimuli//pack_shapes_1/cat_1/diff_1/ex_1_1_17.png></img>
    ","null","stimulus","","","","","","",""
"","","","","","html-keyboard-response","57","106562","0.0-6.0-2.0","653bb4bb22879f0a935901b2","656d9e5e2de4f984cfed7d4d","656d9ee8b57e6b639363b787","null","
        <div style=""text-align: center; position: fixed; top: 5vh; left: 40vw;"">
            <div style=""margin:0 auto; width: 20vw; top: 8vh; font-size: 2vw""> 
            <font color=""green""> Bonus : $0 </font>
            </div>
        </div>
    ","null","","","","","","","",""
"","","","","","html-keyboard-response","58","107128","0.0-6.0-3.0","653bb4bb22879f0a935901b2","656d9e5e2de4f984cfed7d4d","656d9ee8b57e6b639363b787","565","./stimuli//pack_shapes_1/cat_1/diff_1/ex_1_1_17.png","arrowleft","response","ArrowLeft","17","1","1","test","true",""
"","","","","","html-keyboard-response","59","108637","0.0-6.0-4.0","653bb4bb22879f0a935901b2","656d9e5e2de4f984cfed7d4d","656d9ee8b57e6b639363b787","null","<p> <font color=""green"" size=""5vw""> Correct category! </font> <br> <br> <font color=""green"" size=""8vw""> + $0.05 </font> </p>","null","feedback","","","","","","","0.05"
"","","","","","html-keyboard-response","60","109880","0.0-6.1-0.1","653bb4bb22879f0a935901b2","656d9e5e2de4f984cfed7d4d","656d9ee8b57e6b639363b787","1241","
            
        <div style=""text-align: center; position: fixed; top: 5vh; left: 40vw;"">
            <div style=""margin:0 auto; width: 20vw; top: 8vh; font-size: 2vw""> 
            <font color=""green""> Bonus : $0.05 </font>
            </div>
        </div>
    
            <div> Please press any key to continue to the next image.</div>
        "," ","ITI","","","","","","",""
"","","","","","html-keyboard-response","61","110490","0.0-6.1-1.1","653bb4bb22879f0a935901b2","656d9e5e2de4f984cfed7d4d","656d9ee8b57e6b639363b787","null","
        
        <div style=""text-align: center; position: fixed; top: 5vh; left: 40vw;"">
            <div style=""margin:0 auto; width: 20vw; top: 8vh; font-size: 2vw""> 
            <font color=""green""> Bonus : $0.05 </font>
            </div>
        </div>
    
        <img class=""stim"" src=./stimuli//pack_shapes_1/cat_2/diff_1/ex_2_1_7.png></img>
    ","null","stimulus","","","","","","",""
"","","","","","html-keyboard-response","62","111507","0.0-6.1-2.1","653bb4bb22879f0a935901b2","656d9e5e2de4f984cfed7d4d","656d9ee8b57e6b639363b787","null","
        <div style=""text-align: center; position: fixed; top: 5vh; left: 40vw;"">
            <div style=""margin:0 auto; width: 20vw; top: 8vh; font-size: 2vw""> 
            <font color=""green""> Bonus : $0.05 </font>
            </div>
        </div>
    ","null","","","","","","","",""
"","","","","","html-keyboard-response","63","111656","0.0-6.1-3.1","653bb4bb22879f0a935901b2","656d9e5e2de4f984cfed7d4d","656d9ee8b57e6b639363b787","149","./stimuli//pack_shapes_1/cat_2/diff_1/ex_2_1_7.png","arrowright","response","ArrowRight","7","2","1","test","true",""
"","","","","","html-keyboard-response","64","113160","0.0-6.1-4.1","653bb4bb22879f0a935901b2","656d9e5e2de4f984cfed7d4d","656d9ee8b57e6b639363b787","null","<p> <font color=""green"" size=""5vw""> Correct category! </font> <br> <br> <font color=""green"" size=""8vw""> + $0.05 </font> </p>","null","feedback","","","","","","","0.1"
"","","","","","html-keyboard-response","65","114906","0.0-6.2-0.2","653bb4bb22879f0a935901b2","656d9e5e2de4f984cfed7d4d","656d9ee8b57e6b639363b787","1743","
            
        <div style=""text-align: center; position: fixed; top: 5vh; left: 40vw;"">
            <div style=""margin:0 auto; width: 20vw; top: 8vh; font-size: 2vw""> 
            <font color=""green""> Bonus : $0.1 </font>
            </div>
        </div>
    
            <div> Please press any key to continue to the next image.</div>
        "," ","ITI","","","","","","",""
"","","","","","html-keyboard-response","66","115515","0.0-6.2-1.2","653bb4bb22879f0a935901b2","656d9e5e2de4f984cfed7d4d","656d9ee8b57e6b639363b787","null","
        
        <div style=""text-align: center; position: fixed; top: 5vh; left: 40vw;"">
            <div style=""margin:0 auto; width: 20vw; top: 8vh; font-size: 2vw""> 
            <font color=""green""> Bonus : $0.1 </font>
            </div>
        </div>
    
        <img class=""stim"" src=./stimuli//pack_shapes_1/cat_1/diff_1/ex_1_1_7.png></img>
    ","null","stimulus","","","","","","",""
"","","","","","html-keyboard-response","67","116525","0.0-6.2-2.2","653bb4bb22879f0a935901b2","656d9e5e2de4f984cfed7d4d","656d9ee8b57e6b639363b787","null","
        <div style=""text-align: center; position: fixed; top: 5vh; left: 40vw;"">
            <div style=""margin:0 auto; width: 20vw; top: 8vh; font-size: 2vw""> 
            <font color=""green""> Bonus : $0.1 </font>
            </div>
        </div>
    ","null","","","","","","","",""
"","","","","","html-keyboard-response","68","116973","0.0-6.2-3.2","653bb4bb22879f0a935901b2","656d9e5e2de4f984cfed7d4d","656d9ee8b57e6b639363b787","447","./stimuli//pack_shapes_1/cat_1/diff_1/ex_1_1_7.png","arrowleft","response","ArrowLeft","7","1","1","test","true",""
"","","","","","html-keyboard-response","69","118486","0.0-6.2-4.2","653bb4bb22879f0a935901b2","656d9e5e2de4f984cfed7d4d","656d9ee8b57e6b639363b787","null","<p> <font color=""green"" size=""5vw""> Correct category! </font> <br> <br> <font color=""green"" size=""8vw""> + $0.05 </font> </p>","null","feedback","","","","","","","0.15"
"","","","","","html-keyboard-response","70","120563","0.0-6.3-0.3","653bb4bb22879f0a935901b2","656d9e5e2de4f984cfed7d4d","656d9ee8b57e6b639363b787","2076","
            
        <div style=""text-align: center; position: fixed; top: 5vh; left: 40vw;"">
            <div style=""margin:0 auto; width: 20vw; top: 8vh; font-size: 2vw""> 
            <font color=""green""> Bonus : $0.15 </font>
            </div>
        </div>
    
            <div> Please press any key to continue to the next image.</div>
        "," ","ITI","","","","","","",""
"","","","","","html-keyboard-response","71","121173","0.0-6.3-1.3","653bb4bb22879f0a935901b2","656d9e5e2de4f984cfed7d4d","656d9ee8b57e6b639363b787","null","
        
        <div style=""text-align: center; position: fixed; top: 5vh; left: 40vw;"">
            <div style=""margin:0 auto; width: 20vw; top: 8vh; font-size: 2vw""> 
            <font color=""green""> Bonus : $0.15 </font>
            </div>
        </div>
    
        <img class=""stim"" src=./stimuli//pack_shapes_1/cat_1/diff_1/ex_1_1_10.png></img>
    ","null","stimulus","","","","","","",""
"","","","","","html-keyboard-response","72","122181","0.0-6.3-2.3","653bb4bb22879f0a935901b2","656d9e5e2de4f984cfed7d4d","656d9ee8b57e6b639363b787","null","
        <div style=""text-align: center; position: fixed; top: 5vh; left: 40vw;"">
            <div style=""margin:0 auto; width: 20vw; top: 8vh; font-size: 2vw""> 
            <font color=""green""> Bonus : $0.15 </font>
            </div>
        </div>
    ","null","","","","","","","",""
"","","","","","html-keyboard-response","73","122828","0.0-6.3-3.3","653bb4bb22879f0a935901b2","656d9e5e2de4f984cfed7d4d","656d9ee8b57e6b639363b787","647","./stimuli//pack_shapes_1/cat_1/diff_1/ex_1_1_10.png","arrowleft","response","ArrowLeft","10","1","1","test","true",""
"","","","","","html-keyboard-response","74","124332","0.0-6.3-4.3","653bb4bb22879f0a935901b2","656d9e5e2de4f984cfed7d4d","656d9ee8b57e6b639363b787","null","<p> <font color=""green"" size=""5vw""> Correct category! </font> <br> <br> <font color=""green"" size=""8vw""> + $0.05 </font> </p>","null","feedback","","","","","","","0.2"
"","","","","","html-keyboard-response","75","125419","0.0-6.4-0.4","653bb4bb22879f0a935901b2","656d9e5e2de4f984cfed7d4d","656d9ee8b57e6b639363b787","1086","
            
        <div style=""text-align: center; position: fixed; top: 5vh; left: 40vw;"">
            <div style=""margin:0 auto; width: 20vw; top: 8vh; font-size: 2vw""> 
            <font color=""green""> Bonus : $0.2 </font>
            </div>
        </div>
    
            <div> Please press any key to continue to the next image.</div>
        "," ","ITI","","","","","","",""
"","","","","","html-keyboard-response","76","126029","0.0-6.4-1.4","653bb4bb22879f0a935901b2","656d9e5e2de4f984cfed7d4d","656d9ee8b57e6b639363b787","null","
        
        <div style=""text-align: center; position: fixed; top: 5vh; left: 40vw;"">
            <div style=""margin:0 auto; width: 20vw; top: 8vh; font-size: 2vw""> 
            <font color=""green""> Bonus : $0.2 </font>
            </div>
        </div>
    
        <img class=""stim"" src=./stimuli//pack_shapes_1/cat_2/diff_1/ex_2_1_1.png></img>
    ","null","stimulus","","","","","","",""
"","","","","","html-keyboard-response","77","127039","0.0-6.4-2.4","653bb4bb22879f0a935901b2","656d9e5e2de4f984cfed7d4d","656d9ee8b57e6b639363b787","null","
        <div style=""text-align: center; position: fixed; top: 5vh; left: 40vw;"">
            <div style=""margin:0 auto; width: 20vw; top: 8vh; font-size: 2vw""> 
            <font color=""green""> Bonus : $0.2 </font>
            </div>
        </div>
    ","null","","","","","","","",""
"","","","","","html-keyboard-response","78","127595","0.0-6.4-3.4","653bb4bb22879f0a935901b2","656d9e5e2de4f984cfed7d4d","656d9ee8b57e6b639363b787","555","./stimuli//pack_shapes_1/cat_2/diff_1/ex_2_1_1.png","arrowright","response","ArrowRight","1","2","1","test","true",""
"","","","","","html-keyboard-response","79","129099","0.0-6.4-4.4","653bb4bb22879f0a935901b2","656d9e5e2de4f984cfed7d4d","656d9ee8b57e6b639363b787","null","<p> <font color=""green"" size=""5vw""> Correct category! </font> <br> <br> <font color=""green"" size=""8vw""> + $0.05 </font> </p>","null","feedback","","","","","","","0.25"
"","","","","","html-keyboard-response","80","130088","0.0-6.5-0.5","653bb4bb22879f0a935901b2","656d9e5e2de4f984cfed7d4d","656d9ee8b57e6b639363b787","988","
            
        <div style=""text-align: center; position: fixed; top: 5vh; left: 40vw;"">
            <div style=""margin:0 auto; width: 20vw; top: 8vh; font-size: 2vw""> 
            <font color=""green""> Bonus : $0.25 </font>
            </div>
        </div>
    
            <div> Please press any key to continue to the next image.</div>
        "," ","ITI","","","","","","",""
"","","","","","html-keyboard-response","81","130704","0.0-6.5-1.5","653bb4bb22879f0a935901b2","656d9e5e2de4f984cfed7d4d","656d9ee8b57e6b639363b787","null","
        
        <div style=""text-align: center; position: fixed; top: 5vh; left: 40vw;"">
            <div style=""margin:0 auto; width: 20vw; top: 8vh; font-size: 2vw""> 
            <font color=""green""> Bonus : $0.25 </font>
            </div>
        </div>
    
        <img class=""stim"" src=./stimuli//pack_shapes_1/cat_1/diff_2/ex_1_2_10.png></img>
    ","null","stimulus","","","","","","",""
"","","","","","html-keyboard-response","82","131715","0.0-6.5-2.5","653bb4bb22879f0a935901b2","656d9e5e2de4f984cfed7d4d","656d9ee8b57e6b639363b787","null","
        <div style=""text-align: center; position: fixed; top: 5vh; left: 40vw;"">
            <div style=""margin:0 auto; width: 20vw; top: 8vh; font-size: 2vw""> 
            <font color=""green""> Bonus : $0.25 </font>
            </div>
        </div>
    ","null","","","","","","","",""
"","","","","","html-keyboard-response","83","132215","0.0-6.5-3.5","653bb4bb22879f0a935901b2","656d9e5e2de4f984cfed7d4d","656d9ee8b57e6b639363b787","500","./stimuli//pack_shapes_1/cat_1/diff_2/ex_1_2_10.png","arrowleft","response","ArrowLeft","10","1","2","test","true",""
"","","","","","html-keyboard-response","84","133725","0.0-6.5-4.5","653bb4bb22879f0a935901b2","656d9e5e2de4f984cfed7d4d","656d9ee8b57e6b639363b787","null","<p> <font color=""green"" size=""5vw""> Correct category! </font> <br> <br> <font color=""green"" size=""8vw""> + $0.05 </font> </p>","null","feedback","","","","","","","0.3"
"","","","","","html-keyboard-response","85","134674","0.0-6.6-0.6","653bb4bb22879f0a935901b2","656d9e5e2de4f984cfed7d4d","656d9ee8b57e6b639363b787","948","
            
        <div style=""text-align: center; position: fixed; top: 5vh; left: 40vw;"">
            <div style=""margin:0 auto; width: 20vw; top: 8vh; font-size: 2vw""> 
            <font color=""green""> Bonus : $0.3 </font>
            </div>
        </div>
    
            <div> Please press any key to continue to the next image.</div>
        "," ","ITI","","","","","","",""
"","","","","","html-keyboard-response","86","135281","0.0-6.6-1.6","653bb4bb22879f0a935901b2","656d9e5e2de4f984cfed7d4d","656d9ee8b57e6b639363b787","null","
        
        <div style=""text-align: center; position: fixed; top: 5vh; left: 40vw;"">
            <div style=""margin:0 auto; width: 20vw; top: 8vh; font-size: 2vw""> 
            <font color=""green""> Bonus : $0.3 </font>
            </div>
        </div>
    
        <img class=""stim"" src=./stimuli//pack_shapes_1/cat_1/diff_2/ex_1_2_13.png></img>
    ","null","stimulus","","","","","","",""
"","","","","","html-keyboard-response","87","136290","0.0-6.6-2.6","653bb4bb22879f0a935901b2","656d9e5e2de4f984cfed7d4d","656d9ee8b57e6b639363b787","null","
        <div style=""text-align: center; position: fixed; top: 5vh; left: 40vw;"">
            <div style=""margin:0 auto; width: 20vw; top: 8vh; font-size: 2vw""> 
            <font color=""green""> Bonus : $0.3 </font>
            </div>
        </div>
    ","null","","","","","","","",""
"","","","","","html-keyboard-response","88","136840","0.0-6.6-3.6","653bb4bb22879f0a935901b2","656d9e5e2de4f984cfed7d4d","656d9ee8b57e6b639363b787","549","./stimuli//pack_shapes_1/cat_1/diff_2/ex_1_2_13.png","arrowleft","response","ArrowLeft","13","1","2","test","true",""
"","","","","","html-keyboard-response","89","138345","0.0-6.6-4.6","653bb4bb22879f0a935901b2","656d9e5e2de4f984cfed7d4d","656d9ee8b57e6b639363b787","null","<p> <font color=""green"" size=""5vw""> Correct category! </font> <br> <br> <font color=""green"" size=""8vw""> + $0.05 </font> </p>","null","feedback","","","","","","","0.35"
"","","","","","html-keyboard-response","90","139373","0.0-6.7-0.7","653bb4bb22879f0a935901b2","656d9e5e2de4f984cfed7d4d","656d9ee8b57e6b639363b787","1027","
            
        <div style=""text-align: center; position: fixed; top: 5vh; left: 40vw;"">
            <div style=""margin:0 auto; width: 20vw; top: 8vh; font-size: 2vw""> 
            <font color=""green""> Bonus : $0.35 </font>
            </div>
        </div>
    
            <div> Please press any key to continue to the next image.</div>
        "," ","ITI","","","","","","",""
"","","","","","html-keyboard-response","91","139983","0.0-6.7-1.7","653bb4bb22879f0a935901b2","656d9e5e2de4f984cfed7d4d","656d9ee8b57e6b639363b787","null","
        
        <div style=""text-align: center; position: fixed; top: 5vh; left: 40vw;"">
            <div style=""margin:0 auto; width: 20vw; top: 8vh; font-size: 2vw""> 
            <font color=""green""> Bonus : $0.35 </font>
            </div>
        </div>
    
        <img class=""stim"" src=./stimuli//pack_shapes_1/cat_2/diff_2/ex_2_2_16.png></img>
    ","null","stimulus","","","","","","",""
"","","","","","html-keyboard-response","92","140996","0.0-6.7-2.7","653bb4bb22879f0a935901b2","656d9e5e2de4f984cfed7d4d","656d9ee8b57e6b639363b787","null","
        <div style=""text-align: center; position: fixed; top: 5vh; left: 40vw;"">
            <div style=""margin:0 auto; width: 20vw; top: 8vh; font-size: 2vw""> 
            <font color=""green""> Bonus : $0.35 </font>
            </div>
        </div>
    ","null","","","","","","","",""
"","","","","","html-keyboard-response","93","141500","0.0-6.7-3.7","653bb4bb22879f0a935901b2","656d9e5e2de4f984cfed7d4d","656d9ee8b57e6b639363b787","503","./stimuli//pack_shapes_1/cat_2/diff_2/ex_2_2_16.png","arrowright","response","ArrowRight","16","2","2","test","true",""
"","","","","","html-keyboard-response","94","143008","0.0-6.7-4.7","653bb4bb22879f0a935901b2","656d9e5e2de4f984cfed7d4d","656d9ee8b57e6b639363b787","null","<p> <font color=""green"" size=""5vw""> Correct category! </font> <br> <br> <font color=""green"" size=""8vw""> + $0.05 </font> </p>","null","feedback","","","","","","","0.4"
"","","","","","html-keyboard-response","95","143696","0.0-6.8-0.8","653bb4bb22879f0a935901b2","656d9e5e2de4f984cfed7d4d","656d9ee8b57e6b639363b787","687","
            
        <div style=""text-align: center; position: fixed; top: 5vh; left: 40vw;"">
            <div style=""margin:0 auto; width: 20vw; top: 8vh; font-size: 2vw""> 
            <font color=""green""> Bonus : $0.4 </font>
            </div>
        </div>
    
            <div> Please press any key to continue to the next image.</div>
        "," ","ITI","","","","","","",""
"","","","","","html-keyboard-response","96","144304","0.0-6.8-1.8","653bb4bb22879f0a935901b2","656d9e5e2de4f984cfed7d4d","656d9ee8b57e6b639363b787","null","
        
        <div style=""text-align: center; position: fixed; top: 5vh; left: 40vw;"">
            <div style=""margin:0 auto; width: 20vw; top: 8vh; font-size: 2vw""> 
            <font color=""green""> Bonus : $0.4 </font>
            </div>
        </div>
    
        <img class=""stim"" src=./stimuli//pack_shapes_1/cat_2/diff_2/ex_2_2_12.png></img>
    ","null","stimulus","","","","","","",""
"","","","","","html-keyboard-response","97","145314","0.0-6.8-2.8","653bb4bb22879f0a935901b2","656d9e5e2de4f984cfed7d4d","656d9ee8b57e6b639363b787","null","
        <div style=""text-align: center; position: fixed; top: 5vh; left: 40vw;"">
            <div style=""margin:0 auto; width: 20vw; top: 8vh; font-size: 2vw""> 
            <font color=""green""> Bonus : $0.4 </font>
            </div>
        </div>
    ","null","","","","","","","",""
"","","","","","html-keyboard-response","98","145870","0.0-6.8-3.8","653bb4bb22879f0a935901b2","656d9e5e2de4f984cfed7d4d","656d9ee8b57e6b639363b787","555","./stimuli//pack_shapes_1/cat_2/diff_2/ex_2_2_12.png","arrowright","response","ArrowRight","12","2","2","test","true",""
"","","","","","html-keyboard-response","99","147386","0.0-6.8-4.8","653bb4bb22879f0a935901b2","656d9e5e2de4f984cfed7d4d","656d9ee8b57e6b639363b787","null","<p> <font color=""green"" size=""5vw""> Correct category! </font> <br> <br> <font color=""green"" size=""8vw""> + $0.05 </font> </p>","null","feedback","","","","","","","0.45"
"","","","","","html-keyboard-response","100","149136","0.0-6.9-0.9","653bb4bb22879f0a935901b2","656d9e5e2de4f984cfed7d4d","656d9ee8b57e6b639363b787","1749","
            
        <div style=""text-align: center; position: fixed; top: 5vh; left: 40vw;"">
            <div style=""margin:0 auto; width: 20vw; top: 8vh; font-size: 2vw""> 
            <font color=""green""> Bonus : $0.45 </font>
            </div>
        </div>
    
            <div> Please press any key to continue to the next image.</div>
        "," ","ITI","","","","","","",""
"","","","","","html-keyboard-response","101","149740","0.0-6.9-1.9","653bb4bb22879f0a935901b2","656d9e5e2de4f984cfed7d4d","656d9ee8b57e6b639363b787","null","
        
        <div style=""text-align: center; position: fixed; top: 5vh; left: 40vw;"">
            <div style=""margin:0 auto; width: 20vw; top: 8vh; font-size: 2vw""> 
            <font color=""green""> Bonus : $0.45 </font>
            </div>
        </div>
    
        <img class=""stim"" src=./stimuli//pack_shapes_1/cat_1/diff_2/ex_1_2_17.png></img>
    ","null","stimulus","","","","","","",""
"","","","","","html-keyboard-response","102","150755","0.0-6.9-2.9","653bb4bb22879f0a935901b2","656d9e5e2de4f984cfed7d4d","656d9ee8b57e6b639363b787","null","
        <div style=""text-align: center; position: fixed; top: 5vh; left: 40vw;"">
            <div style=""margin:0 auto; width: 20vw; top: 8vh; font-size: 2vw""> 
            <font color=""green""> Bonus : $0.45 </font>
            </div>
        </div>
    ","null","","","","","","","",""
"","","","","","html-keyboard-response","103","151165","0.0-6.9-3.9","653bb4bb22879f0a935901b2","656d9e5e2de4f984cfed7d4d","656d9ee8b57e6b639363b787","409","./stimuli//pack_shapes_1/cat_1/diff_2/ex_1_2_17.png","arrowleft","response","ArrowLeft","17","1","2","test","true",""
"","","","","","html-keyboard-response","104","152676","0.0-6.9-4.9","653bb4bb22879f0a935901b2","656d9e5e2de4f984cfed7d4d","656d9ee8b57e6b639363b787","null","<p> <font color=""green"" size=""5vw""> Correct category! </font> <br> <br> <font color=""green"" size=""8vw""> + $0.05 </font> </p>","null","feedback","","","","","","","0.5"
"","","","","","html-keyboard-response","105","153353","0.0-6.10-0.10","653bb4bb22879f0a935901b2","656d9e5e2de4f984cfed7d4d","656d9ee8b57e6b639363b787","676","
            
        <div style=""text-align: center; position: fixed; top: 5vh; left: 40vw;"">
            <div style=""margin:0 auto; width: 20vw; top: 8vh; font-size: 2vw""> 
            <font color=""green""> Bonus : $0.5 </font>
            </div>
        </div>
    
            <div> Please press any key to continue to the next image.</div>
        "," ","ITI","","","","","","",""
"","","","","","html-keyboard-response","106","153969","0.0-6.10-1.10","653bb4bb22879f0a935901b2","656d9e5e2de4f984cfed7d4d","656d9ee8b57e6b639363b787","null","
        
        <div style=""text-align: center; position: fixed; top: 5vh; left: 40vw;"">
            <div style=""margin:0 auto; width: 20vw; top: 8vh; font-size: 2vw""> 
            <font color=""green""> Bonus : $0.5 </font>
            </div>
        </div>
    
        <img class=""stim"" src=./stimuli//pack_shapes_1/cat_1/diff_3/ex_1_3_7.png></img>
    ","null","stimulus","","","","","","",""
"","","","","","html-keyboard-response","107","154986","0.0-6.10-2.10","653bb4bb22879f0a935901b2","656d9e5e2de4f984cfed7d4d","656d9ee8b57e6b639363b787","null","
        <div style=""text-align: center; position: fixed; top: 5vh; left: 40vw;"">
            <div style=""margin:0 auto; width: 20vw; top: 8vh; font-size: 2vw""> 
            <font color=""green""> Bonus : $0.5 </font>
            </div>
        </div>
    ","null","","","","","","","",""
"","","","","","html-keyboard-response","108","155440","0.0-6.10-3.10","653bb4bb22879f0a935901b2","656d9e5e2de4f984cfed7d4d","656d9ee8b57e6b639363b787","454","./stimuli//pack_shapes_1/cat_1/diff_3/ex_1_3_7.png","arrowleft","response","ArrowLeft","7","1","3","test","true",""
"","","","","","html-keyboard-response","109","156945","0.0-6.10-4.10","653bb4bb22879f0a935901b2","656d9e5e2de4f984cfed7d4d","656d9ee8b57e6b639363b787","null","<p> <font color=""green"" size=""5vw""> Correct category! </font> <br> <br> <font color=""green"" size=""8vw""> + $0.05 </font> </p>","null","feedback","","","","","","","0.55"
"","","","","","html-keyboard-response","110","157548","0.0-6.11-0.11","653bb4bb22879f0a935901b2","656d9e5e2de4f984cfed7d4d","656d9ee8b57e6b639363b787","602","
            
        <div style=""text-align: center; position: fixed; top: 5vh; left: 40vw;"">
            <div style=""margin:0 auto; width: 20vw; top: 8vh; font-size: 2vw""> 
            <font color=""green""> Bonus : $0.55 </font>
            </div>
        </div>
    
            <div> Please press any key to continue to the next image.</div>
        "," ","ITI","","","","","","",""
"","","","","","html-keyboard-response","111","158159","0.0-6.11-1.11","653bb4bb22879f0a935901b2","656d9e5e2de4f984cfed7d4d","656d9ee8b57e6b639363b787","null","
        
        <div style=""text-align: center; position: fixed; top: 5vh; left: 40vw;"">
            <div style=""margin:0 auto; width: 20vw; top: 8vh; font-size: 2vw""> 
            <font color=""green""> Bonus : $0.55 </font>
            </div>
        </div>
    
        <img class=""stim"" src=./stimuli//pack_shapes_1/cat_1/diff_3/ex_1_3_8.png></img>
    ","null","stimulus","","","","","","",""
"","","","","","html-keyboard-response","112","159172","0.0-6.11-2.11","653bb4bb22879f0a935901b2","656d9e5e2de4f984cfed7d4d","656d9ee8b57e6b639363b787","null","
        <div style=""text-align: center; position: fixed; top: 5vh; left: 40vw;"">
            <div style=""margin:0 auto; width: 20vw; top: 8vh; font-size: 2vw""> 
            <font color=""green""> Bonus : $0.55 </font>
            </div>
        </div>
    ","null","","","","","","","",""
"","","","","","html-keyboard-response","113","159541","0.0-6.11-3.11","653bb4bb22879f0a935901b2","656d9e5e2de4f984cfed7d4d","656d9ee8b57e6b639363b787","368","./stimuli//pack_shapes_1/cat_1/diff_3/ex_1_3_8.png","arrowleft","response","ArrowLeft","8","1","3","test","true",""
"","","","","","html-keyboard-response","114","161042","0.0-6.11-4.11","653bb4bb22879f0a935901b2","656d9e5e2de4f984cfed7d4d","656d9ee8b57e6b639363b787","null","<p> <font color=""green"" size=""5vw""> Correct category! </font> <br> <br> <font color=""green"" size=""8vw""> + $0.05 </font> </p>","null","feedback","","","","","","","0.6"
"","","","","","html-keyboard-response","115","164643","0.0-6.12-0.12","653bb4bb22879f0a935901b2","656d9e5e2de4f984cfed7d4d","656d9ee8b57e6b639363b787","3601","
            
        <div style=""text-align: center; position: fixed; top: 5vh; left: 40vw;"">
            <div style=""margin:0 auto; width: 20vw; top: 8vh; font-size: 2vw""> 
            <font color=""green""> Bonus : $0.6 </font>
            </div>
        </div>
    
            <div> Please press any key to continue to the next image.</div>
        "," ","ITI","","","","","","",""
"","","","","","html-keyboard-response","116","165258","0.0-6.12-1.12","653bb4bb22879f0a935901b2","656d9e5e2de4f984cfed7d4d","656d9ee8b57e6b639363b787","null","
        
        <div style=""text-align: center; position: fixed; top: 5vh; left: 40vw;"">
            <div style=""margin:0 auto; width: 20vw; top: 8vh; font-size: 2vw""> 
            <font color=""green""> Bonus : $0.6 </font>
            </div>
        </div>
    
        <img class=""stim"" src=./stimuli//pack_shapes_1/cat_2/diff_3/ex_2_3_11.png></img>
    ","null","stimulus","","","","","","",""
"","","","","","html-keyboard-response","117","166269","0.0-6.12-2.12","653bb4bb22879f0a935901b2","656d9e5e2de4f984cfed7d4d","656d9ee8b57e6b639363b787","null","
        <div style=""text-align: center; position: fixed; top: 5vh; left: 40vw;"">
            <div style=""margin:0 auto; width: 20vw; top: 8vh; font-size: 2vw""> 
            <font color=""green""> Bonus : $0.6 </font>
            </div>
        </div>
    ","null","","","","","","","",""
"","","","","","html-keyboard-response","118","167006","0.0-6.12-3.12","653bb4bb22879f0a935901b2","656d9e5e2de4f984cfed7d4d","656d9ee8b57e6b639363b787","878","./stimuli//pack_shapes_1/cat_2/diff_3/ex_2_3_11.png","arrowright","response","ArrowRight","11","2","3","test","true",""
"","","","","","html-keyboard-response","119","168522","0.0-6.12-4.12","653bb4bb22879f0a935901b2","656d9e5e2de4f984cfed7d4d","656d9ee8b57e6b639363b787","null","<p> <font color=""green"" size=""5vw""> Correct category! </font> <br> <br> <font color=""green"" size=""8vw""> + $0.05 </font> </p>","null","feedback","","","","","","","0.65"
"","","","","","html-keyboard-response","120","171491","0.0-6.13-0.13","653bb4bb22879f0a935901b2","656d9e5e2de4f984cfed7d4d","656d9ee8b57e6b639363b787","2968","
            
        <div style=""text-align: center; position: fixed; top: 5vh; left: 40vw;"">
            <div style=""margin:0 auto; width: 20vw; top: 8vh; font-size: 2vw""> 
            <font color=""green""> Bonus : $0.65 </font>
            </div>
        </div>
    
            <div> Please press any key to continue to the next image.</div>
        "," ","ITI","","","","","","",""
"","","","","","html-keyboard-response","121","172102","0.0-6.13-1.13","653bb4bb22879f0a935901b2","656d9e5e2de4f984cfed7d4d","656d9ee8b57e6b639363b787","null","
        
        <div style=""text-align: center; position: fixed; top: 5vh; left: 40vw;"">
            <div style=""margin:0 auto; width: 20vw; top: 8vh; font-size: 2vw""> 
            <font color=""green""> Bonus : $0.65 </font>
            </div>
        </div>
    
        <img class=""stim"" src=./stimuli//pack_shapes_1/cat_1/diff_3/ex_1_3_12.png></img>
    ","null","stimulus","","","","","","",""
"","","","","","html-keyboard-response","122","173109","0.0-6.13-2.13","653bb4bb22879f0a935901b2","656d9e5e2de4f984cfed7d4d","656d9ee8b57e6b639363b787","null","
        <div style=""text-align: center; position: fixed; top: 5vh; left: 40vw;"">
            <div style=""margin:0 auto; width: 20vw; top: 8vh; font-size: 2vw""> 
            <font color=""green""> Bonus : $0.65 </font>
            </div>
        </div>
    ","null","","","","","","","",""
"","","","","","html-keyboard-response","123","173749","0.0-6.13-3.13","653bb4bb22879f0a935901b2","656d9e5e2de4f984cfed7d4d","656d9ee8b57e6b639363b787","639","./stimuli//pack_shapes_1/cat_1/diff_3/ex_1_3_12.png","arrowleft","response","ArrowLeft","12","1","3","test","true",""
"","","","","","html-keyboard-response","124","175262","0.0-6.13-4.13","653bb4bb22879f0a935901b2","656d9e5e2de4f984cfed7d4d","656d9ee8b57e6b639363b787","null","<p> <font color=""green"" size=""5vw""> Correct category! </font> <br> <br> <font color=""green"" size=""8vw""> + $0.05 </font> </p>","null","feedback","","","","","","","0.7"
"","","","","","html-keyboard-response","125","175947","0.0-6.14-0.14","653bb4bb22879f0a935901b2","656d9e5e2de4f984cfed7d4d","656d9ee8b57e6b639363b787","684","
            
        <div style=""text-align: center; position: fixed; top: 5vh; left: 40vw;"">
            <div style=""margin:0 auto; width: 20vw; top: 8vh; font-size: 2vw""> 
            <font color=""green""> Bonus : $0.7 </font>
            </div>
        </div>
    
            <div> Please press any key to continue to the next image.</div>
        "," ","ITI","","","","","","",""
"","","","","","html-keyboard-response","126","176557","0.0-6.14-1.14","653bb4bb22879f0a935901b2","656d9e5e2de4f984cfed7d4d","656d9ee8b57e6b639363b787","null","
        
        <div style=""text-align: center; position: fixed; top: 5vh; left: 40vw;"">
            <div style=""margin:0 auto; width: 20vw; top: 8vh; font-size: 2vw""> 
            <font color=""green""> Bonus : $0.7 </font>
            </div>
        </div>
    
        <img class=""stim"" src=./stimuli//pack_shapes_1/cat_2/diff_3/ex_2_3_17.png></img>
    ","null","stimulus","","","","","","",""
"","","","","","html-keyboard-response","127","177573","0.0-6.14-2.14","653bb4bb22879f0a935901b2","656d9e5e2de4f984cfed7d4d","656d9ee8b57e6b639363b787","null","
        <div style=""text-align: center; position: fixed; top: 5vh; left: 40vw;"">
            <div style=""margin:0 auto; width: 20vw; top: 8vh; font-size: 2vw""> 
            <font color=""green""> Bonus : $0.7 </font>
            </div>
        </div>
    ","null","","","","","","","",""
"","","","","","html-keyboard-response","128","177991","0.0-6.14-3.14","653bb4bb22879f0a935901b2","656d9e5e2de4f984cfed7d4d","656d9ee8b57e6b639363b787","417","./stimuli//pack_shapes_1/cat_2/diff_3/ex_2_3_17.png","arrowright","response","ArrowRight","17","2","3","test","true",""
"","","","","","html-keyboard-response","129","179502","0.0-6.14-4.14","653bb4bb22879f0a935901b2","656d9e5e2de4f984cfed7d4d","656d9ee8b57e6b639363b787","null","<p> <font color=""green"" size=""5vw""> Correct category! </font> <br> <br> <font color=""green"" size=""8vw""> + $0.05 </font> </p>","null","feedback","","","","","","","0.75"
"","","","","","html-keyboard-response","130","182762","0.0-6.15-0.15","653bb4bb22879f0a935901b2","656d9e5e2de4f984cfed7d4d","656d9ee8b57e6b639363b787","3259","
            
        <div style=""text-align: center; position: fixed; top: 5vh; left: 40vw;"">
            <div style=""margin:0 auto; width: 20vw; top: 8vh; font-size: 2vw""> 
            <font color=""green""> Bonus : $0.75 </font>
            </div>
        </div>
    
            <div> Please press any key to continue to the next image.</div>
        "," ","ITI","","","","","","",""
"","","","","","html-keyboard-response","131","183366","0.0-6.15-1.15","653bb4bb22879f0a935901b2","656d9e5e2de4f984cfed7d4d","656d9ee8b57e6b639363b787","null","
        
        <div style=""text-align: center; position: fixed; top: 5vh; left: 40vw;"">
            <div style=""margin:0 auto; width: 20vw; top: 8vh; font-size: 2vw""> 
            <font color=""green""> Bonus : $0.75 </font>
            </div>
        </div>
    
        <img class=""stim"" src=./stimuli//pack_shapes_1/cat_1/diff_4/ex_1_4_15.png></img>
    ","null","stimulus","","","","","","",""
"","","","","","html-keyboard-response","132","184379","0.0-6.15-2.15","653bb4bb22879f0a935901b2","656d9e5e2de4f984cfed7d4d","656d9ee8b57e6b639363b787","null","
        <div style=""text-align: center; position: fixed; top: 5vh; left: 40vw;"">
            <div style=""margin:0 auto; width: 20vw; top: 8vh; font-size: 2vw""> 
            <font color=""green""> Bonus : $0.75 </font>
            </div>
        </div>
    ","null","","","","","","","",""
"","","","","","html-keyboard-response","133","184949","0.0-6.15-3.15","653bb4bb22879f0a935901b2","656d9e5e2de4f984cfed7d4d","656d9ee8b57e6b639363b787","569","./stimuli//pack_shapes_1/cat_1/diff_4/ex_1_4_15.png","arrowleft","response","ArrowLeft","15","1","4","test","true",""
"","","","","","html-keyboard-response","134","186453","0.0-6.15-4.15","653bb4bb22879f0a935901b2","656d9e5e2de4f984cfed7d4d","656d9ee8b57e6b639363b787","null","<p> <font color=""green"" size=""5vw""> Correct category! </font> <br> <br> <font color=""green"" size=""8vw""> + $0.05 </font> </p>","null","feedback","","","","","","","0.8"
"","","","","","html-keyboard-response","135","187407","0.0-6.16-0.16","653bb4bb22879f0a935901b2","656d9e5e2de4f984cfed7d4d","656d9ee8b57e6b639363b787","953","
            
        <div style=""text-align: center; position: fixed; top: 5vh; left: 40vw;"">
            <div style=""margin:0 auto; width: 20vw; top: 8vh; font-size: 2vw""> 
            <font color=""green""> Bonus : $0.8 </font>
            </div>
        </div>
    
            <div> Please press any key to continue to the next image.</div>
        "," ","ITI","","","","","","",""
"","","","","","html-keyboard-response","136","188015","0.0-6.16-1.16","653bb4bb22879f0a935901b2","656d9e5e2de4f984cfed7d4d","656d9ee8b57e6b639363b787","null","
        
        <div style=""text-align: center; position: fixed; top: 5vh; left: 40vw;"">
            <div style=""margin:0 auto; width: 20vw; top: 8vh; font-size: 2vw""> 
            <font color=""green""> Bonus : $0.8 </font>
            </div>
        </div>
    
        <img class=""stim"" src=./stimuli//pack_shapes_1/cat_2/diff_4/ex_2_4_7.png></img>
    ","null","stimulus","","","","","","",""
"","","","","","html-keyboard-response","137","189028","0.0-6.16-2.16","653bb4bb22879f0a935901b2","656d9e5e2de4f984cfed7d4d","656d9ee8b57e6b639363b787","null","
        <div style=""text-align: center; position: fixed; top: 5vh; left: 40vw;"">
            <div style=""margin:0 auto; width: 20vw; top: 8vh; font-size: 2vw""> 
            <font color=""green""> Bonus : $0.8 </font>
            </div>
        </div>
    ","null","","","","","","","",""
"","","","","","html-keyboard-response","138","189612","0.0-6.16-3.16","653bb4bb22879f0a935901b2","656d9e5e2de4f984cfed7d4d","656d9ee8b57e6b639363b787","583","./stimuli//pack_shapes_1/cat_2/diff_4/ex_2_4_7.png","arrowright","response","ArrowRight","7","2","4","test","true",""
"","","","","","html-keyboard-response","139","191114","0.0-6.16-4.16","653bb4bb22879f0a935901b2","656d9e5e2de4f984cfed7d4d","656d9ee8b57e6b639363b787","null","<p> <font color=""green"" size=""5vw""> Correct category! </font> <br> <br> <font color=""green"" size=""8vw""> + $0.05 </font> </p>","null","feedback","","","","","","","0.85"
"","","","","","html-keyboard-response","140","192023","0.0-6.17-0.17","653bb4bb22879f0a935901b2","656d9e5e2de4f984cfed7d4d","656d9ee8b57e6b639363b787","908","
            
        <div style=""text-align: center; position: fixed; top: 5vh; left: 40vw;"">
            <div style=""margin:0 auto; width: 20vw; top: 8vh; font-size: 2vw""> 
            <font color=""green""> Bonus : $0.85 </font>
            </div>
        </div>
    
            <div> Please press any key to continue to the next image.</div>
        "," ","ITI","","","","","","",""
"","","","","","html-keyboard-response","141","192638","0.0-6.17-1.17","653bb4bb22879f0a935901b2","656d9e5e2de4f984cfed7d4d","656d9ee8b57e6b639363b787","null","
        
        <div style=""text-align: center; position: fixed; top: 5vh; left: 40vw;"">
            <div style=""margin:0 auto; width: 20vw; top: 8vh; font-size: 2vw""> 
            <font color=""green""> Bonus : $0.85 </font>
            </div>
        </div>
    
        <img class=""stim"" src=./stimuli//pack_shapes_1/cat_1/diff_4/ex_1_4_8.png></img>
    ","null","stimulus","","","","","","",""
"","","","","","html-keyboard-response","142","193652","0.0-6.17-2.17","653bb4bb22879f0a935901b2","656d9e5e2de4f984cfed7d4d","656d9ee8b57e6b639363b787","null","
        <div style=""text-align: center; position: fixed; top: 5vh; left: 40vw;"">
            <div style=""margin:0 auto; width: 20vw; top: 8vh; font-size: 2vw""> 
            <font color=""green""> Bonus : $0.85 </font>
            </div>
        </div>
    ","null","","","","","","","",""
"","","","","","html-keyboard-response","143","194641","0.0-6.17-3.17","653bb4bb22879f0a935901b2","656d9e5e2de4f984cfed7d4d","656d9ee8b57e6b639363b787","988","./stimuli//pack_shapes_1/cat_1/diff_4/ex_1_4_8.png","arrowright","response","ArrowLeft","8","1","4","test","false",""
"","","","","","html-keyboard-response","144","196154","0.0-6.17-4.17","653bb4bb22879f0a935901b2","656d9e5e2de4f984cfed7d4d","656d9ee8b57e6b639363b787","null","<p> <font color=""red"" size=""5vw""> Wrong category! </font> <br> <br> <font color=""red"" size=""8vw""> - $0.05 </font> </p>","null","feedback","","","","","","","0.8"
"","","","","","html-keyboard-response","145","196722","0.0-6.18-0.18","653bb4bb22879f0a935901b2","656d9e5e2de4f984cfed7d4d","656d9ee8b57e6b639363b787","567","
            
        <div style=""text-align: center; position: fixed; top: 5vh; left: 40vw;"">
            <div style=""margin:0 auto; width: 20vw; top: 8vh; font-size: 2vw""> 
            <font color=""green""> Bonus : $0.8 </font>
            </div>
        </div>
    
            <div> Please press any key to continue to the next image.</div>
        "," ","ITI","","","","","","",""
"","","","","","html-keyboard-response","146","197334","0.0-6.18-1.18","653bb4bb22879f0a935901b2","656d9e5e2de4f984cfed7d4d","656d9ee8b57e6b639363b787","null","
        
        <div style=""text-align: center; position: fixed; top: 5vh; left: 40vw;"">
            <div style=""margin:0 auto; width: 20vw; top: 8vh; font-size: 2vw""> 
            <font color=""green""> Bonus : $0.8 </font>
            </div>
        </div>
    
        <img class=""stim"" src=./stimuli//pack_shapes_1/cat_1/diff_4/ex_1_4_16.png></img>
    ","null","stimulus","","","","","","",""
"","","","","","html-keyboard-response","147","198340","0.0-6.18-2.18","653bb4bb22879f0a935901b2","656d9e5e2de4f984cfed7d4d","656d9ee8b57e6b639363b787","null","
        <div style=""text-align: center; position: fixed; top: 5vh; left: 40vw;"">
            <div style=""margin:0 auto; width: 20vw; top: 8vh; font-size: 2vw""> 
            <font color=""green""> Bonus : $0.8 </font>
            </div>
        </div>
    ","null","","","","","","","",""
"","","","","","html-keyboard-response","148","198695","0.0-6.18-3.18","653bb4bb22879f0a935901b2","656d9e5e2de4f984cfed7d4d","656d9ee8b57e6b639363b787","354","./stimuli//pack_shapes_1/cat_1/diff_4/ex_1_4_16.png","arrowright","response","ArrowLeft","16","1","4","test","false",""
"","","","","","html-keyboard-response","149","200210","0.0-6.18-4.18","653bb4bb22879f0a935901b2","656d9e5e2de4f984cfed7d4d","656d9ee8b57e6b639363b787","null","<p> <font color=""red"" size=""5vw""> Wrong category! </font> <br> <br> <font color=""red"" size=""8vw""> - $0.05 </font> </p>","null","feedback","","","","","","","0.75"
"","","","","","html-keyboard-response","150","200712","0.0-6.19-0.19","653bb4bb22879f0a935901b2","656d9e5e2de4f984cfed7d4d","656d9ee8b57e6b639363b787","502","
            
        <div style=""text-align: center; position: fixed; top: 5vh; left: 40vw;"">
            <div style=""margin:0 auto; width: 20vw; top: 8vh; font-size: 2vw""> 
            <font color=""green""> Bonus : $0.75 </font>
            </div>
        </div>
    
            <div> Please press any key to continue to the next image.</div>
        "," ","ITI","","","","","","",""
"","","","","","html-keyboard-response","151","201315","0.0-6.19-1.19","653bb4bb22879f0a935901b2","656d9e5e2de4f984cfed7d4d","656d9ee8b57e6b639363b787","null","
        
        <div style=""text-align: center; position: fixed; top: 5vh; left: 40vw;"">
            <div style=""margin:0 auto; width: 20vw; top: 8vh; font-size: 2vw""> 
            <font color=""green""> Bonus : $0.75 </font>
            </div>
        </div>
    
        <img class=""stim"" src=./stimuli//pack_shapes_1/cat_2/diff_4/ex_2_4_11.png></img>
    ","null","stimulus","","","","","","",""
"","","","","","html-keyboard-response","152","202324","0.0-6.19-2.19","653bb4bb22879f0a935901b2","656d9e5e2de4f984cfed7d4d","656d9ee8b57e6b639363b787","null","
        <div style=""text-align: center; position: fixed; top: 5vh; left: 40vw;"">
            <div style=""margin:0 auto; width: 20vw; top: 8vh; font-size: 2vw""> 
            <font color=""green""> Bonus : $0.75 </font>
            </div>
        </div>
    ","null","","","","","","","",""
"","","","","","html-keyboard-response","153","202752","0.0-6.19-3.19","653bb4bb22879f0a935901b2","656d9e5e2de4f984cfed7d4d","656d9ee8b57e6b639363b787","428","./stimuli//pack_shapes_1/cat_2/diff_4/ex_2_4_11.png","arrowright","response","ArrowRight","11","2","4","test","true",""
"","","","","","html-keyboard-response","154","204254","0.0-6.19-4.19","653bb4bb22879f0a935901b2","656d9e5e2de4f984cfed7d4d","656d9ee8b57e6b639363b787","null","<p> <font color=""green"" size=""5vw""> Correct category! </font> <br> <br> <font color=""green"" size=""8vw""> + $0.05 </font> </p>","null","feedback","","","","","","","0.8"
"","","","","","html-keyboard-response","155","204840","0.0-6.20-0.20","653bb4bb22879f0a935901b2","656d9e5e2de4f984cfed7d4d","656d9ee8b57e6b639363b787","585","
            
        <div style=""text-align: center; position: fixed; top: 5vh; left: 40vw;"">
            <div style=""margin:0 auto; width: 20vw; top: 8vh; font-size: 2vw""> 
            <font color=""green""> Bonus : $0.8 </font>
            </div>
        </div>
    
            <div> Please press any key to continue to the next image.</div>
        "," ","ITI","","","","","","",""
"","","","","","html-keyboard-response","156","205456","0.0-6.20-1.20","653bb4bb22879f0a935901b2","656d9e5e2de4f984cfed7d4d","656d9ee8b57e6b639363b787","null","
        
        <div style=""text-align: center; position: fixed; top: 5vh; left: 40vw;"">
            <div style=""margin:0 auto; width: 20vw; top: 8vh; font-size: 2vw""> 
            <font color=""green""> Bonus : $0.8 </font>
            </div>
        </div>
    
        <img class=""stim"" src=./stimuli//pack_shapes_1/cat_2/diff_3/ex_2_3_1.png></img>
    ","null","stimulus","","","","","","",""
"","","","","","html-keyboard-response","157","206466","0.0-6.20-2.20","653bb4bb22879f0a935901b2","656d9e5e2de4f984cfed7d4d","656d9ee8b57e6b639363b787","null","
        <div style=""text-align: center; position: fixed; top: 5vh; left: 40vw;"">
            <div style=""margin:0 auto; width: 20vw; top: 8vh; font-size: 2vw""> 
            <font color=""green""> Bonus : $0.8 </font>
            </div>
        </div>
    ","null","","","","","","","",""
"","","","","","html-keyboard-response","158","206876","0.0-6.20-3.20","653bb4bb22879f0a935901b2","656d9e5e2de4f984cfed7d4d","656d9ee8b57e6b639363b787","409","./stimuli//pack_shapes_1/cat_2/diff_3/ex_2_3_1.png","arrowright","response","ArrowRight","1","2","3","test","true",""
"","","","","","html-keyboard-response","159","208379","0.0-6.20-4.20","653bb4bb22879f0a935901b2","656d9e5e2de4f984cfed7d4d","656d9ee8b57e6b639363b787","null","<p> <font color=""green"" size=""5vw""> Correct category! </font> <br> <br> <font color=""green"" size=""8vw""> + $0.05 </font> </p>","null","feedback","","","","","","","0.85"
"","","","","","html-keyboard-response","160","209228","0.0-6.21-0.21","653bb4bb22879f0a935901b2","656d9e5e2de4f984cfed7d4d","656d9ee8b57e6b639363b787","847","
            
        <div style=""text-align: center; position: fixed; top: 5vh; left: 40vw;"">
            <div style=""margin:0 auto; width: 20vw; top: 8vh; font-size: 2vw""> 
            <font color=""green""> Bonus : $0.85 </font>
            </div>
        </div>
    
            <div> Please press any key to continue to the next image.</div>
        "," ","ITI","","","","","","",""
"","","","","","html-keyboard-response","161","209831","0.0-6.21-1.21","653bb4bb22879f0a935901b2","656d9e5e2de4f984cfed7d4d","656d9ee8b57e6b639363b787","null","
        
        <div style=""text-align: center; position: fixed; top: 5vh; left: 40vw;"">
            <div style=""margin:0 auto; width: 20vw; top: 8vh; font-size: 2vw""> 
            <font color=""green""> Bonus : $0.85 </font>
            </div>
        </div>
    
        <img class=""stim"" src=./stimuli//pack_shapes_1/cat_1/diff_3/ex_1_3_17.png></img>
    ","null","stimulus","","","","","","",""
"","","","","","html-keyboard-response","162","210842","0.0-6.21-2.21","653bb4bb22879f0a935901b2","656d9e5e2de4f984cfed7d4d","656d9ee8b57e6b639363b787","null","
        <div style=""text-align: center; position: fixed; top: 5vh; left: 40vw;"">
            <div style=""margin:0 auto; width: 20vw; top: 8vh; font-size: 2vw""> 
            <font color=""green""> Bonus : $0.85 </font>
            </div>
        </div>
    ","null","","","","","","","",""
"","","","","","html-keyboard-response","163","211256","0.0-6.21-3.21","653bb4bb22879f0a935901b2","656d9e5e2de4f984cfed7d4d","656d9ee8b57e6b639363b787","413","./stimuli//pack_shapes_1/cat_1/diff_3/ex_1_3_17.png","arrowleft","response","ArrowLeft","17","1","3","test","true",""
"","","","","","html-keyboard-response","164","212759","0.0-6.21-4.21","653bb4bb22879f0a935901b2","656d9e5e2de4f984cfed7d4d","656d9ee8b57e6b639363b787","null","<p> <font color=""green"" size=""5vw""> Correct category! </font> <br> <br> <font color=""green"" size=""8vw""> + $0.05 </font> </p>","null","feedback","","","","","","","0.9"
"","","","","","html-keyboard-response","165","213382","0.0-6.22-0.22","653bb4bb22879f0a935901b2","656d9e5e2de4f984cfed7d4d","656d9ee8b57e6b639363b787","622","
            
        <div style=""text-align: center; position: fixed; top: 5vh; left: 40vw;"">
            <div style=""margin:0 auto; width: 20vw; top: 8vh; font-size: 2vw""> 
            <font color=""green""> Bonus : $0.9 </font>
            </div>
        </div>
    
            <div> Please press any key to continue to the next image.</div>
        "," ","ITI","","","","","","",""
"","","","","","html-keyboard-response","166","213989","0.0-6.22-1.22","653bb4bb22879f0a935901b2","656d9e5e2de4f984cfed7d4d","656d9ee8b57e6b639363b787","null","
        
        <div style=""text-align: center; position: fixed; top: 5vh; left: 40vw;"">
            <div style=""margin:0 auto; width: 20vw; top: 8vh; font-size: 2vw""> 
            <font color=""green""> Bonus : $0.9 </font>
            </div>
        </div>
    
        <img class=""stim"" src=./stimuli//pack_shapes_1/cat_1/diff_3/ex_1_3_15.png></img>
    ","null","stimulus","","","","","","",""
"","","","","","html-keyboard-response","167","215002","0.0-6.22-2.22","653bb4bb22879f0a935901b2","656d9e5e2de4f984cfed7d4d","656d9ee8b57e6b639363b787","null","
        <div style=""text-align: center; position: fixed; top: 5vh; left: 40vw;"">
            <div style=""margin:0 auto; width: 20vw; top: 8vh; font-size: 2vw""> 
            <font color=""green""> Bonus : $0.9 </font>
            </div>
        </div>
    ","null","","","","","","","",""
"","","","","","html-keyboard-response","168","215397","0.0-6.22-3.22","653bb4bb22879f0a935901b2","656d9e5e2de4f984cfed7d4d","656d9ee8b57e6b639363b787","394","./stimuli//pack_shapes_1/cat_1/diff_3/ex_1_3_15.png","arrowleft","response","ArrowLeft","15","1","3","test","true",""
"","","","","","html-keyboard-response","169","216904","0.0-6.22-4.22","653bb4bb22879f0a935901b2","656d9e5e2de4f984cfed7d4d","656d9ee8b57e6b639363b787","null","<p> <font color=""green"" size=""5vw""> Correct category! </font> <br> <br> <font color=""green"" size=""8vw""> + $0.05 </font> </p>","null","feedback","","","","","","","0.95"
"","","","","","html-keyboard-response","170","217592","0.0-6.23-0.23","653bb4bb22879f0a935901b2","656d9e5e2de4f984cfed7d4d","656d9ee8b57e6b639363b787","687","
            
        <div style=""text-align: center; position: fixed; top: 5vh; left: 40vw;"">
            <div style=""margin:0 auto; width: 20vw; top: 8vh; font-size: 2vw""> 
            <font color=""green""> Bonus : $0.95 </font>
            </div>
        </div>
    
            <div> Please press any key to continue to the next image.</div>
        "," ","ITI","","","","","","",""
"","","","","","html-keyboard-response","171","218200","0.0-6.23-1.23","653bb4bb22879f0a935901b2","656d9e5e2de4f984cfed7d4d","656d9ee8b57e6b639363b787","null","
        
        <div style=""text-align: center; position: fixed; top: 5vh; left: 40vw;"">
            <div style=""margin:0 auto; width: 20vw; top: 8vh; font-size: 2vw""> 
            <font color=""green""> Bonus : $0.95 </font>
            </div>
        </div>
    
        <img class=""stim"" src=./stimuli//pack_shapes_1/cat_2/diff_3/ex_2_3_3.png></img>
    ","null","stimulus","","","","","","",""
"","","","","","html-keyboard-response","172","219210","0.0-6.23-2.23","653bb4bb22879f0a935901b2","656d9e5e2de4f984cfed7d4d","656d9ee8b57e6b639363b787","null","
        <div style=""text-align: center; position: fixed; top: 5vh; left: 40vw;"">
            <div style=""margin:0 auto; width: 20vw; top: 8vh; font-size: 2vw""> 
            <font color=""green""> Bonus : $0.95 </font>
            </div>
        </div>
    ","null","","","","","","","",""
"","","","","","html-keyboard-response","173","219836","0.0-6.23-3.23","653bb4bb22879f0a935901b2","656d9e5e2de4f984cfed7d4d","656d9ee8b57e6b639363b787","626","./stimuli//pack_shapes_1/cat_2/diff_3/ex_2_3_3.png","arrowright","response","ArrowRight","3","2","3","test","true",""
"","","","","","html-keyboard-response","174","221346","0.0-6.23-4.23","653bb4bb22879f0a935901b2","656d9e5e2de4f984cfed7d4d","656d9ee8b57e6b639363b787","null","<p> <font color=""green"" size=""5vw""> Correct category! </font> <br> <br> <font color=""green"" size=""8vw""> + $0.05 </font> </p>","null","feedback","","","","","","","1"
"","","","","","html-keyboard-response","175","222155","0.0-6.24-0.24","653bb4bb22879f0a935901b2","656d9e5e2de4f984cfed7d4d","656d9ee8b57e6b639363b787","808","
            
        <div style=""text-align: center; position: fixed; top: 5vh; left: 40vw;"">
            <div style=""margin:0 auto; width: 20vw; top: 8vh; font-size: 2vw""> 
            <font color=""green""> Bonus : $1 </font>
            </div>
        </div>
    
            <div> Please press any key to continue to the next image.</div>
        "," ","ITI","","","","","","",""
"","","","","","html-keyboard-response","176","222766","0.0-6.24-1.24","653bb4bb22879f0a935901b2","656d9e5e2de4f984cfed7d4d","656d9ee8b57e6b639363b787","null","
        
        <div style=""text-align: center; position: fixed; top: 5vh; left: 40vw;"">
            <div style=""margin:0 auto; width: 20vw; top: 8vh; font-size: 2vw""> 
            <font color=""green""> Bonus : $1 </font>
            </div>
        </div>
    
        <img class=""stim"" src=./stimuli//pack_shapes_1/cat_1/diff_3/ex_1_3_14.png></img>
    ","null","stimulus","","","","","","",""
"","","","","","html-keyboard-response","177","223781","0.0-6.24-2.24","653bb4bb22879f0a935901b2","656d9e5e2de4f984cfed7d4d","656d9ee8b57e6b639363b787","null","
        <div style=""text-align: center; position: fixed; top: 5vh; left: 40vw;"">
            <div style=""margin:0 auto; width: 20vw; top: 8vh; font-size: 2vw""> 
            <font color=""green""> Bonus : $1 </font>
            </div>
        </div>
    ","null","","","","","","","",""
"","","","","","html-keyboard-response","178","224198","0.0-6.24-3.24","653bb4bb22879f0a935901b2","656d9e5e2de4f984cfed7d4d","656d9ee8b57e6b639363b787","416","./stimuli//pack_shapes_1/cat_1/diff_3/ex_1_3_14.png","arrowleft","response","ArrowLeft","14","1","3","test","true",""
"","","","","","html-keyboard-response","179","225711","0.0-6.24-4.24","653bb4bb22879f0a935901b2","656d9e5e2de4f984cfed7d4d","656d9ee8b57e6b639363b787","null","<p> <font color=""green"" size=""5vw""> Correct category! </font> <br> <br> <font color=""green"" size=""8vw""> + $0.05 </font> </p>","null","feedback","","","","","","","1.05"
"","","","","","html-keyboard-response","180","226574","0.0-6.25-0.25","653bb4bb22879f0a935901b2","656d9e5e2de4f984cfed7d4d","656d9ee8b57e6b639363b787","862","
            
        <div style=""text-align: center; position: fixed; top: 5vh; left: 40vw;"">
            <div style=""margin:0 auto; width: 20vw; top: 8vh; font-size: 2vw""> 
            <font color=""green""> Bonus : $1.05 </font>
            </div>
        </div>
    
            <div> Please press any key to continue to the next image.</div>
        "," ","ITI","","","","","","",""
"","","","","","html-keyboard-response","181","227003","0.0-6.25-1.25","653bb4bb22879f0a935901b2","656d9e5e2de4f984cfed7d4d","656d9ee8b57e6b639363b787","null","
        
        <div style=""text-align: center; position: fixed; top: 5vh; left: 40vw;"">
            <div style=""margin:0 auto; width: 20vw; top: 8vh; font-size: 2vw""> 
            <font color=""green""> Bonus : $1.05 </font>
            </div>
        </div>
    
        <img class=""stim"" src=./stimuli//pack_shapes_1/cat_1/diff_4/ex_1_4_16.png></img>
    ","null","stimulus","","","","","","",""
"","","","","","html-keyboard-response","182","228012","0.0-6.25-2.25","653bb4bb22879f0a935901b2","656d9e5e2de4f984cfed7d4d","656d9ee8b57e6b639363b787","null","
        <div style=""text-align: center; position: fixed; top: 5vh; left: 40vw;"">
            <div style=""margin:0 auto; width: 20vw; top: 8vh; font-size: 2vw""> 
            <font color=""green""> Bonus : $1.05 </font>
            </div>
        </div>
    ","null","","","","","","","",""
"","","","","","html-keyboard-response","183","228423","0.0-6.25-3.25","653bb4bb22879f0a935901b2","656d9e5e2de4f984cfed7d4d","656d9ee8b57e6b639363b787","410","./stimuli//pack_shapes_1/cat_1/diff_4/ex_1_4_16.png","arrowleft","response","ArrowLeft","16","1","4","test","true",""
"","","","","","html-keyboard-response","184","229925","0.0-6.25-4.25","653bb4bb22879f0a935901b2","656d9e5e2de4f984cfed7d4d","656d9ee8b57e6b639363b787","null","<p> <font color=""green"" size=""5vw""> Correct category! </font> <br> <br> <font color=""green"" size=""8vw""> + $0.05 </font> </p>","null","feedback","","","","","","","1.1"
"","","","","","html-keyboard-response","185","230778","0.0-6.26-0.26","653bb4bb22879f0a935901b2","656d9e5e2de4f984cfed7d4d","656d9ee8b57e6b639363b787","852","
            
        <div style=""text-align: center; position: fixed; top: 5vh; left: 40vw;"">
            <div style=""margin:0 auto; width: 20vw; top: 8vh; font-size: 2vw""> 
            <font color=""green""> Bonus : $1.1 </font>
            </div>
        </div>
    
            <div> Please press any key to continue to the next image.</div>
        "," ","ITI","","","","","","",""
"","","","","","html-keyboard-response","186","231391","0.0-6.26-1.26","653bb4bb22879f0a935901b2","656d9e5e2de4f984cfed7d4d","656d9ee8b57e6b639363b787","null","
        
        <div style=""text-align: center; position: fixed; top: 5vh; left: 40vw;"">
            <div style=""margin:0 auto; width: 20vw; top: 8vh; font-size: 2vw""> 
            <font color=""green""> Bonus : $1.1 </font>
            </div>
        </div>
    
        <img class=""stim"" src=./stimuli//pack_shapes_1/cat_1/diff_4/ex_1_4_14.png></img>
    ","null","stimulus","","","","","","",""
"","","","","","html-keyboard-response","187","232406","0.0-6.26-2.26","653bb4bb22879f0a935901b2","656d9e5e2de4f984cfed7d4d","656d9ee8b57e6b639363b787","null","
        <div style=""text-align: center; position: fixed; top: 5vh; left: 40vw;"">
            <div style=""margin:0 auto; width: 20vw; top: 8vh; font-size: 2vw""> 
            <font color=""green""> Bonus : $1.1 </font>
            </div>
        </div>
    ","null","","","","","","","",""
"","","","","","html-keyboard-response","188","232810","0.0-6.26-3.26","653bb4bb22879f0a935901b2","656d9e5e2de4f984cfed7d4d","656d9ee8b57e6b639363b787","403","./stimuli//pack_shapes_1/cat_1/diff_4/ex_1_4_14.png","arrowleft","response","ArrowLeft","14","1","4","test","true",""
"","","","","","html-keyboard-response","189","234324","0.0-6.26-4.26","653bb4bb22879f0a935901b2","656d9e5e2de4f984cfed7d4d","656d9ee8b57e6b639363b787","null","<p> <font color=""green"" size=""5vw""> Correct category! </font> <br> <br> <font color=""green"" size=""8vw""> + $0.05 </font> </p>","null","feedback","","","","","","","1.15"
"","","","","","html-keyboard-response","190","235270","0.0-6.27-0.27","653bb4bb22879f0a935901b2","656d9e5e2de4f984cfed7d4d","656d9ee8b57e6b639363b787","945","
            
        <div style=""text-align: center; position: fixed; top: 5vh; left: 40vw;"">
            <div style=""margin:0 auto; width: 20vw; top: 8vh; font-size: 2vw""> 
            <font color=""green""> Bonus : $1.15 </font>
            </div>
        </div>
    
            <div> Please press any key to continue to the next image.</div>
        "," ","ITI","","","","","","",""
"","","","","","html-keyboard-response","191","235881","0.0-6.27-1.27","653bb4bb22879f0a935901b2","656d9e5e2de4f984cfed7d4d","656d9ee8b57e6b639363b787","null","
        
        <div style=""text-align: center; position: fixed; top: 5vh; left: 40vw;"">
            <div style=""margin:0 auto; width: 20vw; top: 8vh; font-size: 2vw""> 
            <font color=""green""> Bonus : $1.15 </font>
            </div>
        </div>
    
        <img class=""stim"" src=./stimuli//pack_shapes_1/cat_2/diff_4/ex_2_4_8.png></img>
    ","null","stimulus","","","","","","",""
"","","","","","html-keyboard-response","192","236894","0.0-6.27-2.27","653bb4bb22879f0a935901b2","656d9e5e2de4f984cfed7d4d","656d9ee8b57e6b639363b787","null","
        <div style=""text-align: center; position: fixed; top: 5vh; left: 40vw;"">
            <div style=""margin:0 auto; width: 20vw; top: 8vh; font-size: 2vw""> 
            <font color=""green""> Bonus : $1.15 </font>
            </div>
        </div>
    ","null","","","","","","","",""
"","","","","","html-keyboard-response","193","237195","0.0-6.27-3.27","653bb4bb22879f0a935901b2","656d9e5e2de4f984cfed7d4d","656d9ee8b57e6b639363b787","300","./stimuli//pack_shapes_1/cat_2/diff_4/ex_2_4_8.png","arrowright","response","ArrowRight","8","2","4","test","true",""
"","","","","","html-keyboard-response","194","238701","0.0-6.27-4.27","653bb4bb22879f0a935901b2","656d9e5e2de4f984cfed7d4d","656d9ee8b57e6b639363b787","null","<p> <font color=""green"" size=""5vw""> Correct category! </font> <br> <br> <font color=""green"" size=""8vw""> + $0.05 </font> </p>","null","feedback","","","","","","","1.2"
"","","","","","html-keyboard-response","195","241719","0.0-6.28-0.28","653bb4bb22879f0a935901b2","656d9e5e2de4f984cfed7d4d","656d9ee8b57e6b639363b787","3017","
            
        <div style=""text-align: center; position: fixed; top: 5vh; left: 40vw;"">
            <div style=""margin:0 auto; width: 20vw; top: 8vh; font-size: 2vw""> 
            <font color=""green""> Bonus : $1.2 </font>
            </div>
        </div>
    
            <div> Please press any key to continue to the next image.</div>
        "," ","ITI","","","","","","",""
"","","","","","html-keyboard-response","196","242328","0.0-6.28-1.28","653bb4bb22879f0a935901b2","656d9e5e2de4f984cfed7d4d","656d9ee8b57e6b639363b787","null","
        
        <div style=""text-align: center; position: fixed; top: 5vh; left: 40vw;"">
            <div style=""margin:0 auto; width: 20vw; top: 8vh; font-size: 2vw""> 
            <font color=""green""> Bonus : $1.2 </font>
            </div>
        </div>
    
        <img class=""stim"" src=./stimuli//pack_shapes_1/cat_1/diff_4/ex_1_4_9.png></img>
    ","null","stimulus","","","","","","",""
"","","","","","html-keyboard-response","197","243338","0.0-6.28-2.28","653bb4bb22879f0a935901b2","656d9e5e2de4f984cfed7d4d","656d9ee8b57e6b639363b787","null","
        <div style=""text-align: center; position: fixed; top: 5vh; left: 40vw;"">
            <div style=""margin:0 auto; width: 20vw; top: 8vh; font-size: 2vw""> 
            <font color=""green""> Bonus : $1.2 </font>
            </div>
        </div>
    ","null","","","","","","","",""
"","","","","","html-keyboard-response","198","245285","0.0-6.28-3.28","653bb4bb22879f0a935901b2","656d9e5e2de4f984cfed7d4d","656d9ee8b57e6b639363b787","1947","./stimuli//pack_shapes_1/cat_1/diff_4/ex_1_4_9.png","arrowright","response","ArrowLeft","9","1","4","test","false",""
"","","","","","html-keyboard-response","199","246789","0.0-6.28-4.28","653bb4bb22879f0a935901b2","656d9e5e2de4f984cfed7d4d","656d9ee8b57e6b639363b787","null","<p> <font color=""red"" size=""5vw""> Wrong category! </font> <br> <br> <font color=""red"" size=""8vw""> - $0.05 </font> </p>","null","feedback","","","","","","","1.15"
"","","","","","html-keyboard-response","200","247234","0.0-6.29-0.29","653bb4bb22879f0a935901b2","656d9e5e2de4f984cfed7d4d","656d9ee8b57e6b639363b787","444","
            
        <div style=""text-align: center; position: fixed; top: 5vh; left: 40vw;"">
            <div style=""margin:0 auto; width: 20vw; top: 8vh; font-size: 2vw""> 
            <font color=""green""> Bonus : $1.15 </font>
            </div>
        </div>
    
            <div> Please press any key to continue to the next image.</div>
        "," ","ITI","","","","","","",""
"","","","","","html-keyboard-response","201","247850","0.0-6.29-1.29","653bb4bb22879f0a935901b2","656d9e5e2de4f984cfed7d4d","656d9ee8b57e6b639363b787","null","
        
        <div style=""text-align: center; position: fixed; top: 5vh; left: 40vw;"">
            <div style=""margin:0 auto; width: 20vw; top: 8vh; font-size: 2vw""> 
            <font color=""green""> Bonus : $1.15 </font>
            </div>
        </div>
    
        <img class=""stim"" src=./stimuli//pack_shapes_1/cat_2/diff_4/ex_2_4_8.png></img>
    ","null","stimulus","","","","","","",""
"","","","","","html-keyboard-response","202","248865","0.0-6.29-2.29","653bb4bb22879f0a935901b2","656d9e5e2de4f984cfed7d4d","656d9ee8b57e6b639363b787","null","
        <div style=""text-align: center; position: fixed; top: 5vh; left: 40vw;"">
            <div style=""margin:0 auto; width: 20vw; top: 8vh; font-size: 2vw""> 
            <font color=""green""> Bonus : $1.15 </font>
            </div>
        </div>
    ","null","","","","","","","",""
"","","","","","html-keyboard-response","203","249233","0.0-6.29-3.29","653bb4bb22879f0a935901b2","656d9e5e2de4f984cfed7d4d","656d9ee8b57e6b639363b787","367","./stimuli//pack_shapes_1/cat_2/diff_4/ex_2_4_8.png","arrowright","response","ArrowRight","8","2","4","test","true",""
"","","","","","html-keyboard-response","204","250748","0.0-6.29-4.29","653bb4bb22879f0a935901b2","656d9e5e2de4f984cfed7d4d","656d9ee8b57e6b639363b787","null","<p> <font color=""green"" size=""5vw""> Correct category! </font> <br> <br> <font color=""green"" size=""8vw""> + $0.05 </font> </p>","null","feedback","","","","","","","1.2"
"","","","","","html-keyboard-response","205","251434","0.0-6.30-0.30","653bb4bb22879f0a935901b2","656d9e5e2de4f984cfed7d4d","656d9ee8b57e6b639363b787","685","
            
        <div style=""text-align: center; position: fixed; top: 5vh; left: 40vw;"">
            <div style=""margin:0 auto; width: 20vw; top: 8vh; font-size: 2vw""> 
            <font color=""green""> Bonus : $1.2 </font>
            </div>
        </div>
    
            <div> Please press any key to continue to the next image.</div>
        "," ","ITI","","","","","","",""
"","","","","","html-keyboard-response","206","252043","0.0-6.30-1.30","653bb4bb22879f0a935901b2","656d9e5e2de4f984cfed7d4d","656d9ee8b57e6b639363b787","null","
        
        <div style=""text-align: center; position: fixed; top: 5vh; left: 40vw;"">
            <div style=""margin:0 auto; width: 20vw; top: 8vh; font-size: 2vw""> 
            <font color=""green""> Bonus : $1.2 </font>
            </div>
        </div>
    
        <img class=""stim"" src=./stimuli//pack_shapes_1/cat_2/diff_5/ex_2_5_8.png></img>
    ","null","stimulus","","","","","","",""
"","","","","","html-keyboard-response","207","253054","0.0-6.30-2.30","653bb4bb22879f0a935901b2","656d9e5e2de4f984cfed7d4d","656d9ee8b57e6b639363b787","null","
        <div style=""text-align: center; position: fixed; top: 5vh; left: 40vw;"">
            <div style=""margin:0 auto; width: 20vw; top: 8vh; font-size: 2vw""> 
            <font color=""green""> Bonus : $1.2 </font>
            </div>
        </div>
    ","null","","","","","","","",""
"","","","","","html-keyboard-response","208","253399","0.0-6.30-3.30","653bb4bb22879f0a935901b2","656d9e5e2de4f984cfed7d4d","656d9ee8b57e6b639363b787","344","./stimuli//pack_shapes_1/cat_2/diff_5/ex_2_5_8.png","arrowright","response","ArrowRight","8","2","5","test","true",""
"","","","","","html-keyboard-response","209","254905","0.0-6.30-4.30","653bb4bb22879f0a935901b2","656d9e5e2de4f984cfed7d4d","656d9ee8b57e6b639363b787","null","<p> <font color=""green"" size=""5vw""> Correct category! </font> <br> <br> <font color=""green"" size=""8vw""> + $0.05 </font> </p>","null","feedback","","","","","","","1.25"
"","","","","","html-keyboard-response","210","255540","0.0-6.31-0.31","653bb4bb22879f0a935901b2","656d9e5e2de4f984cfed7d4d","656d9ee8b57e6b639363b787","634","
            
        <div style=""text-align: center; position: fixed; top: 5vh; left: 40vw;"">
            <div style=""margin:0 auto; width: 20vw; top: 8vh; font-size: 2vw""> 
            <font color=""green""> Bonus : $1.25 </font>
            </div>
        </div>
    
            <div> Please press any key to continue to the next image.</div>
        "," ","ITI","","","","","","",""
"","","","","","html-keyboard-response","211","256151","0.0-6.31-1.31","653bb4bb22879f0a935901b2","656d9e5e2de4f984cfed7d4d","656d9ee8b57e6b639363b787","null","
        
        <div style=""text-align: center; position: fixed; top: 5vh; left: 40vw;"">
            <div style=""margin:0 auto; width: 20vw; top: 8vh; font-size: 2vw""> 
            <font color=""green""> Bonus : $1.25 </font>
            </div>
        </div>
    
        <img class=""stim"" src=./stimuli//pack_shapes_1/cat_2/diff_5/ex_2_5_14.png></img>
    ","null","stimulus","","","","","","",""
"","","","","","html-keyboard-response","212","257161","0.0-6.31-2.31","653bb4bb22879f0a935901b2","656d9e5e2de4f984cfed7d4d","656d9ee8b57e6b639363b787","null","
        <div style=""text-align: center; position: fixed; top: 5vh; left: 40vw;"">
            <div style=""margin:0 auto; width: 20vw; top: 8vh; font-size: 2vw""> 
            <font color=""green""> Bonus : $1.25 </font>
            </div>
        </div>
    ","null","","","","","","","",""
"","","","","","html-keyboard-response","213","257494","0.0-6.31-3.31","653bb4bb22879f0a935901b2","656d9e5e2de4f984cfed7d4d","656d9ee8b57e6b639363b787","332","./stimuli//pack_shapes_1/cat_2/diff_5/ex_2_5_14.png","arrowright","response","ArrowRight","14","2","5","test","true",""
"","","","","","html-keyboard-response","214","259002","0.0-6.31-4.31","653bb4bb22879f0a935901b2","656d9e5e2de4f984cfed7d4d","656d9ee8b57e6b639363b787","null","<p> <font color=""green"" size=""5vw""> Correct category! </font> <br> <br> <font color=""green"" size=""8vw""> + $0.05 </font> </p>","null","feedback","","","","","","","1.3"
"","","","","","html-keyboard-response","215","259564","0.0-6.32-0.32","653bb4bb22879f0a935901b2","656d9e5e2de4f984cfed7d4d","656d9ee8b57e6b639363b787","561","
            
        <div style=""text-align: center; position: fixed; top: 5vh; left: 40vw;"">
            <div style=""margin:0 auto; width: 20vw; top: 8vh; font-size: 2vw""> 
            <font color=""green""> Bonus : $1.3 </font>
            </div>
        </div>
    
            <div> Please press any key to continue to the next image.</div>
        "," ","ITI","","","","","","",""
"","","","","","html-keyboard-response","216","260169","0.0-6.32-1.32","653bb4bb22879f0a935901b2","656d9e5e2de4f984cfed7d4d","656d9ee8b57e6b639363b787","null","
        
        <div style=""text-align: center; position: fixed; top: 5vh; left: 40vw;"">
            <div style=""margin:0 auto; width: 20vw; top: 8vh; font-size: 2vw""> 
            <font color=""green""> Bonus : $1.3 </font>
            </div>
        </div>
    
        <img class=""stim"" src=./stimuli//pack_shapes_1/cat_1/diff_5/ex_1_5_1.png></img>
    ","null","stimulus","","","","","","",""
"","","","","","html-keyboard-response","217","261183","0.0-6.32-2.32","653bb4bb22879f0a935901b2","656d9e5e2de4f984cfed7d4d","656d9ee8b57e6b639363b787","null","
        <div style=""text-align: center; position: fixed; top: 5vh; left: 40vw;"">
            <div style=""margin:0 auto; width: 20vw; top: 8vh; font-size: 2vw""> 
            <font color=""green""> Bonus : $1.3 </font>
            </div>
        </div>
    ","null","","","","","","","",""
"","","","","","html-keyboard-response","218","262178","0.0-6.32-3.32","653bb4bb22879f0a935901b2","656d9e5e2de4f984cfed7d4d","656d9ee8b57e6b639363b787","994","./stimuli//pack_shapes_1/cat_1/diff_5/ex_1_5_1.png","arrowright","response","ArrowLeft","1","1","5","test","false",""
"","","","","","html-keyboard-response","219","263689","0.0-6.32-4.32","653bb4bb22879f0a935901b2","656d9e5e2de4f984cfed7d4d","656d9ee8b57e6b639363b787","null","<p> <font color=""red"" size=""5vw""> Wrong category! </font> <br> <br> <font color=""red"" size=""8vw""> - $0.05 </font> </p>","null","feedback","","","","","","","1.25"
"","","","","","html-keyboard-response","220","264105","0.0-6.33-0.33","653bb4bb22879f0a935901b2","656d9e5e2de4f984cfed7d4d","656d9ee8b57e6b639363b787","414","
            
        <div style=""text-align: center; position: fixed; top: 5vh; left: 40vw;"">
            <div style=""margin:0 auto; width: 20vw; top: 8vh; font-size: 2vw""> 
            <font color=""green""> Bonus : $1.25 </font>
            </div>
        </div>
    
            <div> Please press any key to continue to the next image.</div>
        "," ","ITI","","","","","","",""
"","","","","","html-keyboard-response","221","264717","0.0-6.33-1.33","653bb4bb22879f0a935901b2","656d9e5e2de4f984cfed7d4d","656d9ee8b57e6b639363b787","null","
        
        <div style=""text-align: center; position: fixed; top: 5vh; left: 40vw;"">
            <div style=""margin:0 auto; width: 20vw; top: 8vh; font-size: 2vw""> 
            <font color=""green""> Bonus : $1.25 </font>
            </div>
        </div>
    
        <img class=""stim"" src=./stimuli//pack_shapes_1/cat_1/diff_5/ex_1_5_6.png></img>
    ","null","stimulus","","","","","","",""
"","","","","","html-keyboard-response","222","265731","0.0-6.33-2.33","653bb4bb22879f0a935901b2","656d9e5e2de4f984cfed7d4d","656d9ee8b57e6b639363b787","null","
        <div style=""text-align: center; position: fixed; top: 5vh; left: 40vw;"">
            <div style=""margin:0 auto; width: 20vw; top: 8vh; font-size: 2vw""> 
            <font color=""green""> Bonus : $1.25 </font>
            </div>
        </div>
    ","null","","","","","","","",""
"","","","","","html-keyboard-response","223","265999","0.0-6.33-3.33","653bb4bb22879f0a935901b2","656d9e5e2de4f984cfed7d4d","656d9ee8b57e6b639363b787","267","./stimuli//pack_shapes_1/cat_1/diff_5/ex_1_5_6.png","arrowleft","response","ArrowLeft","6","1","5","test","true",""
"","","","","","html-keyboard-response","224","267508","0.0-6.33-4.33","653bb4bb22879f0a935901b2","656d9e5e2de4f984cfed7d4d","656d9ee8b57e6b639363b787","null","<p> <font color=""green"" size=""5vw""> Correct category! </font> <br> <br> <font color=""green"" size=""8vw""> + $0.05 </font> </p>","null","feedback","","","","","","","1.3"
"","","","","","html-keyboard-response","225","268021","0.0-6.34-0.34","653bb4bb22879f0a935901b2","656d9e5e2de4f984cfed7d4d","656d9ee8b57e6b639363b787","512","
            
        <div style=""text-align: center; position: fixed; top: 5vh; left: 40vw;"">
            <div style=""margin:0 auto; width: 20vw; top: 8vh; font-size: 2vw""> 
            <font color=""green""> Bonus : $1.3 </font>
            </div>
        </div>
    
            <div> Please press any key to continue to the next image.</div>
        "," ","ITI","","","","","","",""
"","","","","","html-keyboard-response","226","268627","0.0-6.34-1.34","653bb4bb22879f0a935901b2","656d9e5e2de4f984cfed7d4d","656d9ee8b57e6b639363b787","null","
        
        <div style=""text-align: center; position: fixed; top: 5vh; left: 40vw;"">
            <div style=""margin:0 auto; width: 20vw; top: 8vh; font-size: 2vw""> 
            <font color=""green""> Bonus : $1.3 </font>
            </div>
        </div>
    
        <img class=""stim"" src=./stimuli//pack_shapes_1/cat_1/diff_5/ex_1_5_13.png></img>
    ","null","stimulus","","","","","","",""
"","","","","","html-keyboard-response","227","269638","0.0-6.34-2.34","653bb4bb22879f0a935901b2","656d9e5e2de4f984cfed7d4d","656d9ee8b57e6b639363b787","null","
        <div style=""text-align: center; position: fixed; top: 5vh; left: 40vw;"">
            <div style=""margin:0 auto; width: 20vw; top: 8vh; font-size: 2vw""> 
            <font color=""green""> Bonus : $1.3 </font>
            </div>
        </div>
    ","null","","","","","","","",""
"","","","","","html-keyboard-response","228","270150","0.0-6.34-3.34","653bb4bb22879f0a935901b2","656d9e5e2de4f984cfed7d4d","656d9ee8b57e6b639363b787","510","./stimuli//pack_shapes_1/cat_1/diff_5/ex_1_5_13.png","arrowleft","response","ArrowLeft","13","1","5","test","true",""
"","","","","","html-keyboard-response","229","271664","0.0-6.34-4.34","653bb4bb22879f0a935901b2","656d9e5e2de4f984cfed7d4d","656d9ee8b57e6b639363b787","null","<p> <font color=""green"" size=""5vw""> Correct category! </font> <br> <br> <font color=""green"" size=""8vw""> + $0.05 </font> </p>","null","feedback","","","","","","","1.35"
"","","","","","html-keyboard-response","230","272178","0.0-6.35-0.35","653bb4bb22879f0a935901b2","656d9e5e2de4f984cfed7d4d","656d9ee8b57e6b639363b787","513","
            
