"success","timeout","failed_images","failed_audio","failed_video","trial_type","trial_index","time_elapsed","internal_node_id","subject_id","study_id","session_id","rt","stimulus","response","task","correct_response","exemplar_ID","category","difficulty","phase","correct","bonus"
"true","false","[]","[]","[]","preload","0","3","0.0-0.0","60e9ea97d19e613e60a994da","656d9e5e2de4f984cfed7d4d","656d9f52dcacc13a8f17fb31","","","","","","","","","","",""
"","","","","","html-keyboard-response","1","13570","0.0-1.0","60e9ea97d19e613e60a994da","656d9e5e2de4f984cfed7d4d","656d9f52dcacc13a8f17fb31","13564","Welcome to the Category Learning experiment! Press any key to continue."," ","welcome","","","","","","",""
"","","","","","html-keyboard-response","2","47671","0.0-2.0","60e9ea97d19e613e60a994da","656d9e5e2de4f984cfed7d4d","656d9f52dcacc13a8f17fb31","34101","
            <p>You will be shown images of white shapes. Some are category A, some are category B.
            <br>You will not know in advance which category a specific shape belongs to.</p>
            <p>After you see an image, you will be asked to guess its category <b>(left arrow for category A, right arrow for category B)</b></p>
            <p>After you choose, the screen will show you whether you were correct or not.</p>
            <p><b>You will receive a bonus payment of $0.05 for each correct answer!</b></p>
            <p><b>You will lose $0.05 from your bonus payment for each incorrect answer! The bonus can not become less that $0.</b></p>
            <p>Press any key to continue.</p>
            "," ","introduction_1","","","","","","",""
"","","","","","html-keyboard-response","3","58064","0.0-3.0","60e9ea97d19e613e60a994da","656d9e5e2de4f984cfed7d4d","656d9f52dcacc13a8f17fb31","10393","
            <p> <b>The first 10 trials are a practice round that will not count towards your bonus payment.</b></p>
            <p> You will be notified when practice finishes and the test begins. </p>
            <p> Press any key to begin the practice round.</p>
            "," ","introduction_2","","","","","","",""
"","","","","","html-keyboard-response","4","63548","0.0-4.0-0.0","60e9ea97d19e613e60a994da","656d9e5e2de4f984cfed7d4d","656d9f52dcacc13a8f17fb31","5483","
            
        <div style=""text-align: center; position: fixed; top: 5vh; left: 40vw;"">
            <div style=""margin:0 auto; width: 20vw; top: 8vh; font-size: 2vw""> 
            <font color=""green""> Bonus : $0 </font>
            </div>
        </div>
    
            <div> Please press any key to continue to the next image.</div>
        "," ","ITI","","","","","","",""
"","","","","","html-keyboard-response","5","64150","0.0-4.0-1.0","60e9ea97d19e613e60a994da","656d9e5e2de4f984cfed7d4d","656d9f52dcacc13a8f17fb31","null","
        
        <div style=""text-align: center; position: fixed; top: 5vh; left: 40vw;"">
            <div style=""margin:0 auto; width: 20vw; top: 8vh; font-size: 2vw""> 
            <font color=""green""> Bonus : $0 </font>
            </div>
        </div>
    
        <img class=""stim"" src=./stimuli//pack_shapes_1/cat_2/diff_1/ex_2_1_13.png></img>
    ","null","stimulus","","","","","","",""
"","","","","","html-keyboard-response","6","65152","0.0-4.0-2.0","60e9ea97d19e613e60a994da","656d9e5e2de4f984cfed7d4d","656d9f52dcacc13a8f17fb31","null","
        <div style=""text-align: center; position: fixed; top: 5vh; left: 40vw;"">
            <div style=""margin:0 auto; width: 20vw; top: 8vh; font-size: 2vw""> 
            <font color=""green""> Bonus : $0 </font>
            </div>
        </div>
    ","null","","","","","","","",""
"","","","","","html-keyboard-response","7","66764","0.0-4.0-3.0","60e9ea97d19e613e60a994da","656d9e5e2de4f984cfed7d4d","656d9f52dcacc13a8f17fb31","1612","./stimuli//pack_shapes_1/cat_2/diff_1/ex_2_1_13.png","arrowleft","response","ArrowRight","13","2","1","train","false",""
"","","","","","html-keyboard-response","8","68266","0.0-4.0-4.0","60e9ea97d19e613e60a994da","656d9e5e2de4f984cfed7d4d","656d9f52dcacc13a8f17fb31","null","<p> <font color=""red"" size=""5vw""> Wrong category! </font> </p>","null","feedback","","","","","","","0"
"","","","","","html-keyboard-response","9","71378","0.0-4.0-0.1","60e9ea97d19e613e60a994da","656d9e5e2de4f984cfed7d4d","656d9f52dcacc13a8f17fb31","3110","
            
        <div style=""text-align: center; position: fixed; top: 5vh; left: 40vw;"">
            <div style=""margin:0 auto; width: 20vw; top: 8vh; font-size: 2vw""> 
            <font color=""green""> Bonus : $0 </font>
            </div>
        </div>
    
            <div> Please press any key to continue to the next image.</div>
        "," ","ITI","","","","","","",""
"","","","","","html-keyboard-response","10","71979","0.0-4.0-1.1","60e9ea97d19e613e60a994da","656d9e5e2de4f984cfed7d4d","656d9f52dcacc13a8f17fb31","null","
        
        <div style=""text-align: center; position: fixed; top: 5vh; left: 40vw;"">
            <div style=""margin:0 auto; width: 20vw; top: 8vh; font-size: 2vw""> 
            <font color=""green""> Bonus : $0 </font>
            </div>
        </div>
    
        <img class=""stim"" src=./stimuli//pack_shapes_1/cat_1/diff_1/ex_1_1_3.png></img>
    ","null","stimulus","","","","","","",""
"","","","","","html-keyboard-response","11","72981","0.0-4.0-2.1","60e9ea97d19e613e60a994da","656d9e5e2de4f984cfed7d4d","656d9f52dcacc13a8f17fb31","null","
        <div style=""text-align: center; position: fixed; top: 5vh; left: 40vw;"">
            <div style=""margin:0 auto; width: 20vw; top: 8vh; font-size: 2vw""> 
            <font color=""green""> Bonus : $0 </font>
            </div>
        </div>
    ","null","","","","","","","",""
"","","","","","html-keyboard-response","12","73824","0.0-4.0-3.1","60e9ea97d19e613e60a994da","656d9e5e2de4f984cfed7d4d","656d9f52dcacc13a8f17fb31","843","./stimuli//pack_shapes_1/cat_1/diff_1/ex_1_1_3.png","arrowright","response","ArrowLeft","3","1","1","train","false",""
"","","","","","html-keyboard-response","13","75327","0.0-4.0-4.1","60e9ea97d19e613e60a994da","656d9e5e2de4f984cfed7d4d","656d9f52dcacc13a8f17fb31","null","<p> <font color=""red"" size=""5vw""> Wrong category! </font> </p>","null","feedback","","","","","","","0"
"","","","","","html-keyboard-response","14","76515","0.0-4.0-0.2","60e9ea97d19e613e60a994da","656d9e5e2de4f984cfed7d4d","656d9f52dcacc13a8f17fb31","1187","
            
        <div style=""text-align: center; position: fixed; top: 5vh; left: 40vw;"">
            <div style=""margin:0 auto; width: 20vw; top: 8vh; font-size: 2vw""> 
            <font color=""green""> Bonus : $0 </font>
            </div>
        </div>
    
            <div> Please press any key to continue to the next image.</div>
        "," ","ITI","","","","","","",""
"","","","","","html-keyboard-response","15","77115","0.0-4.0-1.2","60e9ea97d19e613e60a994da","656d9e5e2de4f984cfed7d4d","656d9f52dcacc13a8f17fb31","null","
        
        <div style=""text-align: center; position: fixed; top: 5vh; left: 40vw;"">
            <div style=""margin:0 auto; width: 20vw; top: 8vh; font-size: 2vw""> 
            <font color=""green""> Bonus : $0 </font>
            </div>
        </div>
    
        <img class=""stim"" src=./stimuli//pack_shapes_1/cat_2/diff_1/ex_2_1_2.png></img>
    ","null","stimulus","","","","","","",""
"","","","","","html-keyboard-response","16","78116","0.0-4.0-2.2","60e9ea97d19e613e60a994da","656d9e5e2de4f984cfed7d4d","656d9f52dcacc13a8f17fb31","null","
        <div style=""text-align: center; position: fixed; top: 5vh; left: 40vw;"">
            <div style=""margin:0 auto; width: 20vw; top: 8vh; font-size: 2vw""> 
            <font color=""green""> Bonus : $0 </font>
            </div>
        </div>
    ","null","","","","","","","",""
"","","","","","html-keyboard-response","17","79001","0.0-4.0-3.2","60e9ea97d19e613e60a994da","656d9e5e2de4f984cfed7d4d","656d9f52dcacc13a8f17fb31","883","./stimuli//pack_shapes_1/cat_2/diff_1/ex_2_1_2.png","arrowleft","response","ArrowRight","2","2","1","train","false",""
"","","","","","html-keyboard-response","18","80502","0.0-4.0-4.2","60e9ea97d19e613e60a994da","656d9e5e2de4f984cfed7d4d","656d9f52dcacc13a8f17fb31","null","<p> <font color=""red"" size=""5vw""> Wrong category! </font> </p>","null","feedback","","","","","","","0"
"","","","","","html-keyboard-response","19","81938","0.0-4.0-0.3","60e9ea97d19e613e60a994da","656d9e5e2de4f984cfed7d4d","656d9f52dcacc13a8f17fb31","1435","
            
        <div style=""text-align: center; position: fixed; top: 5vh; left: 40vw;"">
            <div style=""margin:0 auto; width: 20vw; top: 8vh; font-size: 2vw""> 
            <font color=""green""> Bonus : $0 </font>
            </div>
        </div>
    
            <div> Please press any key to continue to the next image.</div>
        "," ","ITI","","","","","","",""
"","","","","","html-keyboard-response","20","82539","0.0-4.0-1.3","60e9ea97d19e613e60a994da","656d9e5e2de4f984cfed7d4d","656d9f52dcacc13a8f17fb31","null","
        
        <div style=""text-align: center; position: fixed; top: 5vh; left: 40vw;"">
            <div style=""margin:0 auto; width: 20vw; top: 8vh; font-size: 2vw""> 
            <font color=""green""> Bonus : $0 </font>
            </div>
        </div>
    
        <img class=""stim"" src=./stimuli//pack_shapes_1/cat_1/diff_2/ex_1_2_4.png></img>
    ","null","stimulus","","","","","","",""
"","","","","","html-keyboard-response","21","83541","0.0-4.0-2.3","60e9ea97d19e613e60a994da","656d9e5e2de4f984cfed7d4d","656d9f52dcacc13a8f17fb31","null","
        <div style=""text-align: center; position: fixed; top: 5vh; left: 40vw;"">
            <div style=""margin:0 auto; width: 20vw; top: 8vh; font-size: 2vw""> 
            <font color=""green""> Bonus : $0 </font>
            </div>
        </div>
    ","null","","","","","","","",""
"","","","","","html-keyboard-response","22","83990","0.0-4.0-3.3","60e9ea97d19e613e60a994da","656d9e5e2de4f984cfed7d4d","656d9f52dcacc13a8f17fb31","448","./stimuli//pack_shapes_1/cat_1/diff_2/ex_1_2_4.png","arrowleft","response","ArrowLeft","4","1","2","train","true",""
"","","","","","html-keyboard-response","23","85491","0.0-4.0-4.3","60e9ea97d19e613e60a994da","656d9e5e2de4f984cfed7d4d","656d9f52dcacc13a8f17fb31","null","<p><font color=""green"" size=""5vw""> Correct category! </font></p>","null","feedback","","","","","","","0"
"","","","","","html-keyboard-response","24","87358","0.0-4.0-0.4","60e9ea97d19e613e60a994da","656d9e5e2de4f984cfed7d4d","656d9f52dcacc13a8f17fb31","1866","
            
        <div style=""text-align: center; position: fixed; top: 5vh; left: 40vw;"">
            <div style=""margin:0 auto; width: 20vw; top: 8vh; font-size: 2vw""> 
            <font color=""green""> Bonus : $0 </font>
            </div>
        </div>
    
            <div> Please press any key to continue to the next image.</div>
        "," ","ITI","","","","","","",""
"","","","","","html-keyboard-response","25","87959","0.0-4.0-1.4","60e9ea97d19e613e60a994da","656d9e5e2de4f984cfed7d4d","656d9f52dcacc13a8f17fb31","null","
        
        <div style=""text-align: center; position: fixed; top: 5vh; left: 40vw;"">
            <div style=""margin:0 auto; width: 20vw; top: 8vh; font-size: 2vw""> 
            <font color=""green""> Bonus : $0 </font>
            </div>
        </div>
    
        <img class=""stim"" src=./stimuli//pack_shapes_1/cat_1/diff_1/ex_1_1_2.png></img>
    ","null","stimulus","","","","","","",""
"","","","","","html-keyboard-response","26","88960","0.0-4.0-2.4","60e9ea97d19e613e60a994da","656d9e5e2de4f984cfed7d4d","656d9f52dcacc13a8f17fb31","null","
        <div style=""text-align: center; position: fixed; top: 5vh; left: 40vw;"">
            <div style=""margin:0 auto; width: 20vw; top: 8vh; font-size: 2vw""> 
            <font color=""green""> Bonus : $0 </font>
            </div>
        </div>
    ","null","","","","","","","",""
"","","","","","html-keyboard-response","27","89952","0.0-4.0-3.4","60e9ea97d19e613e60a994da","656d9e5e2de4f984cfed7d4d","656d9f52dcacc13a8f17fb31","992","./stimuli//pack_shapes_1/cat_1/diff_1/ex_1_1_2.png","arrowleft","response","ArrowLeft","2","1","1","train","true",""
"","","","","","html-keyboard-response","28","91453","0.0-4.0-4.4","60e9ea97d19e613e60a994da","656d9e5e2de4f984cfed7d4d","656d9f52dcacc13a8f17fb31","null","<p><font color=""green"" size=""5vw""> Correct category! </font></p>","null","feedback","","","","","","","0"
"","","","","","html-keyboard-response","29","93296","0.0-4.0-0.5","60e9ea97d19e613e60a994da","656d9e5e2de4f984cfed7d4d","656d9f52dcacc13a8f17fb31","1843","
            
        <div style=""text-align: center; position: fixed; top: 5vh; left: 40vw;"">
            <div style=""margin:0 auto; width: 20vw; top: 8vh; font-size: 2vw""> 
            <font color=""green""> Bonus : $0 </font>
            </div>
        </div>
    
            <div> Please press any key to continue to the next image.</div>
        "," ","ITI","","","","","","",""
"","","","","","html-keyboard-response","30","93899","0.0-4.0-1.5","60e9ea97d19e613e60a994da","656d9e5e2de4f984cfed7d4d","656d9f52dcacc13a8f17fb31","null","
        
        <div style=""text-align: center; position: fixed; top: 5vh; left: 40vw;"">
            <div style=""margin:0 auto; width: 20vw; top: 8vh; font-size: 2vw""> 
            <font color=""green""> Bonus : $0 </font>
            </div>
        </div>
    
        <img class=""stim"" src=./stimuli//pack_shapes_1/cat_2/diff_2/ex_2_2_17.png></img>
    ","null","stimulus","","","","","","",""
"","","","","","html-keyboard-response","31","94901","0.0-4.0-2.5","60e9ea97d19e613e60a994da","656d9e5e2de4f984cfed7d4d","656d9f52dcacc13a8f17fb31","null","
        <div style=""text-align: center; position: fixed; top: 5vh; left: 40vw;"">
            <div style=""margin:0 auto; width: 20vw; top: 8vh; font-size: 2vw""> 
            <font color=""green""> Bonus : $0 </font>
            </div>
        </div>
    ","null","","","","","","","",""
"","","","","","html-keyboard-response","32","95401","0.0-4.0-3.5","60e9ea97d19e613e60a994da","656d9e5e2de4f984cfed7d4d","656d9f52dcacc13a8f17fb31","500","./stimuli//pack_shapes_1/cat_2/diff_2/ex_2_2_17.png","arrowleft","response","ArrowRight","17","2","2","train","false",""
"","","","","","html-keyboard-response","33","96902","0.0-4.0-4.5","60e9ea97d19e613e60a994da","656d9e5e2de4f984cfed7d4d","656d9f52dcacc13a8f17fb31","null","<p> <font color=""red"" size=""5vw""> Wrong category! </font> </p>","null","feedback","","","","","","","0"
"","","","","","html-keyboard-response","34","97331","0.0-4.0-0.6","60e9ea97d19e613e60a994da","656d9e5e2de4f984cfed7d4d","656d9f52dcacc13a8f17fb31","428","
            
        <div style=""text-align: center; position: fixed; top: 5vh; left: 40vw;"">
            <div style=""margin:0 auto; width: 20vw; top: 8vh; font-size: 2vw""> 
            <font color=""green""> Bonus : $0 </font>
            </div>
        </div>
    
            <div> Please press any key to continue to the next image.</div>
        ","audiovolumedown","ITI","","","","","","",""
"","","","","","html-keyboard-response","35","97932","0.0-4.0-1.6","60e9ea97d19e613e60a994da","656d9e5e2de4f984cfed7d4d","656d9f52dcacc13a8f17fb31","null","
        
        <div style=""text-align: center; position: fixed; top: 5vh; left: 40vw;"">
            <div style=""margin:0 auto; width: 20vw; top: 8vh; font-size: 2vw""> 
            <font color=""green""> Bonus : $0 </font>
            </div>
        </div>
    
        <img class=""stim"" src=./stimuli//pack_shapes_1/cat_1/diff_2/ex_1_2_15.png></img>
    ","null","stimulus","","","","","","",""
"","","","","","html-keyboard-response","36","98934","0.0-4.0-2.6","60e9ea97d19e613e60a994da","656d9e5e2de4f984cfed7d4d","656d9f52dcacc13a8f17fb31","null","
        <div style=""text-align: center; position: fixed; top: 5vh; left: 40vw;"">
            <div style=""margin:0 auto; width: 20vw; top: 8vh; font-size: 2vw""> 
            <font color=""green""> Bonus : $0 </font>
            </div>
        </div>
    ","null","","","","","","","",""
"","","","","","html-keyboard-response","37","99676","0.0-4.0-3.6","60e9ea97d19e613e60a994da","656d9e5e2de4f984cfed7d4d","656d9f52dcacc13a8f17fb31","741","./stimuli//pack_shapes_1/cat_1/diff_2/ex_1_2_15.png","arrowright","response","ArrowLeft","15","1","2","train","false",""
"","","","","","html-keyboard-response","38","101177","0.0-4.0-4.6","60e9ea97d19e613e60a994da","656d9e5e2de4f984cfed7d4d","656d9f52dcacc13a8f17fb31","null","<p> <font color=""red"" size=""5vw""> Wrong category! </font> </p>","null","feedback","","","","","","","0"
"","","","","","html-keyboard-response","39","102563","0.0-4.0-0.7","60e9ea97d19e613e60a994da","656d9e5e2de4f984cfed7d4d","656d9f52dcacc13a8f17fb31","1385","
            
        <div style=""text-align: center; position: fixed; top: 5vh; left: 40vw;"">
            <div style=""margin:0 auto; width: 20vw; top: 8vh; font-size: 2vw""> 
            <font color=""green""> Bonus : $0 </font>
            </div>
        </div>
    
            <div> Please press any key to continue to the next image.</div>
        "," ","ITI","","","","","","",""
"","","","","","html-keyboard-response","40","103164","0.0-4.0-1.7","60e9ea97d19e613e60a994da","656d9e5e2de4f984cfed7d4d","656d9f52dcacc13a8f17fb31","null","
        
        <div style=""text-align: center; position: fixed; top: 5vh; left: 40vw;"">
            <div style=""margin:0 auto; width: 20vw; top: 8vh; font-size: 2vw""> 
            <font color=""green""> Bonus : $0 </font>
            </div>
        </div>
    
        <img class=""stim"" src=./stimuli//pack_shapes_1/cat_2/diff_2/ex_2_2_3.png></img>
    ","null","stimulus","","","","","","",""
"","","","","","html-keyboard-response","41","104175","0.0-4.0-2.7","60e9ea97d19e613e60a994da","656d9e5e2de4f984cfed7d4d","656d9f52dcacc13a8f17fb31","null","
        <div style=""text-align: center; position: fixed; top: 5vh; left: 40vw;"">
            <div style=""margin:0 auto; width: 20vw; top: 8vh; font-size: 2vw""> 
            <font color=""green""> Bonus : $0 </font>
            </div>
        </div>
    ","null","","","","","","","",""
"","","","","","html-keyboard-response","42","106680","0.0-4.0-3.7","60e9ea97d19e613e60a994da","656d9e5e2de4f984cfed7d4d","656d9f52dcacc13a8f17fb31","2505","./stimuli//pack_shapes_1/cat_2/diff_2/ex_2_2_3.png","arrowright","response","ArrowRight","3","2","2","train","true",""
"","","","","","html-keyboard-response","43","108182","0.0-4.0-4.7","60e9ea97d19e613e60a994da","656d9e5e2de4f984cfed7d4d","656d9f52dcacc13a8f17fb31","null","<p><font color=""green"" size=""5vw""> Correct category! </font></p>","null","feedback","","","","","","","0"
"","","","","","html-keyboard-response","44","109109","0.0-4.0-0.8","60e9ea97d19e613e60a994da","656d9e5e2de4f984cfed7d4d","656d9f52dcacc13a8f17fb31","926","
            
        <div style=""text-align: center; position: fixed; top: 5vh; left: 40vw;"">
            <div style=""margin:0 auto; width: 20vw; top: 8vh; font-size: 2vw""> 
            <font color=""green""> Bonus : $0 </font>
            </div>
        </div>
    
            <div> Please press any key to continue to the next image.</div>
        "," ","ITI","","","","","","",""
"","","","","","html-keyboard-response","45","109711","0.0-4.0-1.8","60e9ea97d19e613e60a994da","656d9e5e2de4f984cfed7d4d","656d9f52dcacc13a8f17fb31","null","
        
        <div style=""text-align: center; position: fixed; top: 5vh; left: 40vw;"">
            <div style=""margin:0 auto; width: 20vw; top: 8vh; font-size: 2vw""> 
            <font color=""green""> Bonus : $0 </font>
            </div>
        </div>
    
        <img class=""stim"" src=./stimuli//pack_shapes_1/cat_1/diff_1/ex_1_1_6.png></img>
    ","null","stimulus","","","","","","",""
"","","","","","html-keyboard-response","46","110713","0.0-4.0-2.8","60e9ea97d19e613e60a994da","656d9e5e2de4f984cfed7d4d","656d9f52dcacc13a8f17fb31","null","
        <div style=""text-align: center; position: fixed; top: 5vh; left: 40vw;"">
            <div style=""margin:0 auto; width: 20vw; top: 8vh; font-size: 2vw""> 
            <font color=""green""> Bonus : $0 </font>
            </div>
        </div>
    ","null","","","","","","","",""
"","","","","","html-keyboard-response","47","111583","0.0-4.0-3.8","60e9ea97d19e613e60a994da","656d9e5e2de4f984cfed7d4d","656d9f52dcacc13a8f17fb31","870","./stimuli//pack_shapes_1/cat_1/diff_1/ex_1_1_6.png","arrowright","response","ArrowLeft","6","1","1","train","false",""
"","","","","","html-keyboard-response","48","113084","0.0-4.0-4.8","60e9ea97d19e613e60a994da","656d9e5e2de4f984cfed7d4d","656d9f52dcacc13a8f17fb31","null","<p> <font color=""red"" size=""5vw""> Wrong category! </font> </p>","null","feedback","","","","","","","0"
"","","","","","html-keyboard-response","49","115203","0.0-4.0-0.9","60e9ea97d19e613e60a994da","656d9e5e2de4f984cfed7d4d","656d9f52dcacc13a8f17fb31","2119","
            
        <div style=""text-align: center; position: fixed; top: 5vh; left: 40vw;"">
            <div style=""margin:0 auto; width: 20vw; top: 8vh; font-size: 2vw""> 
            <font color=""green""> Bonus : $0 </font>
            </div>
        </div>
    
            <div> Please press any key to continue to the next image.</div>
        "," ","ITI","","","","","","",""
"","","","","","html-keyboard-response","50","115810","0.0-4.0-1.9","60e9ea97d19e613e60a994da","656d9e5e2de4f984cfed7d4d","656d9f52dcacc13a8f17fb31","null","
        
        <div style=""text-align: center; position: fixed; top: 5vh; left: 40vw;"">
            <div style=""margin:0 auto; width: 20vw; top: 8vh; font-size: 2vw""> 
            <font color=""green""> Bonus : $0 </font>
            </div>
        </div>
    
        <img class=""stim"" src=./stimuli//pack_shapes_1/cat_2/diff_1/ex_2_1_15.png></img>
    ","null","stimulus","","","","","","",""
"","","","","","html-keyboard-response","51","116811","0.0-4.0-2.9","60e9ea97d19e613e60a994da","656d9e5e2de4f984cfed7d4d","656d9f52dcacc13a8f17fb31","null","
        <div style=""text-align: center; position: fixed; top: 5vh; left: 40vw;"">
            <div style=""margin:0 auto; width: 20vw; top: 8vh; font-size: 2vw""> 
            <font color=""green""> Bonus : $0 </font>
            </div>
        </div>
    ","null","","","","","","","",""
"","","","","","html-keyboard-response","52","117302","0.0-4.0-3.9","60e9ea97d19e613e60a994da","656d9e5e2de4f984cfed7d4d","656d9f52dcacc13a8f17fb31","490","./stimuli//pack_shapes_1/cat_2/diff_1/ex_2_1_15.png","arrowleft","response","ArrowRight","15","2","1","train","false",""
"","","","","","html-keyboard-response","53","118802","0.0-4.0-4.9","60e9ea97d19e613e60a994da","656d9e5e2de4f984cfed7d4d","656d9f52dcacc13a8f17fb31","null","<p> <font color=""red"" size=""5vw""> Wrong category! </font> </p>","null","feedback","","","","","","","0"
"","","","","","html-keyboard-response","54","133876","0.0-5.0","60e9ea97d19e613e60a994da","656d9e5e2de4f984cfed7d4d","656d9f52dcacc13a8f17fb31","15072","
            <b> <p> The practice round has finished.</p>
            <p> For the rest of the experiment you will receive a $0.05 bonus for each correct answer and lose $0.05 from your bonus for each incorrect answer!</p>
            <p> The bonus can not become less than $0. </b>
            <p> Press any key to begin the test. </p>
            "," ","intermission","","","","","","",""
"","","","","","html-keyboard-response","55","134942","0.0-6.0-0.0","60e9ea97d19e613e60a994da","656d9e5e2de4f984cfed7d4d","656d9f52dcacc13a8f17fb31","1066","
            
        <div style=""text-align: center; position: fixed; top: 5vh; left: 40vw;"">
            <div style=""margin:0 auto; width: 20vw; top: 8vh; font-size: 2vw""> 
            <font color=""green""> Bonus : $0 </font>
            </div>
        </div>
    
            <div> Please press any key to continue to the next image.</div>
        "," ","ITI","","","","","","",""
"","","","","","html-keyboard-response","56","135543","0.0-6.0-1.0","60e9ea97d19e613e60a994da","656d9e5e2de4f984cfed7d4d","656d9f52dcacc13a8f17fb31","null","
        
        <div style=""text-align: center; position: fixed; top: 5vh; left: 40vw;"">
            <div style=""margin:0 auto; width: 20vw; top: 8vh; font-size: 2vw""> 
            <font color=""green""> Bonus : $0 </font>
            </div>
        </div>
    
        <img class=""stim"" src=./stimuli//pack_shapes_1/cat_2/diff_1/ex_2_1_10.png></img>
    ","null","stimulus","","","","","","",""
"","","","","","html-keyboard-response","57","136556","0.0-6.0-2.0","60e9ea97d19e613e60a994da","656d9e5e2de4f984cfed7d4d","656d9f52dcacc13a8f17fb31","null","
        <div style=""text-align: center; position: fixed; top: 5vh; left: 40vw;"">
            <div style=""margin:0 auto; width: 20vw; top: 8vh; font-size: 2vw""> 
            <font color=""green""> Bonus : $0 </font>
            </div>
        </div>
    ","null","","","","","","","",""
"","","","","","html-keyboard-response","58","137286","0.0-6.0-3.0","60e9ea97d19e613e60a994da","656d9e5e2de4f984cfed7d4d","656d9f52dcacc13a8f17fb31","729","./stimuli//pack_shapes_1/cat_2/diff_1/ex_2_1_10.png","arrowleft","response","ArrowRight","10","2","1","test","false",""
"","","","","","html-keyboard-response","59","138787","0.0-6.0-4.0","60e9ea97d19e613e60a994da","656d9e5e2de4f984cfed7d4d","656d9f52dcacc13a8f17fb31","null","<p> <font color=""red"" size=""5vw""> Wrong category! </font> </p>","null","feedback","","","","","","","0"
"","","","","","html-keyboard-response","60","139595","0.0-6.1-0.1","60e9ea97d19e613e60a994da","656d9e5e2de4f984cfed7d4d","656d9f52dcacc13a8f17fb31","807","
            
        <div style=""text-align: center; position: fixed; top: 5vh; left: 40vw;"">
            <div style=""margin:0 auto; width: 20vw; top: 8vh; font-size: 2vw""> 
            <font color=""green""> Bonus : $0 </font>
            </div>
        </div>
    
            <div> Please press any key to continue to the next image.</div>
        "," ","ITI","","","","","","",""
"","","","","","html-keyboard-response","61","140197","0.0-6.1-1.1","60e9ea97d19e613e60a994da","656d9e5e2de4f984cfed7d4d","656d9f52dcacc13a8f17fb31","null","
        
        <div style=""text-align: center; position: fixed; top: 5vh; left: 40vw;"">
            <div style=""margin:0 auto; width: 20vw; top: 8vh; font-size: 2vw""> 
            <font color=""green""> Bonus : $0 </font>
            </div>
        </div>
    
        <img class=""stim"" src=./stimuli//pack_shapes_1/cat_1/diff_1/ex_1_1_16.png></img>
    ","null","stimulus","","","","","","",""
"","","","","","html-keyboard-response","62","141199","0.0-6.1-2.1","60e9ea97d19e613e60a994da","656d9e5e2de4f984cfed7d4d","656d9f52dcacc13a8f17fb31","null","
        <div style=""text-align: center; position: fixed; top: 5vh; left: 40vw;"">
            <div style=""margin:0 auto; width: 20vw; top: 8vh; font-size: 2vw""> 
            <font color=""green""> Bonus : $0 </font>
            </div>
        </div>
    ","null","","","","","","","",""
"","","","","","html-keyboard-response","63","142194","0.0-6.1-3.1","60e9ea97d19e613e60a994da","656d9e5e2de4f984cfed7d4d","656d9f52dcacc13a8f17fb31","994","./stimuli//pack_shapes_1/cat_1/diff_1/ex_1_1_16.png","arrowright","response","ArrowLeft","16","1","1","test","false",""
"","","","","","html-keyboard-response","64","143695","0.0-6.1-4.1","60e9ea97d19e613e60a994da","656d9e5e2de4f984cfed7d4d","656d9f52dcacc13a8f17fb31","null","<p> <font color=""red"" size=""5vw""> Wrong category! </font> </p>","null","feedback","","","","","","","0"
"","","","","","html-keyboard-response","65","144744","0.0-6.2-0.2","60e9ea97d19e613e60a994da","656d9e5e2de4f984cfed7d4d","656d9f52dcacc13a8f17fb31","1049","
            
        <div style=""text-align: center; position: fixed; top: 5vh; left: 40vw;"">
            <div style=""margin:0 auto; width: 20vw; top: 8vh; font-size: 2vw""> 
            <font color=""green""> Bonus : $0 </font>
            </div>
        </div>
    
            <div> Please press any key to continue to the next image.</div>
        "," ","ITI","","","","","","",""
"","","","","","html-keyboard-response","66","145345","0.0-6.2-1.2","60e9ea97d19e613e60a994da","656d9e5e2de4f984cfed7d4d","656d9f52dcacc13a8f17fb31","null","
        
        <div style=""text-align: center; position: fixed; top: 5vh; left: 40vw;"">
            <div style=""margin:0 auto; width: 20vw; top: 8vh; font-size: 2vw""> 
            <font color=""green""> Bonus : $0 </font>
            </div>
        </div>
    
        <img class=""stim"" src=./stimuli//pack_shapes_1/cat_1/diff_1/ex_1_1_8.png></img>
    ","null","stimulus","","","","","","",""
"","","","","","html-keyboard-response","67","146347","0.0-6.2-2.2","60e9ea97d19e613e60a994da","656d9e5e2de4f984cfed7d4d","656d9f52dcacc13a8f17fb31","null","
        <div style=""text-align: center; position: fixed; top: 5vh; left: 40vw;"">
            <div style=""margin:0 auto; width: 20vw; top: 8vh; font-size: 2vw""> 
            <font color=""green""> Bonus : $0 </font>
            </div>
        </div>
    ","null","","","","","","","",""
"","","","","","html-keyboard-response","68","146648","0.0-6.2-3.2","60e9ea97d19e613e60a994da","656d9e5e2de4f984cfed7d4d","656d9f52dcacc13a8f17fb31","300","./stimuli//pack_shapes_1/cat_1/diff_1/ex_1_1_8.png","arrowleft","response","ArrowLeft","8","1","1","test","true",""
"","","","","","html-keyboard-response","69","148149","0.0-6.2-4.2","60e9ea97d19e613e60a994da","656d9e5e2de4f984cfed7d4d","656d9f52dcacc13a8f17fb31","null","<p> <font color=""green"" size=""5vw""> Correct category! </font> <br> <br> <font color=""green"" size=""8vw""> + $0.05 </font> </p>","null","feedback","","","","","","","0.05"
"","","","","","html-keyboard-response","70","149061","0.0-6.3-0.3","60e9ea97d19e613e60a994da","656d9e5e2de4f984cfed7d4d","656d9f52dcacc13a8f17fb31","911","
            
        <div style=""text-align: center; position: fixed; top: 5vh; left: 40vw;"">
            <div style=""margin:0 auto; width: 20vw; top: 8vh; font-size: 2vw""> 
            <font color=""green""> Bonus : $0.05 </font>
            </div>
        </div>
    
            <div> Please press any key to continue to the next image.</div>
        "," ","ITI","","","","","","",""
"","","","","","html-keyboard-response","71","149663","0.0-6.3-1.3","60e9ea97d19e613e60a994da","656d9e5e2de4f984cfed7d4d","656d9f52dcacc13a8f17fb31","null","
        
        <div style=""text-align: center; position: fixed; top: 5vh; left: 40vw;"">
            <div style=""margin:0 auto; width: 20vw; top: 8vh; font-size: 2vw""> 
            <font color=""green""> Bonus : $0.05 </font>
            </div>
        </div>
    
        <img class=""stim"" src=./stimuli//pack_shapes_1/cat_1/diff_1/ex_1_1_12.png></img>
    ","null","stimulus","","","","","","",""
"","","","","","html-keyboard-response","72","150664","0.0-6.3-2.3","60e9ea97d19e613e60a994da","656d9e5e2de4f984cfed7d4d","656d9f52dcacc13a8f17fb31","null","
        <div style=""text-align: center; position: fixed; top: 5vh; left: 40vw;"">
            <div style=""margin:0 auto; width: 20vw; top: 8vh; font-size: 2vw""> 
            <font color=""green""> Bonus : $0.05 </font>
            </div>
        </div>
    ","null","","","","","","","",""
"","","","","","html-keyboard-response","73","150938","0.0-6.3-3.3","60e9ea97d19e613e60a994da","656d9e5e2de4f984cfed7d4d","656d9f52dcacc13a8f17fb31","273","./stimuli//pack_shapes_1/cat_1/diff_1/ex_1_1_12.png","arrowleft","response","ArrowLeft","12","1","1","test","true",""
"","","","","","html-keyboard-response","74","152439","0.0-6.3-4.3","60e9ea97d19e613e60a994da","656d9e5e2de4f984cfed7d4d","656d9f52dcacc13a8f17fb31","null","<p> <font color=""green"" size=""5vw""> Correct category! </font> <br> <br> <font color=""green"" size=""8vw""> + $0.05 </font> </p>","null","feedback","","","","","","","0.1"
"","","","","","html-keyboard-response","75","153383","0.0-6.4-0.4","60e9ea97d19e613e60a994da","656d9e5e2de4f984cfed7d4d","656d9f52dcacc13a8f17fb31","944","
            
        <div style=""text-align: center; position: fixed; top: 5vh; left: 40vw;"">
            <div style=""margin:0 auto; width: 20vw; top: 8vh; font-size: 2vw""> 
            <font color=""green""> Bonus : $0.1 </font>
            </div>
        </div>
    
            <div> Please press any key to continue to the next image.</div>
        "," ","ITI","","","","","","",""
"","","","","","html-keyboard-response","76","153985","0.0-6.4-1.4","60e9ea97d19e613e60a994da","656d9e5e2de4f984cfed7d4d","656d9f52dcacc13a8f17fb31","null","
        
        <div style=""text-align: center; position: fixed; top: 5vh; left: 40vw;"">
            <div style=""margin:0 auto; width: 20vw; top: 8vh; font-size: 2vw""> 
            <font color=""green""> Bonus : $0.1 </font>
            </div>
        </div>
    
        <img class=""stim"" src=./stimuli//pack_shapes_1/cat_2/diff_1/ex_2_1_11.png></img>
    ","null","stimulus","","","","","","",""
"","","","","","html-keyboard-response","77","154987","0.0-6.4-2.4","60e9ea97d19e613e60a994da","656d9e5e2de4f984cfed7d4d","656d9f52dcacc13a8f17fb31","null","
        <div style=""text-align: center; position: fixed; top: 5vh; left: 40vw;"">
            <div style=""margin:0 auto; width: 20vw; top: 8vh; font-size: 2vw""> 
            <font color=""green""> Bonus : $0.1 </font>
            </div>
        </div>
    ","null","","","","","","","",""
"","","","","","html-keyboard-response","78","155286","0.0-6.4-3.4","60e9ea97d19e613e60a994da","656d9e5e2de4f984cfed7d4d","656d9f52dcacc13a8f17fb31","299","./stimuli//pack_shapes_1/cat_2/diff_1/ex_2_1_11.png","arrowleft","response","ArrowRight","11","2","1","test","false",""
"","","","","","html-keyboard-response","79","156787","0.0-6.4-4.4","60e9ea97d19e613e60a994da","656d9e5e2de4f984cfed7d4d","656d9f52dcacc13a8f17fb31","null","<p> <font color=""red"" size=""5vw""> Wrong category! </font> <br> <br> <font color=""red"" size=""8vw""> - $0.05 </font> </p>","null","feedback","","","","","","","0.05"
"","","","","","html-keyboard-response","80","158663","0.0-6.5-0.5","60e9ea97d19e613e60a994da","656d9e5e2de4f984cfed7d4d","656d9f52dcacc13a8f17fb31","1876","
            
        <div style=""text-align: center; position: fixed; top: 5vh; left: 40vw;"">
            <div style=""margin:0 auto; width: 20vw; top: 8vh; font-size: 2vw""> 
            <font color=""green""> Bonus : $0.05 </font>
            </div>
        </div>
    
            <div> Please press any key to continue to the next image.</div>
        "," ","ITI","","","","","","",""
"","","","","","html-keyboard-response","81","159264","0.0-6.5-1.5","60e9ea97d19e613e60a994da","656d9e5e2de4f984cfed7d4d","656d9f52dcacc13a8f17fb31","null","
        
        <div style=""text-align: center; position: fixed; top: 5vh; left: 40vw;"">
            <div style=""margin:0 auto; width: 20vw; top: 8vh; font-size: 2vw""> 
            <font color=""green""> Bonus : $0.05 </font>
            </div>
        </div>
    
        <img class=""stim"" src=./stimuli//pack_shapes_1/cat_1/diff_1/ex_1_1_11.png></img>
    ","null","stimulus","","","","","","",""
"","","","","","html-keyboard-response","82","160272","0.0-6.5-2.5","60e9ea97d19e613e60a994da","656d9e5e2de4f984cfed7d4d","656d9f52dcacc13a8f17fb31","null","
        <div style=""text-align: center; position: fixed; top: 5vh; left: 40vw;"">
            <div style=""margin:0 auto; width: 20vw; top: 8vh; font-size: 2vw""> 
            <font color=""green""> Bonus : $0.05 </font>
            </div>
        </div>
    ","null","","","","","","","",""
"","","","","","html-keyboard-response","83","160650","0.0-6.5-3.5","60e9ea97d19e613e60a994da","656d9e5e2de4f984cfed7d4d","656d9f52dcacc13a8f17fb31","378","./stimuli//pack_shapes_1/cat_1/diff_1/ex_1_1_11.png","arrowleft","response","ArrowLeft","11","1","1","test","true",""
"","","","","","html-keyboard-response","84","162151","0.0-6.5-4.5","60e9ea97d19e613e60a994da","656d9e5e2de4f984cfed7d4d","656d9f52dcacc13a8f17fb31","null","<p> <font color=""green"" size=""5vw""> Correct category! </font> <br> <br> <font color=""green"" size=""8vw""> + $0.05 </font> </p>","null","feedback","","","","","","","0.1"
"","","","","","html-keyboard-response","85","162874","0.0-6.6-0.6","60e9ea97d19e613e60a994da","656d9e5e2de4f984cfed7d4d","656d9f52dcacc13a8f17fb31","723","
            
        <div style=""text-align: center; position: fixed; top: 5vh; left: 40vw;"">
            <div style=""margin:0 auto; width: 20vw; top: 8vh; font-size: 2vw""> 
            <font color=""green""> Bonus : $0.1 </font>
            </div>
        </div>
    
            <div> Please press any key to continue to the next image.</div>
        "," ","ITI","","","","","","",""
"","","","","","html-keyboard-response","86","163481","0.0-6.6-1.6","60e9ea97d19e613e60a994da","656d9e5e2de4f984cfed7d4d","656d9f52dcacc13a8f17fb31","null","
        
        <div style=""text-align: center; position: fixed; top: 5vh; left: 40vw;"">
            <div style=""margin:0 auto; width: 20vw; top: 8vh; font-size: 2vw""> 
            <font color=""green""> Bonus : $0.1 </font>
            </div>
        </div>
    
        <img class=""stim"" src=./stimuli//pack_shapes_1/cat_2/diff_1/ex_2_1_16.png></img>
    ","null","stimulus","","","","","","",""
"","","","","","html-keyboard-response","87","164483","0.0-6.6-2.6","60e9ea97d19e613e60a994da","656d9e5e2de4f984cfed7d4d","656d9f52dcacc13a8f17fb31","null","
        <div style=""text-align: center; position: fixed; top: 5vh; left: 40vw;"">
            <div style=""margin:0 auto; width: 20vw; top: 8vh; font-size: 2vw""> 
            <font color=""green""> Bonus : $0.1 </font>
            </div>
        </div>
    ","null","","","","","","","",""
"","","","","","html-keyboard-response","88","164718","0.0-6.6-3.6","60e9ea97d19e613e60a994da","656d9e5e2de4f984cfed7d4d","656d9f52dcacc13a8f17fb31","234","./stimuli//pack_shapes_1/cat_2/diff_1/ex_2_1_16.png","arrowright","response","ArrowRight","16","2","1","test","true",""
"","","","","","html-keyboard-response","89","166219","0.0-6.6-4.6","60e9ea97d19e613e60a994da","656d9e5e2de4f984cfed7d4d","656d9f52dcacc13a8f17fb31","null","<p> <font color=""green"" size=""5vw""> Correct category! </font> <br> <br> <font color=""green"" size=""8vw""> + $0.05 </font> </p>","null","feedback","","","","","","","0.15"
"","","","","","html-keyboard-response","90","168000","0.0-6.7-0.7","60e9ea97d19e613e60a994da","656d9e5e2de4f984cfed7d4d","656d9f52dcacc13a8f17fb31","1781","
            
        <div style=""text-align: center; position: fixed; top: 5vh; left: 40vw;"">
            <div style=""margin:0 auto; width: 20vw; top: 8vh; font-size: 2vw""> 
            <font color=""green""> Bonus : $0.15 </font>
            </div>
        </div>
    
            <div> Please press any key to continue to the next image.</div>
        "," ","ITI","","","","","","",""
"","","","","","html-keyboard-response","91","168601","0.0-6.7-1.7","60e9ea97d19e613e60a994da","656d9e5e2de4f984cfed7d4d","656d9f52dcacc13a8f17fb31","null","
        
        <div style=""text-align: center; position: fixed; top: 5vh; left: 40vw;"">
            <div style=""margin:0 auto; width: 20vw; top: 8vh; font-size: 2vw""> 
            <font color=""green""> Bonus : $0.15 </font>
            </div>
        </div>
    
        <img class=""stim"" src=./stimuli//pack_shapes_1/cat_2/diff_2/ex_2_2_13.png></img>
    ","null","stimulus","","","","","","",""
"","","","","","html-keyboard-response","92","169602","0.0-6.7-2.7","60e9ea97d19e613e60a994da","656d9e5e2de4f984cfed7d4d","656d9f52dcacc13a8f17fb31","null","
        <div style=""text-align: center; position: fixed; top: 5vh; left: 40vw;"">
            <div style=""margin:0 auto; width: 20vw; top: 8vh; font-size: 2vw""> 
            <font color=""green""> Bonus : $0.15 </font>
            </div>
        </div>
    ","null","","","","","","","",""
"","","","","","html-keyboard-response","93","169833","0.0-6.7-3.7","60e9ea97d19e613e60a994da","656d9e5e2de4f984cfed7d4d","656d9f52dcacc13a8f17fb31","230","./stimuli//pack_shapes_1/cat_2/diff_2/ex_2_2_13.png","arrowleft","response","ArrowRight","13","2","2","test","false",""
"","","","","","html-keyboard-response","94","171334","0.0-6.7-4.7","60e9ea97d19e613e60a994da","656d9e5e2de4f984cfed7d4d","656d9f52dcacc13a8f17fb31","null","<p> <font color=""red"" size=""5vw""> Wrong category! </font> <br> <br> <font color=""red"" size=""8vw""> - $0.05 </font> </p>","null","feedback","","","","","","","0.1"
"","","","","","html-keyboard-response","95","173150","0.0-6.8-0.8","60e9ea97d19e613e60a994da","656d9e5e2de4f984cfed7d4d","656d9f52dcacc13a8f17fb31","1815","
            
        <div style=""text-align: center; position: fixed; top: 5vh; left: 40vw;"">
            <div style=""margin:0 auto; width: 20vw; top: 8vh; font-size: 2vw""> 
            <font color=""green""> Bonus : $0.1 </font>
            </div>
        </div>
    
            <div> Please press any key to continue to the next image.</div>
        "," ","ITI","","","","","","",""
"","","","","","html-keyboard-response","96","173752","0.0-6.8-1.8","60e9ea97d19e613e60a994da","656d9e5e2de4f984cfed7d4d","656d9f52dcacc13a8f17fb31","null","
        
        <div style=""text-align: center; position: fixed; top: 5vh; left: 40vw;"">
            <div style=""margin:0 auto; width: 20vw; top: 8vh; font-size: 2vw""> 
            <font color=""green""> Bonus : $0.1 </font>
            </div>
        </div>
    
        <img class=""stim"" src=./stimuli//pack_shapes_1/cat_1/diff_2/ex_1_2_12.png></img>
    ","null","stimulus","","","","","","",""
"","","","","","html-keyboard-response","97","174754","0.0-6.8-2.8","60e9ea97d19e613e60a994da","656d9e5e2de4f984cfed7d4d","656d9f52dcacc13a8f17fb31","null","
        <div style=""text-align: center; position: fixed; top: 5vh; left: 40vw;"">
            <div style=""margin:0 auto; width: 20vw; top: 8vh; font-size: 2vw""> 
            <font color=""green""> Bonus : $0.1 </font>
            </div>
        </div>
    ","null","","","","","","","",""
"","","","","","html-keyboard-response","98","175119","0.0-6.8-3.8","60e9ea97d19e613e60a994da","656d9e5e2de4f984cfed7d4d","656d9f52dcacc13a8f17fb31","364","./stimuli//pack_shapes_1/cat_1/diff_2/ex_1_2_12.png","arrowright","response","ArrowLeft","12","1","2","test","false",""
"","","","","","html-keyboard-response","99","176620","0.0-6.8-4.8","60e9ea97d19e613e60a994da","656d9e5e2de4f984cfed7d4d","656d9f52dcacc13a8f17fb31","null","<p> <font color=""red"" size=""5vw""> Wrong category! </font> <br> <br> <font color=""red"" size=""8vw""> - $0.05 </font> </p>","null","feedback","","","","","","","0.05"
"","","","","","html-keyboard-response","100","178354","0.0-6.9-0.9","60e9ea97d19e613e60a994da","656d9e5e2de4f984cfed7d4d","656d9f52dcacc13a8f17fb31","1733","
            
        <div style=""text-align: center; position: fixed; top: 5vh; left: 40vw;"">
            <div style=""margin:0 auto; width: 20vw; top: 8vh; font-size: 2vw""> 
            <font color=""green""> Bonus : $0.05 </font>
            </div>
        </div>
    
            <div> Please press any key to continue to the next image.</div>
        "," ","ITI","","","","","","",""
"","","","","","html-keyboard-response","101","178955","0.0-6.9-1.9","60e9ea97d19e613e60a994da","656d9e5e2de4f984cfed7d4d","656d9f52dcacc13a8f17fb31","null","
        
        <div style=""text-align: center; position: fixed; top: 5vh; left: 40vw;"">
            <div style=""margin:0 auto; width: 20vw; top: 8vh; font-size: 2vw""> 
            <font color=""green""> Bonus : $0.05 </font>
            </div>
        </div>
    
        <img class=""stim"" src=./stimuli//pack_shapes_1/cat_1/diff_2/ex_1_2_1.png></img>
    ","null","stimulus","","","","","","",""
"","","","","","html-keyboard-response","102","179957","0.0-6.9-2.9","60e9ea97d19e613e60a994da","656d9e5e2de4f984cfed7d4d","656d9f52dcacc13a8f17fb31","null","
        <div style=""text-align: center; position: fixed; top: 5vh; left: 40vw;"">
            <div style=""margin:0 auto; width: 20vw; top: 8vh; font-size: 2vw""> 
            <font color=""green""> Bonus : $0.05 </font>
            </div>
        </div>
    ","null","","","","","","","",""
"","","","","","html-keyboard-response","103","180660","0.0-6.9-3.9","60e9ea97d19e613e60a994da","656d9e5e2de4f984cfed7d4d","656d9f52dcacc13a8f17fb31","703","./stimuli//pack_shapes_1/cat_1/diff_2/ex_1_2_1.png","arrowleft","response","ArrowLeft","1","1","2","test","true",""
"","","","","","html-keyboard-response","104","182162","0.0-6.9-4.9","60e9ea97d19e613e60a994da","656d9e5e2de4f984cfed7d4d","656d9f52dcacc13a8f17fb31","null","<p> <font color=""green"" size=""5vw""> Correct category! </font> <br> <br> <font color=""green"" size=""8vw""> + $0.05 </font> </p>","null","feedback","","","","","","","0.1"
"","","","","","html-keyboard-response","105","187219","0.0-6.10-0.10","60e9ea97d19e613e60a994da","656d9e5e2de4f984cfed7d4d","656d9f52dcacc13a8f17fb31","5056","
            
        <div style=""text-align: center; position: fixed; top: 5vh; left: 40vw;"">
            <div style=""margin:0 auto; width: 20vw; top: 8vh; font-size: 2vw""> 
            <font color=""green""> Bonus : $0.1 </font>
            </div>
        </div>
    
            <div> Please press any key to continue to the next image.</div>
        "," ","ITI","","","","","","",""
"","","","","","html-keyboard-response","106","187820","0.0-6.10-1.10","60e9ea97d19e613e60a994da","656d9e5e2de4f984cfed7d4d","656d9f52dcacc13a8f17fb31","null","
        
        <div style=""text-align: center; position: fixed; top: 5vh; left: 40vw;"">
            <div style=""margin:0 auto; width: 20vw; top: 8vh; font-size: 2vw""> 
            <font color=""green""> Bonus : $0.1 </font>
            </div>
        </div>
    
        <img class=""stim"" src=./stimuli//pack_shapes_1/cat_1/diff_2/ex_1_2_17.png></img>
    ","null","stimulus","","","","","","",""
"","","","","","html-keyboard-response","107","188822","0.0-6.10-2.10","60e9ea97d19e613e60a994da","656d9e5e2de4f984cfed7d4d","656d9f52dcacc13a8f17fb31","null","
        <div style=""text-align: center; position: fixed; top: 5vh; left: 40vw;"">
            <div style=""margin:0 auto; width: 20vw; top: 8vh; font-size: 2vw""> 
            <font color=""green""> Bonus : $0.1 </font>
            </div>
        </div>
    ","null","","","","","","","",""
"","","","","","html-keyboard-response","108","189198","0.0-6.10-3.10","60e9ea97d19e613e60a994da","656d9e5e2de4f984cfed7d4d","656d9f52dcacc13a8f17fb31","376","./stimuli//pack_shapes_1/cat_1/diff_2/ex_1_2_17.png","arrowleft","response","ArrowLeft","17","1","2","test","true",""
"","","","","","html-keyboard-response","109","190699","0.0-6.10-4.10","60e9ea97d19e613e60a994da","656d9e5e2de4f984cfed7d4d","656d9f52dcacc13a8f17fb31","null","<p> <font color=""green"" size=""5vw""> Correct category! </font> <br> <br> <font color=""green"" size=""8vw""> + $0.05 </font> </p>","null","feedback","","","","","","","0.15"
"","","","","","html-keyboard-response","110","191240","0.0-6.11-0.11","60e9ea97d19e613e60a994da","656d9e5e2de4f984cfed7d4d","656d9f52dcacc13a8f17fb31","540","
            
        <div style=""text-align: center; position: fixed; top: 5vh; left: 40vw;"">
            <div style=""margin:0 auto; width: 20vw; top: 8vh; font-size: 2vw""> 
            <font color=""green""> Bonus : $0.15 </font>
            </div>
        </div>
    
            <div> Please press any key to continue to the next image.</div>
        "," ","ITI","","","","","","",""
"","","","","","html-keyboard-response","111","191841","0.0-6.11-1.11","60e9ea97d19e613e60a994da","656d9e5e2de4f984cfed7d4d","656d9f52dcacc13a8f17fb31","null","
        
        <div style=""text-align: center; position: fixed; top: 5vh; left: 40vw;"">
            <div style=""margin:0 auto; width: 20vw; top: 8vh; font-size: 2vw""> 
            <font color=""green""> Bonus : $0.15 </font>
            </div>
        </div>
    
        <img class=""stim"" src=./stimuli//pack_shapes_1/cat_2/diff_2/ex_2_2_12.png></img>
    ","null","stimulus","","","","","","",""
"","","","","","html-keyboard-response","112","192842","0.0-6.11-2.11","60e9ea97d19e613e60a994da","656d9e5e2de4f984cfed7d4d","656d9f52dcacc13a8f17fb31","null","
        <div style=""text-align: center; position: fixed; top: 5vh; left: 40vw;"">
            <div style=""margin:0 auto; width: 20vw; top: 8vh; font-size: 2vw""> 
            <font color=""green""> Bonus : $0.15 </font>
            </div>
        </div>
    ","null","","","","","","","",""
"","","","","","html-keyboard-response","113","193525","0.0-6.11-3.11","60e9ea97d19e613e60a994da","656d9e5e2de4f984cfed7d4d","656d9f52dcacc13a8f17fb31","683","./stimuli//pack_shapes_1/cat_2/diff_2/ex_2_2_12.png","arrowleft","response","ArrowRight","12","2","2","test","false",""
"","","","","","html-keyboard-response","114","195027","0.0-6.11-4.11","60e9ea97d19e613e60a994da","656d9e5e2de4f984cfed7d4d","656d9f52dcacc13a8f17fb31","null","<p> <font color=""red"" size=""5vw""> Wrong category! </font> <br> <br> <font color=""red"" size=""8vw""> - $0.05 </font> </p>","null","feedback","","","","","","","0.1"
"","","","","","html-keyboard-response","115","195963","0.0-6.12-0.12","60e9ea97d19e613e60a994da","656d9e5e2de4f984cfed7d4d","656d9f52dcacc13a8f17fb31","936","
            
        <div style=""text-align: center; position: fixed; top: 5vh; left: 40vw;"">
            <div style=""margin:0 auto; width: 20vw; top: 8vh; font-size: 2vw""> 
            <font color=""green""> Bonus : $0.1 </font>
            </div>
        </div>
    
            <div> Please press any key to continue to the next image.</div>
        "," ","ITI","","","","","","",""
"","","","","","html-keyboard-response","116","196574","0.0-6.12-1.12","60e9ea97d19e613e60a994da","656d9e5e2de4f984cfed7d4d","656d9f52dcacc13a8f17fb31","null","
        
        <div style=""text-align: center; position: fixed; top: 5vh; left: 40vw;"">
            <div style=""margin:0 auto; width: 20vw; top: 8vh; font-size: 2vw""> 
            <font color=""green""> Bonus : $0.1 </font>
            </div>
        </div>
    
        <img class=""stim"" src=./stimuli//pack_shapes_1/cat_1/diff_1/ex_1_1_8.png></img>
    ","null","stimulus","","","","","","",""
"","","","","","html-keyboard-response","117","197575","0.0-6.12-2.12","60e9ea97d19e613e60a994da","656d9e5e2de4f984cfed7d4d","656d9f52dcacc13a8f17fb31","null","
        <div style=""text-align: center; position: fixed; top: 5vh; left: 40vw;"">
            <div style=""margin:0 auto; width: 20vw; top: 8vh; font-size: 2vw""> 
            <font color=""green""> Bonus : $0.1 </font>
            </div>
        </div>
    ","null","","","","","","","",""
"","","","","","html-keyboard-response","118","198123","0.0-6.12-3.12","60e9ea97d19e613e60a994da","656d9e5e2de4f984cfed7d4d","656d9f52dcacc13a8f17fb31","547","./stimuli//pack_shapes_1/cat_1/diff_1/ex_1_1_8.png","arrowright","response","ArrowLeft","8","1","1","test","false",""
"","","","","","html-keyboard-response","119","199624","0.0-6.12-4.12","60e9ea97d19e613e60a994da","656d9e5e2de4f984cfed7d4d","656d9f52dcacc13a8f17fb31","null","<p> <font color=""red"" size=""5vw""> Wrong category! </font> <br> <br> <font color=""red"" size=""8vw""> - $0.05 </font> </p>","null","feedback","","","","","","","0.05"
"","","","","","html-keyboard-response","120","200644","0.0-6.13-0.13","60e9ea97d19e613e60a994da","656d9e5e2de4f984cfed7d4d","656d9f52dcacc13a8f17fb31","1019","
            
        <div style=""text-align: center; position: fixed; top: 5vh; left: 40vw;"">
            <div style=""margin:0 auto; width: 20vw; top: 8vh; font-size: 2vw""> 
            <font color=""green""> Bonus : $0.05 </font>
            </div>
        </div>
    
            <div> Please press any key to continue to the next image.</div>
        "," ","ITI","","","","","","",""
"","","","","","html-keyboard-response","121","201246","0.0-6.13-1.13","60e9ea97d19e613e60a994da","656d9e5e2de4f984cfed7d4d","656d9f52dcacc13a8f17fb31","null","
        
        <div style=""text-align: center; position: fixed; top: 5vh; left: 40vw;"">
            <div style=""margin:0 auto; width: 20vw; top: 8vh; font-size: 2vw""> 
            <font color=""green""> Bonus : $0.05 </font>
            </div>
        </div>
    
        <img class=""stim"" src=./stimuli//pack_shapes_1/cat_1/diff_1/ex_1_1_12.png></img>
    ","null","stimulus","","","","","","",""
"","","","","","html-keyboard-response","122","202247","0.0-6.13-2.13","60e9ea97d19e613e60a994da","656d9e5e2de4f984cfed7d4d","656d9f52dcacc13a8f17fb31","null","
        <div style=""text-align: center; position: fixed; top: 5vh; left: 40vw;"">
            <div style=""margin:0 auto; width: 20vw; top: 8vh; font-size: 2vw""> 
            <font color=""green""> Bonus : $0.05 </font>
            </div>
        </div>
    ","null","","","","","","","",""
"","","","","","html-keyboard-response","123","202845","0.0-6.13-3.13","60e9ea97d19e613e60a994da","656d9e5e2de4f984cfed7d4d","656d9f52dcacc13a8f17fb31","597","./stimuli//pack_shapes_1/cat_1/diff_1/ex_1_1_12.png","arrowleft","response","ArrowLeft","12","1","1","test","true",""
"","","","","","html-keyboard-response","124","204345","0.0-6.13-4.13","60e9ea97d19e613e60a994da","656d9e5e2de4f984cfed7d4d","656d9f52dcacc13a8f17fb31","null","<p> <font color=""green"" size=""5vw""> Correct category! </font> <br> <br> <font color=""green"" size=""8vw""> + $0.05 </font> </p>","null","feedback","","","","","","","0.1"
"","","","","","html-keyboard-response","125","206386","0.0-6.14-0.14","60e9ea97d19e613e60a994da","656d9e5e2de4f984cfed7d4d","656d9f52dcacc13a8f17fb31","2040","
            
        <div style=""text-align: center; position: fixed; top: 5vh; left: 40vw;"">
            <div style=""margin:0 auto; width: 20vw; top: 8vh; font-size: 2vw""> 
            <font color=""green""> Bonus : $0.1 </font>
            </div>
        </div>
    
            <div> Please press any key to continue to the next image.</div>
        "," ","ITI","","","","","","",""
"","","","","","html-keyboard-response","126","206988","0.0-6.14-1.14","60e9ea97d19e613e60a994da","656d9e5e2de4f984cfed7d4d","656d9f52dcacc13a8f17fb31","null","
        
        <div style=""text-align: center; position: fixed; top: 5vh; left: 40vw;"">
            <div style=""margin:0 auto; width: 20vw; top: 8vh; font-size: 2vw""> 
            <font color=""green""> Bonus : $0.1 </font>
            </div>
        </div>
    
        <img class=""stim"" src=./stimuli//pack_shapes_1/cat_1/diff_1/ex_1_1_15.png></img>
    ","null","stimulus","","","","","","",""
"","","","","","html-keyboard-response","127","207990","0.0-6.14-2.14","60e9ea97d19e613e60a994da","656d9e5e2de4f984cfed7d4d","656d9f52dcacc13a8f17fb31","null","
        <div style=""text-align: center; position: fixed; top: 5vh; left: 40vw;"">
            <div style=""margin:0 auto; width: 20vw; top: 8vh; font-size: 2vw""> 
            <font color=""green""> Bonus : $0.1 </font>
            </div>
        </div>
    ","null","","","","","","","",""
"","","","","","html-keyboard-response","128","208276","0.0-6.14-3.14","60e9ea97d19e613e60a994da","656d9e5e2de4f984cfed7d4d","656d9f52dcacc13a8f17fb31","286","./stimuli//pack_shapes_1/cat_1/diff_1/ex_1_1_15.png","arrowleft","response","ArrowLeft","15","1","1","test","true",""
"","","","","","html-keyboard-response","129","209777","0.0-6.14-4.14","60e9ea97d19e613e60a994da","656d9e5e2de4f984cfed7d4d","656d9f52dcacc13a8f17fb31","null","<p> <font color=""green"" size=""5vw""> Correct category! </font> <br> <br> <font color=""green"" size=""8vw""> + $0.05 </font> </p>","null","feedback","","","","","","","0.15"
"","","","","","html-keyboard-response","130","210646","0.0-6.15-0.15","60e9ea97d19e613e60a994da","656d9e5e2de4f984cfed7d4d","656d9f52dcacc13a8f17fb31","869","
            
        <div style=""text-align: center; position: fixed; top: 5vh; left: 40vw;"">
            <div style=""margin:0 auto; width: 20vw; top: 8vh; font-size: 2vw""> 
            <font color=""green""> Bonus : $0.15 </font>
            </div>
        </div>
    
            <div> Please press any key to continue to the next image.</div>
        "," ","ITI","","","","","","",""
"","","","","","html-keyboard-response","131","211249","0.0-6.15-1.15","60e9ea97d19e613e60a994da","656d9e5e2de4f984cfed7d4d","656d9f52dcacc13a8f17fb31","null","
        
        <div style=""text-align: center; position: fixed; top: 5vh; left: 40vw;"">
            <div style=""margin:0 auto; width: 20vw; top: 8vh; font-size: 2vw""> 
            <font color=""green""> Bonus : $0.15 </font>
            </div>
        </div>
    
        <img class=""stim"" src=./stimuli//pack_shapes_1/cat_2/diff_1/ex_2_1_17.png></img>
    ","null","stimulus","","","","","","",""
"","","","","","html-keyboard-response","132","212251","0.0-6.15-2.15","60e9ea97d19e613e60a994da","656d9e5e2de4f984cfed7d4d","656d9f52dcacc13a8f17fb31","null","
        <div style=""text-align: center; position: fixed; top: 5vh; left: 40vw;"">
            <div style=""margin:0 auto; width: 20vw; top: 8vh; font-size: 2vw""> 
            <font color=""green""> Bonus : $0.15 </font>
            </div>
        </div>
    ","null","","","","","","","",""
"","","","","","html-keyboard-response","133","212701","0.0-6.15-3.15","60e9ea97d19e613e60a994da","656d9e5e2de4f984cfed7d4d","656d9f52dcacc13a8f17fb31","450","./stimuli//pack_shapes_1/cat_2/diff_1/ex_2_1_17.png","arrowleft","response","ArrowRight","17","2","1","test","false",""
"","","","","","html-keyboard-response","134","214203","0.0-6.15-4.15","60e9ea97d19e613e60a994da","656d9e5e2de4f984cfed7d4d","656d9f52dcacc13a8f17fb31","null","<p> <font color=""red"" size=""5vw""> Wrong category! </font> <br> <br> <font color=""red"" size=""8vw""> - $0.05 </font> </p>","null","feedback","","","","","","","0.1"
"","","","","","html-keyboard-response","135","215366","0.0-6.16-0.16","60e9ea97d19e613e60a994da","656d9e5e2de4f984cfed7d4d","656d9f52dcacc13a8f17fb31","1163","
            
        <div style=""text-align: center; position: fixed; top: 5vh; left: 40vw;"">
            <div style=""margin:0 auto; width: 20vw; top: 8vh; font-size: 2vw""> 
            <font color=""green""> Bonus : $0.1 </font>
            </div>
        </div>
    
            <div> Please press any key to continue to the next image.</div>
        "," ","ITI","","","","","","",""
"","","","","","html-keyboard-response","136","215967","0.0-6.16-1.16","60e9ea97d19e613e60a994da","656d9e5e2de4f984cfed7d4d","656d9f52dcacc13a8f17fb31","null","
        
        <div style=""text-align: center; position: fixed; top: 5vh; left: 40vw;"">
            <div style=""margin:0 auto; width: 20vw; top: 8vh; font-size: 2vw""> 
            <font color=""green""> Bonus : $0.1 </font>
            </div>
        </div>
    
        <img class=""stim"" src=./stimuli//pack_shapes_1/cat_1/diff_1/ex_1_1_16.png></img>
    ","null","stimulus","","","","","","",""
"","","","","","html-keyboard-response","137","216968","0.0-6.16-2.16","60e9ea97d19e613e60a994da","656d9e5e2de4f984cfed7d4d","656d9f52dcacc13a8f17fb31","null","
        <div style=""text-align: center; position: fixed; top: 5vh; left: 40vw;"">
            <div style=""margin:0 auto; width: 20vw; top: 8vh; font-size: 2vw""> 
            <font color=""green""> Bonus : $0.1 </font>
            </div>
        </div>
    ","null","","","","","","","",""
"","","","","","html-keyboard-response","138","217947","0.0-6.16-3.16","60e9ea97d19e613e60a994da","656d9e5e2de4f984cfed7d4d","656d9f52dcacc13a8f17fb31","979","./stimuli//pack_shapes_1/cat_1/diff_1/ex_1_1_16.png","arrowleft","response","ArrowLeft","16","1","1","test","true",""
"","","","","","html-keyboard-response","139","219449","0.0-6.16-4.16","60e9ea97d19e613e60a994da","656d9e5e2de4f984cfed7d4d","656d9f52dcacc13a8f17fb31","null","<p> <font color=""green"" size=""5vw""> Correct category! </font> <br> <br> <font color=""green"" size=""8vw""> + $0.05 </font> </p>","null","feedback","","","","","","","0.15"
"","","","","","html-keyboard-response","140","220156","0.0-6.17-0.17","60e9ea97d19e613e60a994da","656d9e5e2de4f984cfed7d4d","656d9f52dcacc13a8f17fb31","706","
            
        <div style=""text-align: center; position: fixed; top: 5vh; left: 40vw;"">
            <div style=""margin:0 auto; width: 20vw; top: 8vh; font-size: 2vw""> 
            <font color=""green""> Bonus : $0.15 </font>
            </div>
        </div>
    
            <div> Please press any key to continue to the next image.</div>
        "," ","ITI","","","","","","",""
"","","","","","html-keyboard-response","141","220771","0.0-6.17-1.17","60e9ea97d19e613e60a994da","656d9e5e2de4f984cfed7d4d","656d9f52dcacc13a8f17fb31","null","
        
        <div style=""text-align: center; position: fixed; top: 5vh; left: 40vw;"">
            <div style=""margin:0 auto; width: 20vw; top: 8vh; font-size: 2vw""> 
            <font color=""green""> Bonus : $0.15 </font>
            </div>
        </div>
    
        <img class=""stim"" src=./stimuli//pack_shapes_1/cat_1/diff_1/ex_1_1_10.png></img>
    ","null","stimulus","","","","","","",""
"","","","","","html-keyboard-response","142","221773","0.0-6.17-2.17","60e9ea97d19e613e60a994da","656d9e5e2de4f984cfed7d4d","656d9f52dcacc13a8f17fb31","null","
        <div style=""text-align: center; position: fixed; top: 5vh; left: 40vw;"">
            <div style=""margin:0 auto; width: 20vw; top: 8vh; font-size: 2vw""> 
            <font color=""green""> Bonus : $0.15 </font>
            </div>
        </div>
    ","null","","","","","","","",""
"","","","","","html-keyboard-response","143","222225","0.0-6.17-3.17","60e9ea97d19e613e60a994da","656d9e5e2de4f984cfed7d4d","656d9f52dcacc13a8f17fb31","452","./stimuli//pack_shapes_1/cat_1/diff_1/ex_1_1_10.png","arrowright","response","ArrowLeft","10","1","1","test","false",""
"","","","","","html-keyboard-response","144","223727","0.0-6.17-4.17","60e9ea97d19e613e60a994da","656d9e5e2de4f984cfed7d4d","656d9f52dcacc13a8f17fb31","null","<p> <font color=""red"" size=""5vw""> Wrong category! </font> <br> <br> <font color=""red"" size=""8vw""> - $0.05 </font> </p>","null","feedback","","","","","","","0.1"
"","","","","","html-keyboard-response","145","224414","0.0-6.18-0.18","60e9ea97d19e613e60a994da","656d9e5e2de4f984cfed7d4d","656d9f52dcacc13a8f17fb31","686","
            
        <div style=""text-align: center; position: fixed; top: 5vh; left: 40vw;"">
            <div style=""margin:0 auto; width: 20vw; top: 8vh; font-size: 2vw""> 
            <font color=""green""> Bonus : $0.1 </font>
            </div>
        </div>
    
            <div> Please press any key to continue to the next image.</div>
        "," ","ITI","","","","","","",""
"","","","","","html-keyboard-response","146","225016","0.0-6.18-1.18","60e9ea97d19e613e60a994da","656d9e5e2de4f984cfed7d4d","656d9f52dcacc13a8f17fb31","null","
        
        <div style=""text-align: center; position: fixed; top: 5vh; left: 40vw;"">
            <div style=""margin:0 auto; width: 20vw; top: 8vh; font-size: 2vw""> 
            <font color=""green""> Bonus : $0.1 </font>
            </div>
        </div>
    
        <img class=""stim"" src=./stimuli//pack_shapes_1/cat_1/diff_1/ex_1_1_9.png></img>
    ","null","stimulus","","","","","","",""
"","","","","","html-keyboard-response","147","226016","0.0-6.18-2.18","60e9ea97d19e613e60a994da","656d9e5e2de4f984cfed7d4d","656d9f52dcacc13a8f17fb31","null","
        <div style=""text-align: center; position: fixed; top: 5vh; left: 40vw;"">
            <div style=""margin:0 auto; width: 20vw; top: 8vh; font-size: 2vw""> 
            <font color=""green""> Bonus : $0.1 </font>
            </div>
        </div>
    ","null","","","","","","","",""
"","","","","","html-keyboard-response","148","226893","0.0-6.18-3.18","60e9ea97d19e613e60a994da","656d9e5e2de4f984cfed7d4d","656d9f52dcacc13a8f17fb31","876","./stimuli//pack_shapes_1/cat_1/diff_1/ex_1_1_9.png","arrowright","response","ArrowLeft","9","1","1","test","false",""
"","","","","","html-keyboard-response","149","228395","0.0-6.18-4.18","60e9ea97d19e613e60a994da","656d9e5e2de4f984cfed7d4d","656d9f52dcacc13a8f17fb31","null","<p> <font color=""red"" size=""5vw""> Wrong category! </font> <br> <br> <font color=""red"" size=""8vw""> - $0.05 </font> </p>","null","feedback","","","","","","","0.05"
"","","","","","html-keyboard-response","150","229204","0.0-6.19-0.19","60e9ea97d19e613e60a994da","656d9e5e2de4f984cfed7d4d","656d9f52dcacc13a8f17fb31","809","
            
        <div style=""text-align: center; position: fixed; top: 5vh; left: 40vw;"">
            <div style=""margin:0 auto; width: 20vw; top: 8vh; font-size: 2vw""> 
            <font color=""green""> Bonus : $0.05 </font>
            </div>
        </div>
    
            <div> Please press any key to continue to the next image.</div>
        "," ","ITI","","","","","","",""
"","","","","","html-keyboard-response","151","229806","0.0-6.19-1.19","60e9ea97d19e613e60a994da","656d9e5e2de4f984cfed7d4d","656d9f52dcacc13a8f17fb31","null","
        
        <div style=""text-align: center; position: fixed; top: 5vh; left: 40vw;"">
            <div style=""margin:0 auto; width: 20vw; top: 8vh; font-size: 2vw""> 
            <font color=""green""> Bonus : $0.05 </font>
            </div>
        </div>
    
        <img class=""stim"" src=./stimuli//pack_shapes_1/cat_1/diff_1/ex_1_1_10.png></img>
    ","null","stimulus","","","","","","",""
"","","","","","html-keyboard-response","152","230807","0.0-6.19-2.19","60e9ea97d19e613e60a994da","656d9e5e2de4f984cfed7d4d","656d9f52dcacc13a8f17fb31","null","
        <div style=""text-align: center; position: fixed; top: 5vh; left: 40vw;"">
            <div style=""margin:0 auto; width: 20vw; top: 8vh; font-size: 2vw""> 
            <font color=""green""> Bonus : $0.05 </font>
            </div>
        </div>
    ","null","","","","","","","",""
"","","","","","html-keyboard-response","153","231046","0.0-6.19-3.19","60e9ea97d19e613e60a994da","656d9e5e2de4f984cfed7d4d","656d9f52dcacc13a8f17fb31","238","./stimuli//pack_shapes_1/cat_1/diff_1/ex_1_1_10.png","arrowleft","response","ArrowLeft","10","1","1","test","true",""
"","","","","","html-keyboard-response","154","232547","0.0-6.19-4.19","60e9ea97d19e613e60a994da","656d9e5e2de4f984cfed7d4d","656d9f52dcacc13a8f17fb31","null","<p> <font color=""green"" size=""5vw""> Correct category! </font> <br> <br> <font color=""green"" size=""8vw""> + $0.05 </font> </p>","null","feedback","","","","","","","0.1"
"","","","","","html-keyboard-response","155","233648","0.0-6.20-0.20","60e9ea97d19e613e60a994da","656d9e5e2de4f984cfed7d4d","656d9f52dcacc13a8f17fb31","1100","
            
        <div style=""text-align: center; position: fixed; top: 5vh; left: 40vw;"">
            <div style=""margin:0 auto; width: 20vw; top: 8vh; font-size: 2vw""> 
            <font color=""green""> Bonus : $0.1 </font>
            </div>
        </div>
    
            <div> Please press any key to continue to the next image.</div>
        "," ","ITI","","","","","","",""
"","","","","","html-keyboard-response","156","234250","0.0-6.20-1.20","60e9ea97d19e613e60a994da","656d9e5e2de4f984cfed7d4d","656d9f52dcacc13a8f17fb31","null","
        
        <div style=""text-align: center; position: fixed; top: 5vh; left: 40vw;"">
            <div style=""margin:0 auto; width: 20vw; top: 8vh; font-size: 2vw""> 
            <font color=""green""> Bonus : $0.1 </font>
            </div>
        </div>
    
        <img class=""stim"" src=./stimuli//pack_shapes_1/cat_2/diff_1/ex_2_1_1.png></img>
    ","null","stimulus","","","","","","",""
"","","","","","html-keyboard-response","157","235251","0.0-6.20-2.20","60e9ea97d19e613e60a994da","656d9e5e2de4f984cfed7d4d","656d9f52dcacc13a8f17fb31","null","
        <div style=""text-align: center; position: fixed; top: 5vh; left: 40vw;"">
            <div style=""margin:0 auto; width: 20vw; top: 8vh; font-size: 2vw""> 
            <font color=""green""> Bonus : $0.1 </font>
            </div>
        </div>
    ","null","","","","","","","",""
"","","","","","html-keyboard-response","158","236516","0.0-6.20-3.20","60e9ea97d19e613e60a994da","656d9e5e2de4f984cfed7d4d","656d9f52dcacc13a8f17fb31","1265","./stimuli//pack_shapes_1/cat_2/diff_1/ex_2_1_1.png","arrowleft","response","ArrowRight","1","2","1","test","false",""
"","","","","","html-keyboard-response","159","238018","0.0-6.20-4.20","60e9ea97d19e613e60a994da","656d9e5e2de4f984cfed7d4d","656d9f52dcacc13a8f17fb31","null","<p> <font color=""red"" size=""5vw""> Wrong category! </font> <br> <br> <font color=""red"" size=""8vw""> - $0.05 </font> </p>","null","feedback","","","","","","","0.05"
"","","","","","html-keyboard-response","160","239099","0.0-6.21-0.21","60e9ea97d19e613e60a994da","656d9e5e2de4f984cfed7d4d","656d9f52dcacc13a8f17fb31","1080","
            
        <div style=""text-align: center; position: fixed; top: 5vh; left: 40vw;"">
            <div style=""margin:0 auto; width: 20vw; top: 8vh; font-size: 2vw""> 
            <font color=""green""> Bonus : $0.05 </font>
            </div>
        </div>
    
            <div> Please press any key to continue to the next image.</div>
        "," ","ITI","","","","","","",""
"","","","","","html-keyboard-response","161","239700","0.0-6.21-1.21","60e9ea97d19e613e60a994da","656d9e5e2de4f984cfed7d4d","656d9f52dcacc13a8f17fb31","null","
        
        <div style=""text-align: center; position: fixed; top: 5vh; left: 40vw;"">
            <div style=""margin:0 auto; width: 20vw; top: 8vh; font-size: 2vw""> 
            <font color=""green""> Bonus : $0.05 </font>
            </div>
        </div>
    
        <img class=""stim"" src=./stimuli//pack_shapes_1/cat_2/diff_1/ex_2_1_10.png></img>
    ","null","stimulus","","","","","","",""
"","","","","","html-keyboard-response","162","240701","0.0-6.21-2.21","60e9ea97d19e613e60a994da","656d9e5e2de4f984cfed7d4d","656d9f52dcacc13a8f17fb31","null","
        <div style=""text-align: center; position: fixed; top: 5vh; left: 40vw;"">
            <div style=""margin:0 auto; width: 20vw; top: 8vh; font-size: 2vw""> 
            <font color=""green""> Bonus : $0.05 </font>
            </div>
        </div>
    ","null","","","","","","","",""
"","","","","","html-keyboard-response","163","241162","0.0-6.21-3.21","60e9ea97d19e613e60a994da","656d9e5e2de4f984cfed7d4d","656d9f52dcacc13a8f17fb31","460","./stimuli//pack_shapes_1/cat_2/diff_1/ex_2_1_10.png","arrowleft","response","ArrowRight","10","2","1","test","false",""
"","","","","","html-keyboard-response","164","242663","0.0-6.21-4.21","60e9ea97d19e613e60a994da","656d9e5e2de4f984cfed7d4d","656d9f52dcacc13a8f17fb31","null","<p> <font color=""red"" size=""5vw""> Wrong category! </font> <br> <br> <font color=""red"" size=""8vw""> - $0.05 </font> </p>","null","feedback","","","","","","","0"
"","","","","","html-keyboard-response","165","243740","0.0-6.22-0.22","60e9ea97d19e613e60a994da","656d9e5e2de4f984cfed7d4d","656d9f52dcacc13a8f17fb31","1076","
            
        <div style=""text-align: center; position: fixed; top: 5vh; left: 40vw;"">
            <div style=""margin:0 auto; width: 20vw; top: 8vh; font-size: 2vw""> 
            <font color=""green""> Bonus : $0 </font>
            </div>
        </div>
    
            <div> Please press any key to continue to the next image.</div>
        "," ","ITI","","","","","","",""
"","","","","","html-keyboard-response","166","244349","0.0-6.22-1.22","60e9ea97d19e613e60a994da","656d9e5e2de4f984cfed7d4d","656d9f52dcacc13a8f17fb31","null","
        
        <div style=""text-align: center; position: fixed; top: 5vh; left: 40vw;"">
            <div style=""margin:0 auto; width: 20vw; top: 8vh; font-size: 2vw""> 
            <font color=""green""> Bonus : $0 </font>
            </div>
        </div>
    
        <img class=""stim"" src=./stimuli//pack_shapes_1/cat_1/diff_1/ex_1_1_5.png></img>
    ","null","stimulus","","","","","","",""
"","","","","","html-keyboard-response","167","245351","0.0-6.22-2.22","60e9ea97d19e613e60a994da","656d9e5e2de4f984cfed7d4d","656d9f52dcacc13a8f17fb31","null","
        <div style=""text-align: center; position: fixed; top: 5vh; left: 40vw;"">
            <div style=""margin:0 auto; width: 20vw; top: 8vh; font-size: 2vw""> 
            <font color=""green""> Bonus : $0 </font>
            </div>
        </div>
    ","null","","","","","","","",""
"","","","","","html-keyboard-response","168","246746","0.0-6.22-3.22","60e9ea97d19e613e60a994da","656d9e5e2de4f984cfed7d4d","656d9f52dcacc13a8f17fb31","1395","./stimuli//pack_shapes_1/cat_1/diff_1/ex_1_1_5.png","arrowleft","response","ArrowLeft","5","1","1","test","true",""
"","","","","","html-keyboard-response","169","248247","0.0-6.22-4.22","60e9ea97d19e613e60a994da","656d9e5e2de4f984cfed7d4d","656d9f52dcacc13a8f17fb31","null","<p> <font color=""green"" size=""5vw""> Correct category! </font> <br> <br> <font color=""green"" size=""8vw""> + $0.05 </font> </p>","null","feedback","","","","","","","0.05"
"","","","","","html-keyboard-response","170","249691","0.0-6.23-0.23","60e9ea97d19e613e60a994da","656d9e5e2de4f984cfed7d4d","656d9f52dcacc13a8f17fb31","1443","
            
        <div style=""text-align: center; position: fixed; top: 5vh; left: 40vw;"">
            <div style=""margin:0 auto; width: 20vw; top: 8vh; font-size: 2vw""> 
            <font color=""green""> Bonus : $0.05 </font>
            </div>
        </div>
    
            <div> Please press any key to continue to the next image.</div>
        "," ","ITI","","","","","","",""
"","","","","","html-keyboard-response","171","250294","0.0-6.23-1.23","60e9ea97d19e613e60a994da","656d9e5e2de4f984cfed7d4d","656d9f52dcacc13a8f17fb31","null","
        
        <div style=""text-align: center; position: fixed; top: 5vh; left: 40vw;"">
            <div style=""margin:0 auto; width: 20vw; top: 8vh; font-size: 2vw""> 
            <font color=""green""> Bonus : $0.05 </font>
            </div>
        </div>
    
        <img class=""stim"" src=./stimuli//pack_shapes_1/cat_1/diff_1/ex_1_1_11.png></img>
    ","null","stimulus","","","","","","",""
"","","","","","html-keyboard-response","172","251295","0.0-6.23-2.23","60e9ea97d19e613e60a994da","656d9e5e2de4f984cfed7d4d","656d9f52dcacc13a8f17fb31","null","
        <div style=""text-align: center; position: fixed; top: 5vh; left: 40vw;"">
            <div style=""margin:0 auto; width: 20vw; top: 8vh; font-size: 2vw""> 
            <font color=""green""> Bonus : $0.05 </font>
            </div>
        </div>
    ","null","","","","","","","",""
"","","","","","html-keyboard-response","173","252036","0.0-6.23-3.23","60e9ea97d19e613e60a994da","656d9e5e2de4f984cfed7d4d","656d9f52dcacc13a8f17fb31","740","./stimuli//pack_shapes_1/cat_1/diff_1/ex_1_1_11.png","arrowleft","response","ArrowLeft","11","1","1","test","true",""
"","","","","","html-keyboard-response","174","253538","0.0-6.23-4.23","60e9ea97d19e613e60a994da","656d9e5e2de4f984cfed7d4d","656d9f52dcacc13a8f17fb31","null","<p> <font color=""green"" size=""5vw""> Correct category! </font> <br> <br> <font color=""green"" size=""8vw""> + $0.05 </font> </p>","null","feedback","","","","","","","0.1"
"","","","","","html-keyboard-response","175","254593","0.0-6.24-0.24","60e9ea97d19e613e60a994da","656d9e5e2de4f984cfed7d4d","656d9f52dcacc13a8f17fb31","1054","
            
        <div style=""text-align: center; position: fixed; top: 5vh; left: 40vw;"">
            <div style=""margin:0 auto; width: 20vw; top: 8vh; font-size: 2vw""> 
            <font color=""green""> Bonus : $0.1 </font>
            </div>
        </div>
    
            <div> Please press any key to continue to the next image.</div>
        "," ","ITI","","","","","","",""
"","","","","","html-keyboard-response","176","255195","0.0-6.24-1.24","60e9ea97d19e613e60a994da","656d9e5e2de4f984cfed7d4d","656d9f52dcacc13a8f17fb31","null","
        
        <div style=""text-align: center; position: fixed; top: 5vh; left: 40vw;"">
            <div style=""margin:0 auto; width: 20vw; top: 8vh; font-size: 2vw""> 
            <font color=""green""> Bonus : $0.1 </font>
            </div>
        </div>
    
        <img class=""stim"" src=./stimuli//pack_shapes_1/cat_1/diff_1/ex_1_1_1.png></img>
    ","null","stimulus","","","","","","",""
"","","","","","html-keyboard-response","177","256195","0.0-6.24-2.24","60e9ea97d19e613e60a994da","656d9e5e2de4f984cfed7d4d","656d9f52dcacc13a8f17fb31","null","
        <div style=""text-align: center; position: fixed; top: 5vh; left: 40vw;"">
            <div style=""margin:0 auto; width: 20vw; top: 8vh; font-size: 2vw""> 
            <font color=""green""> Bonus : $0.1 </font>
            </div>
        </div>
    ","null","","","","","","","",""
"","","","","","html-keyboard-response","178","256791","0.0-6.24-3.24","60e9ea97d19e613e60a994da","656d9e5e2de4f984cfed7d4d","656d9f52dcacc13a8f17fb31","595","./stimuli//pack_shapes_1/cat_1/diff_1/ex_1_1_1.png","arrowleft","response","ArrowLeft","1","1","1","test","true",""
"","","","","","html-keyboard-response","179","258292","0.0-6.24-4.24","60e9ea97d19e613e60a994da","656d9e5e2de4f984cfed7d4d","656d9f52dcacc13a8f17fb31","null","<p> <font color=""green"" size=""5vw""> Correct category! </font> <br> <br> <font color=""green"" size=""8vw""> + $0.05 </font> </p>","null","feedback","","","","","","","0.15"
"","","","","","html-keyboard-response","180","259214","0.0-6.25-0.25","60e9ea97d19e613e60a994da","656d9e5e2de4f984cfed7d4d","656d9f52dcacc13a8f17fb31","921","
            
        <div style=""text-align: center; position: fixed; top: 5vh; left: 40vw;"">
            <div style=""margin:0 auto; width: 20vw; top: 8vh; font-size: 2vw""> 
            <font color=""green""> Bonus : $0.15 </font>
            </div>
        </div>
    
            <div> Please press any key to continue to the next image.</div>
        "," ","ITI","","","","","","",""
"","","","","","html-keyboard-response","181","259815","0.0-6.25-1.25","60e9ea97d19e613e60a994da","656d9e5e2de4f984cfed7d4d","656d9f52dcacc13a8f17fb31","null","
        
        <div style=""text-align: center; position: fixed; top: 5vh; left: 40vw;"">
            <div style=""margin:0 auto; width: 20vw; top: 8vh; font-size: 2vw""> 
            <font color=""green""> Bonus : $0.15 </font>
            </div>
        </div>
    
        <img class=""stim"" src=./stimuli//pack_shapes_1/cat_1/diff_1/ex_1_1_13.png></img>
    ","null","stimulus","","","","","","",""
"","","","","","html-keyboard-response","182","260816","0.0-6.25-2.25","60e9ea97d19e613e60a994da","656d9e5e2de4f984cfed7d4d","656d9f52dcacc13a8f17fb31","null","
        <div style=""text-align: center; position: fixed; top: 5vh; left: 40vw;"">
            <div style=""margin:0 auto; width: 20vw; top: 8vh; font-size: 2vw""> 
            <font color=""green""> Bonus : $0.15 </font>
            </div>
        </div>
    ","null","","","","","","","",""
"","","","","","html-keyboard-response","183","261906","0.0-6.25-3.25","60e9ea97d19e613e60a994da","656d9e5e2de4f984cfed7d4d","656d9f52dcacc13a8f17fb31","1090","./stimuli//pack_shapes_1/cat_1/diff_1/ex_1_1_13.png","arrowleft","response","ArrowLeft","13","1","1","test","true",""
"","","","","","html-keyboard-response","184","263407","0.0-6.25-4.25","60e9ea97d19e613e60a994da","656d9e5e2de4f984cfed7d4d","656d9f52dcacc13a8f17fb31","null","<p> <font color=""green"" size=""5vw""> Correct category! </font> <br> <br> <font color=""green"" size=""8vw""> + $0.05 </font> </p>","null","feedback","","","","","","","0.2"
"","","","","","html-keyboard-response","185","264293","0.0-6.26-0.26","60e9ea97d19e613e60a994da","656d9e5e2de4f984cfed7d4d","656d9f52dcacc13a8f17fb31","885","
            
        <div style=""text-align: center; position: fixed; top: 5vh; left: 40vw;"">
            <div style=""margin:0 auto; width: 20vw; top: 8vh; font-size: 2vw""> 
            <font color=""green""> Bonus : $0.2 </font>
            </div>
        </div>
    
            <div> Please press any key to continue to the next image.</div>
        "," ","ITI","","","","","","",""
"","","","","","html-keyboard-response","186","264894","0.0-6.26-1.26","60e9ea97d19e613e60a994da","656d9e5e2de4f984cfed7d4d","656d9f52dcacc13a8f17fb31","null","
        
        <div style=""text-align: center; position: fixed; top: 5vh; left: 40vw;"">
            <div style=""margin:0 auto; width: 20vw; top: 8vh; font-size: 2vw""> 
            <font color=""green""> Bonus : $0.2 </font>
            </div>
        </div>
    
        <img class=""stim"" src=./stimuli//pack_shapes_1/cat_2/diff_2/ex_2_2_10.png></img>
    ","null","stimulus","","","","","","",""
"","","","","","html-keyboard-response","187","265896","0.0-6.26-2.26","60e9ea97d19e613e60a994da","656d9e5e2de4f984cfed7d4d","656d9f52dcacc13a8f17fb31","null","
        <div style=""text-align: center; position: fixed; top: 5vh; left: 40vw;"">
            <div style=""margin:0 auto; width: 20vw; top: 8vh; font-size: 2vw""> 
            <font color=""green""> Bonus : $0.2 </font>
            </div>
        </div>
    ","null","","","","","","","",""
"","","","","","html-keyboard-response","188","267209","0.0-6.26-3.26","60e9ea97d19e613e60a994da","656d9e5e2de4f984cfed7d4d","656d9f52dcacc13a8f17fb31","1312","./stimuli//pack_shapes_1/cat_2/diff_2/ex_2_2_10.png","arrowleft","response","ArrowRight","10","2","2","test","false",""
"","","","","","html-keyboard-response","189","268711","0.0-6.26-4.26","60e9ea97d19e613e60a994da","656d9e5e2de4f984cfed7d4d","656d9f52dcacc13a8f17fb31","null","<p> <font color=""red"" size=""5vw""> Wrong category! </font> <br> <br> <font color=""red"" size=""8vw""> - $0.05 </font> </p>","null","feedback","","","","","","","0.15"
"","","","","","html-keyboard-response","190","269326","0.0-6.27-0.27","60e9ea97d19e613e60a994da","656d9e5e2de4f984cfed7d4d","656d9f52dcacc13a8f17fb31","614","
            
        <div style=""text-align: center; position: fixed; top: 5vh; left: 40vw;"">
            <div style=""margin:0 auto; width: 20vw; top: 8vh; font-size: 2vw""> 
            <font color=""green""> Bonus : $0.15 </font>
            </div>
        </div>
    
            <div> Please press any key to continue to the next image.</div>
        "," ","ITI","","","","","","",""
"","","","","","html-keyboard-response","191","269942","0.0-6.27-1.27","60e9ea97d19e613e60a994da","656d9e5e2de4f984cfed7d4d","656d9f52dcacc13a8f17fb31","null","
        
        <div style=""text-align: center; position: fixed; top: 5vh; left: 40vw;"">
            <div style=""margin:0 auto; width: 20vw; top: 8vh; font-size: 2vw""> 
            <font color=""green""> Bonus : $0.15 </font>
            </div>
        </div>
    
        <img class=""stim"" src=./stimuli//pack_shapes_1/cat_1/diff_2/ex_1_2_3.png></img>
    ","null","stimulus","","","","","","",""
"","","","","","html-keyboard-response","192","270943","0.0-6.27-2.27","60e9ea97d19e613e60a994da","656d9e5e2de4f984cfed7d4d","656d9f52dcacc13a8f17fb31","null","
        <div style=""text-align: center; position: fixed; top: 5vh; left: 40vw;"">
            <div style=""margin:0 auto; width: 20vw; top: 8vh; font-size: 2vw""> 
            <font color=""green""> Bonus : $0.15 </font>
            </div>
        </div>
    ","null","","","","","","","",""
"","","","","","html-keyboard-response","193","271675","0.0-6.27-3.27","60e9ea97d19e613e60a994da","656d9e5e2de4f984cfed7d4d","656d9f52dcacc13a8f17fb31","731","./stimuli//pack_shapes_1/cat_1/diff_2/ex_1_2_3.png","arrowleft","response","ArrowLeft","3","1","2","test","true",""
"","","","","","html-keyboard-response","194","273176","0.0-6.27-4.27","60e9ea97d19e613e60a994da","656d9e5e2de4f984cfed7d4d","656d9f52dcacc13a8f17fb31","null","<p> <font color=""green"" size=""5vw""> Correct category! </font> <br> <br> <font color=""green"" size=""8vw""> + $0.05 </font> </p>","null","feedback","","","","","","","0.2"
"","","","","","html-keyboard-response","195","274066","0.0-6.28-0.28","60e9ea97d19e613e60a994da","656d9e5e2de4f984cfed7d4d","656d9f52dcacc13a8f17fb31","889","
            
        <div style=""text-align: center; position: fixed; top: 5vh; left: 40vw;"">
            <div style=""margin:0 auto; width: 20vw; top: 8vh; font-size: 2vw""> 
            <font color=""green""> Bonus : $0.2 </font>
            </div>
        </div>
    
            <div> Please press any key to continue to the next image.</div>
        "," ","ITI","","","","","","",""
"","","","","","html-keyboard-response","196","274669","0.0-6.28-1.28","60e9ea97d19e613e60a994da","656d9e5e2de4f984cfed7d4d","656d9f52dcacc13a8f17fb31","null","
        
        <div style=""text-align: center; position: fixed; top: 5vh; left: 40vw;"">
            <div style=""margin:0 auto; width: 20vw; top: 8vh; font-size: 2vw""> 
            <font color=""green""> Bonus : $0.2 </font>
            </div>
        </div>
    
        <img class=""stim"" src=./stimuli//pack_shapes_1/cat_1/diff_2/ex_1_2_10.png></img>
    ","null","stimulus","","","","","","",""
"","","","","","html-keyboard-response","197","275670","0.0-6.28-2.28","60e9ea97d19e613e60a994da","656d9e5e2de4f984cfed7d4d","656d9f52dcacc13a8f17fb31","null","
        <div style=""text-align: center; position: fixed; top: 5vh; left: 40vw;"">
            <div style=""margin:0 auto; width: 20vw; top: 8vh; font-size: 2vw""> 
            <font color=""green""> Bonus : $0.2 </font>
            </div>
        </div>
    ","null","","","","","","","",""
"","","","","","html-keyboard-response","198","276059","0.0-6.28-3.28","60e9ea97d19e613e60a994da","656d9e5e2de4f984cfed7d4d","656d9f52dcacc13a8f17fb31","388","./stimuli//pack_shapes_1/cat_1/diff_2/ex_1_2_10.png","arrowleft","response","ArrowLeft","10","1","2","test","true",""
"","","","","","html-keyboard-response","199","277560","0.0-6.28-4.28","60e9ea97d19e613e60a994da","656d9e5e2de4f984cfed7d4d","656d9f52dcacc13a8f17fb31","null","<p> <font color=""green"" size=""5vw""> Correct category! </font> <br> <br> <font color=""green"" size=""8vw""> + $0.05 </font> </p>","null","feedback","","","","","","","0.25"
"","","","","","html-keyboard-response","200","278254","0.0-6.29-0.29","60e9ea97d19e613e60a994da","656d9e5e2de4f984cfed7d4d","656d9f52dcacc13a8f17fb31","693","
            
        <div style=""text-align: center; position: fixed; top: 5vh; left: 40vw;"">
            <div style=""margin:0 auto; width: 20vw; top: 8vh; font-size: 2vw""> 
            <font color=""green""> Bonus : $0.25 </font>
            </div>
        </div>
    
            <div> Please press any key to continue to the next image.</div>
        "," ","ITI","","","","","","",""
"","","","","","html-keyboard-response","201","278856","0.0-6.29-1.29","60e9ea97d19e613e60a994da","656d9e5e2de4f984cfed7d4d","656d9f52dcacc13a8f17fb31","null","
        
        <div style=""text-align: center; position: fixed; top: 5vh; left: 40vw;"">
            <div style=""margin:0 auto; width: 20vw; top: 8vh; font-size: 2vw""> 
            <font color=""green""> Bonus : $0.25 </font>
            </div>
        </div>
    
        <img class=""stim"" src=./stimuli//pack_shapes_1/cat_1/diff_2/ex_1_2_9.png></img>
    ","null","stimulus","","","","","","",""
"","","","","","html-keyboard-response","202","279858","0.0-6.29-2.29","60e9ea97d19e613e60a994da","656d9e5e2de4f984cfed7d4d","656d9f52dcacc13a8f17fb31","null","
        <div style=""text-align: center; position: fixed; top: 5vh; left: 40vw;"">
            <div style=""margin:0 auto; width: 20vw; top: 8vh; font-size: 2vw""> 
            <font color=""green""> Bonus : $0.25 </font>
            </div>
        </div>
    ","null","","","","","","","",""
"","","","","","html-keyboard-response","203","280374","0.0-6.29-3.29","60e9ea97d19e613e60a994da","656d9e5e2de4f984cfed7d4d","656d9f52dcacc13a8f17fb31","516","./stimuli//pack_shapes_1/cat_1/diff_2/ex_1_2_9.png","arrowleft","response","ArrowLeft","9","1","2","test","true",""
"","","","","","html-keyboard-response","204","281885","0.0-6.29-4.29","60e9ea97d19e613e60a994da","656d9e5e2de4f984cfed7d4d","656d9f52dcacc13a8f17fb31","null","<p> <font color=""green"" size=""5vw""> Correct category! </font> <br> <br> <font color=""green"" size=""8vw""> + $0.05 </font> </p>","null","feedback","","","","","","","0.3"
"","","","","","html-keyboard-response","205","282506","0.0-6.30-0.30","60e9ea97d19e613e60a994da","656d9e5e2de4f984cfed7d4d","656d9f52dcacc13a8f17fb31","621","
            
        <div style=""text-align: center; position: fixed; top: 5vh; left: 40vw;"">
            <div style=""margin:0 auto; width: 20vw; top: 8vh; font-size: 2vw""> 
            <font color=""green""> Bonus : $0.3 </font>
            </div>
        </div>
    
            <div> Please press any key to continue to the next image.</div>
        "," ","ITI","","","","","","",""
"","","","","","html-keyboard-response","206","283109","0.0-6.30-1.30","60e9ea97d19e613e60a994da","656d9e5e2de4f984cfed7d4d","656d9f52dcacc13a8f17fb31","null","
        
        <div style=""text-align: center; position: fixed; top: 5vh; left: 40vw;"">
            <div style=""margin:0 auto; width: 20vw; top: 8vh; font-size: 2vw""> 
            <font color=""green""> Bonus : $0.3 </font>
            </div>
        </div>
    
        <img class=""stim"" src=./stimuli//pack_shapes_1/cat_2/diff_2/ex_2_2_8.png></img>
    ","null","stimulus","","","","","","",""
"","","","","","html-keyboard-response","207","284110","0.0-6.30-2.30","60e9ea97d19e613e60a994da","656d9e5e2de4f984cfed7d4d","656d9f52dcacc13a8f17fb31","null","
        <div style=""text-align: center; position: fixed; top: 5vh; left: 40vw;"">
            <div style=""margin:0 auto; width: 20vw; top: 8vh; font-size: 2vw""> 
            <font color=""green""> Bonus : $0.3 </font>
            </div>
        </div>
    ","null","","","","","","","",""
"","","","","","html-keyboard-response","208","284404","0.0-6.30-3.30","60e9ea97d19e613e60a994da","656d9e5e2de4f984cfed7d4d","656d9f52dcacc13a8f17fb31","294","./stimuli//pack_shapes_1/cat_2/diff_2/ex_2_2_8.png","arrowright","response","ArrowRight","8","2","2","test","true",""
"","","","","","html-keyboard-response","209","285905","0.0-6.30-4.30","60e9ea97d19e613e60a994da","656d9e5e2de4f984cfed7d4d","656d9f52dcacc13a8f17fb31","null","<p> <font color=""green"" size=""5vw""> Correct category! </font> <br> <br> <font color=""green"" size=""8vw""> + $0.05 </font> </p>","null","feedback","","","","","","","0.35"
"","","","","","html-keyboard-response","210","286872","0.0-6.31-0.31","60e9ea97d19e613e60a994da","656d9e5e2de4f984cfed7d4d","656d9f52dcacc13a8f17fb31","966","
            
        <div style=""text-align: center; position: fixed; top: 5vh; left: 40vw;"">
            <div style=""margin:0 auto; width: 20vw; top: 8vh; font-size: 2vw""> 
            <font color=""green""> Bonus : $0.35 </font>
            </div>
        </div>
    
            <div> Please press any key to continue to the next image.</div>
        "," ","ITI","","","","","","",""
"","","","","","html-keyboard-response","211","287473","0.0-6.31-1.31","60e9ea97d19e613e60a994da","656d9e5e2de4f984cfed7d4d","656d9f52dcacc13a8f17fb31","null","
        
        <div style=""text-align: center; position: fixed; top: 5vh; left: 40vw;"">
            <div style=""margin:0 auto; width: 20vw; top: 8vh; font-size: 2vw""> 
            <font color=""green""> Bonus : $0.35 </font>
            </div>
        </div>
    
        <img class=""stim"" src=./stimuli//pack_shapes_1/cat_2/diff_3/ex_2_3_16.png></img>
    ","null","stimulus","","","","","","",""
"","","","","","html-keyboard-response","212","288475","0.0-6.31-2.31","60e9ea97d19e613e60a994da","656d9e5e2de4f984cfed7d4d","656d9f52dcacc13a8f17fb31","null","
        <div style=""text-align: center; position: fixed; top: 5vh; left: 40vw;"">
            <div style=""margin:0 auto; width: 20vw; top: 8vh; font-size: 2vw""> 
            <font color=""green""> Bonus : $0.35 </font>
            </div>
        </div>
    ","null","","","","","","","",""
"","","","","","html-keyboard-response","213","288992","0.0-6.31-3.31","60e9ea97d19e613e60a994da","656d9e5e2de4f984cfed7d4d","656d9f52dcacc13a8f17fb31","516","./stimuli//pack_shapes_1/cat_2/diff_3/ex_2_3_16.png","arrowleft","response","ArrowRight","16","2","3","test","false",""
"","","","","","html-keyboard-response","214","290505","0.0-6.31-4.31","60e9ea97d19e613e60a994da","656d9e5e2de4f984cfed7d4d","656d9f52dcacc13a8f17fb31","null","<p> <font color=""red"" size=""5vw""> Wrong category! </font> <br> <br> <font color=""red"" size=""8vw""> - $0.05 </font> </p>","null","feedback","","","","","","","0.3"
"","","","","","html-keyboard-response","215","291350","0.0-6.32-0.32","60e9ea97d19e613e60a994da","656d9e5e2de4f984cfed7d4d","656d9f52dcacc13a8f17fb31","845","
            
        <div style=""text-align: center; position: fixed; top: 5vh; left: 40vw;"">
            <div style=""margin:0 auto; width: 20vw; top: 8vh; font-size: 2vw""> 
            <font color=""green""> Bonus : $0.3 </font>
            </div>
        </div>
    
            <div> Please press any key to continue to the next image.</div>
        "," ","ITI","","","","","","",""
"","","","","","html-keyboard-response","216","291954","0.0-6.32-1.32","60e9ea97d19e613e60a994da","656d9e5e2de4f984cfed7d4d","656d9f52dcacc13a8f17fb31","null","
        
        <div style=""text-align: center; position: fixed; top: 5vh; left: 40vw;"">
            <div style=""margin:0 auto; width: 20vw; top: 8vh; font-size: 2vw""> 
            <font color=""green""> Bonus : $0.3 </font>
            </div>
        </div>
    
        <img class=""stim"" src=./stimuli//pack_shapes_1/cat_2/diff_3/ex_2_3_7.png></img>
    ","null","stimulus","","","","","","",""
"","","","","","html-keyboard-response","217","292955","0.0-6.32-2.32","60e9ea97d19e613e60a994da","656d9e5e2de4f984cfed7d4d","656d9f52dcacc13a8f17fb31","null","
        <div style=""text-align: center; position: fixed; top: 5vh; left: 40vw;"">
            <div style=""margin:0 auto; width: 20vw; top: 8vh; font-size: 2vw""> 
            <font color=""green""> Bonus : $0.3 </font>
            </div>
        </div>
    ","null","","","","","","","",""
"","","","","","html-keyboard-response","218","293703","0.0-6.32-3.32","60e9ea97d19e613e60a994da","656d9e5e2de4f984cfed7d4d","656d9f52dcacc13a8f17fb31","748","./stimuli//pack_shapes_1/cat_2/diff_3/ex_2_3_7.png","arrowright","response","ArrowRight","7","2","3","test","true",""
"","","","","","html-keyboard-response","219","295205","0.0-6.32-4.32","60e9ea97d19e613e60a994da","656d9e5e2de4f984cfed7d4d","656d9f52dcacc13a8f17fb31","null","<p> <font color=""green"" size=""5vw""> Correct category! </font> <br> <br> <font color=""green"" size=""8vw""> + $0.05 </font> </p>","null","feedback","","","","","","","0.35"
"","","","","","html-keyboard-response","220","296177","0.0-6.33-0.33","60e9ea97d19e613e60a994da","656d9e5e2de4f984cfed7d4d","656d9f52dcacc13a8f17fb31","972","
            
        <div style=""text-align: center; position: fixed; top: 5vh; left: 40vw;"">
            <div style=""margin:0 auto; width: 20vw; top: 8vh; font-size: 2vw""> 
            <font color=""green""> Bonus : $0.35 </font>
            </div>
        </div>
    
            <div> Please press any key to continue to the next image.</div>
        "," ","ITI","","","","","","",""
"","","","","","html-keyboard-response","221","296780","0.0-6.33-1.33","60e9ea97d19e613e60a994da","656d9e5e2de4f984cfed7d4d","656d9f52dcacc13a8f17fb31","null","
        
        <div style=""text-align: center; position: fixed; top: 5vh; left: 40vw;"">
            <div style=""margin:0 auto; width: 20vw; top: 8vh; font-size: 2vw""> 
            <font color=""green""> Bonus : $0.35 </font>
            </div>
        </div>
    
        <img class=""stim"" src=./stimuli//pack_shapes_1/cat_1/diff_3/ex_1_3_2.png></img>
    ","null","stimulus","","","","","","",""
"","","","","","html-keyboard-response","222","297780","0.0-6.33-2.33","60e9ea97d19e613e60a994da","656d9e5e2de4f984cfed7d4d","656d9f52dcacc13a8f17fb31","null","
        <div style=""text-align: center; position: fixed; top: 5vh; left: 40vw;"">
            <div style=""margin:0 auto; width: 20vw; top: 8vh; font-size: 2vw""> 
            <font color=""green""> Bonus : $0.35 </font>
            </div>
        </div>
    ","null","","","","","","","",""
"","","","","","html-keyboard-response","223","298236","0.0-6.33-3.33","60e9ea97d19e613e60a994da","656d9e5e2de4f984cfed7d4d","656d9f52dcacc13a8f17fb31","455","./stimuli//pack_shapes_1/cat_1/diff_3/ex_1_3_2.png","arrowright","response","ArrowLeft","2","1","3","test","false",""
"","","","","","html-keyboard-response","224","299748","0.0-6.33-4.33","60e9ea97d19e613e60a994da","656d9e5e2de4f984cfed7d4d","656d9f52dcacc13a8f17fb31","null","<p> <font color=""red"" size=""5vw""> Wrong category! </font> <br> <br> <font color=""red"" size=""8vw""> - $0.05 </font> </p>","null","feedback","","","","","","","0.3"
"","","","","","html-keyboard-response","225","300627","0.0-6.34-0.34","60e9ea97d19e613e60a994da","656d9e5e2de4f984cfed7d4d","656d9f52dcacc13a8f17fb31","878","
            
        <div style=""text-align: center; position: fixed; top: 5vh; left: 40vw;"">
            <div style=""margin:0 auto; width: 20vw; top: 8vh; font-size: 2vw""> 
            <font color=""green""> Bonus : $0.3 </font>
            </div>
        </div>
    
            <div> Please press any key to continue to the next image.</div>
        "," ","ITI","","","","","","",""
"","","","","","html-keyboard-response","226","301228","0.0-6.34-1.34","60e9ea97d19e613e60a994da","656d9e5e2de4f984cfed7d4d","656d9f52dcacc13a8f17fb31","null","
        
        <div style=""text-align: center; position: fixed; top: 5vh; left: 40vw;"">
            <div style=""margin:0 auto; width: 20vw; top: 8vh; font-size: 2vw""> 
            <font color=""green""> Bonus : $0.3 </font>
            </div>
        </div>
    
        <img class=""stim"" src=./stimuli//pack_shapes_1/cat_2/diff_3/ex_2_3_4.png></img>
    ","null","stimulus","","","","","","",""
"","","","","","html-keyboard-response","227","302230","0.0-6.34-2.34","60e9ea97d19e613e60a994da","656d9e5e2de4f984cfed7d4d","656d9f52dcacc13a8f17fb31","null","
        <div style=""text-align: center; position: fixed; top: 5vh; left: 40vw;"">
            <div style=""margin:0 auto; width: 20vw; top: 8vh; font-size: 2vw""> 
            <font color=""green""> Bonus : $0.3 </font>
            </div>
        </div>
    ","null","","","","","","","",""
"","","","","","html-keyboard-response","228","302654","0.0-6.34-3.34","60e9ea97d19e613e60a994da","656d9e5e2de4f984cfed7d4d","656d9f52dcacc13a8f17fb31","424","./stimuli//pack_shapes_1/cat_2/diff_3/ex_2_3_4.png","arrowleft","response","ArrowRight","4","2","3","test","false",""
"","","","","","html-keyboard-response","229","304156","0.0-6.34-4.34","60e9ea97d19e613e60a994da","656d9e5e2de4f984cfed7d4d","656d9f52dcacc13a8f17fb31","null","<p> <font color=""red"" size=""5vw""> Wrong category! </font> <br> <br> <font color=""red"" size=""8vw""> - $0.05 </font> </p>","null","feedback","","","","","","","0.25"
"","","","","","html-keyboard-response","230","305036","0.0-6.35-0.35","60e9ea97d19e613e60a994da","656d9e5e2de4f984cfed7d4d","656d9f52dcacc13a8f17fb31","879","
            
        <div style=""text-align: center; position: fixed; top: 5vh; left: 40vw;"">
            <div style=""margin:0 auto; width: 20vw; top: 8vh; font-size: 2vw""> 
