"success","timeout","failed_images","failed_audio","failed_video","trial_type","trial_index","time_elapsed","internal_node_id","subject_id","study_id","session_id","rt","stimulus","response","task","correct_response","exemplar_ID","category","difficulty","phase","correct","bonus"
"true","false","[]","[]","[]","preload","0","3","0.0-0.0","6150e817533ea8f02c003704","656d9e5e2de4f984cfed7d4d","656d9ef1b4db715ed2f2ba7c","","","","","","","","","","",""
"","","","","","html-keyboard-response","1","13240","0.0-1.0","6150e817533ea8f02c003704","656d9e5e2de4f984cfed7d4d","656d9ef1b4db715ed2f2ba7c","13236","Welcome to the Category Learning experiment! Press any key to continue."," ","welcome","","","","","","",""
"","","","","","html-keyboard-response","2","68808","0.0-2.0","6150e817533ea8f02c003704","656d9e5e2de4f984cfed7d4d","656d9ef1b4db715ed2f2ba7c","55568","
            <p>You will be shown images of white shapes. Some are category A, some are category B.
            <br>You will not know in advance which category a specific shape belongs to.</p>
            <p>After you see an image, you will be asked to guess its category <b>(left arrow for category A, right arrow for category B)</b></p>
            <p>After you choose, the screen will show you whether you were correct or not.</p>
            <p><b>You will receive a bonus payment of $0.05 for each correct answer!</b></p>
            <p><b>You will lose $0.05 from your bonus payment for each incorrect answer! The bonus can not become less that $0.</b></p>
            <p>Press any key to continue.</p>
            "," ","introduction_1","","","","","","",""
"","","","","","html-keyboard-response","3","77319","0.0-3.0","6150e817533ea8f02c003704","656d9e5e2de4f984cfed7d4d","656d9ef1b4db715ed2f2ba7c","8511","
            <p> <b>The first 10 trials are a practice round that will not count towards your bonus payment.</b></p>
            <p> You will be notified when practice finishes and the test begins. </p>
            <p> Press any key to begin the practice round.</p>
            "," ","introduction_2","","","","","","",""
"","","","","","html-keyboard-response","4","80168","0.0-4.0-0.0","6150e817533ea8f02c003704","656d9e5e2de4f984cfed7d4d","656d9ef1b4db715ed2f2ba7c","2844","
            
        <div style=""text-align: center; position: fixed; top: 5vh; left: 40vw;"">
            <div style=""margin:0 auto; width: 20vw; top: 8vh; font-size: 2vw""> 
            <font color=""green""> Bonus : $0 </font>
            </div>
        </div>
    
            <div> Please press any key to continue to the next image.</div>
        "," ","ITI","","","","","","",""
"","","","","","html-keyboard-response","5","80781","0.0-4.0-1.0","6150e817533ea8f02c003704","656d9e5e2de4f984cfed7d4d","656d9ef1b4db715ed2f2ba7c","null","
        
        <div style=""text-align: center; position: fixed; top: 5vh; left: 40vw;"">
            <div style=""margin:0 auto; width: 20vw; top: 8vh; font-size: 2vw""> 
            <font color=""green""> Bonus : $0 </font>
            </div>
        </div>
    
        <img class=""stim"" src=./stimuli//pack_shapes_1/cat_2/diff_2/ex_2_2_12.png></img>
    ","null","stimulus","","","","","","",""
"","","","","","html-keyboard-response","6","81792","0.0-4.0-2.0","6150e817533ea8f02c003704","656d9e5e2de4f984cfed7d4d","656d9ef1b4db715ed2f2ba7c","null","
        <div style=""text-align: center; position: fixed; top: 5vh; left: 40vw;"">
            <div style=""margin:0 auto; width: 20vw; top: 8vh; font-size: 2vw""> 
            <font color=""green""> Bonus : $0 </font>
            </div>
        </div>
    ","null","","","","","","","",""
"","","","","","html-keyboard-response","7","85798","0.0-4.0-3.0","6150e817533ea8f02c003704","656d9e5e2de4f984cfed7d4d","656d9ef1b4db715ed2f2ba7c","null","./stimuli//pack_shapes_1/cat_2/diff_2/ex_2_2_12.png","null","response","ArrowRight","12","2","2","train","false",""
"","","","","","html-keyboard-response","8","87317","0.0-4.0-4.0","6150e817533ea8f02c003704","656d9e5e2de4f984cfed7d4d","656d9ef1b4db715ed2f2ba7c","null","<p> <font color=""red"" size=""5vw""> Time out! </font> <br> <br> Please try to respond as quickly as possible. </p>","null","feedback","","","","","","","0"
"","","","","","html-keyboard-response","9","88907","0.0-4.0-0.1","6150e817533ea8f02c003704","656d9e5e2de4f984cfed7d4d","656d9ef1b4db715ed2f2ba7c","1588","
            
        <div style=""text-align: center; position: fixed; top: 5vh; left: 40vw;"">
            <div style=""margin:0 auto; width: 20vw; top: 8vh; font-size: 2vw""> 
            <font color=""green""> Bonus : $0 </font>
            </div>
        </div>
    
            <div> Please press any key to continue to the next image.</div>
        "," ","ITI","","","","","","",""
"","","","","","html-keyboard-response","10","89511","0.0-4.0-1.1","6150e817533ea8f02c003704","656d9e5e2de4f984cfed7d4d","656d9ef1b4db715ed2f2ba7c","null","
        
        <div style=""text-align: center; position: fixed; top: 5vh; left: 40vw;"">
            <div style=""margin:0 auto; width: 20vw; top: 8vh; font-size: 2vw""> 
            <font color=""green""> Bonus : $0 </font>
            </div>
        </div>
    
        <img class=""stim"" src=./stimuli//pack_shapes_1/cat_2/diff_1/ex_2_1_8.png></img>
    ","null","stimulus","","","","","","",""
"","","","","","html-keyboard-response","11","90519","0.0-4.0-2.1","6150e817533ea8f02c003704","656d9e5e2de4f984cfed7d4d","656d9ef1b4db715ed2f2ba7c","null","
        <div style=""text-align: center; position: fixed; top: 5vh; left: 40vw;"">
            <div style=""margin:0 auto; width: 20vw; top: 8vh; font-size: 2vw""> 
            <font color=""green""> Bonus : $0 </font>
            </div>
        </div>
    ","null","","","","","","","",""
"","","","","","html-keyboard-response","12","91187","0.0-4.0-3.1","6150e817533ea8f02c003704","656d9e5e2de4f984cfed7d4d","656d9ef1b4db715ed2f2ba7c","665","./stimuli//pack_shapes_1/cat_2/diff_1/ex_2_1_8.png","arrowright","response","ArrowRight","8","2","1","train","true",""
"","","","","","html-keyboard-response","13","92702","0.0-4.0-4.1","6150e817533ea8f02c003704","656d9e5e2de4f984cfed7d4d","656d9ef1b4db715ed2f2ba7c","null","<p><font color=""green"" size=""5vw""> Correct category! </font></p>","null","feedback","","","","","","","0"
"","","","","","html-keyboard-response","14","94728","0.0-4.0-0.2","6150e817533ea8f02c003704","656d9e5e2de4f984cfed7d4d","656d9ef1b4db715ed2f2ba7c","2025","
            
        <div style=""text-align: center; position: fixed; top: 5vh; left: 40vw;"">
            <div style=""margin:0 auto; width: 20vw; top: 8vh; font-size: 2vw""> 
            <font color=""green""> Bonus : $0 </font>
            </div>
        </div>
    
            <div> Please press any key to continue to the next image.</div>
        "," ","ITI","","","","","","",""
"","","","","","html-keyboard-response","15","95333","0.0-4.0-1.2","6150e817533ea8f02c003704","656d9e5e2de4f984cfed7d4d","656d9ef1b4db715ed2f2ba7c","null","
        
        <div style=""text-align: center; position: fixed; top: 5vh; left: 40vw;"">
            <div style=""margin:0 auto; width: 20vw; top: 8vh; font-size: 2vw""> 
            <font color=""green""> Bonus : $0 </font>
            </div>
        </div>
    
        <img class=""stim"" src=./stimuli//pack_shapes_1/cat_1/diff_2/ex_1_2_2.png></img>
    ","null","stimulus","","","","","","",""
"","","","","","html-keyboard-response","16","96339","0.0-4.0-2.2","6150e817533ea8f02c003704","656d9e5e2de4f984cfed7d4d","656d9ef1b4db715ed2f2ba7c","null","
        <div style=""text-align: center; position: fixed; top: 5vh; left: 40vw;"">
            <div style=""margin:0 auto; width: 20vw; top: 8vh; font-size: 2vw""> 
            <font color=""green""> Bonus : $0 </font>
            </div>
        </div>
    ","null","","","","","","","",""
"","","","","","html-keyboard-response","17","97471","0.0-4.0-3.2","6150e817533ea8f02c003704","656d9e5e2de4f984cfed7d4d","656d9ef1b4db715ed2f2ba7c","1129","./stimuli//pack_shapes_1/cat_1/diff_2/ex_1_2_2.png","arrowleft","response","ArrowLeft","2","1","2","train","true",""
"","","","","","html-keyboard-response","18","98986","0.0-4.0-4.2","6150e817533ea8f02c003704","656d9e5e2de4f984cfed7d4d","656d9ef1b4db715ed2f2ba7c","null","<p><font color=""green"" size=""5vw""> Correct category! </font></p>","null","feedback","","","","","","","0"
"","","","","","html-keyboard-response","19","100194","0.0-4.0-0.3","6150e817533ea8f02c003704","656d9e5e2de4f984cfed7d4d","656d9ef1b4db715ed2f2ba7c","1206","
            
        <div style=""text-align: center; position: fixed; top: 5vh; left: 40vw;"">
            <div style=""margin:0 auto; width: 20vw; top: 8vh; font-size: 2vw""> 
            <font color=""green""> Bonus : $0 </font>
            </div>
        </div>
    
            <div> Please press any key to continue to the next image.</div>
        "," ","ITI","","","","","","",""
"","","","","","html-keyboard-response","20","100812","0.0-4.0-1.3","6150e817533ea8f02c003704","656d9e5e2de4f984cfed7d4d","656d9ef1b4db715ed2f2ba7c","null","
        
        <div style=""text-align: center; position: fixed; top: 5vh; left: 40vw;"">
            <div style=""margin:0 auto; width: 20vw; top: 8vh; font-size: 2vw""> 
            <font color=""green""> Bonus : $0 </font>
            </div>
        </div>
    
        <img class=""stim"" src=./stimuli//pack_shapes_1/cat_1/diff_1/ex_1_1_1.png></img>
    ","null","stimulus","","","","","","",""
"","","","","","html-keyboard-response","21","101823","0.0-4.0-2.3","6150e817533ea8f02c003704","656d9e5e2de4f984cfed7d4d","656d9ef1b4db715ed2f2ba7c","null","
        <div style=""text-align: center; position: fixed; top: 5vh; left: 40vw;"">
            <div style=""margin:0 auto; width: 20vw; top: 8vh; font-size: 2vw""> 
            <font color=""green""> Bonus : $0 </font>
            </div>
        </div>
    ","null","","","","","","","",""
"","","","","","html-keyboard-response","22","102843","0.0-4.0-3.3","6150e817533ea8f02c003704","656d9e5e2de4f984cfed7d4d","656d9ef1b4db715ed2f2ba7c","1017","./stimuli//pack_shapes_1/cat_1/diff_1/ex_1_1_1.png","arrowright","response","ArrowLeft","1","1","1","train","false",""
"","","","","","html-keyboard-response","23","104348","0.0-4.0-4.3","6150e817533ea8f02c003704","656d9e5e2de4f984cfed7d4d","656d9ef1b4db715ed2f2ba7c","null","<p> <font color=""red"" size=""5vw""> Wrong category! </font> </p>","null","feedback","","","","","","","0"
"","","","","","html-keyboard-response","24","105720","0.0-4.0-0.4","6150e817533ea8f02c003704","656d9e5e2de4f984cfed7d4d","656d9ef1b4db715ed2f2ba7c","1371","
            
        <div style=""text-align: center; position: fixed; top: 5vh; left: 40vw;"">
            <div style=""margin:0 auto; width: 20vw; top: 8vh; font-size: 2vw""> 
            <font color=""green""> Bonus : $0 </font>
            </div>
        </div>
    
            <div> Please press any key to continue to the next image.</div>
        "," ","ITI","","","","","","",""
"","","","","","html-keyboard-response","25","106322","0.0-4.0-1.4","6150e817533ea8f02c003704","656d9e5e2de4f984cfed7d4d","656d9ef1b4db715ed2f2ba7c","null","
        
        <div style=""text-align: center; position: fixed; top: 5vh; left: 40vw;"">
            <div style=""margin:0 auto; width: 20vw; top: 8vh; font-size: 2vw""> 
            <font color=""green""> Bonus : $0 </font>
            </div>
        </div>
    
        <img class=""stim"" src=./stimuli//pack_shapes_1/cat_2/diff_2/ex_2_2_16.png></img>
    ","null","stimulus","","","","","","",""
"","","","","","html-keyboard-response","26","107332","0.0-4.0-2.4","6150e817533ea8f02c003704","656d9e5e2de4f984cfed7d4d","656d9ef1b4db715ed2f2ba7c","null","
        <div style=""text-align: center; position: fixed; top: 5vh; left: 40vw;"">
            <div style=""margin:0 auto; width: 20vw; top: 8vh; font-size: 2vw""> 
            <font color=""green""> Bonus : $0 </font>
            </div>
        </div>
    ","null","","","","","","","",""
"","","","","","html-keyboard-response","27","108003","0.0-4.0-3.4","6150e817533ea8f02c003704","656d9e5e2de4f984cfed7d4d","656d9ef1b4db715ed2f2ba7c","670","./stimuli//pack_shapes_1/cat_2/diff_2/ex_2_2_16.png","arrowright","response","ArrowRight","16","2","2","train","true",""
"","","","","","html-keyboard-response","28","109512","0.0-4.0-4.4","6150e817533ea8f02c003704","656d9e5e2de4f984cfed7d4d","656d9ef1b4db715ed2f2ba7c","null","<p><font color=""green"" size=""5vw""> Correct category! </font></p>","null","feedback","","","","","","","0"
"","","","","","html-keyboard-response","29","110637","0.0-4.0-0.5","6150e817533ea8f02c003704","656d9e5e2de4f984cfed7d4d","656d9ef1b4db715ed2f2ba7c","1122","
            
        <div style=""text-align: center; position: fixed; top: 5vh; left: 40vw;"">
            <div style=""margin:0 auto; width: 20vw; top: 8vh; font-size: 2vw""> 
            <font color=""green""> Bonus : $0 </font>
            </div>
        </div>
    
            <div> Please press any key to continue to the next image.</div>
        "," ","ITI","","","","","","",""
"","","","","","html-keyboard-response","30","111243","0.0-4.0-1.5","6150e817533ea8f02c003704","656d9e5e2de4f984cfed7d4d","656d9ef1b4db715ed2f2ba7c","null","
        
        <div style=""text-align: center; position: fixed; top: 5vh; left: 40vw;"">
            <div style=""margin:0 auto; width: 20vw; top: 8vh; font-size: 2vw""> 
            <font color=""green""> Bonus : $0 </font>
            </div>
        </div>
    
        <img class=""stim"" src=./stimuli//pack_shapes_1/cat_2/diff_1/ex_2_1_12.png></img>
    ","null","stimulus","","","","","","",""
"","","","","","html-keyboard-response","31","112253","0.0-4.0-2.5","6150e817533ea8f02c003704","656d9e5e2de4f984cfed7d4d","656d9ef1b4db715ed2f2ba7c","null","
        <div style=""text-align: center; position: fixed; top: 5vh; left: 40vw;"">
            <div style=""margin:0 auto; width: 20vw; top: 8vh; font-size: 2vw""> 
            <font color=""green""> Bonus : $0 </font>
            </div>
        </div>
    ","null","","","","","","","",""
"","","","","","html-keyboard-response","32","113034","0.0-4.0-3.5","6150e817533ea8f02c003704","656d9e5e2de4f984cfed7d4d","656d9ef1b4db715ed2f2ba7c","779","./stimuli//pack_shapes_1/cat_2/diff_1/ex_2_1_12.png","arrowleft","response","ArrowRight","12","2","1","train","false",""
"","","","","","html-keyboard-response","33","114544","0.0-4.0-4.5","6150e817533ea8f02c003704","656d9e5e2de4f984cfed7d4d","656d9ef1b4db715ed2f2ba7c","null","<p> <font color=""red"" size=""5vw""> Wrong category! </font> </p>","null","feedback","","","","","","","0"
"","","","","","html-keyboard-response","34","115552","0.0-4.0-0.6","6150e817533ea8f02c003704","656d9e5e2de4f984cfed7d4d","656d9ef1b4db715ed2f2ba7c","1007","
            
        <div style=""text-align: center; position: fixed; top: 5vh; left: 40vw;"">
            <div style=""margin:0 auto; width: 20vw; top: 8vh; font-size: 2vw""> 
            <font color=""green""> Bonus : $0 </font>
            </div>
        </div>
    
            <div> Please press any key to continue to the next image.</div>
        "," ","ITI","","","","","","",""
"","","","","","html-keyboard-response","35","116168","0.0-4.0-1.6","6150e817533ea8f02c003704","656d9e5e2de4f984cfed7d4d","656d9ef1b4db715ed2f2ba7c","null","
        
        <div style=""text-align: center; position: fixed; top: 5vh; left: 40vw;"">
            <div style=""margin:0 auto; width: 20vw; top: 8vh; font-size: 2vw""> 
            <font color=""green""> Bonus : $0 </font>
            </div>
        </div>
    
        <img class=""stim"" src=./stimuli//pack_shapes_1/cat_1/diff_1/ex_1_1_3.png></img>
    ","null","stimulus","","","","","","",""
"","","","","","html-keyboard-response","36","117182","0.0-4.0-2.6","6150e817533ea8f02c003704","656d9e5e2de4f984cfed7d4d","656d9ef1b4db715ed2f2ba7c","null","
        <div style=""text-align: center; position: fixed; top: 5vh; left: 40vw;"">
            <div style=""margin:0 auto; width: 20vw; top: 8vh; font-size: 2vw""> 
            <font color=""green""> Bonus : $0 </font>
            </div>
        </div>
    ","null","","","","","","","",""
"","","","","","html-keyboard-response","37","118371","0.0-4.0-3.6","6150e817533ea8f02c003704","656d9e5e2de4f984cfed7d4d","656d9ef1b4db715ed2f2ba7c","1187","./stimuli//pack_shapes_1/cat_1/diff_1/ex_1_1_3.png","arrowleft","response","ArrowLeft","3","1","1","train","true",""
"","","","","","html-keyboard-response","38","119874","0.0-4.0-4.6","6150e817533ea8f02c003704","656d9e5e2de4f984cfed7d4d","656d9ef1b4db715ed2f2ba7c","null","<p><font color=""green"" size=""5vw""> Correct category! </font></p>","null","feedback","","","","","","","0"
"","","","","","html-keyboard-response","39","120522","0.0-4.0-0.7","6150e817533ea8f02c003704","656d9e5e2de4f984cfed7d4d","656d9ef1b4db715ed2f2ba7c","645","
            
        <div style=""text-align: center; position: fixed; top: 5vh; left: 40vw;"">
            <div style=""margin:0 auto; width: 20vw; top: 8vh; font-size: 2vw""> 
            <font color=""green""> Bonus : $0 </font>
            </div>
        </div>
    
            <div> Please press any key to continue to the next image.</div>
        "," ","ITI","","","","","","",""
"","","","","","html-keyboard-response","40","121131","0.0-4.0-1.7","6150e817533ea8f02c003704","656d9e5e2de4f984cfed7d4d","656d9ef1b4db715ed2f2ba7c","null","
        
        <div style=""text-align: center; position: fixed; top: 5vh; left: 40vw;"">
            <div style=""margin:0 auto; width: 20vw; top: 8vh; font-size: 2vw""> 
            <font color=""green""> Bonus : $0 </font>
            </div>
        </div>
    
        <img class=""stim"" src=./stimuli//pack_shapes_1/cat_1/diff_1/ex_1_1_9.png></img>
    ","null","stimulus","","","","","","",""
"","","","","","html-keyboard-response","41","122136","0.0-4.0-2.7","6150e817533ea8f02c003704","656d9e5e2de4f984cfed7d4d","656d9ef1b4db715ed2f2ba7c","null","
        <div style=""text-align: center; position: fixed; top: 5vh; left: 40vw;"">
            <div style=""margin:0 auto; width: 20vw; top: 8vh; font-size: 2vw""> 
            <font color=""green""> Bonus : $0 </font>
            </div>
        </div>
    ","null","","","","","","","",""
"","","","","","html-keyboard-response","42","122682","0.0-4.0-3.7","6150e817533ea8f02c003704","656d9e5e2de4f984cfed7d4d","656d9ef1b4db715ed2f2ba7c","545","./stimuli//pack_shapes_1/cat_1/diff_1/ex_1_1_9.png","arrowleft","response","ArrowLeft","9","1","1","train","true",""
"","","","","","html-keyboard-response","43","124197","0.0-4.0-4.7","6150e817533ea8f02c003704","656d9e5e2de4f984cfed7d4d","656d9ef1b4db715ed2f2ba7c","null","<p><font color=""green"" size=""5vw""> Correct category! </font></p>","null","feedback","","","","","","","0"
"","","","","","html-keyboard-response","44","125136","0.0-4.0-0.8","6150e817533ea8f02c003704","656d9e5e2de4f984cfed7d4d","656d9ef1b4db715ed2f2ba7c","937","
            
        <div style=""text-align: center; position: fixed; top: 5vh; left: 40vw;"">
            <div style=""margin:0 auto; width: 20vw; top: 8vh; font-size: 2vw""> 
            <font color=""green""> Bonus : $0 </font>
            </div>
        </div>
    
            <div> Please press any key to continue to the next image.</div>
        "," ","ITI","","","","","","",""
"","","","","","html-keyboard-response","45","125754","0.0-4.0-1.8","6150e817533ea8f02c003704","656d9e5e2de4f984cfed7d4d","656d9ef1b4db715ed2f2ba7c","null","
        
        <div style=""text-align: center; position: fixed; top: 5vh; left: 40vw;"">
            <div style=""margin:0 auto; width: 20vw; top: 8vh; font-size: 2vw""> 
            <font color=""green""> Bonus : $0 </font>
            </div>
        </div>
    
        <img class=""stim"" src=./stimuli//pack_shapes_1/cat_2/diff_1/ex_2_1_11.png></img>
    ","null","stimulus","","","","","","",""
"","","","","","html-keyboard-response","46","126765","0.0-4.0-2.8","6150e817533ea8f02c003704","656d9e5e2de4f984cfed7d4d","656d9ef1b4db715ed2f2ba7c","null","
        <div style=""text-align: center; position: fixed; top: 5vh; left: 40vw;"">
            <div style=""margin:0 auto; width: 20vw; top: 8vh; font-size: 2vw""> 
            <font color=""green""> Bonus : $0 </font>
            </div>
        </div>
    ","null","","","","","","","",""
"","","","","","html-keyboard-response","47","127408","0.0-4.0-3.8","6150e817533ea8f02c003704","656d9e5e2de4f984cfed7d4d","656d9ef1b4db715ed2f2ba7c","641","./stimuli//pack_shapes_1/cat_2/diff_1/ex_2_1_11.png","arrowleft","response","ArrowRight","11","2","1","train","false",""
"","","","","","html-keyboard-response","48","128924","0.0-4.0-4.8","6150e817533ea8f02c003704","656d9e5e2de4f984cfed7d4d","656d9ef1b4db715ed2f2ba7c","null","<p> <font color=""red"" size=""5vw""> Wrong category! </font> </p>","null","feedback","","","","","","","0"
"","","","","","html-keyboard-response","49","129698","0.0-4.0-0.9","6150e817533ea8f02c003704","656d9e5e2de4f984cfed7d4d","656d9ef1b4db715ed2f2ba7c","773","
            
        <div style=""text-align: center; position: fixed; top: 5vh; left: 40vw;"">
            <div style=""margin:0 auto; width: 20vw; top: 8vh; font-size: 2vw""> 
            <font color=""green""> Bonus : $0 </font>
            </div>
        </div>
    
            <div> Please press any key to continue to the next image.</div>
        "," ","ITI","","","","","","",""
"","","","","","html-keyboard-response","50","130308","0.0-4.0-1.9","6150e817533ea8f02c003704","656d9e5e2de4f984cfed7d4d","656d9ef1b4db715ed2f2ba7c","null","
        
        <div style=""text-align: center; position: fixed; top: 5vh; left: 40vw;"">
            <div style=""margin:0 auto; width: 20vw; top: 8vh; font-size: 2vw""> 
            <font color=""green""> Bonus : $0 </font>
            </div>
        </div>
    
        <img class=""stim"" src=./stimuli//pack_shapes_1/cat_1/diff_2/ex_1_2_16.png></img>
    ","null","stimulus","","","","","","",""
"","","","","","html-keyboard-response","51","131318","0.0-4.0-2.9","6150e817533ea8f02c003704","656d9e5e2de4f984cfed7d4d","656d9ef1b4db715ed2f2ba7c","null","
        <div style=""text-align: center; position: fixed; top: 5vh; left: 40vw;"">
            <div style=""margin:0 auto; width: 20vw; top: 8vh; font-size: 2vw""> 
            <font color=""green""> Bonus : $0 </font>
            </div>
        </div>
    ","null","","","","","","","",""
"","","","","","html-keyboard-response","52","132472","0.0-4.0-3.9","6150e817533ea8f02c003704","656d9e5e2de4f984cfed7d4d","656d9ef1b4db715ed2f2ba7c","1152","./stimuli//pack_shapes_1/cat_1/diff_2/ex_1_2_16.png","arrowright","response","ArrowLeft","16","1","2","train","false",""
"","","","","","html-keyboard-response","53","133988","0.0-4.0-4.9","6150e817533ea8f02c003704","656d9e5e2de4f984cfed7d4d","656d9ef1b4db715ed2f2ba7c","null","<p> <font color=""red"" size=""5vw""> Wrong category! </font> </p>","null","feedback","","","","","","","0"
"","","","","","html-keyboard-response","54","140071","0.0-5.0","6150e817533ea8f02c003704","656d9e5e2de4f984cfed7d4d","656d9ef1b4db715ed2f2ba7c","6080","
            <b> <p> The practice round has finished.</p>
            <p> For the rest of the experiment you will receive a $0.05 bonus for each correct answer and lose $0.05 from your bonus for each incorrect answer!</p>
            <p> The bonus can not become less than $0. </b>
            <p> Press any key to begin the test. </p>
            "," ","intermission","","","","","","",""
"","","","","","html-keyboard-response","55","141426","0.0-6.0-0.0","6150e817533ea8f02c003704","656d9e5e2de4f984cfed7d4d","656d9ef1b4db715ed2f2ba7c","1353","
            
        <div style=""text-align: center; position: fixed; top: 5vh; left: 40vw;"">
            <div style=""margin:0 auto; width: 20vw; top: 8vh; font-size: 2vw""> 
            <font color=""green""> Bonus : $0 </font>
            </div>
        </div>
    
            <div> Please press any key to continue to the next image.</div>
        "," ","ITI","","","","","","",""
"","","","","","html-keyboard-response","56","142040","0.0-6.0-1.0","6150e817533ea8f02c003704","656d9e5e2de4f984cfed7d4d","656d9ef1b4db715ed2f2ba7c","null","
        
        <div style=""text-align: center; position: fixed; top: 5vh; left: 40vw;"">
            <div style=""margin:0 auto; width: 20vw; top: 8vh; font-size: 2vw""> 
            <font color=""green""> Bonus : $0 </font>
            </div>
        </div>
    
        <img class=""stim"" src=./stimuli//pack_shapes_1/cat_1/diff_1/ex_1_1_4.png></img>
    ","null","stimulus","","","","","","",""
"","","","","","html-keyboard-response","57","143050","0.0-6.0-2.0","6150e817533ea8f02c003704","656d9e5e2de4f984cfed7d4d","656d9ef1b4db715ed2f2ba7c","null","
        <div style=""text-align: center; position: fixed; top: 5vh; left: 40vw;"">
            <div style=""margin:0 auto; width: 20vw; top: 8vh; font-size: 2vw""> 
            <font color=""green""> Bonus : $0 </font>
            </div>
        </div>
    ","null","","","","","","","",""
"","","","","","html-keyboard-response","58","143861","0.0-6.0-3.0","6150e817533ea8f02c003704","656d9e5e2de4f984cfed7d4d","656d9ef1b4db715ed2f2ba7c","808","./stimuli//pack_shapes_1/cat_1/diff_1/ex_1_1_4.png","arrowleft","response","ArrowLeft","4","1","1","test","true",""
"","","","","","html-keyboard-response","59","145375","0.0-6.0-4.0","6150e817533ea8f02c003704","656d9e5e2de4f984cfed7d4d","656d9ef1b4db715ed2f2ba7c","null","<p> <font color=""green"" size=""5vw""> Correct category! </font> <br> <br> <font color=""green"" size=""8vw""> + $0.05 </font> </p>","null","feedback","","","","","","","0.05"
"","","","","","html-keyboard-response","60","146435","0.0-6.1-0.1","6150e817533ea8f02c003704","656d9e5e2de4f984cfed7d4d","656d9ef1b4db715ed2f2ba7c","1058","
            
        <div style=""text-align: center; position: fixed; top: 5vh; left: 40vw;"">
            <div style=""margin:0 auto; width: 20vw; top: 8vh; font-size: 2vw""> 
            <font color=""green""> Bonus : $0.05 </font>
            </div>
        </div>
    
            <div> Please press any key to continue to the next image.</div>
        "," ","ITI","","","","","","",""
"","","","","","html-keyboard-response","61","147045","0.0-6.1-1.1","6150e817533ea8f02c003704","656d9e5e2de4f984cfed7d4d","656d9ef1b4db715ed2f2ba7c","null","
        
        <div style=""text-align: center; position: fixed; top: 5vh; left: 40vw;"">
            <div style=""margin:0 auto; width: 20vw; top: 8vh; font-size: 2vw""> 
            <font color=""green""> Bonus : $0.05 </font>
            </div>
        </div>
    
        <img class=""stim"" src=./stimuli//pack_shapes_1/cat_1/diff_1/ex_1_1_12.png></img>
    ","null","stimulus","","","","","","",""
"","","","","","html-keyboard-response","62","148055","0.0-6.1-2.1","6150e817533ea8f02c003704","656d9e5e2de4f984cfed7d4d","656d9ef1b4db715ed2f2ba7c","null","
        <div style=""text-align: center; position: fixed; top: 5vh; left: 40vw;"">
            <div style=""margin:0 auto; width: 20vw; top: 8vh; font-size: 2vw""> 
            <font color=""green""> Bonus : $0.05 </font>
            </div>
        </div>
    ","null","","","","","","","",""
"","","","","","html-keyboard-response","63","148472","0.0-6.1-3.1","6150e817533ea8f02c003704","656d9e5e2de4f984cfed7d4d","656d9ef1b4db715ed2f2ba7c","414","./stimuli//pack_shapes_1/cat_1/diff_1/ex_1_1_12.png","arrowleft","response","ArrowLeft","12","1","1","test","true",""
"","","","","","html-keyboard-response","64","149988","0.0-6.1-4.1","6150e817533ea8f02c003704","656d9e5e2de4f984cfed7d4d","656d9ef1b4db715ed2f2ba7c","null","<p> <font color=""green"" size=""5vw""> Correct category! </font> <br> <br> <font color=""green"" size=""8vw""> + $0.05 </font> </p>","null","feedback","","","","","","","0.1"
"","","","","","html-keyboard-response","65","151167","0.0-6.2-0.2","6150e817533ea8f02c003704","656d9e5e2de4f984cfed7d4d","656d9ef1b4db715ed2f2ba7c","1176","
            
        <div style=""text-align: center; position: fixed; top: 5vh; left: 40vw;"">
            <div style=""margin:0 auto; width: 20vw; top: 8vh; font-size: 2vw""> 
            <font color=""green""> Bonus : $0.1 </font>
            </div>
        </div>
    
            <div> Please press any key to continue to the next image.</div>
        "," ","ITI","","","","","","",""
"","","","","","html-keyboard-response","66","151775","0.0-6.2-1.2","6150e817533ea8f02c003704","656d9e5e2de4f984cfed7d4d","656d9ef1b4db715ed2f2ba7c","null","
        
        <div style=""text-align: center; position: fixed; top: 5vh; left: 40vw;"">
            <div style=""margin:0 auto; width: 20vw; top: 8vh; font-size: 2vw""> 
            <font color=""green""> Bonus : $0.1 </font>
            </div>
        </div>
    
        <img class=""stim"" src=./stimuli//pack_shapes_1/cat_1/diff_1/ex_1_1_8.png></img>
    ","null","stimulus","","","","","","",""
"","","","","","html-keyboard-response","67","152789","0.0-6.2-2.2","6150e817533ea8f02c003704","656d9e5e2de4f984cfed7d4d","656d9ef1b4db715ed2f2ba7c","null","
        <div style=""text-align: center; position: fixed; top: 5vh; left: 40vw;"">
            <div style=""margin:0 auto; width: 20vw; top: 8vh; font-size: 2vw""> 
            <font color=""green""> Bonus : $0.1 </font>
            </div>
        </div>
    ","null","","","","","","","",""
"","","","","","html-keyboard-response","68","154364","0.0-6.2-3.2","6150e817533ea8f02c003704","656d9e5e2de4f984cfed7d4d","656d9ef1b4db715ed2f2ba7c","1573","./stimuli//pack_shapes_1/cat_1/diff_1/ex_1_1_8.png","arrowright","response","ArrowLeft","8","1","1","test","false",""
"","","","","","html-keyboard-response","69","155874","0.0-6.2-4.2","6150e817533ea8f02c003704","656d9e5e2de4f984cfed7d4d","656d9ef1b4db715ed2f2ba7c","null","<p> <font color=""red"" size=""5vw""> Wrong category! </font> <br> <br> <font color=""red"" size=""8vw""> - $0.05 </font> </p>","null","feedback","","","","","","","0.05"
"","","","","","html-keyboard-response","70","157037","0.0-6.3-0.3","6150e817533ea8f02c003704","656d9e5e2de4f984cfed7d4d","656d9ef1b4db715ed2f2ba7c","1159","
            
        <div style=""text-align: center; position: fixed; top: 5vh; left: 40vw;"">
            <div style=""margin:0 auto; width: 20vw; top: 8vh; font-size: 2vw""> 
            <font color=""green""> Bonus : $0.05 </font>
            </div>
        </div>
    
            <div> Please press any key to continue to the next image.</div>
        "," ","ITI","","","","","","",""
"","","","","","html-keyboard-response","71","157647","0.0-6.3-1.3","6150e817533ea8f02c003704","656d9e5e2de4f984cfed7d4d","656d9ef1b4db715ed2f2ba7c","null","
        
        <div style=""text-align: center; position: fixed; top: 5vh; left: 40vw;"">
            <div style=""margin:0 auto; width: 20vw; top: 8vh; font-size: 2vw""> 
            <font color=""green""> Bonus : $0.05 </font>
            </div>
        </div>
    
        <img class=""stim"" src=./stimuli//pack_shapes_1/cat_2/diff_1/ex_2_1_17.png></img>
    ","null","stimulus","","","","","","",""
"","","","","","html-keyboard-response","72","158659","0.0-6.3-2.3","6150e817533ea8f02c003704","656d9e5e2de4f984cfed7d4d","656d9ef1b4db715ed2f2ba7c","null","
        <div style=""text-align: center; position: fixed; top: 5vh; left: 40vw;"">
            <div style=""margin:0 auto; width: 20vw; top: 8vh; font-size: 2vw""> 
            <font color=""green""> Bonus : $0.05 </font>
            </div>
        </div>
    ","null","","","","","","","",""
"","","","","","html-keyboard-response","73","159170","0.0-6.3-3.3","6150e817533ea8f02c003704","656d9e5e2de4f984cfed7d4d","656d9ef1b4db715ed2f2ba7c","509","./stimuli//pack_shapes_1/cat_2/diff_1/ex_2_1_17.png","arrowright","response","ArrowRight","17","2","1","test","true",""
"","","","","","html-keyboard-response","74","160680","0.0-6.3-4.3","6150e817533ea8f02c003704","656d9e5e2de4f984cfed7d4d","656d9ef1b4db715ed2f2ba7c","null","<p> <font color=""green"" size=""5vw""> Correct category! </font> <br> <br> <font color=""green"" size=""8vw""> + $0.05 </font> </p>","null","feedback","","","","","","","0.1"
"","","","","","html-keyboard-response","75","161424","0.0-6.4-0.4","6150e817533ea8f02c003704","656d9e5e2de4f984cfed7d4d","656d9ef1b4db715ed2f2ba7c","741","
            
        <div style=""text-align: center; position: fixed; top: 5vh; left: 40vw;"">
            <div style=""margin:0 auto; width: 20vw; top: 8vh; font-size: 2vw""> 
            <font color=""green""> Bonus : $0.1 </font>
            </div>
        </div>
    
            <div> Please press any key to continue to the next image.</div>
        "," ","ITI","","","","","","",""
"","","","","","html-keyboard-response","76","162027","0.0-6.4-1.4","6150e817533ea8f02c003704","656d9e5e2de4f984cfed7d4d","656d9ef1b4db715ed2f2ba7c","null","
        
        <div style=""text-align: center; position: fixed; top: 5vh; left: 40vw;"">
            <div style=""margin:0 auto; width: 20vw; top: 8vh; font-size: 2vw""> 
            <font color=""green""> Bonus : $0.1 </font>
            </div>
        </div>
    
        <img class=""stim"" src=./stimuli//pack_shapes_1/cat_2/diff_1/ex_2_1_2.png></img>
    ","null","stimulus","","","","","","",""
"","","","","","html-keyboard-response","77","163037","0.0-6.4-2.4","6150e817533ea8f02c003704","656d9e5e2de4f984cfed7d4d","656d9ef1b4db715ed2f2ba7c","null","
        <div style=""text-align: center; position: fixed; top: 5vh; left: 40vw;"">
            <div style=""margin:0 auto; width: 20vw; top: 8vh; font-size: 2vw""> 
            <font color=""green""> Bonus : $0.1 </font>
            </div>
        </div>
    ","null","","","","","","","",""
"","","","","","html-keyboard-response","78","163913","0.0-6.4-3.4","6150e817533ea8f02c003704","656d9e5e2de4f984cfed7d4d","656d9ef1b4db715ed2f2ba7c","874","./stimuli//pack_shapes_1/cat_2/diff_1/ex_2_1_2.png","arrowright","response","ArrowRight","2","2","1","test","true",""
"","","","","","html-keyboard-response","79","165418","0.0-6.4-4.4","6150e817533ea8f02c003704","656d9e5e2de4f984cfed7d4d","656d9ef1b4db715ed2f2ba7c","null","<p> <font color=""green"" size=""5vw""> Correct category! </font> <br> <br> <font color=""green"" size=""8vw""> + $0.05 </font> </p>","null","feedback","","","","","","","0.15"
"","","","","","html-keyboard-response","80","166201","0.0-6.5-0.5","6150e817533ea8f02c003704","656d9e5e2de4f984cfed7d4d","656d9ef1b4db715ed2f2ba7c","780","
            
        <div style=""text-align: center; position: fixed; top: 5vh; left: 40vw;"">
            <div style=""margin:0 auto; width: 20vw; top: 8vh; font-size: 2vw""> 
            <font color=""green""> Bonus : $0.15 </font>
            </div>
        </div>
    
            <div> Please press any key to continue to the next image.</div>
        "," ","ITI","","","","","","",""
"","","","","","html-keyboard-response","81","166818","0.0-6.5-1.5","6150e817533ea8f02c003704","656d9e5e2de4f984cfed7d4d","656d9ef1b4db715ed2f2ba7c","null","
        
        <div style=""text-align: center; position: fixed; top: 5vh; left: 40vw;"">
            <div style=""margin:0 auto; width: 20vw; top: 8vh; font-size: 2vw""> 
            <font color=""green""> Bonus : $0.15 </font>
            </div>
        </div>
    
        <img class=""stim"" src=./stimuli//pack_shapes_1/cat_2/diff_2/ex_2_2_6.png></img>
    ","null","stimulus","","","","","","",""
"","","","","","html-keyboard-response","82","167830","0.0-6.5-2.5","6150e817533ea8f02c003704","656d9e5e2de4f984cfed7d4d","656d9ef1b4db715ed2f2ba7c","null","
        <div style=""text-align: center; position: fixed; top: 5vh; left: 40vw;"">
            <div style=""margin:0 auto; width: 20vw; top: 8vh; font-size: 2vw""> 
            <font color=""green""> Bonus : $0.15 </font>
            </div>
        </div>
    ","null","","","","","","","",""
"","","","","","html-keyboard-response","83","168412","0.0-6.5-3.5","6150e817533ea8f02c003704","656d9e5e2de4f984cfed7d4d","656d9ef1b4db715ed2f2ba7c","571","./stimuli//pack_shapes_1/cat_2/diff_2/ex_2_2_6.png","arrowleft","response","ArrowRight","6","2","2","test","false",""
"","","","","","html-keyboard-response","84","169915","0.0-6.5-4.5","6150e817533ea8f02c003704","656d9e5e2de4f984cfed7d4d","656d9ef1b4db715ed2f2ba7c","null","<p> <font color=""red"" size=""5vw""> Wrong category! </font> <br> <br> <font color=""red"" size=""8vw""> - $0.05 </font> </p>","null","feedback","","","","","","","0.1"
"","","","","","html-keyboard-response","85","170789","0.0-6.6-0.6","6150e817533ea8f02c003704","656d9e5e2de4f984cfed7d4d","656d9ef1b4db715ed2f2ba7c","873","
            
        <div style=""text-align: center; position: fixed; top: 5vh; left: 40vw;"">
            <div style=""margin:0 auto; width: 20vw; top: 8vh; font-size: 2vw""> 
            <font color=""green""> Bonus : $0.1 </font>
            </div>
        </div>
    
            <div> Please press any key to continue to the next image.</div>
        "," ","ITI","","","","","","",""
"","","","","","html-keyboard-response","86","171394","0.0-6.6-1.6","6150e817533ea8f02c003704","656d9e5e2de4f984cfed7d4d","656d9ef1b4db715ed2f2ba7c","null","
        
        <div style=""text-align: center; position: fixed; top: 5vh; left: 40vw;"">
            <div style=""margin:0 auto; width: 20vw; top: 8vh; font-size: 2vw""> 
            <font color=""green""> Bonus : $0.1 </font>
            </div>
        </div>
    
        <img class=""stim"" src=./stimuli//pack_shapes_1/cat_2/diff_2/ex_2_2_7.png></img>
    ","null","stimulus","","","","","","",""
"","","","","","html-keyboard-response","87","172400","0.0-6.6-2.6","6150e817533ea8f02c003704","656d9e5e2de4f984cfed7d4d","656d9ef1b4db715ed2f2ba7c","null","
        <div style=""text-align: center; position: fixed; top: 5vh; left: 40vw;"">
            <div style=""margin:0 auto; width: 20vw; top: 8vh; font-size: 2vw""> 
            <font color=""green""> Bonus : $0.1 </font>
            </div>
        </div>
    ","null","","","","","","","",""
"","","","","","html-keyboard-response","88","173107","0.0-6.6-3.6","6150e817533ea8f02c003704","656d9e5e2de4f984cfed7d4d","656d9ef1b4db715ed2f2ba7c","705","./stimuli//pack_shapes_1/cat_2/diff_2/ex_2_2_7.png","arrowleft","response","ArrowRight","7","2","2","test","false",""
"","","","","","html-keyboard-response","89","174624","0.0-6.6-4.6","6150e817533ea8f02c003704","656d9e5e2de4f984cfed7d4d","656d9ef1b4db715ed2f2ba7c","null","<p> <font color=""red"" size=""5vw""> Wrong category! </font> <br> <br> <font color=""red"" size=""8vw""> - $0.05 </font> </p>","null","feedback","","","","","","","0.05"
"","","","","","html-keyboard-response","90","175621","0.0-6.7-0.7","6150e817533ea8f02c003704","656d9e5e2de4f984cfed7d4d","656d9ef1b4db715ed2f2ba7c","994","
            
        <div style=""text-align: center; position: fixed; top: 5vh; left: 40vw;"">
            <div style=""margin:0 auto; width: 20vw; top: 8vh; font-size: 2vw""> 
            <font color=""green""> Bonus : $0.05 </font>
            </div>
        </div>
    
            <div> Please press any key to continue to the next image.</div>
        "," ","ITI","","","","","","",""
"","","","","","html-keyboard-response","91","176230","0.0-6.7-1.7","6150e817533ea8f02c003704","656d9e5e2de4f984cfed7d4d","656d9ef1b4db715ed2f2ba7c","null","
        
        <div style=""text-align: center; position: fixed; top: 5vh; left: 40vw;"">
            <div style=""margin:0 auto; width: 20vw; top: 8vh; font-size: 2vw""> 
            <font color=""green""> Bonus : $0.05 </font>
            </div>
        </div>
    
        <img class=""stim"" src=./stimuli//pack_shapes_1/cat_1/diff_2/ex_1_2_5.png></img>
    ","null","stimulus","","","","","","",""
"","","","","","html-keyboard-response","92","177239","0.0-6.7-2.7","6150e817533ea8f02c003704","656d9e5e2de4f984cfed7d4d","656d9ef1b4db715ed2f2ba7c","null","
        <div style=""text-align: center; position: fixed; top: 5vh; left: 40vw;"">
            <div style=""margin:0 auto; width: 20vw; top: 8vh; font-size: 2vw""> 
            <font color=""green""> Bonus : $0.05 </font>
            </div>
        </div>
    ","null","","","","","","","",""
"","","","","","html-keyboard-response","93","177862","0.0-6.7-3.7","6150e817533ea8f02c003704","656d9e5e2de4f984cfed7d4d","656d9ef1b4db715ed2f2ba7c","622","./stimuli//pack_shapes_1/cat_1/diff_2/ex_1_2_5.png","arrowright","response","ArrowLeft","5","1","2","test","false",""
"","","","","","html-keyboard-response","94","179372","0.0-6.7-4.7","6150e817533ea8f02c003704","656d9e5e2de4f984cfed7d4d","656d9ef1b4db715ed2f2ba7c","null","<p> <font color=""red"" size=""5vw""> Wrong category! </font> <br> <br> <font color=""red"" size=""8vw""> - $0.05 </font> </p>","null","feedback","","","","","","","0"
"","","","","","html-keyboard-response","95","180375","0.0-6.8-0.8","6150e817533ea8f02c003704","656d9e5e2de4f984cfed7d4d","656d9ef1b4db715ed2f2ba7c","1000","
            
        <div style=""text-align: center; position: fixed; top: 5vh; left: 40vw;"">
            <div style=""margin:0 auto; width: 20vw; top: 8vh; font-size: 2vw""> 
            <font color=""green""> Bonus : $0 </font>
            </div>
        </div>
    
            <div> Please press any key to continue to the next image.</div>
        "," ","ITI","","","","","","",""
"","","","","","html-keyboard-response","96","180979","0.0-6.8-1.8","6150e817533ea8f02c003704","656d9e5e2de4f984cfed7d4d","656d9ef1b4db715ed2f2ba7c","null","
        
        <div style=""text-align: center; position: fixed; top: 5vh; left: 40vw;"">
            <div style=""margin:0 auto; width: 20vw; top: 8vh; font-size: 2vw""> 
            <font color=""green""> Bonus : $0 </font>
            </div>
        </div>
    
        <img class=""stim"" src=./stimuli//pack_shapes_1/cat_2/diff_2/ex_2_2_8.png></img>
    ","null","stimulus","","","","","","",""
"","","","","","html-keyboard-response","97","181987","0.0-6.8-2.8","6150e817533ea8f02c003704","656d9e5e2de4f984cfed7d4d","656d9ef1b4db715ed2f2ba7c","null","
        <div style=""text-align: center; position: fixed; top: 5vh; left: 40vw;"">
            <div style=""margin:0 auto; width: 20vw; top: 8vh; font-size: 2vw""> 
            <font color=""green""> Bonus : $0 </font>
            </div>
        </div>
    ","null","","","","","","","",""
"","","","","","html-keyboard-response","98","182717","0.0-6.8-3.8","6150e817533ea8f02c003704","656d9e5e2de4f984cfed7d4d","656d9ef1b4db715ed2f2ba7c","728","./stimuli//pack_shapes_1/cat_2/diff_2/ex_2_2_8.png","arrowleft","response","ArrowRight","8","2","2","test","false",""
"","","","","","html-keyboard-response","99","184225","0.0-6.8-4.8","6150e817533ea8f02c003704","656d9e5e2de4f984cfed7d4d","656d9ef1b4db715ed2f2ba7c","null","<p> <font color=""red"" size=""5vw""> Wrong category! </font> </p>","null","feedback","","","","","","","0"
"","","","","","html-keyboard-response","100","185242","0.0-6.9-0.9","6150e817533ea8f02c003704","656d9e5e2de4f984cfed7d4d","656d9ef1b4db715ed2f2ba7c","1015","
            
        <div style=""text-align: center; position: fixed; top: 5vh; left: 40vw;"">
            <div style=""margin:0 auto; width: 20vw; top: 8vh; font-size: 2vw""> 
            <font color=""green""> Bonus : $0 </font>
            </div>
        </div>
    
            <div> Please press any key to continue to the next image.</div>
        "," ","ITI","","","","","","",""
"","","","","","html-keyboard-response","101","185853","0.0-6.9-1.9","6150e817533ea8f02c003704","656d9e5e2de4f984cfed7d4d","656d9ef1b4db715ed2f2ba7c","null","
        
        <div style=""text-align: center; position: fixed; top: 5vh; left: 40vw;"">
            <div style=""margin:0 auto; width: 20vw; top: 8vh; font-size: 2vw""> 
            <font color=""green""> Bonus : $0 </font>
            </div>
        </div>
    
        <img class=""stim"" src=./stimuli//pack_shapes_1/cat_2/diff_2/ex_2_2_14.png></img>
    ","null","stimulus","","","","","","",""
"","","","","","html-keyboard-response","102","186863","0.0-6.9-2.9","6150e817533ea8f02c003704","656d9e5e2de4f984cfed7d4d","656d9ef1b4db715ed2f2ba7c","null","
        <div style=""text-align: center; position: fixed; top: 5vh; left: 40vw;"">
            <div style=""margin:0 auto; width: 20vw; top: 8vh; font-size: 2vw""> 
            <font color=""green""> Bonus : $0 </font>
            </div>
        </div>
    ","null","","","","","","","",""
"","","","","","html-keyboard-response","103","187287","0.0-6.9-3.9","6150e817533ea8f02c003704","656d9e5e2de4f984cfed7d4d","656d9ef1b4db715ed2f2ba7c","422","./stimuli//pack_shapes_1/cat_2/diff_2/ex_2_2_14.png","arrowright","response","ArrowRight","14","2","2","test","true",""
"","","","","","html-keyboard-response","104","188795","0.0-6.9-4.9","6150e817533ea8f02c003704","656d9e5e2de4f984cfed7d4d","656d9ef1b4db715ed2f2ba7c","null","<p> <font color=""green"" size=""5vw""> Correct category! </font> <br> <br> <font color=""green"" size=""8vw""> + $0.05 </font> </p>","null","feedback","","","","","","","0.05"
"","","","","","html-keyboard-response","105","189721","0.0-6.10-0.10","6150e817533ea8f02c003704","656d9e5e2de4f984cfed7d4d","656d9ef1b4db715ed2f2ba7c","928","
            
        <div style=""text-align: center; position: fixed; top: 5vh; left: 40vw;"">
            <div style=""margin:0 auto; width: 20vw; top: 8vh; font-size: 2vw""> 
            <font color=""green""> Bonus : $0.05 </font>
            </div>
        </div>
    
            <div> Please press any key to continue to the next image.</div>
        "," ","ITI","","","","","","",""
"","","","","","html-keyboard-response","106","190330","0.0-6.10-1.10","6150e817533ea8f02c003704","656d9e5e2de4f984cfed7d4d","656d9ef1b4db715ed2f2ba7c","null","
        
        <div style=""text-align: center; position: fixed; top: 5vh; left: 40vw;"">
            <div style=""margin:0 auto; width: 20vw; top: 8vh; font-size: 2vw""> 
            <font color=""green""> Bonus : $0.05 </font>
            </div>
        </div>
    
        <img class=""stim"" src=./stimuli//pack_shapes_1/cat_2/diff_1/ex_2_1_16.png></img>
    ","null","stimulus","","","","","","",""
"","","","","","html-keyboard-response","107","191346","0.0-6.10-2.10","6150e817533ea8f02c003704","656d9e5e2de4f984cfed7d4d","656d9ef1b4db715ed2f2ba7c","null","
        <div style=""text-align: center; position: fixed; top: 5vh; left: 40vw;"">
            <div style=""margin:0 auto; width: 20vw; top: 8vh; font-size: 2vw""> 
            <font color=""green""> Bonus : $0.05 </font>
            </div>
        </div>
    ","null","","","","","","","",""
"","","","","","html-keyboard-response","108","192147","0.0-6.10-3.10","6150e817533ea8f02c003704","656d9e5e2de4f984cfed7d4d","656d9ef1b4db715ed2f2ba7c","799","./stimuli//pack_shapes_1/cat_2/diff_1/ex_2_1_16.png","arrowright","response","ArrowRight","16","2","1","test","true",""
"","","","","","html-keyboard-response","109","193656","0.0-6.10-4.10","6150e817533ea8f02c003704","656d9e5e2de4f984cfed7d4d","656d9ef1b4db715ed2f2ba7c","null","<p> <font color=""green"" size=""5vw""> Correct category! </font> <br> <br> <font color=""green"" size=""8vw""> + $0.05 </font> </p>","null","feedback","","","","","","","0.1"
"","","","","","html-keyboard-response","110","194463","0.0-6.11-0.11","6150e817533ea8f02c003704","656d9e5e2de4f984cfed7d4d","656d9ef1b4db715ed2f2ba7c","806","
            
        <div style=""text-align: center; position: fixed; top: 5vh; left: 40vw;"">
            <div style=""margin:0 auto; width: 20vw; top: 8vh; font-size: 2vw""> 
            <font color=""green""> Bonus : $0.1 </font>
            </div>
        </div>
    
            <div> Please press any key to continue to the next image.</div>
        "," ","ITI","","","","","","",""
"","","","","","html-keyboard-response","111","195075","0.0-6.11-1.11","6150e817533ea8f02c003704","656d9e5e2de4f984cfed7d4d","656d9ef1b4db715ed2f2ba7c","null","
        
        <div style=""text-align: center; position: fixed; top: 5vh; left: 40vw;"">
            <div style=""margin:0 auto; width: 20vw; top: 8vh; font-size: 2vw""> 
            <font color=""green""> Bonus : $0.1 </font>
            </div>
        </div>
    
        <img class=""stim"" src=./stimuli//pack_shapes_1/cat_1/diff_1/ex_1_1_8.png></img>
    ","null","stimulus","","","","","","",""
"","","","","","html-keyboard-response","112","196080","0.0-6.11-2.11","6150e817533ea8f02c003704","656d9e5e2de4f984cfed7d4d","656d9ef1b4db715ed2f2ba7c","null","
        <div style=""text-align: center; position: fixed; top: 5vh; left: 40vw;"">
            <div style=""margin:0 auto; width: 20vw; top: 8vh; font-size: 2vw""> 
            <font color=""green""> Bonus : $0.1 </font>
            </div>
        </div>
    ","null","","","","","","","",""
"","","","","","html-keyboard-response","113","196463","0.0-6.11-3.11","6150e817533ea8f02c003704","656d9e5e2de4f984cfed7d4d","656d9ef1b4db715ed2f2ba7c","383","./stimuli//pack_shapes_1/cat_1/diff_1/ex_1_1_8.png","arrowright","response","ArrowLeft","8","1","1","test","false",""
"","","","","","html-keyboard-response","114","197977","0.0-6.11-4.11","6150e817533ea8f02c003704","656d9e5e2de4f984cfed7d4d","656d9ef1b4db715ed2f2ba7c","null","<p> <font color=""red"" size=""5vw""> Wrong category! </font> <br> <br> <font color=""red"" size=""8vw""> - $0.05 </font> </p>","null","feedback","","","","","","","0.05"
"","","","","","html-keyboard-response","115","198532","0.0-6.12-0.12","6150e817533ea8f02c003704","656d9e5e2de4f984cfed7d4d","656d9ef1b4db715ed2f2ba7c","553","
            
        <div style=""text-align: center; position: fixed; top: 5vh; left: 40vw;"">
            <div style=""margin:0 auto; width: 20vw; top: 8vh; font-size: 2vw""> 
            <font color=""green""> Bonus : $0.05 </font>
            </div>
        </div>
    
            <div> Please press any key to continue to the next image.</div>
        "," ","ITI","","","","","","",""
"","","","","","html-keyboard-response","116","199141","0.0-6.12-1.12","6150e817533ea8f02c003704","656d9e5e2de4f984cfed7d4d","656d9ef1b4db715ed2f2ba7c","null","
        
        <div style=""text-align: center; position: fixed; top: 5vh; left: 40vw;"">
            <div style=""margin:0 auto; width: 20vw; top: 8vh; font-size: 2vw""> 
            <font color=""green""> Bonus : $0.05 </font>
            </div>
        </div>
    
        <img class=""stim"" src=./stimuli//pack_shapes_1/cat_2/diff_1/ex_2_1_6.png></img>
    ","null","stimulus","","","","","","",""
"","","","","","html-keyboard-response","117","200152","0.0-6.12-2.12","6150e817533ea8f02c003704","656d9e5e2de4f984cfed7d4d","656d9ef1b4db715ed2f2ba7c","null","
        <div style=""text-align: center; position: fixed; top: 5vh; left: 40vw;"">
            <div style=""margin:0 auto; width: 20vw; top: 8vh; font-size: 2vw""> 
            <font color=""green""> Bonus : $0.05 </font>
            </div>
        </div>
    ","null","","","","","","","",""
"","","","","","html-keyboard-response","118","200696","0.0-6.12-3.12","6150e817533ea8f02c003704","656d9e5e2de4f984cfed7d4d","656d9ef1b4db715ed2f2ba7c","542","./stimuli//pack_shapes_1/cat_2/diff_1/ex_2_1_6.png","arrowleft","response","ArrowRight","6","2","1","test","false",""
"","","","","","html-keyboard-response","119","202207","0.0-6.12-4.12","6150e817533ea8f02c003704","656d9e5e2de4f984cfed7d4d","656d9ef1b4db715ed2f2ba7c","null","<p> <font color=""red"" size=""5vw""> Wrong category! </font> <br> <br> <font color=""red"" size=""8vw""> - $0.05 </font> </p>","null","feedback","","","","","","","0"
"","","","","","html-keyboard-response","120","202982","0.0-6.13-0.13","6150e817533ea8f02c003704","656d9e5e2de4f984cfed7d4d","656d9ef1b4db715ed2f2ba7c","774","
            
        <div style=""text-align: center; position: fixed; top: 5vh; left: 40vw;"">
            <div style=""margin:0 auto; width: 20vw; top: 8vh; font-size: 2vw""> 
            <font color=""green""> Bonus : $0 </font>
            </div>
        </div>
    
            <div> Please press any key to continue to the next image.</div>
        "," ","ITI","","","","","","",""
"","","","","","html-keyboard-response","121","203600","0.0-6.13-1.13","6150e817533ea8f02c003704","656d9e5e2de4f984cfed7d4d","656d9ef1b4db715ed2f2ba7c","null","
        
        <div style=""text-align: center; position: fixed; top: 5vh; left: 40vw;"">
            <div style=""margin:0 auto; width: 20vw; top: 8vh; font-size: 2vw""> 
            <font color=""green""> Bonus : $0 </font>
            </div>
        </div>
    
        <img class=""stim"" src=./stimuli//pack_shapes_1/cat_1/diff_1/ex_1_1_16.png></img>
    ","null","stimulus","","","","","","",""
"","","","","","html-keyboard-response","122","204608","0.0-6.13-2.13","6150e817533ea8f02c003704","656d9e5e2de4f984cfed7d4d","656d9ef1b4db715ed2f2ba7c","null","
        <div style=""text-align: center; position: fixed; top: 5vh; left: 40vw;"">
            <div style=""margin:0 auto; width: 20vw; top: 8vh; font-size: 2vw""> 
            <font color=""green""> Bonus : $0 </font>
            </div>
        </div>
    ","null","","","","","","","",""
"","","","","","html-keyboard-response","123","204959","0.0-6.13-3.13","6150e817533ea8f02c003704","656d9e5e2de4f984cfed7d4d","656d9ef1b4db715ed2f2ba7c","346","./stimuli//pack_shapes_1/cat_1/diff_1/ex_1_1_16.png","arrowright","response","ArrowLeft","16","1","1","test","false",""
"","","","","","html-keyboard-response","124","206469","0.0-6.13-4.13","6150e817533ea8f02c003704","656d9e5e2de4f984cfed7d4d","656d9ef1b4db715ed2f2ba7c","null","<p> <font color=""red"" size=""5vw""> Wrong category! </font> </p>","null","feedback","","","","","","","0"
"","","","","","html-keyboard-response","125","207231","0.0-6.14-0.14","6150e817533ea8f02c003704","656d9e5e2de4f984cfed7d4d","656d9ef1b4db715ed2f2ba7c","761","
            
        <div style=""text-align: center; position: fixed; top: 5vh; left: 40vw;"">
            <div style=""margin:0 auto; width: 20vw; top: 8vh; font-size: 2vw""> 
            <font color=""green""> Bonus : $0 </font>
            </div>
        </div>
    
            <div> Please press any key to continue to the next image.</div>
        "," ","ITI","","","","","","",""
"","","","","","html-keyboard-response","126","207835","0.0-6.14-1.14","6150e817533ea8f02c003704","656d9e5e2de4f984cfed7d4d","656d9ef1b4db715ed2f2ba7c","null","
        
        <div style=""text-align: center; position: fixed; top: 5vh; left: 40vw;"">
            <div style=""margin:0 auto; width: 20vw; top: 8vh; font-size: 2vw""> 
            <font color=""green""> Bonus : $0 </font>
            </div>
        </div>
    
        <img class=""stim"" src=./stimuli//pack_shapes_1/cat_1/diff_1/ex_1_1_15.png></img>
    ","null","stimulus","","","","","","",""
"","","","","","html-keyboard-response","127","208846","0.0-6.14-2.14","6150e817533ea8f02c003704","656d9e5e2de4f984cfed7d4d","656d9ef1b4db715ed2f2ba7c","null","
        <div style=""text-align: center; position: fixed; top: 5vh; left: 40vw;"">
            <div style=""margin:0 auto; width: 20vw; top: 8vh; font-size: 2vw""> 
            <font color=""green""> Bonus : $0 </font>
            </div>
        </div>
    ","null","","","","","","","",""
"","","","","","html-keyboard-response","128","209327","0.0-6.14-3.14","6150e817533ea8f02c003704","656d9e5e2de4f984cfed7d4d","656d9ef1b4db715ed2f2ba7c","479","./stimuli//pack_shapes_1/cat_1/diff_1/ex_1_1_15.png","arrowleft","response","ArrowLeft","15","1","1","test","true",""
"","","","","","html-keyboard-response","129","210844","0.0-6.14-4.14","6150e817533ea8f02c003704","656d9e5e2de4f984cfed7d4d","656d9ef1b4db715ed2f2ba7c","null","<p> <font color=""green"" size=""5vw""> Correct category! </font> <br> <br> <font color=""green"" size=""8vw""> + $0.05 </font> </p>","null","feedback","","","","","","","0.05"
"","","","","","html-keyboard-response","130","211444","0.0-6.15-0.15","6150e817533ea8f02c003704","656d9e5e2de4f984cfed7d4d","656d9ef1b4db715ed2f2ba7c","598","
            
        <div style=""text-align: center; position: fixed; top: 5vh; left: 40vw;"">
            <div style=""margin:0 auto; width: 20vw; top: 8vh; font-size: 2vw""> 
            <font color=""green""> Bonus : $0.05 </font>
            </div>
        </div>
    
            <div> Please press any key to continue to the next image.</div>
        "," ","ITI","","","","","","",""
"","","","","","html-keyboard-response","131","212050","0.0-6.15-1.15","6150e817533ea8f02c003704","656d9e5e2de4f984cfed7d4d","656d9ef1b4db715ed2f2ba7c","null","
        
        <div style=""text-align: center; position: fixed; top: 5vh; left: 40vw;"">
            <div style=""margin:0 auto; width: 20vw; top: 8vh; font-size: 2vw""> 
            <font color=""green""> Bonus : $0.05 </font>
            </div>
        </div>
    
        <img class=""stim"" src=./stimuli//pack_shapes_1/cat_1/diff_1/ex_1_1_4.png></img>
    ","null","stimulus","","","","","","",""
"","","","","","html-keyboard-response","132","213057","0.0-6.15-2.15","6150e817533ea8f02c003704","656d9e5e2de4f984cfed7d4d","656d9ef1b4db715ed2f2ba7c","null","
        <div style=""text-align: center; position: fixed; top: 5vh; left: 40vw;"">
            <div style=""margin:0 auto; width: 20vw; top: 8vh; font-size: 2vw""> 
            <font color=""green""> Bonus : $0.05 </font>
            </div>
        </div>
    ","null","","","","","","","",""
"","","","","","html-keyboard-response","133","213493","0.0-6.15-3.15","6150e817533ea8f02c003704","656d9e5e2de4f984cfed7d4d","656d9ef1b4db715ed2f2ba7c","434","./stimuli//pack_shapes_1/cat_1/diff_1/ex_1_1_4.png","arrowleft","response","ArrowLeft","4","1","1","test","true",""
"","","","","","html-keyboard-response","134","215004","0.0-6.15-4.15","6150e817533ea8f02c003704","656d9e5e2de4f984cfed7d4d","656d9ef1b4db715ed2f2ba7c","null","<p> <font color=""green"" size=""5vw""> Correct category! </font> <br> <br> <font color=""green"" size=""8vw""> + $0.05 </font> </p>","null","feedback","","","","","","","0.1"
"","","","","","html-keyboard-response","135","215643","0.0-6.16-0.16","6150e817533ea8f02c003704","656d9e5e2de4f984cfed7d4d","656d9ef1b4db715ed2f2ba7c","639","
            
        <div style=""text-align: center; position: fixed; top: 5vh; left: 40vw;"">
            <div style=""margin:0 auto; width: 20vw; top: 8vh; font-size: 2vw""> 
            <font color=""green""> Bonus : $0.1 </font>
            </div>
        </div>
    
            <div> Please press any key to continue to the next image.</div>
        "," ","ITI","","","","","","",""
"","","","","","html-keyboard-response","136","216250","0.0-6.16-1.16","6150e817533ea8f02c003704","656d9e5e2de4f984cfed7d4d","656d9ef1b4db715ed2f2ba7c","null","
        
        <div style=""text-align: center; position: fixed; top: 5vh; left: 40vw;"">
            <div style=""margin:0 auto; width: 20vw; top: 8vh; font-size: 2vw""> 
            <font color=""green""> Bonus : $0.1 </font>
            </div>
        </div>
    
        <img class=""stim"" src=./stimuli//pack_shapes_1/cat_1/diff_1/ex_1_1_4.png></img>
    ","null","stimulus","","","","","","",""
"","","","","","html-keyboard-response","137","217263","0.0-6.16-2.16","6150e817533ea8f02c003704","656d9e5e2de4f984cfed7d4d","656d9ef1b4db715ed2f2ba7c","null","
        <div style=""text-align: center; position: fixed; top: 5vh; left: 40vw;"">
            <div style=""margin:0 auto; width: 20vw; top: 8vh; font-size: 2vw""> 
            <font color=""green""> Bonus : $0.1 </font>
            </div>
        </div>
    ","null","","","","","","","",""
"","","","","","html-keyboard-response","138","217792","0.0-6.16-3.16","6150e817533ea8f02c003704","656d9e5e2de4f984cfed7d4d","656d9ef1b4db715ed2f2ba7c","528","./stimuli//pack_shapes_1/cat_1/diff_1/ex_1_1_4.png","arrowright","response","ArrowLeft","4","1","1","test","false",""
"","","","","","html-keyboard-response","139","219296","0.0-6.16-4.16","6150e817533ea8f02c003704","656d9e5e2de4f984cfed7d4d","656d9ef1b4db715ed2f2ba7c","null","<p> <font color=""red"" size=""5vw""> Wrong category! </font> <br> <br> <font color=""red"" size=""8vw""> - $0.05 </font> </p>","null","feedback","","","","","","","0.05"
"","","","","","html-keyboard-response","140","219944","0.0-6.17-0.17","6150e817533ea8f02c003704","656d9e5e2de4f984cfed7d4d","656d9ef1b4db715ed2f2ba7c","646","
            
        <div style=""text-align: center; position: fixed; top: 5vh; left: 40vw;"">
            <div style=""margin:0 auto; width: 20vw; top: 8vh; font-size: 2vw""> 
            <font color=""green""> Bonus : $0.05 </font>
            </div>
        </div>
    
            <div> Please press any key to continue to the next image.</div>
        "," ","ITI","","","","","","",""
"","","","","","html-keyboard-response","141","220563","0.0-6.17-1.17","6150e817533ea8f02c003704","656d9e5e2de4f984cfed7d4d","656d9ef1b4db715ed2f2ba7c","null","
        
        <div style=""text-align: center; position: fixed; top: 5vh; left: 40vw;"">
            <div style=""margin:0 auto; width: 20vw; top: 8vh; font-size: 2vw""> 
            <font color=""green""> Bonus : $0.05 </font>
            </div>
        </div>
    
        <img class=""stim"" src=./stimuli//pack_shapes_1/cat_2/diff_1/ex_2_1_1.png></img>
    ","null","stimulus","","","","","","",""
"","","","","","html-keyboard-response","142","221580","0.0-6.17-2.17","6150e817533ea8f02c003704","656d9e5e2de4f984cfed7d4d","656d9ef1b4db715ed2f2ba7c","null","
        <div style=""text-align: center; position: fixed; top: 5vh; left: 40vw;"">
            <div style=""margin:0 auto; width: 20vw; top: 8vh; font-size: 2vw""> 
            <font color=""green""> Bonus : $0.05 </font>
            </div>
        </div>
    ","null","","","","","","","",""
"","","","","","html-keyboard-response","143","222381","0.0-6.17-3.17","6150e817533ea8f02c003704","656d9e5e2de4f984cfed7d4d","656d9ef1b4db715ed2f2ba7c","798","./stimuli//pack_shapes_1/cat_2/diff_1/ex_2_1_1.png","arrowleft","response","ArrowRight","1","2","1","test","false",""
"","","","","","html-keyboard-response","144","223891","0.0-6.17-4.17","6150e817533ea8f02c003704","656d9e5e2de4f984cfed7d4d","656d9ef1b4db715ed2f2ba7c","null","<p> <font color=""red"" size=""5vw""> Wrong category! </font> <br> <br> <font color=""red"" size=""8vw""> - $0.05 </font> </p>","null","feedback","","","","","","","0"
"","","","","","html-keyboard-response","145","224677","0.0-6.18-0.18","6150e817533ea8f02c003704","656d9e5e2de4f984cfed7d4d","656d9ef1b4db715ed2f2ba7c","785","
            
        <div style=""text-align: center; position: fixed; top: 5vh; left: 40vw;"">
            <div style=""margin:0 auto; width: 20vw; top: 8vh; font-size: 2vw""> 
            <font color=""green""> Bonus : $0 </font>
            </div>
        </div>
    
            <div> Please press any key to continue to the next image.</div>
        "," ","ITI","","","","","","",""
"","","","","","html-keyboard-response","146","225296","0.0-6.18-1.18","6150e817533ea8f02c003704","656d9e5e2de4f984cfed7d4d","656d9ef1b4db715ed2f2ba7c","null","
        
        <div style=""text-align: center; position: fixed; top: 5vh; left: 40vw;"">
            <div style=""margin:0 auto; width: 20vw; top: 8vh; font-size: 2vw""> 
            <font color=""green""> Bonus : $0 </font>
            </div>
        </div>
    
        <img class=""stim"" src=./stimuli//pack_shapes_1/cat_1/diff_1/ex_1_1_2.png></img>
    ","null","stimulus","","","","","","",""
"","","","","","html-keyboard-response","147","226310","0.0-6.18-2.18","6150e817533ea8f02c003704","656d9e5e2de4f984cfed7d4d","656d9ef1b4db715ed2f2ba7c","null","
        <div style=""text-align: center; position: fixed; top: 5vh; left: 40vw;"">
            <div style=""margin:0 auto; width: 20vw; top: 8vh; font-size: 2vw""> 
            <font color=""green""> Bonus : $0 </font>
            </div>
        </div>
    ","null","","","","","","","",""
"","","","","","html-keyboard-response","148","226765","0.0-6.18-3.18","6150e817533ea8f02c003704","656d9e5e2de4f984cfed7d4d","656d9ef1b4db715ed2f2ba7c","453","./stimuli//pack_shapes_1/cat_1/diff_1/ex_1_1_2.png","arrowleft","response","ArrowLeft","2","1","1","test","true",""
"","","","","","html-keyboard-response","149","228273","0.0-6.18-4.18","6150e817533ea8f02c003704","656d9e5e2de4f984cfed7d4d","656d9ef1b4db715ed2f2ba7c","null","<p> <font color=""green"" size=""5vw""> Correct category! </font> <br> <br> <font color=""green"" size=""8vw""> + $0.05 </font> </p>","null","feedback","","","","","","","0.05"
"","","","","","html-keyboard-response","150","229106","0.0-6.19-0.19","6150e817533ea8f02c003704","656d9e5e2de4f984cfed7d4d","656d9ef1b4db715ed2f2ba7c","831","
            
        <div style=""text-align: center; position: fixed; top: 5vh; left: 40vw;"">
            <div style=""margin:0 auto; width: 20vw; top: 8vh; font-size: 2vw""> 
            <font color=""green""> Bonus : $0.05 </font>
            </div>
        </div>
    
            <div> Please press any key to continue to the next image.</div>
        "," ","ITI","","","","","","",""
"","","","","","html-keyboard-response","151","229725","0.0-6.19-1.19","6150e817533ea8f02c003704","656d9e5e2de4f984cfed7d4d","656d9ef1b4db715ed2f2ba7c","null","
        
        <div style=""text-align: center; position: fixed; top: 5vh; left: 40vw;"">
            <div style=""margin:0 auto; width: 20vw; top: 8vh; font-size: 2vw""> 
            <font color=""green""> Bonus : $0.05 </font>
            </div>
        </div>
    
        <img class=""stim"" src=./stimuli//pack_shapes_1/cat_1/diff_1/ex_1_1_14.png></img>
    ","null","stimulus","","","","","","",""
"","","","","","html-keyboard-response","152","230730","0.0-6.19-2.19","6150e817533ea8f02c003704","656d9e5e2de4f984cfed7d4d","656d9ef1b4db715ed2f2ba7c","null","
        <div style=""text-align: center; position: fixed; top: 5vh; left: 40vw;"">
            <div style=""margin:0 auto; width: 20vw; top: 8vh; font-size: 2vw""> 
            <font color=""green""> Bonus : $0.05 </font>
            </div>
        </div>
    ","null","","","","","","","",""
"","","","","","html-keyboard-response","153","231451","0.0-6.19-3.19","6150e817533ea8f02c003704","656d9e5e2de4f984cfed7d4d","656d9ef1b4db715ed2f2ba7c","719","./stimuli//pack_shapes_1/cat_1/diff_1/ex_1_1_14.png","arrowleft","response","ArrowLeft","14","1","1","test","true",""
"","","","","","html-keyboard-response","154","232960","0.0-6.19-4.19","6150e817533ea8f02c003704","656d9e5e2de4f984cfed7d4d","656d9ef1b4db715ed2f2ba7c","null","<p> <font color=""green"" size=""5vw""> Correct category! </font> <br> <br> <font color=""green"" size=""8vw""> + $0.05 </font> </p>","null","feedback","","","","","","","0.1"
"","","","","","html-keyboard-response","155","233601","0.0-6.20-0.20","6150e817533ea8f02c003704","656d9e5e2de4f984cfed7d4d","656d9ef1b4db715ed2f2ba7c","639","
            
        <div style=""text-align: center; position: fixed; top: 5vh; left: 40vw;"">
            <div style=""margin:0 auto; width: 20vw; top: 8vh; font-size: 2vw""> 
            <font color=""green""> Bonus : $0.1 </font>
            </div>
        </div>
    
            <div> Please press any key to continue to the next image.</div>
        "," ","ITI","","","","","","",""
"","","","","","html-keyboard-response","156","234211","0.0-6.20-1.20","6150e817533ea8f02c003704","656d9e5e2de4f984cfed7d4d","656d9ef1b4db715ed2f2ba7c","null","
        
        <div style=""text-align: center; position: fixed; top: 5vh; left: 40vw;"">
            <div style=""margin:0 auto; width: 20vw; top: 8vh; font-size: 2vw""> 
            <font color=""green""> Bonus : $0.1 </font>
            </div>
        </div>
    
        <img class=""stim"" src=./stimuli//pack_shapes_1/cat_2/diff_1/ex_2_1_4.png></img>
    ","null","stimulus","","","","","","",""
"","","","","","html-keyboard-response","157","235221","0.0-6.20-2.20","6150e817533ea8f02c003704","656d9e5e2de4f984cfed7d4d","656d9ef1b4db715ed2f2ba7c","null","
        <div style=""text-align: center; position: fixed; top: 5vh; left: 40vw;"">
            <div style=""margin:0 auto; width: 20vw; top: 8vh; font-size: 2vw""> 
            <font color=""green""> Bonus : $0.1 </font>
            </div>
        </div>
    ","null","","","","","","","",""
"","","","","","html-keyboard-response","158","235904","0.0-6.20-3.20","6150e817533ea8f02c003704","656d9e5e2de4f984cfed7d4d","656d9ef1b4db715ed2f2ba7c","681","./stimuli//pack_shapes_1/cat_2/diff_1/ex_2_1_4.png","arrowright","response","ArrowRight","4","2","1","test","true",""
"","","","","","html-keyboard-response","159","237414","0.0-6.20-4.20","6150e817533ea8f02c003704","656d9e5e2de4f984cfed7d4d","656d9ef1b4db715ed2f2ba7c","null","<p> <font color=""green"" size=""5vw""> Correct category! </font> <br> <br> <font color=""green"" size=""8vw""> + $0.05 </font> </p>","null","feedback","","","","","","","0.15"
"","","","","","html-keyboard-response","160","237941","0.0-6.21-0.21","6150e817533ea8f02c003704","656d9e5e2de4f984cfed7d4d","656d9ef1b4db715ed2f2ba7c","526","
            
        <div style=""text-align: center; position: fixed; top: 5vh; left: 40vw;"">
            <div style=""margin:0 auto; width: 20vw; top: 8vh; font-size: 2vw""> 
            <font color=""green""> Bonus : $0.15 </font>
            </div>
        </div>
    
            <div> Please press any key to continue to the next image.</div>
        "," ","ITI","","","","","","",""
"","","","","","html-keyboard-response","161","238546","0.0-6.21-1.21","6150e817533ea8f02c003704","656d9e5e2de4f984cfed7d4d","656d9ef1b4db715ed2f2ba7c","null","
        
        <div style=""text-align: center; position: fixed; top: 5vh; left: 40vw;"">
            <div style=""margin:0 auto; width: 20vw; top: 8vh; font-size: 2vw""> 
            <font color=""green""> Bonus : $0.15 </font>
            </div>
        </div>
    
        <img class=""stim"" src=./stimuli//pack_shapes_1/cat_1/diff_1/ex_1_1_10.png></img>
    ","null","stimulus","","","","","","",""
"","","","","","html-keyboard-response","162","239550","0.0-6.21-2.21","6150e817533ea8f02c003704","656d9e5e2de4f984cfed7d4d","656d9ef1b4db715ed2f2ba7c","null","
        <div style=""text-align: center; position: fixed; top: 5vh; left: 40vw;"">
            <div style=""margin:0 auto; width: 20vw; top: 8vh; font-size: 2vw""> 
            <font color=""green""> Bonus : $0.15 </font>
            </div>
        </div>
    ","null","","","","","","","",""
"","","","","","html-keyboard-response","163","240267","0.0-6.21-3.21","6150e817533ea8f02c003704","656d9e5e2de4f984cfed7d4d","656d9ef1b4db715ed2f2ba7c","715","./stimuli//pack_shapes_1/cat_1/diff_1/ex_1_1_10.png","arrowright","response","ArrowLeft","10","1","1","test","false",""
"","","","","","html-keyboard-response","164","241775","0.0-6.21-4.21","6150e817533ea8f02c003704","656d9e5e2de4f984cfed7d4d","656d9ef1b4db715ed2f2ba7c","null","<p> <font color=""red"" size=""5vw""> Wrong category! </font> <br> <br> <font color=""red"" size=""8vw""> - $0.05 </font> </p>","null","feedback","","","","","","","0.1"
"","","","","","html-keyboard-response","165","242536","0.0-6.22-0.22","6150e817533ea8f02c003704","656d9e5e2de4f984cfed7d4d","656d9ef1b4db715ed2f2ba7c","760","
            
        <div style=""text-align: center; position: fixed; top: 5vh; left: 40vw;"">
            <div style=""margin:0 auto; width: 20vw; top: 8vh; font-size: 2vw""> 
            <font color=""green""> Bonus : $0.1 </font>
            </div>
        </div>
    
            <div> Please press any key to continue to the next image.</div>
        "," ","ITI","","","","","","",""
"","","","","","html-keyboard-response","166","243141","0.0-6.22-1.22","6150e817533ea8f02c003704","656d9e5e2de4f984cfed7d4d","656d9ef1b4db715ed2f2ba7c","null","
        
        <div style=""text-align: center; position: fixed; top: 5vh; left: 40vw;"">
            <div style=""margin:0 auto; width: 20vw; top: 8vh; font-size: 2vw""> 
            <font color=""green""> Bonus : $0.1 </font>
            </div>
        </div>
    
        <img class=""stim"" src=./stimuli//pack_shapes_1/cat_2/diff_1/ex_2_1_4.png></img>
    ","null","stimulus","","","","","","",""
"","","","","","html-keyboard-response","167","244159","0.0-6.22-2.22","6150e817533ea8f02c003704","656d9e5e2de4f984cfed7d4d","656d9ef1b4db715ed2f2ba7c","null","
        <div style=""text-align: center; position: fixed; top: 5vh; left: 40vw;"">
            <div style=""margin:0 auto; width: 20vw; top: 8vh; font-size: 2vw""> 
            <font color=""green""> Bonus : $0.1 </font>
            </div>
        </div>
    ","null","","","","","","","",""
"","","","","","html-keyboard-response","168","244581","0.0-6.22-3.22","6150e817533ea8f02c003704","656d9e5e2de4f984cfed7d4d","656d9ef1b4db715ed2f2ba7c","421","./stimuli//pack_shapes_1/cat_2/diff_1/ex_2_1_4.png","arrowleft","response","ArrowRight","4","2","1","test","false",""
"","","","","","html-keyboard-response","169","246093","0.0-6.22-4.22","6150e817533ea8f02c003704","656d9e5e2de4f984cfed7d4d","656d9ef1b4db715ed2f2ba7c","null","<p> <font color=""red"" size=""5vw""> Wrong category! </font> <br> <br> <font color=""red"" size=""8vw""> - $0.05 </font> </p>","null","feedback","","","","","","","0.05"
"","","","","","html-keyboard-response","170","246911","0.0-6.23-0.23","6150e817533ea8f02c003704","656d9e5e2de4f984cfed7d4d","656d9ef1b4db715ed2f2ba7c","816","
            
        <div style=""text-align: center; position: fixed; top: 5vh; left: 40vw;"">
            <div style=""margin:0 auto; width: 20vw; top: 8vh; font-size: 2vw""> 
            <font color=""green""> Bonus : $0.05 </font>
            </div>
        </div>
    
            <div> Please press any key to continue to the next image.</div>
        "," ","ITI","","","","","","",""
"","","","","","html-keyboard-response","171","247531","0.0-6.23-1.23","6150e817533ea8f02c003704","656d9e5e2de4f984cfed7d4d","656d9ef1b4db715ed2f2ba7c","null","
        
        <div style=""text-align: center; position: fixed; top: 5vh; left: 40vw;"">
            <div style=""margin:0 auto; width: 20vw; top: 8vh; font-size: 2vw""> 
            <font color=""green""> Bonus : $0.05 </font>
            </div>
        </div>
    
        <img class=""stim"" src=./stimuli//pack_shapes_1/cat_1/diff_1/ex_1_1_4.png></img>
    ","null","stimulus","","","","","","",""
"","","","","","html-keyboard-response","172","248541","0.0-6.23-2.23","6150e817533ea8f02c003704","656d9e5e2de4f984cfed7d4d","656d9ef1b4db715ed2f2ba7c","null","
        <div style=""text-align: center; position: fixed; top: 5vh; left: 40vw;"">
            <div style=""margin:0 auto; width: 20vw; top: 8vh; font-size: 2vw""> 
            <font color=""green""> Bonus : $0.05 </font>
            </div>
        </div>
    ","null","","","","","","","",""
"","","","","","html-keyboard-response","173","248921","0.0-6.23-3.23","6150e817533ea8f02c003704","656d9e5e2de4f984cfed7d4d","656d9ef1b4db715ed2f2ba7c","378","./stimuli//pack_shapes_1/cat_1/diff_1/ex_1_1_4.png","arrowleft","response","ArrowLeft","4","1","1","test","true",""
"","","","","","html-keyboard-response","174","250428","0.0-6.23-4.23","6150e817533ea8f02c003704","656d9e5e2de4f984cfed7d4d","656d9ef1b4db715ed2f2ba7c","null","<p> <font color=""green"" size=""5vw""> Correct category! </font> <br> <br> <font color=""green"" size=""8vw""> + $0.05 </font> </p>","null","feedback","","","","","","","0.1"
"","","","","","html-keyboard-response","175","250929","0.0-6.24-0.24","6150e817533ea8f02c003704","656d9e5e2de4f984cfed7d4d","656d9ef1b4db715ed2f2ba7c","498","
            
        <div style=""text-align: center; position: fixed; top: 5vh; left: 40vw;"">
            <div style=""margin:0 auto; width: 20vw; top: 8vh; font-size: 2vw""> 
            <font color=""green""> Bonus : $0.1 </font>
            </div>
        </div>
    
            <div> Please press any key to continue to the next image.</div>
        "," ","ITI","","","","","","",""
"","","","","","html-keyboard-response","176","251534","0.0-6.24-1.24","6150e817533ea8f02c003704","656d9e5e2de4f984cfed7d4d","656d9ef1b4db715ed2f2ba7c","null","
        
        <div style=""text-align: center; position: fixed; top: 5vh; left: 40vw;"">
            <div style=""margin:0 auto; width: 20vw; top: 8vh; font-size: 2vw""> 
            <font color=""green""> Bonus : $0.1 </font>
            </div>
        </div>
    
        <img class=""stim"" src=./stimuli//pack_shapes_1/cat_2/diff_1/ex_2_1_17.png></img>
    ","null","stimulus","","","","","","",""
"","","","","","html-keyboard-response","177","252547","0.0-6.24-2.24","6150e817533ea8f02c003704","656d9e5e2de4f984cfed7d4d","656d9ef1b4db715ed2f2ba7c","null","
        <div style=""text-align: center; position: fixed; top: 5vh; left: 40vw;"">
            <div style=""margin:0 auto; width: 20vw; top: 8vh; font-size: 2vw""> 
            <font color=""green""> Bonus : $0.1 </font>
            </div>
        </div>
    ","null","","","","","","","",""
"","","","","","html-keyboard-response","178","253047","0.0-6.24-3.24","6150e817533ea8f02c003704","656d9e5e2de4f984cfed7d4d","656d9ef1b4db715ed2f2ba7c","498","./stimuli//pack_shapes_1/cat_2/diff_1/ex_2_1_17.png","arrowleft","response","ArrowRight","17","2","1","test","false",""
"","","","","","html-keyboard-response","179","254549","0.0-6.24-4.24","6150e817533ea8f02c003704","656d9e5e2de4f984cfed7d4d","656d9ef1b4db715ed2f2ba7c","null","<p> <font color=""red"" size=""5vw""> Wrong category! </font> <br> <br> <font color=""red"" size=""8vw""> - $0.05 </font> </p>","null","feedback","","","","","","","0.05"
"","","","","","html-keyboard-response","180","255789","0.0-6.25-0.25","6150e817533ea8f02c003704","656d9e5e2de4f984cfed7d4d","656d9ef1b4db715ed2f2ba7c","1238","
            
        <div style=""text-align: center; position: fixed; top: 5vh; left: 40vw;"">
            <div style=""margin:0 auto; width: 20vw; top: 8vh; font-size: 2vw""> 
            <font color=""green""> Bonus : $0.05 </font>
            </div>
        </div>
    
            <div> Please press any key to continue to the next image.</div>
        "," ","ITI","","","","","","",""
"","","","","","html-keyboard-response","181","256398","0.0-6.25-1.25","6150e817533ea8f02c003704","656d9e5e2de4f984cfed7d4d","656d9ef1b4db715ed2f2ba7c","null","
        
        <div style=""text-align: center; position: fixed; top: 5vh; left: 40vw;"">
            <div style=""margin:0 auto; width: 20vw; top: 8vh; font-size: 2vw""> 
            <font color=""green""> Bonus : $0.05 </font>
            </div>
        </div>
    
        <img class=""stim"" src=./stimuli//pack_shapes_1/cat_2/diff_1/ex_2_1_14.png></img>
    ","null","stimulus","","","","","","",""
"","","","","","html-keyboard-response","182","257415","0.0-6.25-2.25","6150e817533ea8f02c003704","656d9e5e2de4f984cfed7d4d","656d9ef1b4db715ed2f2ba7c","null","
        <div style=""text-align: center; position: fixed; top: 5vh; left: 40vw;"">
            <div style=""margin:0 auto; width: 20vw; top: 8vh; font-size: 2vw""> 
            <font color=""green""> Bonus : $0.05 </font>
            </div>
        </div>
    ","null","","","","","","","",""
"","","","","","html-keyboard-response","183","258304","0.0-6.25-3.25","6150e817533ea8f02c003704","656d9e5e2de4f984cfed7d4d","656d9ef1b4db715ed2f2ba7c","886","./stimuli//pack_shapes_1/cat_2/diff_1/ex_2_1_14.png","arrowright","response","ArrowRight","14","2","1","test","true",""
"","","","","","html-keyboard-response","184","259820","0.0-6.25-4.25","6150e817533ea8f02c003704","656d9e5e2de4f984cfed7d4d","656d9ef1b4db715ed2f2ba7c","null","<p> <font color=""green"" size=""5vw""> Correct category! </font> <br> <br> <font color=""green"" size=""8vw""> + $0.05 </font> </p>","null","feedback","","","","","","","0.1"
"","","","","","html-keyboard-response","185","260994","0.0-6.26-0.26","6150e817533ea8f02c003704","656d9e5e2de4f984cfed7d4d","656d9ef1b4db715ed2f2ba7c","1171","
            
        <div style=""text-align: center; position: fixed; top: 5vh; left: 40vw;"">
            <div style=""margin:0 auto; width: 20vw; top: 8vh; font-size: 2vw""> 
            <font color=""green""> Bonus : $0.1 </font>
            </div>
        </div>
    
            <div> Please press any key to continue to the next image.</div>
        "," ","ITI","","","","","","",""
"","","","","","html-keyboard-response","186","261612","0.0-6.26-1.26","6150e817533ea8f02c003704","656d9e5e2de4f984cfed7d4d","656d9ef1b4db715ed2f2ba7c","null","
        
        <div style=""text-align: center; position: fixed; top: 5vh; left: 40vw;"">
            <div style=""margin:0 auto; width: 20vw; top: 8vh; font-size: 2vw""> 
            <font color=""green""> Bonus : $0.1 </font>
            </div>
        </div>
    
        <img class=""stim"" src=./stimuli//pack_shapes_1/cat_2/diff_1/ex_2_1_3.png></img>
    ","null","stimulus","","","","","","",""
"","","","","","html-keyboard-response","187","262622","0.0-6.26-2.26","6150e817533ea8f02c003704","656d9e5e2de4f984cfed7d4d","656d9ef1b4db715ed2f2ba7c","null","
        <div style=""text-align: center; position: fixed; top: 5vh; left: 40vw;"">
            <div style=""margin:0 auto; width: 20vw; top: 8vh; font-size: 2vw""> 
            <font color=""green""> Bonus : $0.1 </font>
            </div>
        </div>
    ","null","","","","","","","",""
"","","","","","html-keyboard-response","188","263678","0.0-6.26-3.26","6150e817533ea8f02c003704","656d9e5e2de4f984cfed7d4d","656d9ef1b4db715ed2f2ba7c","1055","./stimuli//pack_shapes_1/cat_2/diff_1/ex_2_1_3.png","arrowleft","response","ArrowRight","3","2","1","test","false",""
"","","","","","html-keyboard-response","189","265188","0.0-6.26-4.26","6150e817533ea8f02c003704","656d9e5e2de4f984cfed7d4d","656d9ef1b4db715ed2f2ba7c","null","<p> <font color=""red"" size=""5vw""> Wrong category! </font> <br> <br> <font color=""red"" size=""8vw""> - $0.05 </font> </p>","null","feedback","","","","","","","0.05"
"","","","","","html-keyboard-response","190","265856","0.0-6.27-0.27","6150e817533ea8f02c003704","656d9e5e2de4f984cfed7d4d","656d9ef1b4db715ed2f2ba7c","667","
            
        <div style=""text-align: center; position: fixed; top: 5vh; left: 40vw;"">
            <div style=""margin:0 auto; width: 20vw; top: 8vh; font-size: 2vw""> 
            <font color=""green""> Bonus : $0.05 </font>
            </div>
        </div>
    
            <div> Please press any key to continue to the next image.</div>
        "," ","ITI","","","","","","",""
"","","","","","html-keyboard-response","191","266464","0.0-6.27-1.27","6150e817533ea8f02c003704","656d9e5e2de4f984cfed7d4d","656d9ef1b4db715ed2f2ba7c","null","
        
        <div style=""text-align: center; position: fixed; top: 5vh; left: 40vw;"">
            <div style=""margin:0 auto; width: 20vw; top: 8vh; font-size: 2vw""> 
            <font color=""green""> Bonus : $0.05 </font>
            </div>
        </div>
    
        <img class=""stim"" src=./stimuli//pack_shapes_1/cat_2/diff_1/ex_2_1_16.png></img>
    ","null","stimulus","","","","","","",""
"","","","","","html-keyboard-response","192","267470","0.0-6.27-2.27","6150e817533ea8f02c003704","656d9e5e2de4f984cfed7d4d","656d9ef1b4db715ed2f2ba7c","null","
        <div style=""text-align: center; position: fixed; top: 5vh; left: 40vw;"">
            <div style=""margin:0 auto; width: 20vw; top: 8vh; font-size: 2vw""> 
            <font color=""green""> Bonus : $0.05 </font>
            </div>
        </div>
    ","null","","","","","","","",""
"","","","","","html-keyboard-response","193","268080","0.0-6.27-3.27","6150e817533ea8f02c003704","656d9e5e2de4f984cfed7d4d","656d9ef1b4db715ed2f2ba7c","608","./stimuli//pack_shapes_1/cat_2/diff_1/ex_2_1_16.png","arrowleft","response","ArrowRight","16","2","1","test","false",""
"","","","","","html-keyboard-response","194","269588","0.0-6.27-4.27","6150e817533ea8f02c003704","656d9e5e2de4f984cfed7d4d","656d9ef1b4db715ed2f2ba7c","null","<p> <font color=""red"" size=""5vw""> Wrong category! </font> <br> <br> <font color=""red"" size=""8vw""> - $0.05 </font> </p>","null","feedback","","","","","","","0"
"","","","","","html-keyboard-response","195","270292","0.0-6.28-0.28","6150e817533ea8f02c003704","656d9e5e2de4f984cfed7d4d","656d9ef1b4db715ed2f2ba7c","704","
            
        <div style=""text-align: center; position: fixed; top: 5vh; left: 40vw;"">
            <div style=""margin:0 auto; width: 20vw; top: 8vh; font-size: 2vw""> 
            <font color=""green""> Bonus : $0 </font>
            </div>
        </div>
    
            <div> Please press any key to continue to the next image.</div>
        "," ","ITI","","","","","","",""
"","","","","","html-keyboard-response","196","270904","0.0-6.28-1.28","6150e817533ea8f02c003704","656d9e5e2de4f984cfed7d4d","656d9ef1b4db715ed2f2ba7c","null","
        
        <div style=""text-align: center; position: fixed; top: 5vh; left: 40vw;"">
            <div style=""margin:0 auto; width: 20vw; top: 8vh; font-size: 2vw""> 
            <font color=""green""> Bonus : $0 </font>
            </div>
        </div>
    
        <img class=""stim"" src=./stimuli//pack_shapes_1/cat_1/diff_1/ex_1_1_2.png></img>
    ","null","stimulus","","","","","","",""
"","","","","","html-keyboard-response","197","271915","0.0-6.28-2.28","6150e817533ea8f02c003704","656d9e5e2de4f984cfed7d4d","656d9ef1b4db715ed2f2ba7c","null","
        <div style=""text-align: center; position: fixed; top: 5vh; left: 40vw;"">
            <div style=""margin:0 auto; width: 20vw; top: 8vh; font-size: 2vw""> 
            <font color=""green""> Bonus : $0 </font>
            </div>
        </div>
    ","null","","","","","","","",""
"","","","","","html-keyboard-response","198","272346","0.0-6.28-3.28","6150e817533ea8f02c003704","656d9e5e2de4f984cfed7d4d","656d9ef1b4db715ed2f2ba7c","429","./stimuli//pack_shapes_1/cat_1/diff_1/ex_1_1_2.png","arrowleft","response","ArrowLeft","2","1","1","test","true",""
"","","","","","html-keyboard-response","199","273849","0.0-6.28-4.28","6150e817533ea8f02c003704","656d9e5e2de4f984cfed7d4d","656d9ef1b4db715ed2f2ba7c","null","<p> <font color=""green"" size=""5vw""> Correct category! </font> <br> <br> <font color=""green"" size=""8vw""> + $0.05 </font> </p>","null","feedback","","","","","","","0.05"
"","","","","","html-keyboard-response","200","274509","0.0-6.29-0.29","6150e817533ea8f02c003704","656d9e5e2de4f984cfed7d4d","656d9ef1b4db715ed2f2ba7c","657","
            
        <div style=""text-align: center; position: fixed; top: 5vh; left: 40vw;"">
            <div style=""margin:0 auto; width: 20vw; top: 8vh; font-size: 2vw""> 
            <font color=""green""> Bonus : $0.05 </font>
            </div>
        </div>
    
            <div> Please press any key to continue to the next image.</div>
        "," ","ITI","","","","","","",""
"","","","","","html-keyboard-response","201","275113","0.0-6.29-1.29","6150e817533ea8f02c003704","656d9e5e2de4f984cfed7d4d","656d9ef1b4db715ed2f2ba7c","null","
        
        <div style=""text-align: center; position: fixed; top: 5vh; left: 40vw;"">
            <div style=""margin:0 auto; width: 20vw; top: 8vh; font-size: 2vw""> 
            <font color=""green""> Bonus : $0.05 </font>
            </div>
        </div>
    
        <img class=""stim"" src=./stimuli//pack_shapes_1/cat_1/diff_1/ex_1_1_15.png></img>
    ","null","stimulus","","","","","","",""
"","","","","","html-keyboard-response","202","276121","0.0-6.29-2.29","6150e817533ea8f02c003704","656d9e5e2de4f984cfed7d4d","656d9ef1b4db715ed2f2ba7c","null","
        <div style=""text-align: center; position: fixed; top: 5vh; left: 40vw;"">
            <div style=""margin:0 auto; width: 20vw; top: 8vh; font-size: 2vw""> 
            <font color=""green""> Bonus : $0.05 </font>
            </div>
        </div>
    ","null","","","","","","","",""
"","","","","","html-keyboard-response","203","276545","0.0-6.29-3.29","6150e817533ea8f02c003704","656d9e5e2de4f984cfed7d4d","656d9ef1b4db715ed2f2ba7c","421","./stimuli//pack_shapes_1/cat_1/diff_1/ex_1_1_15.png","arrowleft","response","ArrowLeft","15","1","1","test","true",""
"","","","","","html-keyboard-response","204","278056","0.0-6.29-4.29","6150e817533ea8f02c003704","656d9e5e2de4f984cfed7d4d","656d9ef1b4db715ed2f2ba7c","null","<p> <font color=""green"" size=""5vw""> Correct category! </font> <br> <br> <font color=""green"" size=""8vw""> + $0.05 </font> </p>","null","feedback","","","","","","","0.1"
"","","","","","html-keyboard-response","205","278704","0.0-6.30-0.30","6150e817533ea8f02c003704","656d9e5e2de4f984cfed7d4d","656d9ef1b4db715ed2f2ba7c","647","
            
        <div style=""text-align: center; position: fixed; top: 5vh; left: 40vw;"">
            <div style=""margin:0 auto; width: 20vw; top: 8vh; font-size: 2vw""> 
            <font color=""green""> Bonus : $0.1 </font>
            </div>
        </div>
    
            <div> Please press any key to continue to the next image.</div>
        "," ","ITI","","","","","","",""
"","","","","","html-keyboard-response","206","279319","0.0-6.30-1.30","6150e817533ea8f02c003704","656d9e5e2de4f984cfed7d4d","656d9ef1b4db715ed2f2ba7c","null","
        
        <div style=""text-align: center; position: fixed; top: 5vh; left: 40vw;"">
            <div style=""margin:0 auto; width: 20vw; top: 8vh; font-size: 2vw""> 
            <font color=""green""> Bonus : $0.1 </font>
            </div>
        </div>
    
        <img class=""stim"" src=./stimuli//pack_shapes_1/cat_2/diff_1/ex_2_1_6.png></img>
    ","null","stimulus","","","","","","",""
"","","","","","html-keyboard-response","207","280331","0.0-6.30-2.30","6150e817533ea8f02c003704","656d9e5e2de4f984cfed7d4d","656d9ef1b4db715ed2f2ba7c","null","
        <div style=""text-align: center; position: fixed; top: 5vh; left: 40vw;"">
            <div style=""margin:0 auto; width: 20vw; top: 8vh; font-size: 2vw""> 
            <font color=""green""> Bonus : $0.1 </font>
            </div>
        </div>
    ","null","","","","","","","",""
"","","","","","html-keyboard-response","208","280736","0.0-6.30-3.30","6150e817533ea8f02c003704","656d9e5e2de4f984cfed7d4d","656d9ef1b4db715ed2f2ba7c","403","./stimuli//pack_shapes_1/cat_2/diff_1/ex_2_1_6.png","arrowright","response","ArrowRight","6","2","1","test","true",""
"","","","","","html-keyboard-response","209","282242","0.0-6.30-4.30","6150e817533ea8f02c003704","656d9e5e2de4f984cfed7d4d","656d9ef1b4db715ed2f2ba7c","null","<p> <font color=""green"" size=""5vw""> Correct category! </font> <br> <br> <font color=""green"" size=""8vw""> + $0.05 </font> </p>","null","feedback","","","","","","","0.15"
"","","","","","html-keyboard-response","210","283071","0.0-6.31-0.31","6150e817533ea8f02c003704","656d9e5e2de4f984cfed7d4d","656d9ef1b4db715ed2f2ba7c","827","
            
        <div style=""text-align: center; position: fixed; top: 5vh; left: 40vw;"">
            <div style=""margin:0 auto; width: 20vw; top: 8vh; font-size: 2vw""> 
            <font color=""green""> Bonus : $0.15 </font>
            </div>
        </div>
    
            <div> Please press any key to continue to the next image.</div>
        "," ","ITI","","","","","","",""
"","","","","","html-keyboard-response","211","283684","0.0-6.31-1.31","6150e817533ea8f02c003704","656d9e5e2de4f984cfed7d4d","656d9ef1b4db715ed2f2ba7c","null","
        
        <div style=""text-align: center; position: fixed; top: 5vh; left: 40vw;"">
            <div style=""margin:0 auto; width: 20vw; top: 8vh; font-size: 2vw""> 
            <font color=""green""> Bonus : $0.15 </font>
            </div>
        </div>
    
        <img class=""stim"" src=./stimuli//pack_shapes_1/cat_2/diff_1/ex_2_1_7.png></img>
    ","null","stimulus","","","","","","",""
"","","","","","html-keyboard-response","212","284692","0.0-6.31-2.31","6150e817533ea8f02c003704","656d9e5e2de4f984cfed7d4d","656d9ef1b4db715ed2f2ba7c","null","
        <div style=""text-align: center; position: fixed; top: 5vh; left: 40vw;"">
            <div style=""margin:0 auto; width: 20vw; top: 8vh; font-size: 2vw""> 
            <font color=""green""> Bonus : $0.15 </font>
            </div>
        </div>
    ","null","","","","","","","",""
"","","","","","html-keyboard-response","213","285523","0.0-6.31-3.31","6150e817533ea8f02c003704","656d9e5e2de4f984cfed7d4d","656d9ef1b4db715ed2f2ba7c","829","./stimuli//pack_shapes_1/cat_2/diff_1/ex_2_1_7.png","arrowright","response","ArrowRight","7","2","1","test","true",""
"","","","","","html-keyboard-response","214","287025","0.0-6.31-4.31","6150e817533ea8f02c003704","656d9e5e2de4f984cfed7d4d","656d9ef1b4db715ed2f2ba7c","null","<p> <font color=""green"" size=""5vw""> Correct category! </font> <br> <br> <font color=""green"" size=""8vw""> + $0.05 </font> </p>","null","feedback","","","","","","","0.2"
"","","","","","html-keyboard-response","215","287829","0.0-6.32-0.32","6150e817533ea8f02c003704","656d9e5e2de4f984cfed7d4d","656d9ef1b4db715ed2f2ba7c","801","
            
        <div style=""text-align: center; position: fixed; top: 5vh; left: 40vw;"">
            <div style=""margin:0 auto; width: 20vw; top: 8vh; font-size: 2vw""> 
            <font color=""green""> Bonus : $0.2 </font>
            </div>
        </div>
    
            <div> Please press any key to continue to the next image.</div>
        "," ","ITI","","","","","","",""
"","","","","","html-keyboard-response","216","288437","0.0-6.32-1.32","6150e817533ea8f02c003704","656d9e5e2de4f984cfed7d4d","656d9ef1b4db715ed2f2ba7c","null","
        
        <div style=""text-align: center; position: fixed; top: 5vh; left: 40vw;"">
            <div style=""margin:0 auto; width: 20vw; top: 8vh; font-size: 2vw""> 
            <font color=""green""> Bonus : $0.2 </font>
            </div>
        </div>
    
        <img class=""stim"" src=./stimuli//pack_shapes_1/cat_1/diff_2/ex_1_2_13.png></img>
    ","null","stimulus","","","","","","",""
"","","","","","html-keyboard-response","217","289449","0.0-6.32-2.32","6150e817533ea8f02c003704","656d9e5e2de4f984cfed7d4d","656d9ef1b4db715ed2f2ba7c","null","
        <div style=""text-align: center; position: fixed; top: 5vh; left: 40vw;"">
            <div style=""margin:0 auto; width: 20vw; top: 8vh; font-size: 2vw""> 
            <font color=""green""> Bonus : $0.2 </font>
            </div>
        </div>
    ","null","","","","","","","",""
"","","","","","html-keyboard-response","218","290046","0.0-6.32-3.32","6150e817533ea8f02c003704","656d9e5e2de4f984cfed7d4d","656d9ef1b4db715ed2f2ba7c","595","./stimuli//pack_shapes_1/cat_1/diff_2/ex_1_2_13.png","arrowleft","response","ArrowLeft","13","1","2","test","true",""
"","","","","","html-keyboard-response","219","291553","0.0-6.32-4.32","6150e817533ea8f02c003704","656d9e5e2de4f984cfed7d4d","656d9ef1b4db715ed2f2ba7c","null","<p> <font color=""green"" size=""5vw""> Correct category! </font> <br> <br> <font color=""green"" size=""8vw""> + $0.05 </font> </p>","null","feedback","","","","","","","0.25"
"","","","","","html-keyboard-response","220","291984","0.0-6.33-0.33","6150e817533ea8f02c003704","656d9e5e2de4f984cfed7d4d","656d9ef1b4db715ed2f2ba7c","430","
            
        <div style=""text-align: center; position: fixed; top: 5vh; left: 40vw;"">
            <div style=""margin:0 auto; width: 20vw; top: 8vh; font-size: 2vw""> 
            <font color=""green""> Bonus : $0.25 </font>
            </div>
        </div>
    
            <div> Please press any key to continue to the next image.</div>
        "," ","ITI","","","","","","",""
"","","","","","html-keyboard-response","221","292595","0.0-6.33-1.33","6150e817533ea8f02c003704","656d9e5e2de4f984cfed7d4d","656d9ef1b4db715ed2f2ba7c","null","
        
        <div style=""text-align: center; position: fixed; top: 5vh; left: 40vw;"">
            <div style=""margin:0 auto; width: 20vw; top: 8vh; font-size: 2vw""> 
            <font color=""green""> Bonus : $0.25 </font>
            </div>
        </div>
    
        <img class=""stim"" src=./stimuli//pack_shapes_1/cat_1/diff_2/ex_1_2_9.png></img>
    ","null","stimulus","","","","","","",""
"","","","","","html-keyboard-response","222","293604","0.0-6.33-2.33","6150e817533ea8f02c003704","656d9e5e2de4f984cfed7d4d","656d9ef1b4db715ed2f2ba7c","null","
        <div style=""text-align: center; position: fixed; top: 5vh; left: 40vw;"">
            <div style=""margin:0 auto; width: 20vw; top: 8vh; font-size: 2vw""> 
            <font color=""green""> Bonus : $0.25 </font>
            </div>
        </div>
    ","null","","","","","","","",""
"","","","","","html-keyboard-response","223","294354","0.0-6.33-3.33","6150e817533ea8f02c003704","656d9e5e2de4f984cfed7d4d","656d9ef1b4db715ed2f2ba7c","748","./stimuli//pack_shapes_1/cat_1/diff_2/ex_1_2_9.png","arrowleft","response","ArrowLeft","9","1","2","test","true",""
"","","","","","html-keyboard-response","224","295866","0.0-6.33-4.33","6150e817533ea8f02c003704","656d9e5e2de4f984cfed7d4d","656d9ef1b4db715ed2f2ba7c","null","<p> <font color=""green"" size=""5vw""> Correct category! </font> <br> <br> <font color=""green"" size=""8vw""> + $0.05 </font> </p>","null","feedback","","","","","","","0.3"
"","","","","","html-keyboard-response","225","296351","0.0-6.34-0.34","6150e817533ea8f02c003704","656d9e5e2de4f984cfed7d4d","656d9ef1b4db715ed2f2ba7c","483","
            
        <div style=""text-align: center; position: fixed; top: 5vh; left: 40vw;"">
            <div style=""margin:0 auto; width: 20vw; top: 8vh; font-size: 2vw""> 
            <font color=""green""> Bonus : $0.3 </font>
            </div>
        </div>
    
            <div> Please press any key to continue to the next image.</div>
        "," ","ITI","","","","","","",""
"","","","","","html-keyboard-response","226","296958","0.0-6.34-1.34","6150e817533ea8f02c003704","656d9e5e2de4f984cfed7d4d","656d9ef1b4db715ed2f2ba7c","null","
        
        <div style=""text-align: center; position: fixed; top: 5vh; left: 40vw;"">
            <div style=""margin:0 auto; width: 20vw; top: 8vh; font-size: 2vw""> 
            <font color=""green""> Bonus : $0.3 </font>
            </div>
        </div>
    
        <img class=""stim"" src=./stimuli//pack_shapes_1/cat_1/diff_2/ex_1_2_1.png></img>
    ","null","stimulus","","","","","","",""
"","","","","","html-keyboard-response","227","297961","0.0-6.34-2.34","6150e817533ea8f02c003704","656d9e5e2de4f984cfed7d4d","656d9ef1b4db715ed2f2ba7c","null","
        <div style=""text-align: center; position: fixed; top: 5vh; left: 40vw;"">
            <div style=""margin:0 auto; width: 20vw; top: 8vh; font-size: 2vw""> 
            <font color=""green""> Bonus : $0.3 </font>
            </div>
        </div>
    ","null","","","","","","","",""
"","","","","","html-keyboard-response","228","298326","0.0-6.34-3.34","6150e817533ea8f02c003704","656d9e5e2de4f984cfed7d4d","656d9ef1b4db715ed2f2ba7c","364","./stimuli//pack_shapes_1/cat_1/diff_2/ex_1_2_1.png","arrowright","response","ArrowLeft","1","1","2","test","false",""
"","","","","","html-keyboard-response","229","299832","0.0-6.34-4.34","6150e817533ea8f02c003704","656d9e5e2de4f984cfed7d4d","656d9ef1b4db715ed2f2ba7c","null","<p> <font color=""red"" size=""5vw""> Wrong category! </font> <br> <br> <font color=""red"" size=""8vw""> - $0.05 </font> </p>","null","feedback","","","","","","","0.25"
"","","","","","html-keyboard-response","230","300475","0.0-6.35-0.35","6150e817533ea8f02c003704","656d9e5e2de4f984cfed7d4d","656d9ef1b4db715ed2f2ba7c","640","
            
        <div style=""text-align: center; position: fixed; top: 5vh; left: 40vw;"">
            <div style=""margin:0 auto; width: 20vw; top: 8vh; font-size: 2vw""> 
