"success","timeout","failed_images","failed_audio","failed_video","trial_type","trial_index","time_elapsed","internal_node_id","subject_id","study_id","session_id","rt","stimulus","response","task","correct_response","exemplar_ID","category","difficulty","phase","correct","bonus"
"true","false","[]","[]","[]","preload","0","2","0.0-0.0","5f29510421c44f014deba2f7","656d9e5e2de4f984cfed7d4d","656d9ed0a493120fccf08945","","","","","","","","","","",""
"","","","","","html-keyboard-response","1","2680","0.0-1.0","5f29510421c44f014deba2f7","656d9e5e2de4f984cfed7d4d","656d9ed0a493120fccf08945","2677","Welcome to the Category Learning experiment! Press any key to continue."," ","welcome","","","","","","",""
"","","","","","html-keyboard-response","2","28637","0.0-2.0","5f29510421c44f014deba2f7","656d9e5e2de4f984cfed7d4d","656d9ed0a493120fccf08945","25957","
            <p>You will be shown images of white shapes. Some are category A, some are category B.
            <br>You will not know in advance which category a specific shape belongs to.</p>
            <p>After you see an image, you will be asked to guess its category <b>(left arrow for category A, right arrow for category B)</b></p>
            <p>After you choose, the screen will show you whether you were correct or not.</p>
            <p><b>You will receive a bonus payment of $0.05 for each correct answer!</b></p>
            <p><b>You will lose $0.05 from your bonus payment for each incorrect answer! The bonus can not become less that $0.</b></p>
            <p>Press any key to continue.</p>
            "," ","introduction_1","","","","","","",""
"","","","","","html-keyboard-response","3","34749","0.0-3.0","5f29510421c44f014deba2f7","656d9e5e2de4f984cfed7d4d","656d9ed0a493120fccf08945","6111","
            <p> <b>The first 10 trials are a practice round that will not count towards your bonus payment.</b></p>
            <p> You will be notified when practice finishes and the test begins. </p>
            <p> Press any key to begin the practice round.</p>
            "," ","introduction_2","","","","","","",""
"","","","","","html-keyboard-response","4","36447","0.0-4.0-0.0","5f29510421c44f014deba2f7","656d9e5e2de4f984cfed7d4d","656d9ed0a493120fccf08945","1697","
            
        <div style=""text-align: center; position: fixed; top: 5vh; left: 40vw;"">
            <div style=""margin:0 auto; width: 20vw; top: 8vh; font-size: 2vw""> 
            <font color=""green""> Bonus : $0 </font>
            </div>
        </div>
    
            <div> Please press any key to continue to the next image.</div>
        "," ","ITI","","","","","","",""
"","","","","","html-keyboard-response","5","37055","0.0-4.0-1.0","5f29510421c44f014deba2f7","656d9e5e2de4f984cfed7d4d","656d9ed0a493120fccf08945","null","
        
        <div style=""text-align: center; position: fixed; top: 5vh; left: 40vw;"">
            <div style=""margin:0 auto; width: 20vw; top: 8vh; font-size: 2vw""> 
            <font color=""green""> Bonus : $0 </font>
            </div>
        </div>
    
        <img class=""stim"" src=./stimuli//pack_shapes_1/cat_2/diff_1/ex_2_1_7.png></img>
    ","null","stimulus","","","","","","",""
"","","","","","html-keyboard-response","6","38067","0.0-4.0-2.0","5f29510421c44f014deba2f7","656d9e5e2de4f984cfed7d4d","656d9ed0a493120fccf08945","null","
        <div style=""text-align: center; position: fixed; top: 5vh; left: 40vw;"">
            <div style=""margin:0 auto; width: 20vw; top: 8vh; font-size: 2vw""> 
            <font color=""green""> Bonus : $0 </font>
            </div>
        </div>
    ","null","","","","","","","",""
"","","","","","html-keyboard-response","7","39024","0.0-4.0-3.0","5f29510421c44f014deba2f7","656d9e5e2de4f984cfed7d4d","656d9ed0a493120fccf08945","956","./stimuli//pack_shapes_1/cat_2/diff_1/ex_2_1_7.png","arrowleft","response","ArrowRight","7","2","1","train","false",""
"","","","","","html-keyboard-response","8","40529","0.0-4.0-4.0","5f29510421c44f014deba2f7","656d9e5e2de4f984cfed7d4d","656d9ed0a493120fccf08945","null","<p> <font color=""red"" size=""5vw""> Wrong category! </font> </p>","null","feedback","","","","","","","0"
"","","","","","html-keyboard-response","9","43106","0.0-4.0-0.1","5f29510421c44f014deba2f7","656d9e5e2de4f984cfed7d4d","656d9ed0a493120fccf08945","2576","
            
        <div style=""text-align: center; position: fixed; top: 5vh; left: 40vw;"">
            <div style=""margin:0 auto; width: 20vw; top: 8vh; font-size: 2vw""> 
            <font color=""green""> Bonus : $0 </font>
            </div>
        </div>
    
            <div> Please press any key to continue to the next image.</div>
        "," ","ITI","","","","","","",""
"","","","","","html-keyboard-response","10","43719","0.0-4.0-1.1","5f29510421c44f014deba2f7","656d9e5e2de4f984cfed7d4d","656d9ed0a493120fccf08945","null","
        
        <div style=""text-align: center; position: fixed; top: 5vh; left: 40vw;"">
            <div style=""margin:0 auto; width: 20vw; top: 8vh; font-size: 2vw""> 
            <font color=""green""> Bonus : $0 </font>
            </div>
        </div>
    
        <img class=""stim"" src=./stimuli//pack_shapes_1/cat_1/diff_2/ex_1_2_9.png></img>
    ","null","stimulus","","","","","","",""
"","","","","","html-keyboard-response","11","44727","0.0-4.0-2.1","5f29510421c44f014deba2f7","656d9e5e2de4f984cfed7d4d","656d9ed0a493120fccf08945","null","
        <div style=""text-align: center; position: fixed; top: 5vh; left: 40vw;"">
            <div style=""margin:0 auto; width: 20vw; top: 8vh; font-size: 2vw""> 
            <font color=""green""> Bonus : $0 </font>
            </div>
        </div>
    ","null","","","","","","","",""
"","","","","","html-keyboard-response","12","44748","0.0-4.0-3.1","5f29510421c44f014deba2f7","656d9e5e2de4f984cfed7d4d","656d9ed0a493120fccf08945","21","./stimuli//pack_shapes_1/cat_1/diff_2/ex_1_2_9.png","arrowright","response","ArrowLeft","9","1","2","train","false",""
"","","","","","html-keyboard-response","13","46261","0.0-4.0-4.1","5f29510421c44f014deba2f7","656d9e5e2de4f984cfed7d4d","656d9ed0a493120fccf08945","null","<p> <font color=""red"" size=""5vw""> Wrong category! </font> </p>","null","feedback","","","","","","","0"
"","","","","","html-keyboard-response","14","47325","0.0-4.0-0.2","5f29510421c44f014deba2f7","656d9e5e2de4f984cfed7d4d","656d9ed0a493120fccf08945","1063","
            
        <div style=""text-align: center; position: fixed; top: 5vh; left: 40vw;"">
            <div style=""margin:0 auto; width: 20vw; top: 8vh; font-size: 2vw""> 
            <font color=""green""> Bonus : $0 </font>
            </div>
        </div>
    
            <div> Please press any key to continue to the next image.</div>
        "," ","ITI","","","","","","",""
"","","","","","html-keyboard-response","15","47936","0.0-4.0-1.2","5f29510421c44f014deba2f7","656d9e5e2de4f984cfed7d4d","656d9ed0a493120fccf08945","null","
        
        <div style=""text-align: center; position: fixed; top: 5vh; left: 40vw;"">
            <div style=""margin:0 auto; width: 20vw; top: 8vh; font-size: 2vw""> 
            <font color=""green""> Bonus : $0 </font>
            </div>
        </div>
    
        <img class=""stim"" src=./stimuli//pack_shapes_1/cat_2/diff_2/ex_2_2_2.png></img>
    ","null","stimulus","","","","","","",""
"","","","","","html-keyboard-response","16","48948","0.0-4.0-2.2","5f29510421c44f014deba2f7","656d9e5e2de4f984cfed7d4d","656d9ed0a493120fccf08945","null","
        <div style=""text-align: center; position: fixed; top: 5vh; left: 40vw;"">
            <div style=""margin:0 auto; width: 20vw; top: 8vh; font-size: 2vw""> 
            <font color=""green""> Bonus : $0 </font>
            </div>
        </div>
    ","null","","","","","","","",""
"","","","","","html-keyboard-response","17","49342","0.0-4.0-3.2","5f29510421c44f014deba2f7","656d9e5e2de4f984cfed7d4d","656d9ed0a493120fccf08945","394","./stimuli//pack_shapes_1/cat_2/diff_2/ex_2_2_2.png","arrowright","response","ArrowRight","2","2","2","train","true",""
"","","","","","html-keyboard-response","18","50858","0.0-4.0-4.2","5f29510421c44f014deba2f7","656d9e5e2de4f984cfed7d4d","656d9ed0a493120fccf08945","null","<p><font color=""green"" size=""5vw""> Correct category! </font></p>","null","feedback","","","","","","","0"
"","","","","","html-keyboard-response","19","51853","0.0-4.0-0.3","5f29510421c44f014deba2f7","656d9e5e2de4f984cfed7d4d","656d9ed0a493120fccf08945","995","
            
        <div style=""text-align: center; position: fixed; top: 5vh; left: 40vw;"">
            <div style=""margin:0 auto; width: 20vw; top: 8vh; font-size: 2vw""> 
            <font color=""green""> Bonus : $0 </font>
            </div>
        </div>
    
            <div> Please press any key to continue to the next image.</div>
        "," ","ITI","","","","","","",""
"","","","","","html-keyboard-response","20","52457","0.0-4.0-1.3","5f29510421c44f014deba2f7","656d9e5e2de4f984cfed7d4d","656d9ed0a493120fccf08945","null","
        
        <div style=""text-align: center; position: fixed; top: 5vh; left: 40vw;"">
            <div style=""margin:0 auto; width: 20vw; top: 8vh; font-size: 2vw""> 
            <font color=""green""> Bonus : $0 </font>
            </div>
        </div>
    
        <img class=""stim"" src=./stimuli//pack_shapes_1/cat_1/diff_2/ex_1_2_16.png></img>
    ","null","stimulus","","","","","","",""
"","","","","","html-keyboard-response","21","53470","0.0-4.0-2.3","5f29510421c44f014deba2f7","656d9e5e2de4f984cfed7d4d","656d9ed0a493120fccf08945","null","
        <div style=""text-align: center; position: fixed; top: 5vh; left: 40vw;"">
            <div style=""margin:0 auto; width: 20vw; top: 8vh; font-size: 2vw""> 
            <font color=""green""> Bonus : $0 </font>
            </div>
        </div>
    ","null","","","","","","","",""
"","","","","","html-keyboard-response","22","53838","0.0-4.0-3.3","5f29510421c44f014deba2f7","656d9e5e2de4f984cfed7d4d","656d9ed0a493120fccf08945","367","./stimuli//pack_shapes_1/cat_1/diff_2/ex_1_2_16.png","arrowleft","response","ArrowLeft","16","1","2","train","true",""
"","","","","","html-keyboard-response","23","55350","0.0-4.0-4.3","5f29510421c44f014deba2f7","656d9e5e2de4f984cfed7d4d","656d9ed0a493120fccf08945","null","<p><font color=""green"" size=""5vw""> Correct category! </font></p>","null","feedback","","","","","","","0"
"","","","","","html-keyboard-response","24","56349","0.0-4.0-0.4","5f29510421c44f014deba2f7","656d9e5e2de4f984cfed7d4d","656d9ed0a493120fccf08945","998","
            
        <div style=""text-align: center; position: fixed; top: 5vh; left: 40vw;"">
            <div style=""margin:0 auto; width: 20vw; top: 8vh; font-size: 2vw""> 
            <font color=""green""> Bonus : $0 </font>
            </div>
        </div>
    
            <div> Please press any key to continue to the next image.</div>
        "," ","ITI","","","","","","",""
"","","","","","html-keyboard-response","25","56956","0.0-4.0-1.4","5f29510421c44f014deba2f7","656d9e5e2de4f984cfed7d4d","656d9ed0a493120fccf08945","null","
        
        <div style=""text-align: center; position: fixed; top: 5vh; left: 40vw;"">
            <div style=""margin:0 auto; width: 20vw; top: 8vh; font-size: 2vw""> 
            <font color=""green""> Bonus : $0 </font>
            </div>
        </div>
    
        <img class=""stim"" src=./stimuli//pack_shapes_1/cat_1/diff_1/ex_1_1_5.png></img>
    ","null","stimulus","","","","","","",""
"","","","","","html-keyboard-response","26","57966","0.0-4.0-2.4","5f29510421c44f014deba2f7","656d9e5e2de4f984cfed7d4d","656d9ed0a493120fccf08945","null","
        <div style=""text-align: center; position: fixed; top: 5vh; left: 40vw;"">
            <div style=""margin:0 auto; width: 20vw; top: 8vh; font-size: 2vw""> 
            <font color=""green""> Bonus : $0 </font>
            </div>
        </div>
    ","null","","","","","","","",""
"","","","","","html-keyboard-response","27","58420","0.0-4.0-3.4","5f29510421c44f014deba2f7","656d9e5e2de4f984cfed7d4d","656d9ed0a493120fccf08945","454","./stimuli//pack_shapes_1/cat_1/diff_1/ex_1_1_5.png","arrowleft","response","ArrowLeft","5","1","1","train","true",""
"","","","","","html-keyboard-response","28","59928","0.0-4.0-4.4","5f29510421c44f014deba2f7","656d9e5e2de4f984cfed7d4d","656d9ed0a493120fccf08945","null","<p><font color=""green"" size=""5vw""> Correct category! </font></p>","null","feedback","","","","","","","0"
"","","","","","html-keyboard-response","29","60603","0.0-4.0-0.5","5f29510421c44f014deba2f7","656d9e5e2de4f984cfed7d4d","656d9ed0a493120fccf08945","674","
            
        <div style=""text-align: center; position: fixed; top: 5vh; left: 40vw;"">
            <div style=""margin:0 auto; width: 20vw; top: 8vh; font-size: 2vw""> 
            <font color=""green""> Bonus : $0 </font>
            </div>
        </div>
    
            <div> Please press any key to continue to the next image.</div>
        "," ","ITI","","","","","","",""
"","","","","","html-keyboard-response","30","61204","0.0-4.0-1.5","5f29510421c44f014deba2f7","656d9e5e2de4f984cfed7d4d","656d9ed0a493120fccf08945","null","
        
        <div style=""text-align: center; position: fixed; top: 5vh; left: 40vw;"">
            <div style=""margin:0 auto; width: 20vw; top: 8vh; font-size: 2vw""> 
            <font color=""green""> Bonus : $0 </font>
            </div>
        </div>
    
        <img class=""stim"" src=./stimuli//pack_shapes_1/cat_1/diff_1/ex_1_1_8.png></img>
    ","null","stimulus","","","","","","",""
"","","","","","html-keyboard-response","31","62215","0.0-4.0-2.5","5f29510421c44f014deba2f7","656d9e5e2de4f984cfed7d4d","656d9ed0a493120fccf08945","null","
        <div style=""text-align: center; position: fixed; top: 5vh; left: 40vw;"">
            <div style=""margin:0 auto; width: 20vw; top: 8vh; font-size: 2vw""> 
            <font color=""green""> Bonus : $0 </font>
            </div>
        </div>
    ","null","","","","","","","",""
"","","","","","html-keyboard-response","32","62616","0.0-4.0-3.5","5f29510421c44f014deba2f7","656d9e5e2de4f984cfed7d4d","656d9ed0a493120fccf08945","400","./stimuli//pack_shapes_1/cat_1/diff_1/ex_1_1_8.png","arrowleft","response","ArrowLeft","8","1","1","train","true",""
"","","","","","html-keyboard-response","33","64117","0.0-4.0-4.5","5f29510421c44f014deba2f7","656d9e5e2de4f984cfed7d4d","656d9ed0a493120fccf08945","null","<p><font color=""green"" size=""5vw""> Correct category! </font></p>","null","feedback","","","","","","","0"
"","","","","","html-keyboard-response","34","64816","0.0-4.0-0.6","5f29510421c44f014deba2f7","656d9e5e2de4f984cfed7d4d","656d9ed0a493120fccf08945","699","
            
        <div style=""text-align: center; position: fixed; top: 5vh; left: 40vw;"">
            <div style=""margin:0 auto; width: 20vw; top: 8vh; font-size: 2vw""> 
            <font color=""green""> Bonus : $0 </font>
            </div>
        </div>
    
            <div> Please press any key to continue to the next image.</div>
        "," ","ITI","","","","","","",""
"","","","","","html-keyboard-response","35","65421","0.0-4.0-1.6","5f29510421c44f014deba2f7","656d9e5e2de4f984cfed7d4d","656d9ed0a493120fccf08945","null","
        
        <div style=""text-align: center; position: fixed; top: 5vh; left: 40vw;"">
            <div style=""margin:0 auto; width: 20vw; top: 8vh; font-size: 2vw""> 
            <font color=""green""> Bonus : $0 </font>
            </div>
        </div>
    
        <img class=""stim"" src=./stimuli//pack_shapes_1/cat_2/diff_2/ex_2_2_13.png></img>
    ","null","stimulus","","","","","","",""
"","","","","","html-keyboard-response","36","66430","0.0-4.0-2.6","5f29510421c44f014deba2f7","656d9e5e2de4f984cfed7d4d","656d9ed0a493120fccf08945","null","
        <div style=""text-align: center; position: fixed; top: 5vh; left: 40vw;"">
            <div style=""margin:0 auto; width: 20vw; top: 8vh; font-size: 2vw""> 
            <font color=""green""> Bonus : $0 </font>
            </div>
        </div>
    ","null","","","","","","","",""
"","","","","","html-keyboard-response","37","66761","0.0-4.0-3.6","5f29510421c44f014deba2f7","656d9e5e2de4f984cfed7d4d","656d9ed0a493120fccf08945","330","./stimuli//pack_shapes_1/cat_2/diff_2/ex_2_2_13.png","arrowright","response","ArrowRight","13","2","2","train","true",""
"","","","","","html-keyboard-response","38","68278","0.0-4.0-4.6","5f29510421c44f014deba2f7","656d9e5e2de4f984cfed7d4d","656d9ed0a493120fccf08945","null","<p><font color=""green"" size=""5vw""> Correct category! </font></p>","null","feedback","","","","","","","0"
"","","","","","html-keyboard-response","39","68822","0.0-4.0-0.7","5f29510421c44f014deba2f7","656d9e5e2de4f984cfed7d4d","656d9ed0a493120fccf08945","543","
            
        <div style=""text-align: center; position: fixed; top: 5vh; left: 40vw;"">
            <div style=""margin:0 auto; width: 20vw; top: 8vh; font-size: 2vw""> 
            <font color=""green""> Bonus : $0 </font>
            </div>
        </div>
    
            <div> Please press any key to continue to the next image.</div>
        "," ","ITI","","","","","","",""
"","","","","","html-keyboard-response","40","69427","0.0-4.0-1.7","5f29510421c44f014deba2f7","656d9e5e2de4f984cfed7d4d","656d9ed0a493120fccf08945","null","
        
        <div style=""text-align: center; position: fixed; top: 5vh; left: 40vw;"">
            <div style=""margin:0 auto; width: 20vw; top: 8vh; font-size: 2vw""> 
            <font color=""green""> Bonus : $0 </font>
            </div>
        </div>
    
        <img class=""stim"" src=./stimuli//pack_shapes_1/cat_1/diff_1/ex_1_1_1.png></img>
    ","null","stimulus","","","","","","",""
"","","","","","html-keyboard-response","41","70440","0.0-4.0-2.7","5f29510421c44f014deba2f7","656d9e5e2de4f984cfed7d4d","656d9ed0a493120fccf08945","null","
        <div style=""text-align: center; position: fixed; top: 5vh; left: 40vw;"">
            <div style=""margin:0 auto; width: 20vw; top: 8vh; font-size: 2vw""> 
            <font color=""green""> Bonus : $0 </font>
            </div>
        </div>
    ","null","","","","","","","",""
"","","","","","html-keyboard-response","42","70813","0.0-4.0-3.7","5f29510421c44f014deba2f7","656d9e5e2de4f984cfed7d4d","656d9ed0a493120fccf08945","372","./stimuli//pack_shapes_1/cat_1/diff_1/ex_1_1_1.png","arrowleft","response","ArrowLeft","1","1","1","train","true",""
"","","","","","html-keyboard-response","43","72317","0.0-4.0-4.7","5f29510421c44f014deba2f7","656d9e5e2de4f984cfed7d4d","656d9ed0a493120fccf08945","null","<p><font color=""green"" size=""5vw""> Correct category! </font></p>","null","feedback","","","","","","","0"
"","","","","","html-keyboard-response","44","72879","0.0-4.0-0.8","5f29510421c44f014deba2f7","656d9e5e2de4f984cfed7d4d","656d9ed0a493120fccf08945","561","
            
        <div style=""text-align: center; position: fixed; top: 5vh; left: 40vw;"">
            <div style=""margin:0 auto; width: 20vw; top: 8vh; font-size: 2vw""> 
            <font color=""green""> Bonus : $0 </font>
            </div>
        </div>
    
            <div> Please press any key to continue to the next image.</div>
        "," ","ITI","","","","","","",""
"","","","","","html-keyboard-response","45","73494","0.0-4.0-1.8","5f29510421c44f014deba2f7","656d9e5e2de4f984cfed7d4d","656d9ed0a493120fccf08945","null","
        
        <div style=""text-align: center; position: fixed; top: 5vh; left: 40vw;"">
            <div style=""margin:0 auto; width: 20vw; top: 8vh; font-size: 2vw""> 
            <font color=""green""> Bonus : $0 </font>
            </div>
        </div>
    
        <img class=""stim"" src=./stimuli//pack_shapes_1/cat_2/diff_1/ex_2_1_10.png></img>
    ","null","stimulus","","","","","","",""
"","","","","","html-keyboard-response","46","74506","0.0-4.0-2.8","5f29510421c44f014deba2f7","656d9e5e2de4f984cfed7d4d","656d9ed0a493120fccf08945","null","
        <div style=""text-align: center; position: fixed; top: 5vh; left: 40vw;"">
            <div style=""margin:0 auto; width: 20vw; top: 8vh; font-size: 2vw""> 
            <font color=""green""> Bonus : $0 </font>
            </div>
        </div>
    ","null","","","","","","","",""
"","","","","","html-keyboard-response","47","74777","0.0-4.0-3.8","5f29510421c44f014deba2f7","656d9e5e2de4f984cfed7d4d","656d9ed0a493120fccf08945","270","./stimuli//pack_shapes_1/cat_2/diff_1/ex_2_1_10.png","arrowright","response","ArrowRight","10","2","1","train","true",""
"","","","","","html-keyboard-response","48","76290","0.0-4.0-4.8","5f29510421c44f014deba2f7","656d9e5e2de4f984cfed7d4d","656d9ed0a493120fccf08945","null","<p><font color=""green"" size=""5vw""> Correct category! </font></p>","null","feedback","","","","","","","0"
"","","","","","html-keyboard-response","49","77058","0.0-4.0-0.9","5f29510421c44f014deba2f7","656d9e5e2de4f984cfed7d4d","656d9ed0a493120fccf08945","768","
            
        <div style=""text-align: center; position: fixed; top: 5vh; left: 40vw;"">
            <div style=""margin:0 auto; width: 20vw; top: 8vh; font-size: 2vw""> 
            <font color=""green""> Bonus : $0 </font>
            </div>
        </div>
    
            <div> Please press any key to continue to the next image.</div>
        "," ","ITI","","","","","","",""
"","","","","","html-keyboard-response","50","77671","0.0-4.0-1.9","5f29510421c44f014deba2f7","656d9e5e2de4f984cfed7d4d","656d9ed0a493120fccf08945","null","
        
        <div style=""text-align: center; position: fixed; top: 5vh; left: 40vw;"">
            <div style=""margin:0 auto; width: 20vw; top: 8vh; font-size: 2vw""> 
            <font color=""green""> Bonus : $0 </font>
            </div>
        </div>
    
        <img class=""stim"" src=./stimuli//pack_shapes_1/cat_2/diff_1/ex_2_1_6.png></img>
    ","null","stimulus","","","","","","",""
"","","","","","html-keyboard-response","51","78680","0.0-4.0-2.9","5f29510421c44f014deba2f7","656d9e5e2de4f984cfed7d4d","656d9ed0a493120fccf08945","null","
        <div style=""text-align: center; position: fixed; top: 5vh; left: 40vw;"">
            <div style=""margin:0 auto; width: 20vw; top: 8vh; font-size: 2vw""> 
            <font color=""green""> Bonus : $0 </font>
            </div>
        </div>
    ","null","","","","","","","",""
"","","","","","html-keyboard-response","52","79269","0.0-4.0-3.9","5f29510421c44f014deba2f7","656d9e5e2de4f984cfed7d4d","656d9ed0a493120fccf08945","588","./stimuli//pack_shapes_1/cat_2/diff_1/ex_2_1_6.png","arrowright","response","ArrowRight","6","2","1","train","true",""
"","","","","","html-keyboard-response","53","80777","0.0-4.0-4.9","5f29510421c44f014deba2f7","656d9e5e2de4f984cfed7d4d","656d9ed0a493120fccf08945","null","<p><font color=""green"" size=""5vw""> Correct category! </font></p>","null","feedback","","","","","","","0"
"","","","","","html-keyboard-response","54","84393","0.0-5.0","5f29510421c44f014deba2f7","656d9e5e2de4f984cfed7d4d","656d9ed0a493120fccf08945","3615","
            <b> <p> The practice round has finished.</p>
            <p> For the rest of the experiment you will receive a $0.05 bonus for each correct answer and lose $0.05 from your bonus for each incorrect answer!</p>
            <p> The bonus can not become less than $0. </b>
            <p> Press any key to begin the test. </p>
            "," ","intermission","","","","","","",""
"","","","","","html-keyboard-response","55","85334","0.0-6.0-0.0","5f29510421c44f014deba2f7","656d9e5e2de4f984cfed7d4d","656d9ed0a493120fccf08945","941","
            
        <div style=""text-align: center; position: fixed; top: 5vh; left: 40vw;"">
            <div style=""margin:0 auto; width: 20vw; top: 8vh; font-size: 2vw""> 
            <font color=""green""> Bonus : $0 </font>
            </div>
        </div>
    
            <div> Please press any key to continue to the next image.</div>
        "," ","ITI","","","","","","",""
"","","","","","html-keyboard-response","56","85946","0.0-6.0-1.0","5f29510421c44f014deba2f7","656d9e5e2de4f984cfed7d4d","656d9ed0a493120fccf08945","null","
        
        <div style=""text-align: center; position: fixed; top: 5vh; left: 40vw;"">
            <div style=""margin:0 auto; width: 20vw; top: 8vh; font-size: 2vw""> 
            <font color=""green""> Bonus : $0 </font>
            </div>
        </div>
    
        <img class=""stim"" src=./stimuli//pack_shapes_1/cat_2/diff_1/ex_2_1_17.png></img>
    ","null","stimulus","","","","","","",""
"","","","","","html-keyboard-response","57","86959","0.0-6.0-2.0","5f29510421c44f014deba2f7","656d9e5e2de4f984cfed7d4d","656d9ed0a493120fccf08945","null","
        <div style=""text-align: center; position: fixed; top: 5vh; left: 40vw;"">
            <div style=""margin:0 auto; width: 20vw; top: 8vh; font-size: 2vw""> 
            <font color=""green""> Bonus : $0 </font>
            </div>
        </div>
    ","null","","","","","","","",""
"","","","","","html-keyboard-response","58","87280","0.0-6.0-3.0","5f29510421c44f014deba2f7","656d9e5e2de4f984cfed7d4d","656d9ed0a493120fccf08945","320","./stimuli//pack_shapes_1/cat_2/diff_1/ex_2_1_17.png","arrowright","response","ArrowRight","17","2","1","test","true",""
"","","","","","html-keyboard-response","59","88781","0.0-6.0-4.0","5f29510421c44f014deba2f7","656d9e5e2de4f984cfed7d4d","656d9ed0a493120fccf08945","null","<p> <font color=""green"" size=""5vw""> Correct category! </font> <br> <br> <font color=""green"" size=""8vw""> + $0.05 </font> </p>","null","feedback","","","","","","","0.05"
"","","","","","html-keyboard-response","60","89421","0.0-6.1-0.1","5f29510421c44f014deba2f7","656d9e5e2de4f984cfed7d4d","656d9ed0a493120fccf08945","638","
            
        <div style=""text-align: center; position: fixed; top: 5vh; left: 40vw;"">
            <div style=""margin:0 auto; width: 20vw; top: 8vh; font-size: 2vw""> 
            <font color=""green""> Bonus : $0.05 </font>
            </div>
        </div>
    
            <div> Please press any key to continue to the next image.</div>
        "," ","ITI","","","","","","",""
"","","","","","html-keyboard-response","61","90034","0.0-6.1-1.1","5f29510421c44f014deba2f7","656d9e5e2de4f984cfed7d4d","656d9ed0a493120fccf08945","null","
        
        <div style=""text-align: center; position: fixed; top: 5vh; left: 40vw;"">
            <div style=""margin:0 auto; width: 20vw; top: 8vh; font-size: 2vw""> 
            <font color=""green""> Bonus : $0.05 </font>
            </div>
        </div>
    
        <img class=""stim"" src=./stimuli//pack_shapes_1/cat_1/diff_1/ex_1_1_13.png></img>
    ","null","stimulus","","","","","","",""
"","","","","","html-keyboard-response","62","91046","0.0-6.1-2.1","5f29510421c44f014deba2f7","656d9e5e2de4f984cfed7d4d","656d9ed0a493120fccf08945","null","
        <div style=""text-align: center; position: fixed; top: 5vh; left: 40vw;"">
            <div style=""margin:0 auto; width: 20vw; top: 8vh; font-size: 2vw""> 
            <font color=""green""> Bonus : $0.05 </font>
            </div>
        </div>
    ","null","","","","","","","",""
"","","","","","html-keyboard-response","63","91491","0.0-6.1-3.1","5f29510421c44f014deba2f7","656d9e5e2de4f984cfed7d4d","656d9ed0a493120fccf08945","444","./stimuli//pack_shapes_1/cat_1/diff_1/ex_1_1_13.png","arrowleft","response","ArrowLeft","13","1","1","test","true",""
"","","","","","html-keyboard-response","64","93006","0.0-6.1-4.1","5f29510421c44f014deba2f7","656d9e5e2de4f984cfed7d4d","656d9ed0a493120fccf08945","null","<p> <font color=""green"" size=""5vw""> Correct category! </font> <br> <br> <font color=""green"" size=""8vw""> + $0.05 </font> </p>","null","feedback","","","","","","","0.1"
"","","","","","html-keyboard-response","65","94445","0.0-6.2-0.2","5f29510421c44f014deba2f7","656d9e5e2de4f984cfed7d4d","656d9ed0a493120fccf08945","1438","
            
        <div style=""text-align: center; position: fixed; top: 5vh; left: 40vw;"">
            <div style=""margin:0 auto; width: 20vw; top: 8vh; font-size: 2vw""> 
            <font color=""green""> Bonus : $0.1 </font>
            </div>
        </div>
    
            <div> Please press any key to continue to the next image.</div>
        "," ","ITI","","","","","","",""
"","","","","","html-keyboard-response","66","95057","0.0-6.2-1.2","5f29510421c44f014deba2f7","656d9e5e2de4f984cfed7d4d","656d9ed0a493120fccf08945","null","
        
        <div style=""text-align: center; position: fixed; top: 5vh; left: 40vw;"">
            <div style=""margin:0 auto; width: 20vw; top: 8vh; font-size: 2vw""> 
            <font color=""green""> Bonus : $0.1 </font>
            </div>
        </div>
    
        <img class=""stim"" src=./stimuli//pack_shapes_1/cat_1/diff_1/ex_1_1_16.png></img>
    ","null","stimulus","","","","","","",""
"","","","","","html-keyboard-response","67","96069","0.0-6.2-2.2","5f29510421c44f014deba2f7","656d9e5e2de4f984cfed7d4d","656d9ed0a493120fccf08945","null","
        <div style=""text-align: center; position: fixed; top: 5vh; left: 40vw;"">
            <div style=""margin:0 auto; width: 20vw; top: 8vh; font-size: 2vw""> 
            <font color=""green""> Bonus : $0.1 </font>
            </div>
        </div>
    ","null","","","","","","","",""
"","","","","","html-keyboard-response","68","96774","0.0-6.2-3.2","5f29510421c44f014deba2f7","656d9e5e2de4f984cfed7d4d","656d9ed0a493120fccf08945","705","./stimuli//pack_shapes_1/cat_1/diff_1/ex_1_1_16.png","arrowleft","response","ArrowLeft","16","1","1","test","true",""
"","","","","","html-keyboard-response","69","98290","0.0-6.2-4.2","5f29510421c44f014deba2f7","656d9e5e2de4f984cfed7d4d","656d9ed0a493120fccf08945","null","<p> <font color=""green"" size=""5vw""> Correct category! </font> <br> <br> <font color=""green"" size=""8vw""> + $0.05 </font> </p>","null","feedback","","","","","","","0.15"
"","","","","","html-keyboard-response","70","98982","0.0-6.3-0.3","5f29510421c44f014deba2f7","656d9e5e2de4f984cfed7d4d","656d9ed0a493120fccf08945","691","
            
        <div style=""text-align: center; position: fixed; top: 5vh; left: 40vw;"">
            <div style=""margin:0 auto; width: 20vw; top: 8vh; font-size: 2vw""> 
            <font color=""green""> Bonus : $0.15 </font>
            </div>
        </div>
    
            <div> Please press any key to continue to the next image.</div>
        "," ","ITI","","","","","","",""
"","","","","","html-keyboard-response","71","99583","0.0-6.3-1.3","5f29510421c44f014deba2f7","656d9e5e2de4f984cfed7d4d","656d9ed0a493120fccf08945","null","
        
        <div style=""text-align: center; position: fixed; top: 5vh; left: 40vw;"">
            <div style=""margin:0 auto; width: 20vw; top: 8vh; font-size: 2vw""> 
            <font color=""green""> Bonus : $0.15 </font>
            </div>
        </div>
    
        <img class=""stim"" src=./stimuli//pack_shapes_1/cat_2/diff_1/ex_2_1_15.png></img>
    ","null","stimulus","","","","","","",""
"","","","","","html-keyboard-response","72","100598","0.0-6.3-2.3","5f29510421c44f014deba2f7","656d9e5e2de4f984cfed7d4d","656d9ed0a493120fccf08945","null","
        <div style=""text-align: center; position: fixed; top: 5vh; left: 40vw;"">
            <div style=""margin:0 auto; width: 20vw; top: 8vh; font-size: 2vw""> 
            <font color=""green""> Bonus : $0.15 </font>
            </div>
        </div>
    ","null","","","","","","","",""
"","","","","","html-keyboard-response","73","101096","0.0-6.3-3.3","5f29510421c44f014deba2f7","656d9e5e2de4f984cfed7d4d","656d9ed0a493120fccf08945","497","./stimuli//pack_shapes_1/cat_2/diff_1/ex_2_1_15.png","arrowright","response","ArrowRight","15","2","1","test","true",""
"","","","","","html-keyboard-response","74","102601","0.0-6.3-4.3","5f29510421c44f014deba2f7","656d9e5e2de4f984cfed7d4d","656d9ed0a493120fccf08945","null","<p> <font color=""green"" size=""5vw""> Correct category! </font> <br> <br> <font color=""green"" size=""8vw""> + $0.05 </font> </p>","null","feedback","","","","","","","0.2"
"","","","","","html-keyboard-response","75","103426","0.0-6.4-0.4","5f29510421c44f014deba2f7","656d9e5e2de4f984cfed7d4d","656d9ed0a493120fccf08945","825","
            
        <div style=""text-align: center; position: fixed; top: 5vh; left: 40vw;"">
            <div style=""margin:0 auto; width: 20vw; top: 8vh; font-size: 2vw""> 
            <font color=""green""> Bonus : $0.2 </font>
            </div>
        </div>
    
            <div> Please press any key to continue to the next image.</div>
        "," ","ITI","","","","","","",""
"","","","","","html-keyboard-response","76","104033","0.0-6.4-1.4","5f29510421c44f014deba2f7","656d9e5e2de4f984cfed7d4d","656d9ed0a493120fccf08945","null","
        
        <div style=""text-align: center; position: fixed; top: 5vh; left: 40vw;"">
            <div style=""margin:0 auto; width: 20vw; top: 8vh; font-size: 2vw""> 
            <font color=""green""> Bonus : $0.2 </font>
            </div>
        </div>
    
        <img class=""stim"" src=./stimuli//pack_shapes_1/cat_2/diff_1/ex_2_1_16.png></img>
    ","null","stimulus","","","","","","",""
"","","","","","html-keyboard-response","77","105045","0.0-6.4-2.4","5f29510421c44f014deba2f7","656d9e5e2de4f984cfed7d4d","656d9ed0a493120fccf08945","null","
        <div style=""text-align: center; position: fixed; top: 5vh; left: 40vw;"">
            <div style=""margin:0 auto; width: 20vw; top: 8vh; font-size: 2vw""> 
            <font color=""green""> Bonus : $0.2 </font>
            </div>
        </div>
    ","null","","","","","","","",""
"","","","","","html-keyboard-response","78","105473","0.0-6.4-3.4","5f29510421c44f014deba2f7","656d9e5e2de4f984cfed7d4d","656d9ed0a493120fccf08945","428","./stimuli//pack_shapes_1/cat_2/diff_1/ex_2_1_16.png","arrowright","response","ArrowRight","16","2","1","test","true",""
"","","","","","html-keyboard-response","79","106987","0.0-6.4-4.4","5f29510421c44f014deba2f7","656d9e5e2de4f984cfed7d4d","656d9ed0a493120fccf08945","null","<p> <font color=""green"" size=""5vw""> Correct category! </font> <br> <br> <font color=""green"" size=""8vw""> + $0.05 </font> </p>","null","feedback","","","","","","","0.25"
"","","","","","html-keyboard-response","80","107798","0.0-6.5-0.5","5f29510421c44f014deba2f7","656d9e5e2de4f984cfed7d4d","656d9ed0a493120fccf08945","811","
            
        <div style=""text-align: center; position: fixed; top: 5vh; left: 40vw;"">
            <div style=""margin:0 auto; width: 20vw; top: 8vh; font-size: 2vw""> 
            <font color=""green""> Bonus : $0.25 </font>
            </div>
        </div>
    
            <div> Please press any key to continue to the next image.</div>
        "," ","ITI","","","","","","",""
"","","","","","html-keyboard-response","81","108407","0.0-6.5-1.5","5f29510421c44f014deba2f7","656d9e5e2de4f984cfed7d4d","656d9ed0a493120fccf08945","null","
        
        <div style=""text-align: center; position: fixed; top: 5vh; left: 40vw;"">
            <div style=""margin:0 auto; width: 20vw; top: 8vh; font-size: 2vw""> 
            <font color=""green""> Bonus : $0.25 </font>
            </div>
        </div>
    
        <img class=""stim"" src=./stimuli//pack_shapes_1/cat_1/diff_2/ex_1_2_14.png></img>
    ","null","stimulus","","","","","","",""
"","","","","","html-keyboard-response","82","109417","0.0-6.5-2.5","5f29510421c44f014deba2f7","656d9e5e2de4f984cfed7d4d","656d9ed0a493120fccf08945","null","
        <div style=""text-align: center; position: fixed; top: 5vh; left: 40vw;"">
            <div style=""margin:0 auto; width: 20vw; top: 8vh; font-size: 2vw""> 
            <font color=""green""> Bonus : $0.25 </font>
            </div>
        </div>
    ","null","","","","","","","",""
"","","","","","html-keyboard-response","83","109849","0.0-6.5-3.5","5f29510421c44f014deba2f7","656d9e5e2de4f984cfed7d4d","656d9ed0a493120fccf08945","430","./stimuli//pack_shapes_1/cat_1/diff_2/ex_1_2_14.png","arrowleft","response","ArrowLeft","14","1","2","test","true",""
"","","","","","html-keyboard-response","84","111362","0.0-6.5-4.5","5f29510421c44f014deba2f7","656d9e5e2de4f984cfed7d4d","656d9ed0a493120fccf08945","null","<p> <font color=""green"" size=""5vw""> Correct category! </font> <br> <br> <font color=""green"" size=""8vw""> + $0.05 </font> </p>","null","feedback","","","","","","","0.3"
"","","","","","html-keyboard-response","85","112109","0.0-6.6-0.6","5f29510421c44f014deba2f7","656d9e5e2de4f984cfed7d4d","656d9ed0a493120fccf08945","747","
            
        <div style=""text-align: center; position: fixed; top: 5vh; left: 40vw;"">
            <div style=""margin:0 auto; width: 20vw; top: 8vh; font-size: 2vw""> 
            <font color=""green""> Bonus : $0.3 </font>
            </div>
        </div>
    
            <div> Please press any key to continue to the next image.</div>
        "," ","ITI","","","","","","",""
"","","","","","html-keyboard-response","86","112719","0.0-6.6-1.6","5f29510421c44f014deba2f7","656d9e5e2de4f984cfed7d4d","656d9ed0a493120fccf08945","null","
        
        <div style=""text-align: center; position: fixed; top: 5vh; left: 40vw;"">
            <div style=""margin:0 auto; width: 20vw; top: 8vh; font-size: 2vw""> 
            <font color=""green""> Bonus : $0.3 </font>
            </div>
        </div>
    
        <img class=""stim"" src=./stimuli//pack_shapes_1/cat_1/diff_2/ex_1_2_3.png></img>
    ","null","stimulus","","","","","","",""
"","","","","","html-keyboard-response","87","113733","0.0-6.6-2.6","5f29510421c44f014deba2f7","656d9e5e2de4f984cfed7d4d","656d9ed0a493120fccf08945","null","
        <div style=""text-align: center; position: fixed; top: 5vh; left: 40vw;"">
            <div style=""margin:0 auto; width: 20vw; top: 8vh; font-size: 2vw""> 
            <font color=""green""> Bonus : $0.3 </font>
            </div>
        </div>
    ","null","","","","","","","",""
"","","","","","html-keyboard-response","88","114235","0.0-6.6-3.6","5f29510421c44f014deba2f7","656d9e5e2de4f984cfed7d4d","656d9ed0a493120fccf08945","501","./stimuli//pack_shapes_1/cat_1/diff_2/ex_1_2_3.png","arrowleft","response","ArrowLeft","3","1","2","test","true",""
"","","","","","html-keyboard-response","89","115752","0.0-6.6-4.6","5f29510421c44f014deba2f7","656d9e5e2de4f984cfed7d4d","656d9ed0a493120fccf08945","null","<p> <font color=""green"" size=""5vw""> Correct category! </font> <br> <br> <font color=""green"" size=""8vw""> + $0.05 </font> </p>","null","feedback","","","","","","","0.35"
"","","","","","html-keyboard-response","90","116306","0.0-6.7-0.7","5f29510421c44f014deba2f7","656d9e5e2de4f984cfed7d4d","656d9ed0a493120fccf08945","553","
            
        <div style=""text-align: center; position: fixed; top: 5vh; left: 40vw;"">
            <div style=""margin:0 auto; width: 20vw; top: 8vh; font-size: 2vw""> 
            <font color=""green""> Bonus : $0.35 </font>
            </div>
        </div>
    
            <div> Please press any key to continue to the next image.</div>
        "," ","ITI","","","","","","",""
"","","","","","html-keyboard-response","91","116918","0.0-6.7-1.7","5f29510421c44f014deba2f7","656d9e5e2de4f984cfed7d4d","656d9ed0a493120fccf08945","null","
        
        <div style=""text-align: center; position: fixed; top: 5vh; left: 40vw;"">
            <div style=""margin:0 auto; width: 20vw; top: 8vh; font-size: 2vw""> 
            <font color=""green""> Bonus : $0.35 </font>
            </div>
        </div>
    
        <img class=""stim"" src=./stimuli//pack_shapes_1/cat_2/diff_2/ex_2_2_1.png></img>
    ","null","stimulus","","","","","","",""
"","","","","","html-keyboard-response","92","117930","0.0-6.7-2.7","5f29510421c44f014deba2f7","656d9e5e2de4f984cfed7d4d","656d9ed0a493120fccf08945","null","
        <div style=""text-align: center; position: fixed; top: 5vh; left: 40vw;"">
            <div style=""margin:0 auto; width: 20vw; top: 8vh; font-size: 2vw""> 
            <font color=""green""> Bonus : $0.35 </font>
            </div>
        </div>
    ","null","","","","","","","",""
"","","","","","html-keyboard-response","93","118431","0.0-6.7-3.7","5f29510421c44f014deba2f7","656d9e5e2de4f984cfed7d4d","656d9ed0a493120fccf08945","500","./stimuli//pack_shapes_1/cat_2/diff_2/ex_2_2_1.png","arrowright","response","ArrowRight","1","2","2","test","true",""
"","","","","","html-keyboard-response","94","119940","0.0-6.7-4.7","5f29510421c44f014deba2f7","656d9e5e2de4f984cfed7d4d","656d9ed0a493120fccf08945","null","<p> <font color=""green"" size=""5vw""> Correct category! </font> <br> <br> <font color=""green"" size=""8vw""> + $0.05 </font> </p>","null","feedback","","","","","","","0.4"
"","","","","","html-keyboard-response","95","120626","0.0-6.8-0.8","5f29510421c44f014deba2f7","656d9e5e2de4f984cfed7d4d","656d9ed0a493120fccf08945","686","
            
        <div style=""text-align: center; position: fixed; top: 5vh; left: 40vw;"">
            <div style=""margin:0 auto; width: 20vw; top: 8vh; font-size: 2vw""> 
            <font color=""green""> Bonus : $0.4 </font>
            </div>
        </div>
    
            <div> Please press any key to continue to the next image.</div>
        "," ","ITI","","","","","","",""
"","","","","","html-keyboard-response","96","121230","0.0-6.8-1.8","5f29510421c44f014deba2f7","656d9e5e2de4f984cfed7d4d","656d9ed0a493120fccf08945","null","
        
        <div style=""text-align: center; position: fixed; top: 5vh; left: 40vw;"">
            <div style=""margin:0 auto; width: 20vw; top: 8vh; font-size: 2vw""> 
            <font color=""green""> Bonus : $0.4 </font>
            </div>
        </div>
    
        <img class=""stim"" src=./stimuli//pack_shapes_1/cat_2/diff_2/ex_2_2_14.png></img>
    ","null","stimulus","","","","","","",""
"","","","","","html-keyboard-response","97","122240","0.0-6.8-2.8","5f29510421c44f014deba2f7","656d9e5e2de4f984cfed7d4d","656d9ed0a493120fccf08945","null","
        <div style=""text-align: center; position: fixed; top: 5vh; left: 40vw;"">
            <div style=""margin:0 auto; width: 20vw; top: 8vh; font-size: 2vw""> 
            <font color=""green""> Bonus : $0.4 </font>
            </div>
        </div>
    ","null","","","","","","","",""
"","","","","","html-keyboard-response","98","122792","0.0-6.8-3.8","5f29510421c44f014deba2f7","656d9e5e2de4f984cfed7d4d","656d9ed0a493120fccf08945","551","./stimuli//pack_shapes_1/cat_2/diff_2/ex_2_2_14.png","arrowright","response","ArrowRight","14","2","2","test","true",""
"","","","","","html-keyboard-response","99","124304","0.0-6.8-4.8","5f29510421c44f014deba2f7","656d9e5e2de4f984cfed7d4d","656d9ed0a493120fccf08945","null","<p> <font color=""green"" size=""5vw""> Correct category! </font> <br> <br> <font color=""green"" size=""8vw""> + $0.05 </font> </p>","null","feedback","","","","","","","0.45"
"","","","","","html-keyboard-response","100","124938","0.0-6.9-0.9","5f29510421c44f014deba2f7","656d9e5e2de4f984cfed7d4d","656d9ed0a493120fccf08945","633","
            
        <div style=""text-align: center; position: fixed; top: 5vh; left: 40vw;"">
            <div style=""margin:0 auto; width: 20vw; top: 8vh; font-size: 2vw""> 
            <font color=""green""> Bonus : $0.45 </font>
            </div>
        </div>
    
            <div> Please press any key to continue to the next image.</div>
        "," ","ITI","","","","","","",""
"","","","","","html-keyboard-response","101","125544","0.0-6.9-1.9","5f29510421c44f014deba2f7","656d9e5e2de4f984cfed7d4d","656d9ed0a493120fccf08945","null","
        
        <div style=""text-align: center; position: fixed; top: 5vh; left: 40vw;"">
            <div style=""margin:0 auto; width: 20vw; top: 8vh; font-size: 2vw""> 
            <font color=""green""> Bonus : $0.45 </font>
            </div>
        </div>
    
        <img class=""stim"" src=./stimuli//pack_shapes_1/cat_1/diff_2/ex_1_2_6.png></img>
    ","null","stimulus","","","","","","",""
"","","","","","html-keyboard-response","102","126552","0.0-6.9-2.9","5f29510421c44f014deba2f7","656d9e5e2de4f984cfed7d4d","656d9ed0a493120fccf08945","null","
        <div style=""text-align: center; position: fixed; top: 5vh; left: 40vw;"">
            <div style=""margin:0 auto; width: 20vw; top: 8vh; font-size: 2vw""> 
            <font color=""green""> Bonus : $0.45 </font>
            </div>
        </div>
    ","null","","","","","","","",""
"","","","","","html-keyboard-response","103","127040","0.0-6.9-3.9","5f29510421c44f014deba2f7","656d9e5e2de4f984cfed7d4d","656d9ed0a493120fccf08945","487","./stimuli//pack_shapes_1/cat_1/diff_2/ex_1_2_6.png","arrowleft","response","ArrowLeft","6","1","2","test","true",""
"","","","","","html-keyboard-response","104","128542","0.0-6.9-4.9","5f29510421c44f014deba2f7","656d9e5e2de4f984cfed7d4d","656d9ed0a493120fccf08945","null","<p> <font color=""green"" size=""5vw""> Correct category! </font> <br> <br> <font color=""green"" size=""8vw""> + $0.05 </font> </p>","null","feedback","","","","","","","0.5"
"","","","","","html-keyboard-response","105","129164","0.0-6.10-0.10","5f29510421c44f014deba2f7","656d9e5e2de4f984cfed7d4d","656d9ed0a493120fccf08945","621","
            
        <div style=""text-align: center; position: fixed; top: 5vh; left: 40vw;"">
            <div style=""margin:0 auto; width: 20vw; top: 8vh; font-size: 2vw""> 
            <font color=""green""> Bonus : $0.5 </font>
            </div>
        </div>
    
            <div> Please press any key to continue to the next image.</div>
        "," ","ITI","","","","","","",""
"","","","","","html-keyboard-response","106","129768","0.0-6.10-1.10","5f29510421c44f014deba2f7","656d9e5e2de4f984cfed7d4d","656d9ed0a493120fccf08945","null","
        
        <div style=""text-align: center; position: fixed; top: 5vh; left: 40vw;"">
            <div style=""margin:0 auto; width: 20vw; top: 8vh; font-size: 2vw""> 
            <font color=""green""> Bonus : $0.5 </font>
            </div>
        </div>
    
        <img class=""stim"" src=./stimuli//pack_shapes_1/cat_1/diff_3/ex_1_3_10.png></img>
    ","null","stimulus","","","","","","",""
"","","","","","html-keyboard-response","107","130776","0.0-6.10-2.10","5f29510421c44f014deba2f7","656d9e5e2de4f984cfed7d4d","656d9ed0a493120fccf08945","null","
        <div style=""text-align: center; position: fixed; top: 5vh; left: 40vw;"">
            <div style=""margin:0 auto; width: 20vw; top: 8vh; font-size: 2vw""> 
            <font color=""green""> Bonus : $0.5 </font>
            </div>
        </div>
    ","null","","","","","","","",""
"","","","","","html-keyboard-response","108","131209","0.0-6.10-3.10","5f29510421c44f014deba2f7","656d9e5e2de4f984cfed7d4d","656d9ed0a493120fccf08945","433","./stimuli//pack_shapes_1/cat_1/diff_3/ex_1_3_10.png","arrowleft","response","ArrowLeft","10","1","3","test","true",""
"","","","","","html-keyboard-response","109","132718","0.0-6.10-4.10","5f29510421c44f014deba2f7","656d9e5e2de4f984cfed7d4d","656d9ed0a493120fccf08945","null","<p> <font color=""green"" size=""5vw""> Correct category! </font> <br> <br> <font color=""green"" size=""8vw""> + $0.05 </font> </p>","null","feedback","","","","","","","0.55"
"","","","","","html-keyboard-response","110","133388","0.0-6.11-0.11","5f29510421c44f014deba2f7","656d9e5e2de4f984cfed7d4d","656d9ed0a493120fccf08945","670","
            
        <div style=""text-align: center; position: fixed; top: 5vh; left: 40vw;"">
            <div style=""margin:0 auto; width: 20vw; top: 8vh; font-size: 2vw""> 
            <font color=""green""> Bonus : $0.55 </font>
            </div>
        </div>
    
            <div> Please press any key to continue to the next image.</div>
        "," ","ITI","","","","","","",""
"","","","","","html-keyboard-response","111","133992","0.0-6.11-1.11","5f29510421c44f014deba2f7","656d9e5e2de4f984cfed7d4d","656d9ed0a493120fccf08945","null","
        
        <div style=""text-align: center; position: fixed; top: 5vh; left: 40vw;"">
            <div style=""margin:0 auto; width: 20vw; top: 8vh; font-size: 2vw""> 
            <font color=""green""> Bonus : $0.55 </font>
            </div>
        </div>
    
        <img class=""stim"" src=./stimuli//pack_shapes_1/cat_1/diff_3/ex_1_3_10.png></img>
    ","null","stimulus","","","","","","",""
"","","","","","html-keyboard-response","112","135005","0.0-6.11-2.11","5f29510421c44f014deba2f7","656d9e5e2de4f984cfed7d4d","656d9ed0a493120fccf08945","null","
        <div style=""text-align: center; position: fixed; top: 5vh; left: 40vw;"">
            <div style=""margin:0 auto; width: 20vw; top: 8vh; font-size: 2vw""> 
            <font color=""green""> Bonus : $0.55 </font>
            </div>
        </div>
    ","null","","","","","","","",""
"","","","","","html-keyboard-response","113","135485","0.0-6.11-3.11","5f29510421c44f014deba2f7","656d9e5e2de4f984cfed7d4d","656d9ed0a493120fccf08945","480","./stimuli//pack_shapes_1/cat_1/diff_3/ex_1_3_10.png","arrowleft","response","ArrowLeft","10","1","3","test","true",""
"","","","","","html-keyboard-response","114","136997","0.0-6.11-4.11","5f29510421c44f014deba2f7","656d9e5e2de4f984cfed7d4d","656d9ed0a493120fccf08945","null","<p> <font color=""green"" size=""5vw""> Correct category! </font> <br> <br> <font color=""green"" size=""8vw""> + $0.05 </font> </p>","null","feedback","","","","","","","0.6"
"","","","","","html-keyboard-response","115","139607","0.0-6.12-0.12","5f29510421c44f014deba2f7","656d9e5e2de4f984cfed7d4d","656d9ed0a493120fccf08945","2610","
            
        <div style=""text-align: center; position: fixed; top: 5vh; left: 40vw;"">
            <div style=""margin:0 auto; width: 20vw; top: 8vh; font-size: 2vw""> 
            <font color=""green""> Bonus : $0.6 </font>
            </div>
        </div>
    
            <div> Please press any key to continue to the next image.</div>
        "," ","ITI","","","","","","",""
"","","","","","html-keyboard-response","116","140217","0.0-6.12-1.12","5f29510421c44f014deba2f7","656d9e5e2de4f984cfed7d4d","656d9ed0a493120fccf08945","null","
        
        <div style=""text-align: center; position: fixed; top: 5vh; left: 40vw;"">
            <div style=""margin:0 auto; width: 20vw; top: 8vh; font-size: 2vw""> 
            <font color=""green""> Bonus : $0.6 </font>
            </div>
        </div>
    
        <img class=""stim"" src=./stimuli//pack_shapes_1/cat_1/diff_3/ex_1_3_1.png></img>
    ","null","stimulus","","","","","","",""
"","","","","","html-keyboard-response","117","141227","0.0-6.12-2.12","5f29510421c44f014deba2f7","656d9e5e2de4f984cfed7d4d","656d9ed0a493120fccf08945","null","
        <div style=""text-align: center; position: fixed; top: 5vh; left: 40vw;"">
            <div style=""margin:0 auto; width: 20vw; top: 8vh; font-size: 2vw""> 
            <font color=""green""> Bonus : $0.6 </font>
            </div>
        </div>
    ","null","","","","","","","",""
"","","","","","html-keyboard-response","118","141562","0.0-6.12-3.12","5f29510421c44f014deba2f7","656d9e5e2de4f984cfed7d4d","656d9ed0a493120fccf08945","335","./stimuli//pack_shapes_1/cat_1/diff_3/ex_1_3_1.png","arrowleft","response","ArrowLeft","1","1","3","test","true",""
"","","","","","html-keyboard-response","119","143070","0.0-6.12-4.12","5f29510421c44f014deba2f7","656d9e5e2de4f984cfed7d4d","656d9ed0a493120fccf08945","null","<p> <font color=""green"" size=""5vw""> Correct category! </font> <br> <br> <font color=""green"" size=""8vw""> + $0.05 </font> </p>","null","feedback","","","","","","","0.65"
"","","","","","html-keyboard-response","120","144125","0.0-6.13-0.13","5f29510421c44f014deba2f7","656d9e5e2de4f984cfed7d4d","656d9ed0a493120fccf08945","1054","
            
        <div style=""text-align: center; position: fixed; top: 5vh; left: 40vw;"">
            <div style=""margin:0 auto; width: 20vw; top: 8vh; font-size: 2vw""> 
            <font color=""green""> Bonus : $0.65 </font>
            </div>
        </div>
    
            <div> Please press any key to continue to the next image.</div>
        "," ","ITI","","","","","","",""
"","","","","","html-keyboard-response","121","144736","0.0-6.13-1.13","5f29510421c44f014deba2f7","656d9e5e2de4f984cfed7d4d","656d9ed0a493120fccf08945","null","
        
        <div style=""text-align: center; position: fixed; top: 5vh; left: 40vw;"">
            <div style=""margin:0 auto; width: 20vw; top: 8vh; font-size: 2vw""> 
            <font color=""green""> Bonus : $0.65 </font>
            </div>
        </div>
    
        <img class=""stim"" src=./stimuli//pack_shapes_1/cat_1/diff_3/ex_1_3_14.png></img>
    ","null","stimulus","","","","","","",""
"","","","","","html-keyboard-response","122","145749","0.0-6.13-2.13","5f29510421c44f014deba2f7","656d9e5e2de4f984cfed7d4d","656d9ed0a493120fccf08945","null","
        <div style=""text-align: center; position: fixed; top: 5vh; left: 40vw;"">
            <div style=""margin:0 auto; width: 20vw; top: 8vh; font-size: 2vw""> 
            <font color=""green""> Bonus : $0.65 </font>
            </div>
        </div>
    ","null","","","","","","","",""
"","","","","","html-keyboard-response","123","146149","0.0-6.13-3.13","5f29510421c44f014deba2f7","656d9e5e2de4f984cfed7d4d","656d9ed0a493120fccf08945","400","./stimuli//pack_shapes_1/cat_1/diff_3/ex_1_3_14.png","arrowleft","response","ArrowLeft","14","1","3","test","true",""
"","","","","","html-keyboard-response","124","147656","0.0-6.13-4.13","5f29510421c44f014deba2f7","656d9e5e2de4f984cfed7d4d","656d9ed0a493120fccf08945","null","<p> <font color=""green"" size=""5vw""> Correct category! </font> <br> <br> <font color=""green"" size=""8vw""> + $0.05 </font> </p>","null","feedback","","","","","","","0.7"
"","","","","","html-keyboard-response","125","149077","0.0-6.14-0.14","5f29510421c44f014deba2f7","656d9e5e2de4f984cfed7d4d","656d9ed0a493120fccf08945","1420","
            
        <div style=""text-align: center; position: fixed; top: 5vh; left: 40vw;"">
            <div style=""margin:0 auto; width: 20vw; top: 8vh; font-size: 2vw""> 
            <font color=""green""> Bonus : $0.7 </font>
            </div>
        </div>
    
            <div> Please press any key to continue to the next image.</div>
        "," ","ITI","","","","","","",""
"","","","","","html-keyboard-response","126","149690","0.0-6.14-1.14","5f29510421c44f014deba2f7","656d9e5e2de4f984cfed7d4d","656d9ed0a493120fccf08945","null","
        
        <div style=""text-align: center; position: fixed; top: 5vh; left: 40vw;"">
            <div style=""margin:0 auto; width: 20vw; top: 8vh; font-size: 2vw""> 
            <font color=""green""> Bonus : $0.7 </font>
            </div>
        </div>
    
        <img class=""stim"" src=./stimuli//pack_shapes_1/cat_2/diff_3/ex_2_3_9.png></img>
    ","null","stimulus","","","","","","",""
"","","","","","html-keyboard-response","127","150704","0.0-6.14-2.14","5f29510421c44f014deba2f7","656d9e5e2de4f984cfed7d4d","656d9ed0a493120fccf08945","null","
        <div style=""text-align: center; position: fixed; top: 5vh; left: 40vw;"">
            <div style=""margin:0 auto; width: 20vw; top: 8vh; font-size: 2vw""> 
            <font color=""green""> Bonus : $0.7 </font>
            </div>
        </div>
    ","null","","","","","","","",""
"","","","","","html-keyboard-response","128","151168","0.0-6.14-3.14","5f29510421c44f014deba2f7","656d9e5e2de4f984cfed7d4d","656d9ed0a493120fccf08945","463","./stimuli//pack_shapes_1/cat_2/diff_3/ex_2_3_9.png","arrowright","response","ArrowRight","9","2","3","test","true",""
"","","","","","html-keyboard-response","129","152674","0.0-6.14-4.14","5f29510421c44f014deba2f7","656d9e5e2de4f984cfed7d4d","656d9ed0a493120fccf08945","null","<p> <font color=""green"" size=""5vw""> Correct category! </font> <br> <br> <font color=""green"" size=""8vw""> + $0.05 </font> </p>","null","feedback","","","","","","","0.75"
"","","","","","html-keyboard-response","130","153382","0.0-6.15-0.15","5f29510421c44f014deba2f7","656d9e5e2de4f984cfed7d4d","656d9ed0a493120fccf08945","707","
            
        <div style=""text-align: center; position: fixed; top: 5vh; left: 40vw;"">
            <div style=""margin:0 auto; width: 20vw; top: 8vh; font-size: 2vw""> 
            <font color=""green""> Bonus : $0.75 </font>
            </div>
        </div>
    
            <div> Please press any key to continue to the next image.</div>
        "," ","ITI","","","","","","",""
"","","","","","html-keyboard-response","131","153994","0.0-6.15-1.15","5f29510421c44f014deba2f7","656d9e5e2de4f984cfed7d4d","656d9ed0a493120fccf08945","null","
        
        <div style=""text-align: center; position: fixed; top: 5vh; left: 40vw;"">
            <div style=""margin:0 auto; width: 20vw; top: 8vh; font-size: 2vw""> 
            <font color=""green""> Bonus : $0.75 </font>
            </div>
        </div>
    
        <img class=""stim"" src=./stimuli//pack_shapes_1/cat_2/diff_4/ex_2_4_6.png></img>
    ","null","stimulus","","","","","","",""
"","","","","","html-keyboard-response","132","155004","0.0-6.15-2.15","5f29510421c44f014deba2f7","656d9e5e2de4f984cfed7d4d","656d9ed0a493120fccf08945","null","
        <div style=""text-align: center; position: fixed; top: 5vh; left: 40vw;"">
            <div style=""margin:0 auto; width: 20vw; top: 8vh; font-size: 2vw""> 
            <font color=""green""> Bonus : $0.75 </font>
            </div>
        </div>
    ","null","","","","","","","",""
"","","","","","html-keyboard-response","133","155447","0.0-6.15-3.15","5f29510421c44f014deba2f7","656d9e5e2de4f984cfed7d4d","656d9ed0a493120fccf08945","443","./stimuli//pack_shapes_1/cat_2/diff_4/ex_2_4_6.png","arrowright","response","ArrowRight","6","2","4","test","true",""
"","","","","","html-keyboard-response","134","156958","0.0-6.15-4.15","5f29510421c44f014deba2f7","656d9e5e2de4f984cfed7d4d","656d9ed0a493120fccf08945","null","<p> <font color=""green"" size=""5vw""> Correct category! </font> <br> <br> <font color=""green"" size=""8vw""> + $0.05 </font> </p>","null","feedback","","","","","","","0.8"
"","","","","","html-keyboard-response","135","157518","0.0-6.16-0.16","5f29510421c44f014deba2f7","656d9e5e2de4f984cfed7d4d","656d9ed0a493120fccf08945","559","
            
        <div style=""text-align: center; position: fixed; top: 5vh; left: 40vw;"">
            <div style=""margin:0 auto; width: 20vw; top: 8vh; font-size: 2vw""> 
            <font color=""green""> Bonus : $0.8 </font>
            </div>
        </div>
    
            <div> Please press any key to continue to the next image.</div>
        "," ","ITI","","","","","","",""
"","","","","","html-keyboard-response","136","158128","0.0-6.16-1.16","5f29510421c44f014deba2f7","656d9e5e2de4f984cfed7d4d","656d9ed0a493120fccf08945","null","
        
        <div style=""text-align: center; position: fixed; top: 5vh; left: 40vw;"">
            <div style=""margin:0 auto; width: 20vw; top: 8vh; font-size: 2vw""> 
            <font color=""green""> Bonus : $0.8 </font>
            </div>
        </div>
    
        <img class=""stim"" src=./stimuli//pack_shapes_1/cat_2/diff_4/ex_2_4_2.png></img>
    ","null","stimulus","","","","","","",""
"","","","","","html-keyboard-response","137","159140","0.0-6.16-2.16","5f29510421c44f014deba2f7","656d9e5e2de4f984cfed7d4d","656d9ed0a493120fccf08945","null","
        <div style=""text-align: center; position: fixed; top: 5vh; left: 40vw;"">
            <div style=""margin:0 auto; width: 20vw; top: 8vh; font-size: 2vw""> 
            <font color=""green""> Bonus : $0.8 </font>
            </div>
        </div>
    ","null","","","","","","","",""
"","","","","","html-keyboard-response","138","159638","0.0-6.16-3.16","5f29510421c44f014deba2f7","656d9e5e2de4f984cfed7d4d","656d9ed0a493120fccf08945","497","./stimuli//pack_shapes_1/cat_2/diff_4/ex_2_4_2.png","arrowright","response","ArrowRight","2","2","4","test","true",""
"","","","","","html-keyboard-response","139","161148","0.0-6.16-4.16","5f29510421c44f014deba2f7","656d9e5e2de4f984cfed7d4d","656d9ed0a493120fccf08945","null","<p> <font color=""green"" size=""5vw""> Correct category! </font> <br> <br> <font color=""green"" size=""8vw""> + $0.05 </font> </p>","null","feedback","","","","","","","0.85"
"","","","","","html-keyboard-response","140","161944","0.0-6.17-0.17","5f29510421c44f014deba2f7","656d9e5e2de4f984cfed7d4d","656d9ed0a493120fccf08945","796","
            
        <div style=""text-align: center; position: fixed; top: 5vh; left: 40vw;"">
            <div style=""margin:0 auto; width: 20vw; top: 8vh; font-size: 2vw""> 
            <font color=""green""> Bonus : $0.85 </font>
            </div>
        </div>
    
            <div> Please press any key to continue to the next image.</div>
        "," ","ITI","","","","","","",""
"","","","","","html-keyboard-response","141","162560","0.0-6.17-1.17","5f29510421c44f014deba2f7","656d9e5e2de4f984cfed7d4d","656d9ed0a493120fccf08945","null","
        
        <div style=""text-align: center; position: fixed; top: 5vh; left: 40vw;"">
            <div style=""margin:0 auto; width: 20vw; top: 8vh; font-size: 2vw""> 
            <font color=""green""> Bonus : $0.85 </font>
            </div>
        </div>
    
        <img class=""stim"" src=./stimuli//pack_shapes_1/cat_1/diff_4/ex_1_4_11.png></img>
    ","null","stimulus","","","","","","",""
"","","","","","html-keyboard-response","142","163567","0.0-6.17-2.17","5f29510421c44f014deba2f7","656d9e5e2de4f984cfed7d4d","656d9ed0a493120fccf08945","null","
        <div style=""text-align: center; position: fixed; top: 5vh; left: 40vw;"">
            <div style=""margin:0 auto; width: 20vw; top: 8vh; font-size: 2vw""> 
            <font color=""green""> Bonus : $0.85 </font>
            </div>
        </div>
    ","null","","","","","","","",""
"","","","","","html-keyboard-response","143","164082","0.0-6.17-3.17","5f29510421c44f014deba2f7","656d9e5e2de4f984cfed7d4d","656d9ed0a493120fccf08945","514","./stimuli//pack_shapes_1/cat_1/diff_4/ex_1_4_11.png","arrowleft","response","ArrowLeft","11","1","4","test","true",""
"","","","","","html-keyboard-response","144","165588","0.0-6.17-4.17","5f29510421c44f014deba2f7","656d9e5e2de4f984cfed7d4d","656d9ed0a493120fccf08945","null","<p> <font color=""green"" size=""5vw""> Correct category! </font> <br> <br> <font color=""green"" size=""8vw""> + $0.05 </font> </p>","null","feedback","","","","","","","0.9"
"","","","","","html-keyboard-response","145","166372","0.0-6.18-0.18","5f29510421c44f014deba2f7","656d9e5e2de4f984cfed7d4d","656d9ed0a493120fccf08945","783","
            
        <div style=""text-align: center; position: fixed; top: 5vh; left: 40vw;"">
            <div style=""margin:0 auto; width: 20vw; top: 8vh; font-size: 2vw""> 
            <font color=""green""> Bonus : $0.9 </font>
            </div>
        </div>
    
            <div> Please press any key to continue to the next image.</div>
        "," ","ITI","","","","","","",""
"","","","","","html-keyboard-response","146","166982","0.0-6.18-1.18","5f29510421c44f014deba2f7","656d9e5e2de4f984cfed7d4d","656d9ed0a493120fccf08945","null","
        
        <div style=""text-align: center; position: fixed; top: 5vh; left: 40vw;"">
            <div style=""margin:0 auto; width: 20vw; top: 8vh; font-size: 2vw""> 
            <font color=""green""> Bonus : $0.9 </font>
            </div>
        </div>
    
        <img class=""stim"" src=./stimuli//pack_shapes_1/cat_1/diff_4/ex_1_4_3.png></img>
    ","null","stimulus","","","","","","",""
"","","","","","html-keyboard-response","147","167993","0.0-6.18-2.18","5f29510421c44f014deba2f7","656d9e5e2de4f984cfed7d4d","656d9ed0a493120fccf08945","null","
        <div style=""text-align: center; position: fixed; top: 5vh; left: 40vw;"">
            <div style=""margin:0 auto; width: 20vw; top: 8vh; font-size: 2vw""> 
            <font color=""green""> Bonus : $0.9 </font>
            </div>
        </div>
    ","null","","","","","","","",""
"","","","","","html-keyboard-response","148","168494","0.0-6.18-3.18","5f29510421c44f014deba2f7","656d9e5e2de4f984cfed7d4d","656d9ed0a493120fccf08945","500","./stimuli//pack_shapes_1/cat_1/diff_4/ex_1_4_3.png","arrowleft","response","ArrowLeft","3","1","4","test","true",""
"","","","","","html-keyboard-response","149","169996","0.0-6.18-4.18","5f29510421c44f014deba2f7","656d9e5e2de4f984cfed7d4d","656d9ed0a493120fccf08945","null","<p> <font color=""green"" size=""5vw""> Correct category! </font> <br> <br> <font color=""green"" size=""8vw""> + $0.05 </font> </p>","null","feedback","","","","","","","0.95"
"","","","","","html-keyboard-response","150","170993","0.0-6.19-0.19","5f29510421c44f014deba2f7","656d9e5e2de4f984cfed7d4d","656d9ed0a493120fccf08945","997","
            
        <div style=""text-align: center; position: fixed; top: 5vh; left: 40vw;"">
            <div style=""margin:0 auto; width: 20vw; top: 8vh; font-size: 2vw""> 
            <font color=""green""> Bonus : $0.95 </font>
            </div>
        </div>
    
            <div> Please press any key to continue to the next image.</div>
        "," ","ITI","","","","","","",""
"","","","","","html-keyboard-response","151","171608","0.0-6.19-1.19","5f29510421c44f014deba2f7","656d9e5e2de4f984cfed7d4d","656d9ed0a493120fccf08945","null","
        
        <div style=""text-align: center; position: fixed; top: 5vh; left: 40vw;"">
            <div style=""margin:0 auto; width: 20vw; top: 8vh; font-size: 2vw""> 
            <font color=""green""> Bonus : $0.95 </font>
            </div>
        </div>
    
        <img class=""stim"" src=./stimuli//pack_shapes_1/cat_2/diff_4/ex_2_4_7.png></img>
    ","null","stimulus","","","","","","",""
"","","","","","html-keyboard-response","152","172622","0.0-6.19-2.19","5f29510421c44f014deba2f7","656d9e5e2de4f984cfed7d4d","656d9ed0a493120fccf08945","null","
        <div style=""text-align: center; position: fixed; top: 5vh; left: 40vw;"">
            <div style=""margin:0 auto; width: 20vw; top: 8vh; font-size: 2vw""> 
            <font color=""green""> Bonus : $0.95 </font>
            </div>
        </div>
    ","null","","","","","","","",""
"","","","","","html-keyboard-response","153","174863","0.0-6.19-3.19","5f29510421c44f014deba2f7","656d9e5e2de4f984cfed7d4d","656d9ed0a493120fccf08945","2240","./stimuli//pack_shapes_1/cat_2/diff_4/ex_2_4_7.png","arrowright","response","ArrowRight","7","2","4","test","true",""
"","","","","","html-keyboard-response","154","176378","0.0-6.19-4.19","5f29510421c44f014deba2f7","656d9e5e2de4f984cfed7d4d","656d9ed0a493120fccf08945","null","<p> <font color=""green"" size=""5vw""> Correct category! </font> <br> <br> <font color=""green"" size=""8vw""> + $0.05 </font> </p>","null","feedback","","","","","","","1"
"","","","","","html-keyboard-response","155","176998","0.0-6.20-0.20","5f29510421c44f014deba2f7","656d9e5e2de4f984cfed7d4d","656d9ed0a493120fccf08945","620","
            
        <div style=""text-align: center; position: fixed; top: 5vh; left: 40vw;"">
            <div style=""margin:0 auto; width: 20vw; top: 8vh; font-size: 2vw""> 
            <font color=""green""> Bonus : $1 </font>
            </div>
        </div>
    
            <div> Please press any key to continue to the next image.</div>
        "," ","ITI","","","","","","",""
"","","","","","html-keyboard-response","156","177607","0.0-6.20-1.20","5f29510421c44f014deba2f7","656d9e5e2de4f984cfed7d4d","656d9ed0a493120fccf08945","null","
        
        <div style=""text-align: center; position: fixed; top: 5vh; left: 40vw;"">
            <div style=""margin:0 auto; width: 20vw; top: 8vh; font-size: 2vw""> 
            <font color=""green""> Bonus : $1 </font>
            </div>
        </div>
    
        <img class=""stim"" src=./stimuli//pack_shapes_1/cat_2/diff_5/ex_2_5_9.png></img>
    ","null","stimulus","","","","","","",""
"","","","","","html-keyboard-response","157","178620","0.0-6.20-2.20","5f29510421c44f014deba2f7","656d9e5e2de4f984cfed7d4d","656d9ed0a493120fccf08945","null","
        <div style=""text-align: center; position: fixed; top: 5vh; left: 40vw;"">
            <div style=""margin:0 auto; width: 20vw; top: 8vh; font-size: 2vw""> 
            <font color=""green""> Bonus : $1 </font>
            </div>
        </div>
    ","null","","","","","","","",""
"","","","","","html-keyboard-response","158","179351","0.0-6.20-3.20","5f29510421c44f014deba2f7","656d9e5e2de4f984cfed7d4d","656d9ed0a493120fccf08945","730","./stimuli//pack_shapes_1/cat_2/diff_5/ex_2_5_9.png","arrowright","response","ArrowRight","9","2","5","test","true",""
"","","","","","html-keyboard-response","159","180861","0.0-6.20-4.20","5f29510421c44f014deba2f7","656d9e5e2de4f984cfed7d4d","656d9ed0a493120fccf08945","null","<p> <font color=""green"" size=""5vw""> Correct category! </font> <br> <br> <font color=""green"" size=""8vw""> + $0.05 </font> </p>","null","feedback","","","","","","","1.05"
"","","","","","html-keyboard-response","160","181450","0.0-6.21-0.21","5f29510421c44f014deba2f7","656d9e5e2de4f984cfed7d4d","656d9ed0a493120fccf08945","588","
            
        <div style=""text-align: center; position: fixed; top: 5vh; left: 40vw;"">
            <div style=""margin:0 auto; width: 20vw; top: 8vh; font-size: 2vw""> 
            <font color=""green""> Bonus : $1.05 </font>
            </div>
        </div>
    
            <div> Please press any key to continue to the next image.</div>
        "," ","ITI","","","","","","",""
"","","","","","html-keyboard-response","161","182059","0.0-6.21-1.21","5f29510421c44f014deba2f7","656d9e5e2de4f984cfed7d4d","656d9ed0a493120fccf08945","null","
        
        <div style=""text-align: center; position: fixed; top: 5vh; left: 40vw;"">
            <div style=""margin:0 auto; width: 20vw; top: 8vh; font-size: 2vw""> 
            <font color=""green""> Bonus : $1.05 </font>
            </div>
        </div>
    
        <img class=""stim"" src=./stimuli//pack_shapes_1/cat_1/diff_5/ex_1_5_3.png></img>
    ","null","stimulus","","","","","","",""
"","","","","","html-keyboard-response","162","183072","0.0-6.21-2.21","5f29510421c44f014deba2f7","656d9e5e2de4f984cfed7d4d","656d9ed0a493120fccf08945","null","
        <div style=""text-align: center; position: fixed; top: 5vh; left: 40vw;"">
            <div style=""margin:0 auto; width: 20vw; top: 8vh; font-size: 2vw""> 
            <font color=""green""> Bonus : $1.05 </font>
            </div>
        </div>
    ","null","","","","","","","",""
"","","","","","html-keyboard-response","163","183545","0.0-6.21-3.21","5f29510421c44f014deba2f7","656d9e5e2de4f984cfed7d4d","656d9ed0a493120fccf08945","473","./stimuli//pack_shapes_1/cat_1/diff_5/ex_1_5_3.png","arrowleft","response","ArrowLeft","3","1","5","test","true",""
"","","","","","html-keyboard-response","164","185057","0.0-6.21-4.21","5f29510421c44f014deba2f7","656d9e5e2de4f984cfed7d4d","656d9ed0a493120fccf08945","null","<p> <font color=""green"" size=""5vw""> Correct category! </font> <br> <br> <font color=""green"" size=""8vw""> + $0.05 </font> </p>","null","feedback","","","","","","","1.1"
"","","","","","html-keyboard-response","165","185747","0.0-6.22-0.22","5f29510421c44f014deba2f7","656d9e5e2de4f984cfed7d4d","656d9ed0a493120fccf08945","689","
            
        <div style=""text-align: center; position: fixed; top: 5vh; left: 40vw;"">
            <div style=""margin:0 auto; width: 20vw; top: 8vh; font-size: 2vw""> 
            <font color=""green""> Bonus : $1.1 </font>
            </div>
        </div>
    
            <div> Please press any key to continue to the next image.</div>
        "," ","ITI","","","","","","",""
"","","","","","html-keyboard-response","166","186357","0.0-6.22-1.22","5f29510421c44f014deba2f7","656d9e5e2de4f984cfed7d4d","656d9ed0a493120fccf08945","null","
        
        <div style=""text-align: center; position: fixed; top: 5vh; left: 40vw;"">
            <div style=""margin:0 auto; width: 20vw; top: 8vh; font-size: 2vw""> 
            <font color=""green""> Bonus : $1.1 </font>
            </div>
        </div>
    
        <img class=""stim"" src=./stimuli//pack_shapes_1/cat_1/diff_5/ex_1_5_16.png></img>
    ","null","stimulus","","","","","","",""
"","","","","","html-keyboard-response","167","187369","0.0-6.22-2.22","5f29510421c44f014deba2f7","656d9e5e2de4f984cfed7d4d","656d9ed0a493120fccf08945","null","
        <div style=""text-align: center; position: fixed; top: 5vh; left: 40vw;"">
            <div style=""margin:0 auto; width: 20vw; top: 8vh; font-size: 2vw""> 
            <font color=""green""> Bonus : $1.1 </font>
            </div>
        </div>
    ","null","","","","","","","",""
"","","","","","html-keyboard-response","168","187902","0.0-6.22-3.22","5f29510421c44f014deba2f7","656d9e5e2de4f984cfed7d4d","656d9ed0a493120fccf08945","532","./stimuli//pack_shapes_1/cat_1/diff_5/ex_1_5_16.png","arrowright","response","ArrowLeft","16","1","5","test","false",""
"","","","","","html-keyboard-response","169","189404","0.0-6.22-4.22","5f29510421c44f014deba2f7","656d9e5e2de4f984cfed7d4d","656d9ed0a493120fccf08945","null","<p> <font color=""red"" size=""5vw""> Wrong category! </font> <br> <br> <font color=""red"" size=""8vw""> - $0.05 </font> </p>","null","feedback","","","","","","","1.05"
"","","","","","html-keyboard-response","170","191100","0.0-6.23-0.23","5f29510421c44f014deba2f7","656d9e5e2de4f984cfed7d4d","656d9ed0a493120fccf08945","1696","
            
        <div style=""text-align: center; position: fixed; top: 5vh; left: 40vw;"">
            <div style=""margin:0 auto; width: 20vw; top: 8vh; font-size: 2vw""> 
            <font color=""green""> Bonus : $1.05 </font>
            </div>
        </div>
    
            <div> Please press any key to continue to the next image.</div>
        "," ","ITI","","","","","","",""
"","","","","","html-keyboard-response","171","191702","0.0-6.23-1.23","5f29510421c44f014deba2f7","656d9e5e2de4f984cfed7d4d","656d9ed0a493120fccf08945","null","
        
        <div style=""text-align: center; position: fixed; top: 5vh; left: 40vw;"">
            <div style=""margin:0 auto; width: 20vw; top: 8vh; font-size: 2vw""> 
            <font color=""green""> Bonus : $1.05 </font>
            </div>
        </div>
    
        <img class=""stim"" src=./stimuli//pack_shapes_1/cat_1/diff_5/ex_1_5_4.png></img>
    ","null","stimulus","","","","","","",""
"","","","","","html-keyboard-response","172","192715","0.0-6.23-2.23","5f29510421c44f014deba2f7","656d9e5e2de4f984cfed7d4d","656d9ed0a493120fccf08945","null","
        <div style=""text-align: center; position: fixed; top: 5vh; left: 40vw;"">
            <div style=""margin:0 auto; width: 20vw; top: 8vh; font-size: 2vw""> 
            <font color=""green""> Bonus : $1.05 </font>
            </div>
        </div>
    ","null","","","","","","","",""
"","","","","","html-keyboard-response","173","193221","0.0-6.23-3.23","5f29510421c44f014deba2f7","656d9e5e2de4f984cfed7d4d","656d9ed0a493120fccf08945","506","./stimuli//pack_shapes_1/cat_1/diff_5/ex_1_5_4.png","arrowleft","response","ArrowLeft","4","1","5","test","true",""
"","","","","","html-keyboard-response","174","194734","0.0-6.23-4.23","5f29510421c44f014deba2f7","656d9e5e2de4f984cfed7d4d","656d9ed0a493120fccf08945","null","<p> <font color=""green"" size=""5vw""> Correct category! </font> <br> <br> <font color=""green"" size=""8vw""> + $0.05 </font> </p>","null","feedback","","","","","","","1.1"
"","","","","","html-keyboard-response","175","195607","0.0-6.24-0.24","5f29510421c44f014deba2f7","656d9e5e2de4f984cfed7d4d","656d9ed0a493120fccf08945","872","
            
        <div style=""text-align: center; position: fixed; top: 5vh; left: 40vw;"">
            <div style=""margin:0 auto; width: 20vw; top: 8vh; font-size: 2vw""> 
            <font color=""green""> Bonus : $1.1 </font>
            </div>
        </div>
    
            <div> Please press any key to continue to the next image.</div>
        "," ","ITI","","","","","","",""
"","","","","","html-keyboard-response","176","196222","0.0-6.24-1.24","5f29510421c44f014deba2f7","656d9e5e2de4f984cfed7d4d","656d9ed0a493120fccf08945","null","
        
        <div style=""text-align: center; position: fixed; top: 5vh; left: 40vw;"">
            <div style=""margin:0 auto; width: 20vw; top: 8vh; font-size: 2vw""> 
            <font color=""green""> Bonus : $1.1 </font>
            </div>
        </div>
    
        <img class=""stim"" src=./stimuli//pack_shapes_1/cat_2/diff_5/ex_2_5_7.png></img>
    ","null","stimulus","","","","","","",""
"","","","","","html-keyboard-response","177","197231","0.0-6.24-2.24","5f29510421c44f014deba2f7","656d9e5e2de4f984cfed7d4d","656d9ed0a493120fccf08945","null","
        <div style=""text-align: center; position: fixed; top: 5vh; left: 40vw;"">
            <div style=""margin:0 auto; width: 20vw; top: 8vh; font-size: 2vw""> 
            <font color=""green""> Bonus : $1.1 </font>
            </div>
        </div>
    ","null","","","","","","","",""
"","","","","","html-keyboard-response","178","201241","0.0-6.24-3.24","5f29510421c44f014deba2f7","656d9e5e2de4f984cfed7d4d","656d9ed0a493120fccf08945","null","./stimuli//pack_shapes_1/cat_2/diff_5/ex_2_5_7.png","null","response","ArrowRight","7","2","5","test","false",""
"","","","","","html-keyboard-response","179","201705","0.0-6.24-4.24","5f29510421c44f014deba2f7","656d9e5e2de4f984cfed7d4d","656d9ed0a493120fccf08945","463","<p> <font color=""red"" size=""5vw""> Time out! </font> <br> <br> <font color=""red"" size=""8vw""> - $0.05 </font> <br> <br> Please try to respond as quickly as possible. </p>","arrowleft","feedback","","","","","","","1.05"
"","","","","","html-keyboard-response","180","205298","0.0-6.25-0.25","5f29510421c44f014deba2f7","656d9e5e2de4f984cfed7d4d","656d9ed0a493120fccf08945","3592","
            
        <div style=""text-align: center; position: fixed; top: 5vh; left: 40vw;"">
            <div style=""margin:0 auto; width: 20vw; top: 8vh; font-size: 2vw""> 
            <font color=""green""> Bonus : $1.05 </font>
            </div>
        </div>
    
            <div> Please press any key to continue to the next image.</div>
        "," ","ITI","","","","","","",""
"","","","","","html-keyboard-response","181","205902","0.0-6.25-1.25","5f29510421c44f014deba2f7","656d9e5e2de4f984cfed7d4d","656d9ed0a493120fccf08945","null","
        
        <div style=""text-align: center; position: fixed; top: 5vh; left: 40vw;"">
            <div style=""margin:0 auto; width: 20vw; top: 8vh; font-size: 2vw""> 
            <font color=""green""> Bonus : $1.05 </font>
            </div>
        </div>
    
        <img class=""stim"" src=./stimuli//pack_shapes_1/cat_2/diff_4/ex_2_4_6.png></img>
    ","null","stimulus","","","","","","",""
"","","","","","html-keyboard-response","182","206913","0.0-6.25-2.25","5f29510421c44f014deba2f7","656d9e5e2de4f984cfed7d4d","656d9ed0a493120fccf08945","null","
        <div style=""text-align: center; position: fixed; top: 5vh; left: 40vw;"">
            <div style=""margin:0 auto; width: 20vw; top: 8vh; font-size: 2vw""> 
            <font color=""green""> Bonus : $1.05 </font>
            </div>
        </div>
    ","null","","","","","","","",""
"","","","","","html-keyboard-response","183","207447","0.0-6.25-3.25","5f29510421c44f014deba2f7","656d9e5e2de4f984cfed7d4d","656d9ed0a493120fccf08945","533","./stimuli//pack_shapes_1/cat_2/diff_4/ex_2_4_6.png","arrowright","response","ArrowRight","6","2","4","test","true",""
"","","","","","html-keyboard-response","184","208952","0.0-6.25-4.25","5f29510421c44f014deba2f7","656d9e5e2de4f984cfed7d4d","656d9ed0a493120fccf08945","null","<p> <font color=""green"" size=""5vw""> Correct category! </font> <br> <br> <font color=""green"" size=""8vw""> + $0.05 </font> </p>","null","feedback","","","","","","","1.1"
"","","","","","html-keyboard-response","185","209829","0.0-6.26-0.26","5f29510421c44f014deba2f7","656d9e5e2de4f984cfed7d4d","656d9ed0a493120fccf08945","877","
            
        <div style=""text-align: center; position: fixed; top: 5vh; left: 40vw;"">
            <div style=""margin:0 auto; width: 20vw; top: 8vh; font-size: 2vw""> 
            <font color=""green""> Bonus : $1.1 </font>
            </div>
        </div>
    
            <div> Please press any key to continue to the next image.</div>
        "," ","ITI","","","","","","",""
"","","","","","html-keyboard-response","186","210434","0.0-6.26-1.26","5f29510421c44f014deba2f7","656d9e5e2de4f984cfed7d4d","656d9ed0a493120fccf08945","null","
        
        <div style=""text-align: center; position: fixed; top: 5vh; left: 40vw;"">
            <div style=""margin:0 auto; width: 20vw; top: 8vh; font-size: 2vw""> 
            <font color=""green""> Bonus : $1.1 </font>
            </div>
        </div>
    
        <img class=""stim"" src=./stimuli//pack_shapes_1/cat_1/diff_4/ex_1_4_11.png></img>
    ","null","stimulus","","","","","","",""
"","","","","","html-keyboard-response","187","211443","0.0-6.26-2.26","5f29510421c44f014deba2f7","656d9e5e2de4f984cfed7d4d","656d9ed0a493120fccf08945","null","
        <div style=""text-align: center; position: fixed; top: 5vh; left: 40vw;"">
            <div style=""margin:0 auto; width: 20vw; top: 8vh; font-size: 2vw""> 
            <font color=""green""> Bonus : $1.1 </font>
            </div>
        </div>
    ","null","","","","","","","",""
"","","","","","html-keyboard-response","188","211815","0.0-6.26-3.26","5f29510421c44f014deba2f7","656d9e5e2de4f984cfed7d4d","656d9ed0a493120fccf08945","371","./stimuli//pack_shapes_1/cat_1/diff_4/ex_1_4_11.png","arrowleft","response","ArrowLeft","11","1","4","test","true",""
"","","","","","html-keyboard-response","189","213317","0.0-6.26-4.26","5f29510421c44f014deba2f7","656d9e5e2de4f984cfed7d4d","656d9ed0a493120fccf08945","null","<p> <font color=""green"" size=""5vw""> Correct category! </font> <br> <br> <font color=""green"" size=""8vw""> + $0.05 </font> </p>","null","feedback","","","","","","","1.15"
"","","","","","html-keyboard-response","190","214075","0.0-6.27-0.27","5f29510421c44f014deba2f7","656d9e5e2de4f984cfed7d4d","656d9ed0a493120fccf08945","758","
            
        <div style=""text-align: center; position: fixed; top: 5vh; left: 40vw;"">
            <div style=""margin:0 auto; width: 20vw; top: 8vh; font-size: 2vw""> 
            <font color=""green""> Bonus : $1.15 </font>
            </div>
        </div>
    
            <div> Please press any key to continue to the next image.</div>
        "," ","ITI","","","","","","",""
"","","","","","html-keyboard-response","191","214679","0.0-6.27-1.27","5f29510421c44f014deba2f7","656d9e5e2de4f984cfed7d4d","656d9ed0a493120fccf08945","null","
        
        <div style=""text-align: center; position: fixed; top: 5vh; left: 40vw;"">
            <div style=""margin:0 auto; width: 20vw; top: 8vh; font-size: 2vw""> 
            <font color=""green""> Bonus : $1.15 </font>
            </div>
        </div>
    
        <img class=""stim"" src=./stimuli//pack_shapes_1/cat_1/diff_4/ex_1_4_17.png></img>
    ","null","stimulus","","","","","","",""
"","","","","","html-keyboard-response","192","215688","0.0-6.27-2.27","5f29510421c44f014deba2f7","656d9e5e2de4f984cfed7d4d","656d9ed0a493120fccf08945","null","
        <div style=""text-align: center; position: fixed; top: 5vh; left: 40vw;"">
            <div style=""margin:0 auto; width: 20vw; top: 8vh; font-size: 2vw""> 
            <font color=""green""> Bonus : $1.15 </font>
            </div>
        </div>
    ","null","","","","","","","",""
"","","","","","html-keyboard-response","193","217720","0.0-6.27-3.27","5f29510421c44f014deba2f7","656d9e5e2de4f984cfed7d4d","656d9ed0a493120fccf08945","2031","./stimuli//pack_shapes_1/cat_1/diff_4/ex_1_4_17.png","arrowright","response","ArrowLeft","17","1","4","test","false",""
"","","","","","html-keyboard-response","194","219223","0.0-6.27-4.27","5f29510421c44f014deba2f7","656d9e5e2de4f984cfed7d4d","656d9ed0a493120fccf08945","null","<p> <font color=""red"" size=""5vw""> Wrong category! </font> <br> <br> <font color=""red"" size=""8vw""> - $0.05 </font> </p>","null","feedback","","","","","","","1.1"
"","","","","","html-keyboard-response","195","219805","0.0-6.28-0.28","5f29510421c44f014deba2f7","656d9e5e2de4f984cfed7d4d","656d9ed0a493120fccf08945","582","
            
        <div style=""text-align: center; position: fixed; top: 5vh; left: 40vw;"">
            <div style=""margin:0 auto; width: 20vw; top: 8vh; font-size: 2vw""> 
            <font color=""green""> Bonus : $1.1 </font>
            </div>
        </div>
    
            <div> Please press any key to continue to the next image.</div>
        "," ","ITI","","","","","","",""
"","","","","","html-keyboard-response","196","220408","0.0-6.28-1.28","5f29510421c44f014deba2f7","656d9e5e2de4f984cfed7d4d","656d9ed0a493120fccf08945","null","
        
        <div style=""text-align: center; position: fixed; top: 5vh; left: 40vw;"">
            <div style=""margin:0 auto; width: 20vw; top: 8vh; font-size: 2vw""> 
            <font color=""green""> Bonus : $1.1 </font>
            </div>
        </div>
    
        <img class=""stim"" src=./stimuli//pack_shapes_1/cat_1/diff_4/ex_1_4_2.png></img>
    ","null","stimulus","","","","","","",""
"","","","","","html-keyboard-response","197","221416","0.0-6.28-2.28","5f29510421c44f014deba2f7","656d9e5e2de4f984cfed7d4d","656d9ed0a493120fccf08945","null","
        <div style=""text-align: center; position: fixed; top: 5vh; left: 40vw;"">
            <div style=""margin:0 auto; width: 20vw; top: 8vh; font-size: 2vw""> 
            <font color=""green""> Bonus : $1.1 </font>
            </div>
        </div>
    ","null","","","","","","","",""
"","","","","","html-keyboard-response","198","221731","0.0-6.28-3.28","5f29510421c44f014deba2f7","656d9e5e2de4f984cfed7d4d","656d9ed0a493120fccf08945","315","./stimuli//pack_shapes_1/cat_1/diff_4/ex_1_4_2.png","arrowleft","response","ArrowLeft","2","1","4","test","true",""
"","","","","","html-keyboard-response","199","223235","0.0-6.28-4.28","5f29510421c44f014deba2f7","656d9e5e2de4f984cfed7d4d","656d9ed0a493120fccf08945","null","<p> <font color=""green"" size=""5vw""> Correct category! </font> <br> <br> <font color=""green"" size=""8vw""> + $0.05 </font> </p>","null","feedback","","","","","","","1.15"
"","","","","","html-keyboard-response","200","224131","0.0-6.29-0.29","5f29510421c44f014deba2f7","656d9e5e2de4f984cfed7d4d","656d9ed0a493120fccf08945","895","
            
        <div style=""text-align: center; position: fixed; top: 5vh; left: 40vw;"">
            <div style=""margin:0 auto; width: 20vw; top: 8vh; font-size: 2vw""> 
            <font color=""green""> Bonus : $1.15 </font>
            </div>
        </div>
    
            <div> Please press any key to continue to the next image.</div>
        "," ","ITI","","","","","","",""
"","","","","","html-keyboard-response","201","224744","0.0-6.29-1.29","5f29510421c44f014deba2f7","656d9e5e2de4f984cfed7d4d","656d9ed0a493120fccf08945","null","
        
        <div style=""text-align: center; position: fixed; top: 5vh; left: 40vw;"">
            <div style=""margin:0 auto; width: 20vw; top: 8vh; font-size: 2vw""> 
            <font color=""green""> Bonus : $1.15 </font>
            </div>
        </div>
    
        <img class=""stim"" src=./stimuli//pack_shapes_1/cat_1/diff_4/ex_1_4_4.png></img>
    ","null","stimulus","","","","","","",""
"","","","","","html-keyboard-response","202","225757","0.0-6.29-2.29","5f29510421c44f014deba2f7","656d9e5e2de4f984cfed7d4d","656d9ed0a493120fccf08945","null","
        <div style=""text-align: center; position: fixed; top: 5vh; left: 40vw;"">
            <div style=""margin:0 auto; width: 20vw; top: 8vh; font-size: 2vw""> 
            <font color=""green""> Bonus : $1.15 </font>
            </div>
        </div>
    ","null","","","","","","","",""
"","","","","","html-keyboard-response","203","226099","0.0-6.29-3.29","5f29510421c44f014deba2f7","656d9e5e2de4f984cfed7d4d","656d9ed0a493120fccf08945","341","./stimuli//pack_shapes_1/cat_1/diff_4/ex_1_4_4.png","arrowleft","response","ArrowLeft","4","1","4","test","true",""
"","","","","","html-keyboard-response","204","227606","0.0-6.29-4.29","5f29510421c44f014deba2f7","656d9e5e2de4f984cfed7d4d","656d9ed0a493120fccf08945","null","<p> <font color=""green"" size=""5vw""> Correct category! </font> <br> <br> <font color=""green"" size=""8vw""> + $0.05 </font> </p>","null","feedback","","","","","","","1.2"
"","","","","","html-keyboard-response","205","228267","0.0-6.30-0.30","5f29510421c44f014deba2f7","656d9e5e2de4f984cfed7d4d","656d9ed0a493120fccf08945","660","
            
        <div style=""text-align: center; position: fixed; top: 5vh; left: 40vw;"">
            <div style=""margin:0 auto; width: 20vw; top: 8vh; font-size: 2vw""> 
            <font color=""green""> Bonus : $1.2 </font>
            </div>
        </div>
    
            <div> Please press any key to continue to the next image.</div>
        "," ","ITI","","","","","","",""
"","","","","","html-keyboard-response","206","228880","0.0-6.30-1.30","5f29510421c44f014deba2f7","656d9e5e2de4f984cfed7d4d","656d9ed0a493120fccf08945","null","
        
        <div style=""text-align: center; position: fixed; top: 5vh; left: 40vw;"">
            <div style=""margin:0 auto; width: 20vw; top: 8vh; font-size: 2vw""> 
            <font color=""green""> Bonus : $1.2 </font>
            </div>
        </div>
    
        <img class=""stim"" src=./stimuli//pack_shapes_1/cat_1/diff_5/ex_1_5_3.png></img>
    ","null","stimulus","","","","","","",""
"","","","","","html-keyboard-response","207","229890","0.0-6.30-2.30","5f29510421c44f014deba2f7","656d9e5e2de4f984cfed7d4d","656d9ed0a493120fccf08945","null","
        <div style=""text-align: center; position: fixed; top: 5vh; left: 40vw;"">
            <div style=""margin:0 auto; width: 20vw; top: 8vh; font-size: 2vw""> 
            <font color=""green""> Bonus : $1.2 </font>
            </div>
        </div>
    ","null","","","","","","","",""
"","","","","","html-keyboard-response","208","230318","0.0-6.30-3.30","5f29510421c44f014deba2f7","656d9e5e2de4f984cfed7d4d","656d9ed0a493120fccf08945","428","./stimuli//pack_shapes_1/cat_1/diff_5/ex_1_5_3.png","arrowleft","response","ArrowLeft","3","1","5","test","true",""
"","","","","","html-keyboard-response","209","231819","0.0-6.30-4.30","5f29510421c44f014deba2f7","656d9e5e2de4f984cfed7d4d","656d9ed0a493120fccf08945","null","<p> <font color=""green"" size=""5vw""> Correct category! </font> <br> <br> <font color=""green"" size=""8vw""> + $0.05 </font> </p>","null","feedback","","","","","","","1.25"
"","","","","","html-keyboard-response","210","232483","0.0-6.31-0.31","5f29510421c44f014deba2f7","656d9e5e2de4f984cfed7d4d","656d9ed0a493120fccf08945","664","
            
        <div style=""text-align: center; position: fixed; top: 5vh; left: 40vw;"">
            <div style=""margin:0 auto; width: 20vw; top: 8vh; font-size: 2vw""> 
            <font color=""green""> Bonus : $1.25 </font>
            </div>
        </div>
    
            <div> Please press any key to continue to the next image.</div>
        "," ","ITI","","","","","","",""
"","","","","","html-keyboard-response","211","233096","0.0-6.31-1.31","5f29510421c44f014deba2f7","656d9e5e2de4f984cfed7d4d","656d9ed0a493120fccf08945","null","
        
        <div style=""text-align: center; position: fixed; top: 5vh; left: 40vw;"">
            <div style=""margin:0 auto; width: 20vw; top: 8vh; font-size: 2vw""> 
            <font color=""green""> Bonus : $1.25 </font>
            </div>
        </div>
    
        <img class=""stim"" src=./stimuli//pack_shapes_1/cat_1/diff_5/ex_1_5_2.png></img>
    ","null","stimulus","","","","","","",""
"","","","","","html-keyboard-response","212","234104","0.0-6.31-2.31","5f29510421c44f014deba2f7","656d9e5e2de4f984cfed7d4d","656d9ed0a493120fccf08945","null","
        <div style=""text-align: center; position: fixed; top: 5vh; left: 40vw;"">
            <div style=""margin:0 auto; width: 20vw; top: 8vh; font-size: 2vw""> 
            <font color=""green""> Bonus : $1.25 </font>
            </div>
        </div>
    ","null","","","","","","","",""
"","","","","","html-keyboard-response","213","234528","0.0-6.31-3.31","5f29510421c44f014deba2f7","656d9e5e2de4f984cfed7d4d","656d9ed0a493120fccf08945","424","./stimuli//pack_shapes_1/cat_1/diff_5/ex_1_5_2.png","arrowleft","response","ArrowLeft","2","1","5","test","true",""
"","","","","","html-keyboard-response","214","236029","0.0-6.31-4.31","5f29510421c44f014deba2f7","656d9e5e2de4f984cfed7d4d","656d9ed0a493120fccf08945","null","<p> <font color=""green"" size=""5vw""> Correct category! </font> <br> <br> <font color=""green"" size=""8vw""> + $0.05 </font> </p>","null","feedback","","","","","","","1.3"
"","","","","","html-keyboard-response","215","236753","0.0-6.32-0.32","5f29510421c44f014deba2f7","656d9e5e2de4f984cfed7d4d","656d9ed0a493120fccf08945","724","
            
        <div style=""text-align: center; position: fixed; top: 5vh; left: 40vw;"">
            <div style=""margin:0 auto; width: 20vw; top: 8vh; font-size: 2vw""> 
            <font color=""green""> Bonus : $1.3 </font>
            </div>
        </div>
    
            <div> Please press any key to continue to the next image.</div>
        "," ","ITI","","","","","","",""
"","","","","","html-keyboard-response","216","237364","0.0-6.32-1.32","5f29510421c44f014deba2f7","656d9e5e2de4f984cfed7d4d","656d9ed0a493120fccf08945","null","
        
        <div style=""text-align: center; position: fixed; top: 5vh; left: 40vw;"">
            <div style=""margin:0 auto; width: 20vw; top: 8vh; font-size: 2vw""> 
            <font color=""green""> Bonus : $1.3 </font>
            </div>
        </div>
    
        <img class=""stim"" src=./stimuli//pack_shapes_1/cat_1/diff_5/ex_1_5_15.png></img>
    ","null","stimulus","","","","","","",""
"","","","","","html-keyboard-response","217","238376","0.0-6.32-2.32","5f29510421c44f014deba2f7","656d9e5e2de4f984cfed7d4d","656d9ed0a493120fccf08945","null","
        <div style=""text-align: center; position: fixed; top: 5vh; left: 40vw;"">
            <div style=""margin:0 auto; width: 20vw; top: 8vh; font-size: 2vw""> 
            <font color=""green""> Bonus : $1.3 </font>
            </div>
        </div>
    ","null","","","","","","","",""
"","","","","","html-keyboard-response","218","238949","0.0-6.32-3.32","5f29510421c44f014deba2f7","656d9e5e2de4f984cfed7d4d","656d9ed0a493120fccf08945","572","./stimuli//pack_shapes_1/cat_1/diff_5/ex_1_5_15.png","arrowleft","response","ArrowLeft","15","1","5","test","true",""
"","","","","","html-keyboard-response","219","240464","0.0-6.32-4.32","5f29510421c44f014deba2f7","656d9e5e2de4f984cfed7d4d","656d9ed0a493120fccf08945","null","<p> <font color=""green"" size=""5vw""> Correct category! </font> <br> <br> <font color=""green"" size=""8vw""> + $0.05 </font> </p>","null","feedback","","","","","","","1.35"
"","","","","","html-keyboard-response","220","241235","0.0-6.33-0.33","5f29510421c44f014deba2f7","656d9e5e2de4f984cfed7d4d","656d9ed0a493120fccf08945","770","
            
        <div style=""text-align: center; position: fixed; top: 5vh; left: 40vw;"">
            <div style=""margin:0 auto; width: 20vw; top: 8vh; font-size: 2vw""> 
            <font color=""green""> Bonus : $1.35 </font>
            </div>
        </div>
    
            <div> Please press any key to continue to the next image.</div>
        "," ","ITI","","","","","","",""
"","","","","","html-keyboard-response","221","241850","0.0-6.33-1.33","5f29510421c44f014deba2f7","656d9e5e2de4f984cfed7d4d","656d9ed0a493120fccf08945","null","
        
        <div style=""text-align: center; position: fixed; top: 5vh; left: 40vw;"">
            <div style=""margin:0 auto; width: 20vw; top: 8vh; font-size: 2vw""> 
            <font color=""green""> Bonus : $1.35 </font>
            </div>
        </div>
    
        <img class=""stim"" src=./stimuli//pack_shapes_1/cat_2/diff_5/ex_2_5_2.png></img>
    ","null","stimulus","","","","","","",""
"","","","","","html-keyboard-response","222","242855","0.0-6.33-2.33","5f29510421c44f014deba2f7","656d9e5e2de4f984cfed7d4d","656d9ed0a493120fccf08945","null","
        <div style=""text-align: center; position: fixed; top: 5vh; left: 40vw;"">
            <div style=""margin:0 auto; width: 20vw; top: 8vh; font-size: 2vw""> 
            <font color=""green""> Bonus : $1.35 </font>
            </div>
        </div>
    ","null","","","","","","","",""
"","","","","","html-keyboard-response","223","243412","0.0-6.33-3.33","5f29510421c44f014deba2f7","656d9e5e2de4f984cfed7d4d","656d9ed0a493120fccf08945","556","./stimuli//pack_shapes_1/cat_2/diff_5/ex_2_5_2.png","arrowleft","response","ArrowRight","2","2","5","test","false",""
"","","","","","html-keyboard-response","224","244923","0.0-6.33-4.33","5f29510421c44f014deba2f7","656d9e5e2de4f984cfed7d4d","656d9ed0a493120fccf08945","null","<p> <font color=""red"" size=""5vw""> Wrong category! </font> <br> <br> <font color=""red"" size=""8vw""> - $0.05 </font> </p>","null","feedback","","","","","","","1.3"
"","","","","","html-keyboard-response","225","245737","0.0-6.34-0.34","5f29510421c44f014deba2f7","656d9e5e2de4f984cfed7d4d","656d9ed0a493120fccf08945","814","
            
        <div style=""text-align: center; position: fixed; top: 5vh; left: 40vw;"">
            <div style=""margin:0 auto; width: 20vw; top: 8vh; font-size: 2vw""> 
            <font color=""green""> Bonus : $1.3 </font>
            </div>
        </div>
    
            <div> Please press any key to continue to the next image.</div>
        "," ","ITI","","","","","","",""
"","","","","","html-keyboard-response","226","246340","0.0-6.34-1.34","5f29510421c44f014deba2f7","656d9e5e2de4f984cfed7d4d","656d9ed0a493120fccf08945","null","
        
        <div style=""text-align: center; position: fixed; top: 5vh; left: 40vw;"">
            <div style=""margin:0 auto; width: 20vw; top: 8vh; font-size: 2vw""> 
            <font color=""green""> Bonus : $1.3 </font>
            </div>
        </div>
    
        <img class=""stim"" src=./stimuli//pack_shapes_1/cat_1/diff_5/ex_1_5_11.png></img>
    ","null","stimulus","","","","","","",""
"","","","","","html-keyboard-response","227","247350","0.0-6.34-2.34","5f29510421c44f014deba2f7","656d9e5e2de4f984cfed7d4d","656d9ed0a493120fccf08945","null","
        <div style=""text-align: center; position: fixed; top: 5vh; left: 40vw;"">
            <div style=""margin:0 auto; width: 20vw; top: 8vh; font-size: 2vw""> 
            <font color=""green""> Bonus : $1.3 </font>
            </div>
        </div>
    ","null","","","","","","","",""
"","","","","","html-keyboard-response","228","248108","0.0-6.34-3.34","5f29510421c44f014deba2f7","656d9e5e2de4f984cfed7d4d","656d9ed0a493120fccf08945","758","./stimuli//pack_shapes_1/cat_1/diff_5/ex_1_5_11.png","arrowright","response","ArrowLeft","11","1","5","test","false",""
"","","","","","html-keyboard-response","229","249618","0.0-6.34-4.34","5f29510421c44f014deba2f7","656d9e5e2de4f984cfed7d4d","656d9ed0a493120fccf08945","null","<p> <font color=""red"" size=""5vw""> Wrong category! </font> <br> <br> <font color=""red"" size=""8vw""> - $0.05 </font> </p>","null","feedback","","","","","","","1.25"
"","","","","","html-keyboard-response","230","250405","0.0-6.35-0.35","5f29510421c44f014deba2f7","656d9e5e2de4f984cfed7d4d","656d9ed0a493120fccf08945","786","
            
