"success","timeout","failed_images","failed_audio","failed_video","trial_type","trial_index","time_elapsed","internal_node_id","subject_id","study_id","session_id","rt","stimulus","response","task","correct_response","exemplar_ID","category","difficulty","phase","correct","bonus"
"true","false","[]","[]","[]","preload","0","1","0.0-0.0","5fdc9fe2c5f99b233d7e8c20","656d9e5e2de4f984cfed7d4d","656d9ed65ead0a84ccb9c15e","","","","","","","","","","",""
"","","","","","html-keyboard-response","1","2083","0.0-1.0","5fdc9fe2c5f99b233d7e8c20","656d9e5e2de4f984cfed7d4d","656d9ed65ead0a84ccb9c15e","2081","Welcome to the Category Learning experiment! Press any key to continue."," ","welcome","","","","","","",""
"","","","","","html-keyboard-response","2","29467","0.0-2.0","5fdc9fe2c5f99b233d7e8c20","656d9e5e2de4f984cfed7d4d","656d9ed65ead0a84ccb9c15e","27383","
            <p>You will be shown images of white shapes. Some are category A, some are category B.
            <br>You will not know in advance which category a specific shape belongs to.</p>
            <p>After you see an image, you will be asked to guess its category <b>(left arrow for category A, right arrow for category B)</b></p>
            <p>After you choose, the screen will show you whether you were correct or not.</p>
            <p><b>You will receive a bonus payment of $0.05 for each correct answer!</b></p>
            <p><b>You will lose $0.05 from your bonus payment for each incorrect answer! The bonus can not become less that $0.</b></p>
            <p>Press any key to continue.</p>
            "," ","introduction_1","","","","","","",""
"","","","","","html-keyboard-response","3","37070","0.0-3.0","5fdc9fe2c5f99b233d7e8c20","656d9e5e2de4f984cfed7d4d","656d9ed65ead0a84ccb9c15e","7603","
            <p> <b>The first 10 trials are a practice round that will not count towards your bonus payment.</b></p>
            <p> You will be notified when practice finishes and the test begins. </p>
            <p> Press any key to begin the practice round.</p>
            "," ","introduction_2","","","","","","",""
"","","","","","html-keyboard-response","4","39686","0.0-4.0-0.0","5fdc9fe2c5f99b233d7e8c20","656d9e5e2de4f984cfed7d4d","656d9ed65ead0a84ccb9c15e","2616","
            
        <div style=""text-align: center; position: fixed; top: 5vh; left: 40vw;"">
            <div style=""margin:0 auto; width: 20vw; top: 8vh; font-size: 2vw""> 
            <font color=""green""> Bonus : $0 </font>
            </div>
        </div>
    
            <div> Please press any key to continue to the next image.</div>
        "," ","ITI","","","","","","",""
"","","","","","html-keyboard-response","5","40292","0.0-4.0-1.0","5fdc9fe2c5f99b233d7e8c20","656d9e5e2de4f984cfed7d4d","656d9ed65ead0a84ccb9c15e","null","
        
        <div style=""text-align: center; position: fixed; top: 5vh; left: 40vw;"">
            <div style=""margin:0 auto; width: 20vw; top: 8vh; font-size: 2vw""> 
            <font color=""green""> Bonus : $0 </font>
            </div>
        </div>
    
        <img class=""stim"" src=./stimuli//pack_shapes_1/cat_2/diff_2/ex_2_2_9.png></img>
    ","null","stimulus","","","","","","",""
"","","","","","html-keyboard-response","6","41303","0.0-4.0-2.0","5fdc9fe2c5f99b233d7e8c20","656d9e5e2de4f984cfed7d4d","656d9ed65ead0a84ccb9c15e","null","
        <div style=""text-align: center; position: fixed; top: 5vh; left: 40vw;"">
            <div style=""margin:0 auto; width: 20vw; top: 8vh; font-size: 2vw""> 
            <font color=""green""> Bonus : $0 </font>
            </div>
        </div>
    ","null","","","","","","","",""
"","","","","","html-keyboard-response","7","42691","0.0-4.0-3.0","5fdc9fe2c5f99b233d7e8c20","656d9e5e2de4f984cfed7d4d","656d9ed65ead0a84ccb9c15e","1387","./stimuli//pack_shapes_1/cat_2/diff_2/ex_2_2_9.png","arrowleft","response","ArrowRight","9","2","2","train","false",""
"","","","","","html-keyboard-response","8","44195","0.0-4.0-4.0","5fdc9fe2c5f99b233d7e8c20","656d9e5e2de4f984cfed7d4d","656d9ed65ead0a84ccb9c15e","null","<p> <font color=""red"" size=""5vw""> Wrong category! </font> </p>","null","feedback","","","","","","","0"
"","","","","","html-keyboard-response","9","45289","0.0-4.0-0.1","5fdc9fe2c5f99b233d7e8c20","656d9e5e2de4f984cfed7d4d","656d9ed65ead0a84ccb9c15e","1094","
            
        <div style=""text-align: center; position: fixed; top: 5vh; left: 40vw;"">
            <div style=""margin:0 auto; width: 20vw; top: 8vh; font-size: 2vw""> 
            <font color=""green""> Bonus : $0 </font>
            </div>
        </div>
    
            <div> Please press any key to continue to the next image.</div>
        "," ","ITI","","","","","","",""
"","","","","","html-keyboard-response","10","45903","0.0-4.0-1.1","5fdc9fe2c5f99b233d7e8c20","656d9e5e2de4f984cfed7d4d","656d9ed65ead0a84ccb9c15e","null","
        
        <div style=""text-align: center; position: fixed; top: 5vh; left: 40vw;"">
            <div style=""margin:0 auto; width: 20vw; top: 8vh; font-size: 2vw""> 
            <font color=""green""> Bonus : $0 </font>
            </div>
        </div>
    
        <img class=""stim"" src=./stimuli//pack_shapes_1/cat_2/diff_1/ex_2_1_14.png></img>
    ","null","stimulus","","","","","","",""
"","","","","","html-keyboard-response","11","46919","0.0-4.0-2.1","5fdc9fe2c5f99b233d7e8c20","656d9e5e2de4f984cfed7d4d","656d9ed65ead0a84ccb9c15e","null","
        <div style=""text-align: center; position: fixed; top: 5vh; left: 40vw;"">
            <div style=""margin:0 auto; width: 20vw; top: 8vh; font-size: 2vw""> 
            <font color=""green""> Bonus : $0 </font>
            </div>
        </div>
    ","null","","","","","","","",""
"","","","","","html-keyboard-response","12","47402","0.0-4.0-3.1","5fdc9fe2c5f99b233d7e8c20","656d9e5e2de4f984cfed7d4d","656d9ed65ead0a84ccb9c15e","482","./stimuli//pack_shapes_1/cat_2/diff_1/ex_2_1_14.png","arrowright","response","ArrowRight","14","2","1","train","true",""
"","","","","","html-keyboard-response","13","48911","0.0-4.0-4.1","5fdc9fe2c5f99b233d7e8c20","656d9e5e2de4f984cfed7d4d","656d9ed65ead0a84ccb9c15e","null","<p><font color=""green"" size=""5vw""> Correct category! </font></p>","null","feedback","","","","","","","0"
"","","","","","html-keyboard-response","14","49428","0.0-4.0-0.2","5fdc9fe2c5f99b233d7e8c20","656d9e5e2de4f984cfed7d4d","656d9ed65ead0a84ccb9c15e","517","
            
        <div style=""text-align: center; position: fixed; top: 5vh; left: 40vw;"">
            <div style=""margin:0 auto; width: 20vw; top: 8vh; font-size: 2vw""> 
            <font color=""green""> Bonus : $0 </font>
            </div>
        </div>
    
            <div> Please press any key to continue to the next image.</div>
        "," ","ITI","","","","","","",""
"","","","","","html-keyboard-response","15","50041","0.0-4.0-1.2","5fdc9fe2c5f99b233d7e8c20","656d9e5e2de4f984cfed7d4d","656d9ed65ead0a84ccb9c15e","null","
        
        <div style=""text-align: center; position: fixed; top: 5vh; left: 40vw;"">
            <div style=""margin:0 auto; width: 20vw; top: 8vh; font-size: 2vw""> 
            <font color=""green""> Bonus : $0 </font>
            </div>
        </div>
    
        <img class=""stim"" src=./stimuli//pack_shapes_1/cat_1/diff_2/ex_1_2_6.png></img>
    ","null","stimulus","","","","","","",""
"","","","","","html-keyboard-response","16","51047","0.0-4.0-2.2","5fdc9fe2c5f99b233d7e8c20","656d9e5e2de4f984cfed7d4d","656d9ed65ead0a84ccb9c15e","null","
        <div style=""text-align: center; position: fixed; top: 5vh; left: 40vw;"">
            <div style=""margin:0 auto; width: 20vw; top: 8vh; font-size: 2vw""> 
            <font color=""green""> Bonus : $0 </font>
            </div>
        </div>
    ","null","","","","","","","",""
"","","","","","html-keyboard-response","17","51688","0.0-4.0-3.2","5fdc9fe2c5f99b233d7e8c20","656d9e5e2de4f984cfed7d4d","656d9ed65ead0a84ccb9c15e","640","./stimuli//pack_shapes_1/cat_1/diff_2/ex_1_2_6.png","arrowleft","response","ArrowLeft","6","1","2","train","true",""
"","","","","","html-keyboard-response","18","53198","0.0-4.0-4.2","5fdc9fe2c5f99b233d7e8c20","656d9e5e2de4f984cfed7d4d","656d9ed65ead0a84ccb9c15e","null","<p><font color=""green"" size=""5vw""> Correct category! </font></p>","null","feedback","","","","","","","0"
"","","","","","html-keyboard-response","19","53761","0.0-4.0-0.3","5fdc9fe2c5f99b233d7e8c20","656d9e5e2de4f984cfed7d4d","656d9ed65ead0a84ccb9c15e","563","
            
        <div style=""text-align: center; position: fixed; top: 5vh; left: 40vw;"">
            <div style=""margin:0 auto; width: 20vw; top: 8vh; font-size: 2vw""> 
            <font color=""green""> Bonus : $0 </font>
            </div>
        </div>
    
            <div> Please press any key to continue to the next image.</div>
        "," ","ITI","","","","","","",""
"","","","","","html-keyboard-response","20","54370","0.0-4.0-1.3","5fdc9fe2c5f99b233d7e8c20","656d9e5e2de4f984cfed7d4d","656d9ed65ead0a84ccb9c15e","null","
        
        <div style=""text-align: center; position: fixed; top: 5vh; left: 40vw;"">
            <div style=""margin:0 auto; width: 20vw; top: 8vh; font-size: 2vw""> 
            <font color=""green""> Bonus : $0 </font>
            </div>
        </div>
    
        <img class=""stim"" src=./stimuli//pack_shapes_1/cat_2/diff_1/ex_2_1_6.png></img>
    ","null","stimulus","","","","","","",""
"","","","","","html-keyboard-response","21","55372","0.0-4.0-2.3","5fdc9fe2c5f99b233d7e8c20","656d9e5e2de4f984cfed7d4d","656d9ed65ead0a84ccb9c15e","null","
        <div style=""text-align: center; position: fixed; top: 5vh; left: 40vw;"">
            <div style=""margin:0 auto; width: 20vw; top: 8vh; font-size: 2vw""> 
            <font color=""green""> Bonus : $0 </font>
            </div>
        </div>
    ","null","","","","","","","",""
"","","","","","html-keyboard-response","22","55662","0.0-4.0-3.3","5fdc9fe2c5f99b233d7e8c20","656d9e5e2de4f984cfed7d4d","656d9ed65ead0a84ccb9c15e","290","./stimuli//pack_shapes_1/cat_2/diff_1/ex_2_1_6.png","arrowright","response","ArrowRight","6","2","1","train","true",""
"","","","","","html-keyboard-response","23","57176","0.0-4.0-4.3","5fdc9fe2c5f99b233d7e8c20","656d9e5e2de4f984cfed7d4d","656d9ed65ead0a84ccb9c15e","null","<p><font color=""green"" size=""5vw""> Correct category! </font></p>","null","feedback","","","","","","","0"
"","","","","","html-keyboard-response","24","57852","0.0-4.0-0.4","5fdc9fe2c5f99b233d7e8c20","656d9e5e2de4f984cfed7d4d","656d9ed65ead0a84ccb9c15e","675","
            
        <div style=""text-align: center; position: fixed; top: 5vh; left: 40vw;"">
            <div style=""margin:0 auto; width: 20vw; top: 8vh; font-size: 2vw""> 
            <font color=""green""> Bonus : $0 </font>
            </div>
        </div>
    
            <div> Please press any key to continue to the next image.</div>
        "," ","ITI","","","","","","",""
"","","","","","html-keyboard-response","25","58456","0.0-4.0-1.4","5fdc9fe2c5f99b233d7e8c20","656d9e5e2de4f984cfed7d4d","656d9ed65ead0a84ccb9c15e","null","
        
        <div style=""text-align: center; position: fixed; top: 5vh; left: 40vw;"">
            <div style=""margin:0 auto; width: 20vw; top: 8vh; font-size: 2vw""> 
            <font color=""green""> Bonus : $0 </font>
            </div>
        </div>
    
        <img class=""stim"" src=./stimuli//pack_shapes_1/cat_1/diff_2/ex_1_2_12.png></img>
    ","null","stimulus","","","","","","",""
"","","","","","html-keyboard-response","26","59470","0.0-4.0-2.4","5fdc9fe2c5f99b233d7e8c20","656d9e5e2de4f984cfed7d4d","656d9ed65ead0a84ccb9c15e","null","
        <div style=""text-align: center; position: fixed; top: 5vh; left: 40vw;"">
            <div style=""margin:0 auto; width: 20vw; top: 8vh; font-size: 2vw""> 
            <font color=""green""> Bonus : $0 </font>
            </div>
        </div>
    ","null","","","","","","","",""
"","","","","","html-keyboard-response","27","59553","0.0-4.0-3.4","5fdc9fe2c5f99b233d7e8c20","656d9e5e2de4f984cfed7d4d","656d9ed65ead0a84ccb9c15e","82","./stimuli//pack_shapes_1/cat_1/diff_2/ex_1_2_12.png","arrowleft","response","ArrowLeft","12","1","2","train","true",""
"","","","","","html-keyboard-response","28","61068","0.0-4.0-4.4","5fdc9fe2c5f99b233d7e8c20","656d9e5e2de4f984cfed7d4d","656d9ed65ead0a84ccb9c15e","null","<p><font color=""green"" size=""5vw""> Correct category! </font></p>","null","feedback","","","","","","","0"
"","","","","","html-keyboard-response","29","61500","0.0-4.0-0.5","5fdc9fe2c5f99b233d7e8c20","656d9e5e2de4f984cfed7d4d","656d9ed65ead0a84ccb9c15e","432","
            
        <div style=""text-align: center; position: fixed; top: 5vh; left: 40vw;"">
            <div style=""margin:0 auto; width: 20vw; top: 8vh; font-size: 2vw""> 
            <font color=""green""> Bonus : $0 </font>
            </div>
        </div>
    
            <div> Please press any key to continue to the next image.</div>
        "," ","ITI","","","","","","",""
"","","","","","html-keyboard-response","30","62102","0.0-4.0-1.5","5fdc9fe2c5f99b233d7e8c20","656d9e5e2de4f984cfed7d4d","656d9ed65ead0a84ccb9c15e","null","
        
        <div style=""text-align: center; position: fixed; top: 5vh; left: 40vw;"">
            <div style=""margin:0 auto; width: 20vw; top: 8vh; font-size: 2vw""> 
            <font color=""green""> Bonus : $0 </font>
            </div>
        </div>
    
        <img class=""stim"" src=./stimuli//pack_shapes_1/cat_1/diff_1/ex_1_1_6.png></img>
    ","null","stimulus","","","","","","",""
"","","","","","html-keyboard-response","31","63117","0.0-4.0-2.5","5fdc9fe2c5f99b233d7e8c20","656d9e5e2de4f984cfed7d4d","656d9ed65ead0a84ccb9c15e","null","
        <div style=""text-align: center; position: fixed; top: 5vh; left: 40vw;"">
            <div style=""margin:0 auto; width: 20vw; top: 8vh; font-size: 2vw""> 
            <font color=""green""> Bonus : $0 </font>
            </div>
        </div>
    ","null","","","","","","","",""
"","","","","","html-keyboard-response","32","63131","0.0-4.0-3.5","5fdc9fe2c5f99b233d7e8c20","656d9e5e2de4f984cfed7d4d","656d9ed65ead0a84ccb9c15e","14","./stimuli//pack_shapes_1/cat_1/diff_1/ex_1_1_6.png","arrowleft","response","ArrowLeft","6","1","1","train","true",""
"","","","","","html-keyboard-response","33","63298","0.0-4.0-4.5","5fdc9fe2c5f99b233d7e8c20","656d9e5e2de4f984cfed7d4d","656d9ed65ead0a84ccb9c15e","167","<p><font color=""green"" size=""5vw""> Correct category! </font></p>","arrowleft","feedback","","","","","","","0"
"","","","","","html-keyboard-response","34","63990","0.0-4.0-0.6","5fdc9fe2c5f99b233d7e8c20","656d9e5e2de4f984cfed7d4d","656d9ed65ead0a84ccb9c15e","692","
            
        <div style=""text-align: center; position: fixed; top: 5vh; left: 40vw;"">
            <div style=""margin:0 auto; width: 20vw; top: 8vh; font-size: 2vw""> 
            <font color=""green""> Bonus : $0 </font>
            </div>
        </div>
    
            <div> Please press any key to continue to the next image.</div>
        "," ","ITI","","","","","","",""
"","","","","","html-keyboard-response","35","64600","0.0-4.0-1.6","5fdc9fe2c5f99b233d7e8c20","656d9e5e2de4f984cfed7d4d","656d9ed65ead0a84ccb9c15e","null","
        
        <div style=""text-align: center; position: fixed; top: 5vh; left: 40vw;"">
            <div style=""margin:0 auto; width: 20vw; top: 8vh; font-size: 2vw""> 
            <font color=""green""> Bonus : $0 </font>
            </div>
        </div>
    
        <img class=""stim"" src=./stimuli//pack_shapes_1/cat_2/diff_2/ex_2_2_14.png></img>
    ","null","stimulus","","","","","","",""
"","","","","","html-keyboard-response","36","65617","0.0-4.0-2.6","5fdc9fe2c5f99b233d7e8c20","656d9e5e2de4f984cfed7d4d","656d9ed65ead0a84ccb9c15e","null","
        <div style=""text-align: center; position: fixed; top: 5vh; left: 40vw;"">
            <div style=""margin:0 auto; width: 20vw; top: 8vh; font-size: 2vw""> 
            <font color=""green""> Bonus : $0 </font>
            </div>
        </div>
    ","null","","","","","","","",""
"","","","","","html-keyboard-response","37","65882","0.0-4.0-3.6","5fdc9fe2c5f99b233d7e8c20","656d9e5e2de4f984cfed7d4d","656d9ed65ead0a84ccb9c15e","265","./stimuli//pack_shapes_1/cat_2/diff_2/ex_2_2_14.png","arrowright","response","ArrowRight","14","2","2","train","true",""
"","","","","","html-keyboard-response","38","67391","0.0-4.0-4.6","5fdc9fe2c5f99b233d7e8c20","656d9e5e2de4f984cfed7d4d","656d9ed65ead0a84ccb9c15e","null","<p><font color=""green"" size=""5vw""> Correct category! </font></p>","null","feedback","","","","","","","0"
"","","","","","html-keyboard-response","39","67842","0.0-4.0-0.7","5fdc9fe2c5f99b233d7e8c20","656d9e5e2de4f984cfed7d4d","656d9ed65ead0a84ccb9c15e","451","
            
        <div style=""text-align: center; position: fixed; top: 5vh; left: 40vw;"">
            <div style=""margin:0 auto; width: 20vw; top: 8vh; font-size: 2vw""> 
            <font color=""green""> Bonus : $0 </font>
            </div>
        </div>
    
            <div> Please press any key to continue to the next image.</div>
        "," ","ITI","","","","","","",""
"","","","","","html-keyboard-response","40","68453","0.0-4.0-1.7","5fdc9fe2c5f99b233d7e8c20","656d9e5e2de4f984cfed7d4d","656d9ed65ead0a84ccb9c15e","null","
        
        <div style=""text-align: center; position: fixed; top: 5vh; left: 40vw;"">
            <div style=""margin:0 auto; width: 20vw; top: 8vh; font-size: 2vw""> 
            <font color=""green""> Bonus : $0 </font>
            </div>
        </div>
    
        <img class=""stim"" src=./stimuli//pack_shapes_1/cat_1/diff_1/ex_1_1_17.png></img>
    ","null","stimulus","","","","","","",""
"","","","","","html-keyboard-response","41","69455","0.0-4.0-2.7","5fdc9fe2c5f99b233d7e8c20","656d9e5e2de4f984cfed7d4d","656d9ed65ead0a84ccb9c15e","null","
        <div style=""text-align: center; position: fixed; top: 5vh; left: 40vw;"">
            <div style=""margin:0 auto; width: 20vw; top: 8vh; font-size: 2vw""> 
            <font color=""green""> Bonus : $0 </font>
            </div>
        </div>
    ","null","","","","","","","",""
"","","","","","html-keyboard-response","42","69726","0.0-4.0-3.7","5fdc9fe2c5f99b233d7e8c20","656d9e5e2de4f984cfed7d4d","656d9ed65ead0a84ccb9c15e","271","./stimuli//pack_shapes_1/cat_1/diff_1/ex_1_1_17.png","arrowleft","response","ArrowLeft","17","1","1","train","true",""
"","","","","","html-keyboard-response","43","71232","0.0-4.0-4.7","5fdc9fe2c5f99b233d7e8c20","656d9e5e2de4f984cfed7d4d","656d9ed65ead0a84ccb9c15e","null","<p><font color=""green"" size=""5vw""> Correct category! </font></p>","null","feedback","","","","","","","0"
"","","","","","html-keyboard-response","44","71598","0.0-4.0-0.8","5fdc9fe2c5f99b233d7e8c20","656d9e5e2de4f984cfed7d4d","656d9ed65ead0a84ccb9c15e","365","
            
        <div style=""text-align: center; position: fixed; top: 5vh; left: 40vw;"">
            <div style=""margin:0 auto; width: 20vw; top: 8vh; font-size: 2vw""> 
            <font color=""green""> Bonus : $0 </font>
            </div>
        </div>
    
            <div> Please press any key to continue to the next image.</div>
        "," ","ITI","","","","","","",""
"","","","","","html-keyboard-response","45","72210","0.0-4.0-1.8","5fdc9fe2c5f99b233d7e8c20","656d9e5e2de4f984cfed7d4d","656d9ed65ead0a84ccb9c15e","null","
        
        <div style=""text-align: center; position: fixed; top: 5vh; left: 40vw;"">
            <div style=""margin:0 auto; width: 20vw; top: 8vh; font-size: 2vw""> 
            <font color=""green""> Bonus : $0 </font>
            </div>
        </div>
    
        <img class=""stim"" src=./stimuli//pack_shapes_1/cat_1/diff_1/ex_1_1_16.png></img>
    ","null","stimulus","","","","","","",""
"","","","","","html-keyboard-response","46","73211","0.0-4.0-2.8","5fdc9fe2c5f99b233d7e8c20","656d9e5e2de4f984cfed7d4d","656d9ed65ead0a84ccb9c15e","null","
        <div style=""text-align: center; position: fixed; top: 5vh; left: 40vw;"">
            <div style=""margin:0 auto; width: 20vw; top: 8vh; font-size: 2vw""> 
            <font color=""green""> Bonus : $0 </font>
            </div>
        </div>
    ","null","","","","","","","",""
"","","","","","html-keyboard-response","47","73590","0.0-4.0-3.8","5fdc9fe2c5f99b233d7e8c20","656d9e5e2de4f984cfed7d4d","656d9ed65ead0a84ccb9c15e","378","./stimuli//pack_shapes_1/cat_1/diff_1/ex_1_1_16.png","arrowleft","response","ArrowLeft","16","1","1","train","true",""
"","","","","","html-keyboard-response","48","75094","0.0-4.0-4.8","5fdc9fe2c5f99b233d7e8c20","656d9e5e2de4f984cfed7d4d","656d9ed65ead0a84ccb9c15e","null","<p><font color=""green"" size=""5vw""> Correct category! </font></p>","null","feedback","","","","","","","0"
"","","","","","html-keyboard-response","49","75457","0.0-4.0-0.9","5fdc9fe2c5f99b233d7e8c20","656d9e5e2de4f984cfed7d4d","656d9ed65ead0a84ccb9c15e","362","
            
        <div style=""text-align: center; position: fixed; top: 5vh; left: 40vw;"">
            <div style=""margin:0 auto; width: 20vw; top: 8vh; font-size: 2vw""> 
            <font color=""green""> Bonus : $0 </font>
            </div>
        </div>
    
            <div> Please press any key to continue to the next image.</div>
        "," ","ITI","","","","","","",""
"","","","","","html-keyboard-response","50","76068","0.0-4.0-1.9","5fdc9fe2c5f99b233d7e8c20","656d9e5e2de4f984cfed7d4d","656d9ed65ead0a84ccb9c15e","null","
        
        <div style=""text-align: center; position: fixed; top: 5vh; left: 40vw;"">
            <div style=""margin:0 auto; width: 20vw; top: 8vh; font-size: 2vw""> 
            <font color=""green""> Bonus : $0 </font>
            </div>
        </div>
    
        <img class=""stim"" src=./stimuli//pack_shapes_1/cat_2/diff_1/ex_2_1_13.png></img>
    ","null","stimulus","","","","","","",""
"","","","","","html-keyboard-response","51","77078","0.0-4.0-2.9","5fdc9fe2c5f99b233d7e8c20","656d9e5e2de4f984cfed7d4d","656d9ed65ead0a84ccb9c15e","null","
        <div style=""text-align: center; position: fixed; top: 5vh; left: 40vw;"">
            <div style=""margin:0 auto; width: 20vw; top: 8vh; font-size: 2vw""> 
            <font color=""green""> Bonus : $0 </font>
            </div>
        </div>
    ","null","","","","","","","",""
"","","","","","html-keyboard-response","52","77390","0.0-4.0-3.9","5fdc9fe2c5f99b233d7e8c20","656d9e5e2de4f984cfed7d4d","656d9ed65ead0a84ccb9c15e","312","./stimuli//pack_shapes_1/cat_2/diff_1/ex_2_1_13.png","arrowright","response","ArrowRight","13","2","1","train","true",""
"","","","","","html-keyboard-response","53","78900","0.0-4.0-4.9","5fdc9fe2c5f99b233d7e8c20","656d9e5e2de4f984cfed7d4d","656d9ed65ead0a84ccb9c15e","null","<p><font color=""green"" size=""5vw""> Correct category! </font></p>","null","feedback","","","","","","","0"
"","","","","","html-keyboard-response","54","81655","0.0-5.0","5fdc9fe2c5f99b233d7e8c20","656d9e5e2de4f984cfed7d4d","656d9ed65ead0a84ccb9c15e","2754","
            <b> <p> The practice round has finished.</p>
            <p> For the rest of the experiment you will receive a $0.05 bonus for each correct answer and lose $0.05 from your bonus for each incorrect answer!</p>
            <p> The bonus can not become less than $0. </b>
            <p> Press any key to begin the test. </p>
            "," ","intermission","","","","","","",""
"","","","","","html-keyboard-response","55","82949","0.0-6.0-0.0","5fdc9fe2c5f99b233d7e8c20","656d9e5e2de4f984cfed7d4d","656d9ed65ead0a84ccb9c15e","1294","
            
        <div style=""text-align: center; position: fixed; top: 5vh; left: 40vw;"">
            <div style=""margin:0 auto; width: 20vw; top: 8vh; font-size: 2vw""> 
            <font color=""green""> Bonus : $0 </font>
            </div>
        </div>
    
            <div> Please press any key to continue to the next image.</div>
        "," ","ITI","","","","","","",""
"","","","","","html-keyboard-response","56","83552","0.0-6.0-1.0","5fdc9fe2c5f99b233d7e8c20","656d9e5e2de4f984cfed7d4d","656d9ed65ead0a84ccb9c15e","null","
        
        <div style=""text-align: center; position: fixed; top: 5vh; left: 40vw;"">
            <div style=""margin:0 auto; width: 20vw; top: 8vh; font-size: 2vw""> 
            <font color=""green""> Bonus : $0 </font>
            </div>
        </div>
    
        <img class=""stim"" src=./stimuli//pack_shapes_1/cat_1/diff_1/ex_1_1_14.png></img>
    ","null","stimulus","","","","","","",""
"","","","","","html-keyboard-response","57","84557","0.0-6.0-2.0","5fdc9fe2c5f99b233d7e8c20","656d9e5e2de4f984cfed7d4d","656d9ed65ead0a84ccb9c15e","null","
        <div style=""text-align: center; position: fixed; top: 5vh; left: 40vw;"">
            <div style=""margin:0 auto; width: 20vw; top: 8vh; font-size: 2vw""> 
            <font color=""green""> Bonus : $0 </font>
            </div>
        </div>
    ","null","","","","","","","",""
"","","","","","html-keyboard-response","58","85608","0.0-6.0-3.0","5fdc9fe2c5f99b233d7e8c20","656d9e5e2de4f984cfed7d4d","656d9ed65ead0a84ccb9c15e","1051","./stimuli//pack_shapes_1/cat_1/diff_1/ex_1_1_14.png","arrowright","response","ArrowLeft","14","1","1","test","false",""
"","","","","","html-keyboard-response","59","87120","0.0-6.0-4.0","5fdc9fe2c5f99b233d7e8c20","656d9e5e2de4f984cfed7d4d","656d9ed65ead0a84ccb9c15e","null","<p> <font color=""red"" size=""5vw""> Wrong category! </font> </p>","null","feedback","","","","","","","0"
"","","","","","html-keyboard-response","60","87726","0.0-6.1-0.1","5fdc9fe2c5f99b233d7e8c20","656d9e5e2de4f984cfed7d4d","656d9ed65ead0a84ccb9c15e","605","
            
        <div style=""text-align: center; position: fixed; top: 5vh; left: 40vw;"">
            <div style=""margin:0 auto; width: 20vw; top: 8vh; font-size: 2vw""> 
            <font color=""green""> Bonus : $0 </font>
            </div>
        </div>
    
            <div> Please press any key to continue to the next image.</div>
        "," ","ITI","","","","","","",""
"","","","","","html-keyboard-response","61","88329","0.0-6.1-1.1","5fdc9fe2c5f99b233d7e8c20","656d9e5e2de4f984cfed7d4d","656d9ed65ead0a84ccb9c15e","null","
        
        <div style=""text-align: center; position: fixed; top: 5vh; left: 40vw;"">
            <div style=""margin:0 auto; width: 20vw; top: 8vh; font-size: 2vw""> 
            <font color=""green""> Bonus : $0 </font>
            </div>
        </div>
    
        <img class=""stim"" src=./stimuli//pack_shapes_1/cat_2/diff_1/ex_2_1_1.png></img>
    ","null","stimulus","","","","","","",""
"","","","","","html-keyboard-response","62","89332","0.0-6.1-2.1","5fdc9fe2c5f99b233d7e8c20","656d9e5e2de4f984cfed7d4d","656d9ed65ead0a84ccb9c15e","null","
        <div style=""text-align: center; position: fixed; top: 5vh; left: 40vw;"">
            <div style=""margin:0 auto; width: 20vw; top: 8vh; font-size: 2vw""> 
            <font color=""green""> Bonus : $0 </font>
            </div>
        </div>
    ","null","","","","","","","",""
"","","","","","html-keyboard-response","63","91813","0.0-6.1-3.1","5fdc9fe2c5f99b233d7e8c20","656d9e5e2de4f984cfed7d4d","656d9ed65ead0a84ccb9c15e","2480","./stimuli//pack_shapes_1/cat_2/diff_1/ex_2_1_1.png","arrowright","response","ArrowRight","1","2","1","test","true",""
"","","","","","html-keyboard-response","64","93319","0.0-6.1-4.1","5fdc9fe2c5f99b233d7e8c20","656d9e5e2de4f984cfed7d4d","656d9ed65ead0a84ccb9c15e","null","<p> <font color=""green"" size=""5vw""> Correct category! </font> <br> <br> <font color=""green"" size=""8vw""> + $0.05 </font> </p>","null","feedback","","","","","","","0.05"
"","","","","","html-keyboard-response","65","93778","0.0-6.2-0.2","5fdc9fe2c5f99b233d7e8c20","656d9e5e2de4f984cfed7d4d","656d9ed65ead0a84ccb9c15e","459","
            
        <div style=""text-align: center; position: fixed; top: 5vh; left: 40vw;"">
            <div style=""margin:0 auto; width: 20vw; top: 8vh; font-size: 2vw""> 
            <font color=""green""> Bonus : $0.05 </font>
            </div>
        </div>
    
            <div> Please press any key to continue to the next image.</div>
        "," ","ITI","","","","","","",""
"","","","","","html-keyboard-response","66","94384","0.0-6.2-1.2","5fdc9fe2c5f99b233d7e8c20","656d9e5e2de4f984cfed7d4d","656d9ed65ead0a84ccb9c15e","null","
        
        <div style=""text-align: center; position: fixed; top: 5vh; left: 40vw;"">
            <div style=""margin:0 auto; width: 20vw; top: 8vh; font-size: 2vw""> 
            <font color=""green""> Bonus : $0.05 </font>
            </div>
        </div>
    
        <img class=""stim"" src=./stimuli//pack_shapes_1/cat_1/diff_1/ex_1_1_3.png></img>
    ","null","stimulus","","","","","","",""
"","","","","","html-keyboard-response","67","95394","0.0-6.2-2.2","5fdc9fe2c5f99b233d7e8c20","656d9e5e2de4f984cfed7d4d","656d9ed65ead0a84ccb9c15e","null","
        <div style=""text-align: center; position: fixed; top: 5vh; left: 40vw;"">
            <div style=""margin:0 auto; width: 20vw; top: 8vh; font-size: 2vw""> 
            <font color=""green""> Bonus : $0.05 </font>
            </div>
        </div>
    ","null","","","","","","","",""
"","","","","","html-keyboard-response","68","95817","0.0-6.2-3.2","5fdc9fe2c5f99b233d7e8c20","656d9e5e2de4f984cfed7d4d","656d9ed65ead0a84ccb9c15e","422","./stimuli//pack_shapes_1/cat_1/diff_1/ex_1_1_3.png","arrowleft","response","ArrowLeft","3","1","1","test","true",""
"","","","","","html-keyboard-response","69","97324","0.0-6.2-4.2","5fdc9fe2c5f99b233d7e8c20","656d9e5e2de4f984cfed7d4d","656d9ed65ead0a84ccb9c15e","null","<p> <font color=""green"" size=""5vw""> Correct category! </font> <br> <br> <font color=""green"" size=""8vw""> + $0.05 </font> </p>","null","feedback","","","","","","","0.1"
"","","","","","html-keyboard-response","70","97712","0.0-6.3-0.3","5fdc9fe2c5f99b233d7e8c20","656d9e5e2de4f984cfed7d4d","656d9ed65ead0a84ccb9c15e","387","
            
        <div style=""text-align: center; position: fixed; top: 5vh; left: 40vw;"">
            <div style=""margin:0 auto; width: 20vw; top: 8vh; font-size: 2vw""> 
            <font color=""green""> Bonus : $0.1 </font>
            </div>
        </div>
    
            <div> Please press any key to continue to the next image.</div>
        "," ","ITI","","","","","","",""
"","","","","","html-keyboard-response","71","98313","0.0-6.3-1.3","5fdc9fe2c5f99b233d7e8c20","656d9e5e2de4f984cfed7d4d","656d9ed65ead0a84ccb9c15e","null","
        
        <div style=""text-align: center; position: fixed; top: 5vh; left: 40vw;"">
            <div style=""margin:0 auto; width: 20vw; top: 8vh; font-size: 2vw""> 
            <font color=""green""> Bonus : $0.1 </font>
            </div>
        </div>
    
        <img class=""stim"" src=./stimuli//pack_shapes_1/cat_2/diff_1/ex_2_1_2.png></img>
    ","null","stimulus","","","","","","",""
"","","","","","html-keyboard-response","72","99314","0.0-6.3-2.3","5fdc9fe2c5f99b233d7e8c20","656d9e5e2de4f984cfed7d4d","656d9ed65ead0a84ccb9c15e","null","
        <div style=""text-align: center; position: fixed; top: 5vh; left: 40vw;"">
            <div style=""margin:0 auto; width: 20vw; top: 8vh; font-size: 2vw""> 
            <font color=""green""> Bonus : $0.1 </font>
            </div>
        </div>
    ","null","","","","","","","",""
"","","","","","html-keyboard-response","73","99615","0.0-6.3-3.3","5fdc9fe2c5f99b233d7e8c20","656d9e5e2de4f984cfed7d4d","656d9ed65ead0a84ccb9c15e","300","./stimuli//pack_shapes_1/cat_2/diff_1/ex_2_1_2.png","arrowright","response","ArrowRight","2","2","1","test","true",""
"","","","","","html-keyboard-response","74","101123","0.0-6.3-4.3","5fdc9fe2c5f99b233d7e8c20","656d9e5e2de4f984cfed7d4d","656d9ed65ead0a84ccb9c15e","null","<p> <font color=""green"" size=""5vw""> Correct category! </font> <br> <br> <font color=""green"" size=""8vw""> + $0.05 </font> </p>","null","feedback","","","","","","","0.15"
"","","","","","html-keyboard-response","75","101747","0.0-6.4-0.4","5fdc9fe2c5f99b233d7e8c20","656d9e5e2de4f984cfed7d4d","656d9ed65ead0a84ccb9c15e","623","
            
        <div style=""text-align: center; position: fixed; top: 5vh; left: 40vw;"">
            <div style=""margin:0 auto; width: 20vw; top: 8vh; font-size: 2vw""> 
            <font color=""green""> Bonus : $0.15 </font>
            </div>
        </div>
    
            <div> Please press any key to continue to the next image.</div>
        "," ","ITI","","","","","","",""
"","","","","","html-keyboard-response","76","102359","0.0-6.4-1.4","5fdc9fe2c5f99b233d7e8c20","656d9e5e2de4f984cfed7d4d","656d9ed65ead0a84ccb9c15e","null","
        
        <div style=""text-align: center; position: fixed; top: 5vh; left: 40vw;"">
            <div style=""margin:0 auto; width: 20vw; top: 8vh; font-size: 2vw""> 
            <font color=""green""> Bonus : $0.15 </font>
            </div>
        </div>
    
        <img class=""stim"" src=./stimuli//pack_shapes_1/cat_2/diff_1/ex_2_1_2.png></img>
    ","null","stimulus","","","","","","",""
"","","","","","html-keyboard-response","77","103374","0.0-6.4-2.4","5fdc9fe2c5f99b233d7e8c20","656d9e5e2de4f984cfed7d4d","656d9ed65ead0a84ccb9c15e","null","
        <div style=""text-align: center; position: fixed; top: 5vh; left: 40vw;"">
            <div style=""margin:0 auto; width: 20vw; top: 8vh; font-size: 2vw""> 
            <font color=""green""> Bonus : $0.15 </font>
            </div>
        </div>
    ","null","","","","","","","",""
"","","","","","html-keyboard-response","78","103712","0.0-6.4-3.4","5fdc9fe2c5f99b233d7e8c20","656d9e5e2de4f984cfed7d4d","656d9ed65ead0a84ccb9c15e","337","./stimuli//pack_shapes_1/cat_2/diff_1/ex_2_1_2.png","arrowright","response","ArrowRight","2","2","1","test","true",""
"","","","","","html-keyboard-response","79","105228","0.0-6.4-4.4","5fdc9fe2c5f99b233d7e8c20","656d9e5e2de4f984cfed7d4d","656d9ed65ead0a84ccb9c15e","null","<p> <font color=""green"" size=""5vw""> Correct category! </font> <br> <br> <font color=""green"" size=""8vw""> + $0.05 </font> </p>","null","feedback","","","","","","","0.2"
"","","","","","html-keyboard-response","80","105668","0.0-6.5-0.5","5fdc9fe2c5f99b233d7e8c20","656d9e5e2de4f984cfed7d4d","656d9ed65ead0a84ccb9c15e","439","
            
        <div style=""text-align: center; position: fixed; top: 5vh; left: 40vw;"">
            <div style=""margin:0 auto; width: 20vw; top: 8vh; font-size: 2vw""> 
            <font color=""green""> Bonus : $0.2 </font>
            </div>
        </div>
    
            <div> Please press any key to continue to the next image.</div>
        "," ","ITI","","","","","","",""
"","","","","","html-keyboard-response","81","106280","0.0-6.5-1.5","5fdc9fe2c5f99b233d7e8c20","656d9e5e2de4f984cfed7d4d","656d9ed65ead0a84ccb9c15e","null","
        
        <div style=""text-align: center; position: fixed; top: 5vh; left: 40vw;"">
            <div style=""margin:0 auto; width: 20vw; top: 8vh; font-size: 2vw""> 
            <font color=""green""> Bonus : $0.2 </font>
            </div>
        </div>
    
        <img class=""stim"" src=./stimuli//pack_shapes_1/cat_1/diff_2/ex_1_2_17.png></img>
    ","null","stimulus","","","","","","",""
"","","","","","html-keyboard-response","82","107283","0.0-6.5-2.5","5fdc9fe2c5f99b233d7e8c20","656d9e5e2de4f984cfed7d4d","656d9ed65ead0a84ccb9c15e","null","
        <div style=""text-align: center; position: fixed; top: 5vh; left: 40vw;"">
            <div style=""margin:0 auto; width: 20vw; top: 8vh; font-size: 2vw""> 
            <font color=""green""> Bonus : $0.2 </font>
            </div>
        </div>
    ","null","","","","","","","",""
"","","","","","html-keyboard-response","83","107560","0.0-6.5-3.5","5fdc9fe2c5f99b233d7e8c20","656d9e5e2de4f984cfed7d4d","656d9ed65ead0a84ccb9c15e","276","./stimuli//pack_shapes_1/cat_1/diff_2/ex_1_2_17.png","arrowleft","response","ArrowLeft","17","1","2","test","true",""
"","","","","","html-keyboard-response","84","109065","0.0-6.5-4.5","5fdc9fe2c5f99b233d7e8c20","656d9e5e2de4f984cfed7d4d","656d9ed65ead0a84ccb9c15e","null","<p> <font color=""green"" size=""5vw""> Correct category! </font> <br> <br> <font color=""green"" size=""8vw""> + $0.05 </font> </p>","null","feedback","","","","","","","0.25"
"","","","","","html-keyboard-response","85","109349","0.0-6.6-0.6","5fdc9fe2c5f99b233d7e8c20","656d9e5e2de4f984cfed7d4d","656d9ed65ead0a84ccb9c15e","283","
            
        <div style=""text-align: center; position: fixed; top: 5vh; left: 40vw;"">
            <div style=""margin:0 auto; width: 20vw; top: 8vh; font-size: 2vw""> 
            <font color=""green""> Bonus : $0.25 </font>
            </div>
        </div>
    
            <div> Please press any key to continue to the next image.</div>
        "," ","ITI","","","","","","",""
"","","","","","html-keyboard-response","86","109960","0.0-6.6-1.6","5fdc9fe2c5f99b233d7e8c20","656d9e5e2de4f984cfed7d4d","656d9ed65ead0a84ccb9c15e","null","
        
        <div style=""text-align: center; position: fixed; top: 5vh; left: 40vw;"">
            <div style=""margin:0 auto; width: 20vw; top: 8vh; font-size: 2vw""> 
            <font color=""green""> Bonus : $0.25 </font>
            </div>
        </div>
    
        <img class=""stim"" src=./stimuli//pack_shapes_1/cat_1/diff_2/ex_1_2_14.png></img>
    ","null","stimulus","","","","","","",""
"","","","","","html-keyboard-response","87","110968","0.0-6.6-2.6","5fdc9fe2c5f99b233d7e8c20","656d9e5e2de4f984cfed7d4d","656d9ed65ead0a84ccb9c15e","null","
        <div style=""text-align: center; position: fixed; top: 5vh; left: 40vw;"">
            <div style=""margin:0 auto; width: 20vw; top: 8vh; font-size: 2vw""> 
            <font color=""green""> Bonus : $0.25 </font>
            </div>
        </div>
    ","null","","","","","","","",""
"","","","","","html-keyboard-response","88","111237","0.0-6.6-3.6","5fdc9fe2c5f99b233d7e8c20","656d9e5e2de4f984cfed7d4d","656d9ed65ead0a84ccb9c15e","268","./stimuli//pack_shapes_1/cat_1/diff_2/ex_1_2_14.png","arrowleft","response","ArrowLeft","14","1","2","test","true",""
"","","","","","html-keyboard-response","89","112747","0.0-6.6-4.6","5fdc9fe2c5f99b233d7e8c20","656d9e5e2de4f984cfed7d4d","656d9ed65ead0a84ccb9c15e","null","<p> <font color=""green"" size=""5vw""> Correct category! </font> <br> <br> <font color=""green"" size=""8vw""> + $0.05 </font> </p>","null","feedback","","","","","","","0.3"
"","","","","","html-keyboard-response","90","113029","0.0-6.7-0.7","5fdc9fe2c5f99b233d7e8c20","656d9e5e2de4f984cfed7d4d","656d9ed65ead0a84ccb9c15e","281","
            
        <div style=""text-align: center; position: fixed; top: 5vh; left: 40vw;"">
            <div style=""margin:0 auto; width: 20vw; top: 8vh; font-size: 2vw""> 
            <font color=""green""> Bonus : $0.3 </font>
            </div>
        </div>
    
            <div> Please press any key to continue to the next image.</div>
        "," ","ITI","","","","","","",""
"","","","","","html-keyboard-response","91","113643","0.0-6.7-1.7","5fdc9fe2c5f99b233d7e8c20","656d9e5e2de4f984cfed7d4d","656d9ed65ead0a84ccb9c15e","null","
        
        <div style=""text-align: center; position: fixed; top: 5vh; left: 40vw;"">
            <div style=""margin:0 auto; width: 20vw; top: 8vh; font-size: 2vw""> 
            <font color=""green""> Bonus : $0.3 </font>
            </div>
        </div>
    
        <img class=""stim"" src=./stimuli//pack_shapes_1/cat_2/diff_2/ex_2_2_2.png></img>
    ","null","stimulus","","","","","","",""
"","","","","","html-keyboard-response","92","114648","0.0-6.7-2.7","5fdc9fe2c5f99b233d7e8c20","656d9e5e2de4f984cfed7d4d","656d9ed65ead0a84ccb9c15e","null","
        <div style=""text-align: center; position: fixed; top: 5vh; left: 40vw;"">
            <div style=""margin:0 auto; width: 20vw; top: 8vh; font-size: 2vw""> 
            <font color=""green""> Bonus : $0.3 </font>
            </div>
        </div>
    ","null","","","","","","","",""
"","","","","","html-keyboard-response","93","114901","0.0-6.7-3.7","5fdc9fe2c5f99b233d7e8c20","656d9e5e2de4f984cfed7d4d","656d9ed65ead0a84ccb9c15e","252","./stimuli//pack_shapes_1/cat_2/diff_2/ex_2_2_2.png","arrowright","response","ArrowRight","2","2","2","test","true",""
"","","","","","html-keyboard-response","94","116411","0.0-6.7-4.7","5fdc9fe2c5f99b233d7e8c20","656d9e5e2de4f984cfed7d4d","656d9ed65ead0a84ccb9c15e","null","<p> <font color=""green"" size=""5vw""> Correct category! </font> <br> <br> <font color=""green"" size=""8vw""> + $0.05 </font> </p>","null","feedback","","","","","","","0.35"
"","","","","","html-keyboard-response","95","116727","0.0-6.8-0.8","5fdc9fe2c5f99b233d7e8c20","656d9e5e2de4f984cfed7d4d","656d9ed65ead0a84ccb9c15e","315","
            
        <div style=""text-align: center; position: fixed; top: 5vh; left: 40vw;"">
            <div style=""margin:0 auto; width: 20vw; top: 8vh; font-size: 2vw""> 
            <font color=""green""> Bonus : $0.35 </font>
            </div>
        </div>
    
            <div> Please press any key to continue to the next image.</div>
        "," ","ITI","","","","","","",""
"","","","","","html-keyboard-response","96","117338","0.0-6.8-1.8","5fdc9fe2c5f99b233d7e8c20","656d9e5e2de4f984cfed7d4d","656d9ed65ead0a84ccb9c15e","null","
        
        <div style=""text-align: center; position: fixed; top: 5vh; left: 40vw;"">
            <div style=""margin:0 auto; width: 20vw; top: 8vh; font-size: 2vw""> 
            <font color=""green""> Bonus : $0.35 </font>
            </div>
        </div>
    
        <img class=""stim"" src=./stimuli//pack_shapes_1/cat_1/diff_2/ex_1_2_11.png></img>
    ","null","stimulus","","","","","","",""
"","","","","","html-keyboard-response","97","118346","0.0-6.8-2.8","5fdc9fe2c5f99b233d7e8c20","656d9e5e2de4f984cfed7d4d","656d9ed65ead0a84ccb9c15e","null","
        <div style=""text-align: center; position: fixed; top: 5vh; left: 40vw;"">
            <div style=""margin:0 auto; width: 20vw; top: 8vh; font-size: 2vw""> 
            <font color=""green""> Bonus : $0.35 </font>
            </div>
        </div>
    ","null","","","","","","","",""
"","","","","","html-keyboard-response","98","118624","0.0-6.8-3.8","5fdc9fe2c5f99b233d7e8c20","656d9e5e2de4f984cfed7d4d","656d9ed65ead0a84ccb9c15e","278","./stimuli//pack_shapes_1/cat_1/diff_2/ex_1_2_11.png","arrowleft","response","ArrowLeft","11","1","2","test","true",""
"","","","","","html-keyboard-response","99","120137","0.0-6.8-4.8","5fdc9fe2c5f99b233d7e8c20","656d9e5e2de4f984cfed7d4d","656d9ed65ead0a84ccb9c15e","null","<p> <font color=""green"" size=""5vw""> Correct category! </font> <br> <br> <font color=""green"" size=""8vw""> + $0.05 </font> </p>","null","feedback","","","","","","","0.4"
"","","","","","html-keyboard-response","100","120449","0.0-6.9-0.9","5fdc9fe2c5f99b233d7e8c20","656d9e5e2de4f984cfed7d4d","656d9ed65ead0a84ccb9c15e","312","
            
        <div style=""text-align: center; position: fixed; top: 5vh; left: 40vw;"">
            <div style=""margin:0 auto; width: 20vw; top: 8vh; font-size: 2vw""> 
            <font color=""green""> Bonus : $0.4 </font>
            </div>
        </div>
    
            <div> Please press any key to continue to the next image.</div>
        "," ","ITI","","","","","","",""
"","","","","","html-keyboard-response","101","121050","0.0-6.9-1.9","5fdc9fe2c5f99b233d7e8c20","656d9e5e2de4f984cfed7d4d","656d9ed65ead0a84ccb9c15e","null","
        
        <div style=""text-align: center; position: fixed; top: 5vh; left: 40vw;"">
            <div style=""margin:0 auto; width: 20vw; top: 8vh; font-size: 2vw""> 
            <font color=""green""> Bonus : $0.4 </font>
            </div>
        </div>
    
        <img class=""stim"" src=./stimuli//pack_shapes_1/cat_2/diff_2/ex_2_2_2.png></img>
    ","null","stimulus","","","","","","",""
"","","","","","html-keyboard-response","102","122053","0.0-6.9-2.9","5fdc9fe2c5f99b233d7e8c20","656d9e5e2de4f984cfed7d4d","656d9ed65ead0a84ccb9c15e","null","
        <div style=""text-align: center; position: fixed; top: 5vh; left: 40vw;"">
            <div style=""margin:0 auto; width: 20vw; top: 8vh; font-size: 2vw""> 
            <font color=""green""> Bonus : $0.4 </font>
            </div>
        </div>
    ","null","","","","","","","",""
"","","","","","html-keyboard-response","103","122327","0.0-6.9-3.9","5fdc9fe2c5f99b233d7e8c20","656d9e5e2de4f984cfed7d4d","656d9ed65ead0a84ccb9c15e","274","./stimuli//pack_shapes_1/cat_2/diff_2/ex_2_2_2.png","arrowright","response","ArrowRight","2","2","2","test","true",""
"","","","","","html-keyboard-response","104","123831","0.0-6.9-4.9","5fdc9fe2c5f99b233d7e8c20","656d9e5e2de4f984cfed7d4d","656d9ed65ead0a84ccb9c15e","null","<p> <font color=""green"" size=""5vw""> Correct category! </font> <br> <br> <font color=""green"" size=""8vw""> + $0.05 </font> </p>","null","feedback","","","","","","","0.45"
"","","","","","html-keyboard-response","105","124375","0.0-6.10-0.10","5fdc9fe2c5f99b233d7e8c20","656d9e5e2de4f984cfed7d4d","656d9ed65ead0a84ccb9c15e","544","
            
        <div style=""text-align: center; position: fixed; top: 5vh; left: 40vw;"">
            <div style=""margin:0 auto; width: 20vw; top: 8vh; font-size: 2vw""> 
            <font color=""green""> Bonus : $0.45 </font>
            </div>
        </div>
    
            <div> Please press any key to continue to the next image.</div>
        "," ","ITI","","","","","","",""
"","","","","","html-keyboard-response","106","124988","0.0-6.10-1.10","5fdc9fe2c5f99b233d7e8c20","656d9e5e2de4f984cfed7d4d","656d9ed65ead0a84ccb9c15e","null","
        
        <div style=""text-align: center; position: fixed; top: 5vh; left: 40vw;"">
            <div style=""margin:0 auto; width: 20vw; top: 8vh; font-size: 2vw""> 
            <font color=""green""> Bonus : $0.45 </font>
            </div>
        </div>
    
        <img class=""stim"" src=./stimuli//pack_shapes_1/cat_1/diff_3/ex_1_3_8.png></img>
    ","null","stimulus","","","","","","",""
"","","","","","html-keyboard-response","107","125991","0.0-6.10-2.10","5fdc9fe2c5f99b233d7e8c20","656d9e5e2de4f984cfed7d4d","656d9ed65ead0a84ccb9c15e","null","
        <div style=""text-align: center; position: fixed; top: 5vh; left: 40vw;"">
            <div style=""margin:0 auto; width: 20vw; top: 8vh; font-size: 2vw""> 
            <font color=""green""> Bonus : $0.45 </font>
            </div>
        </div>
    ","null","","","","","","","",""
"","","","","","html-keyboard-response","108","126355","0.0-6.10-3.10","5fdc9fe2c5f99b233d7e8c20","656d9e5e2de4f984cfed7d4d","656d9ed65ead0a84ccb9c15e","363","./stimuli//pack_shapes_1/cat_1/diff_3/ex_1_3_8.png","arrowleft","response","ArrowLeft","8","1","3","test","true",""
"","","","","","html-keyboard-response","109","127862","0.0-6.10-4.10","5fdc9fe2c5f99b233d7e8c20","656d9e5e2de4f984cfed7d4d","656d9ed65ead0a84ccb9c15e","null","<p> <font color=""green"" size=""5vw""> Correct category! </font> <br> <br> <font color=""green"" size=""8vw""> + $0.05 </font> </p>","null","feedback","","","","","","","0.5"
"","","","","","html-keyboard-response","110","128894","0.0-6.11-0.11","5fdc9fe2c5f99b233d7e8c20","656d9e5e2de4f984cfed7d4d","656d9ed65ead0a84ccb9c15e","1031","
            
        <div style=""text-align: center; position: fixed; top: 5vh; left: 40vw;"">
            <div style=""margin:0 auto; width: 20vw; top: 8vh; font-size: 2vw""> 
            <font color=""green""> Bonus : $0.5 </font>
            </div>
        </div>
    
            <div> Please press any key to continue to the next image.</div>
        "," ","ITI","","","","","","",""
"","","","","","html-keyboard-response","111","129503","0.0-6.11-1.11","5fdc9fe2c5f99b233d7e8c20","656d9e5e2de4f984cfed7d4d","656d9ed65ead0a84ccb9c15e","null","
        
        <div style=""text-align: center; position: fixed; top: 5vh; left: 40vw;"">
            <div style=""margin:0 auto; width: 20vw; top: 8vh; font-size: 2vw""> 
            <font color=""green""> Bonus : $0.5 </font>
            </div>
        </div>
    
        <img class=""stim"" src=./stimuli//pack_shapes_1/cat_1/diff_3/ex_1_3_4.png></img>
    ","null","stimulus","","","","","","",""
"","","","","","html-keyboard-response","112","130506","0.0-6.11-2.11","5fdc9fe2c5f99b233d7e8c20","656d9e5e2de4f984cfed7d4d","656d9ed65ead0a84ccb9c15e","null","
        <div style=""text-align: center; position: fixed; top: 5vh; left: 40vw;"">
            <div style=""margin:0 auto; width: 20vw; top: 8vh; font-size: 2vw""> 
            <font color=""green""> Bonus : $0.5 </font>
            </div>
        </div>
    ","null","","","","","","","",""
"","","","","","html-keyboard-response","113","131482","0.0-6.11-3.11","5fdc9fe2c5f99b233d7e8c20","656d9e5e2de4f984cfed7d4d","656d9ed65ead0a84ccb9c15e","975","./stimuli//pack_shapes_1/cat_1/diff_3/ex_1_3_4.png","arrowleft","response","ArrowLeft","4","1","3","test","true",""
"","","","","","html-keyboard-response","114","132998","0.0-6.11-4.11","5fdc9fe2c5f99b233d7e8c20","656d9e5e2de4f984cfed7d4d","656d9ed65ead0a84ccb9c15e","null","<p> <font color=""green"" size=""5vw""> Correct category! </font> <br> <br> <font color=""green"" size=""8vw""> + $0.05 </font> </p>","null","feedback","","","","","","","0.55"
"","","","","","html-keyboard-response","115","133357","0.0-6.12-0.12","5fdc9fe2c5f99b233d7e8c20","656d9e5e2de4f984cfed7d4d","656d9ed65ead0a84ccb9c15e","359","
            
        <div style=""text-align: center; position: fixed; top: 5vh; left: 40vw;"">
            <div style=""margin:0 auto; width: 20vw; top: 8vh; font-size: 2vw""> 
            <font color=""green""> Bonus : $0.55 </font>
            </div>
        </div>
    
            <div> Please press any key to continue to the next image.</div>
        "," ","ITI","","","","","","",""
"","","","","","html-keyboard-response","116","133972","0.0-6.12-1.12","5fdc9fe2c5f99b233d7e8c20","656d9e5e2de4f984cfed7d4d","656d9ed65ead0a84ccb9c15e","null","
        
        <div style=""text-align: center; position: fixed; top: 5vh; left: 40vw;"">
            <div style=""margin:0 auto; width: 20vw; top: 8vh; font-size: 2vw""> 
            <font color=""green""> Bonus : $0.55 </font>
            </div>
        </div>
    
        <img class=""stim"" src=./stimuli//pack_shapes_1/cat_1/diff_3/ex_1_3_14.png></img>
    ","null","stimulus","","","","","","",""
"","","","","","html-keyboard-response","117","134979","0.0-6.12-2.12","5fdc9fe2c5f99b233d7e8c20","656d9e5e2de4f984cfed7d4d","656d9ed65ead0a84ccb9c15e","null","
        <div style=""text-align: center; position: fixed; top: 5vh; left: 40vw;"">
            <div style=""margin:0 auto; width: 20vw; top: 8vh; font-size: 2vw""> 
            <font color=""green""> Bonus : $0.55 </font>
            </div>
        </div>
    ","null","","","","","","","",""
"","","","","","html-keyboard-response","118","135294","0.0-6.12-3.12","5fdc9fe2c5f99b233d7e8c20","656d9e5e2de4f984cfed7d4d","656d9ed65ead0a84ccb9c15e","314","./stimuli//pack_shapes_1/cat_1/diff_3/ex_1_3_14.png","arrowleft","response","ArrowLeft","14","1","3","test","true",""
"","","","","","html-keyboard-response","119","136806","0.0-6.12-4.12","5fdc9fe2c5f99b233d7e8c20","656d9e5e2de4f984cfed7d4d","656d9ed65ead0a84ccb9c15e","null","<p> <font color=""green"" size=""5vw""> Correct category! </font> <br> <br> <font color=""green"" size=""8vw""> + $0.05 </font> </p>","null","feedback","","","","","","","0.6"
"","","","","","html-keyboard-response","120","137207","0.0-6.13-0.13","5fdc9fe2c5f99b233d7e8c20","656d9e5e2de4f984cfed7d4d","656d9ed65ead0a84ccb9c15e","401","
            
        <div style=""text-align: center; position: fixed; top: 5vh; left: 40vw;"">
            <div style=""margin:0 auto; width: 20vw; top: 8vh; font-size: 2vw""> 
            <font color=""green""> Bonus : $0.6 </font>
            </div>
        </div>
    
            <div> Please press any key to continue to the next image.</div>
        "," ","ITI","","","","","","",""
"","","","","","html-keyboard-response","121","137811","0.0-6.13-1.13","5fdc9fe2c5f99b233d7e8c20","656d9e5e2de4f984cfed7d4d","656d9ed65ead0a84ccb9c15e","null","
        
        <div style=""text-align: center; position: fixed; top: 5vh; left: 40vw;"">
            <div style=""margin:0 auto; width: 20vw; top: 8vh; font-size: 2vw""> 
            <font color=""green""> Bonus : $0.6 </font>
            </div>
        </div>
    
        <img class=""stim"" src=./stimuli//pack_shapes_1/cat_1/diff_3/ex_1_3_1.png></img>
    ","null","stimulus","","","","","","",""
"","","","","","html-keyboard-response","122","138821","0.0-6.13-2.13","5fdc9fe2c5f99b233d7e8c20","656d9e5e2de4f984cfed7d4d","656d9ed65ead0a84ccb9c15e","null","
        <div style=""text-align: center; position: fixed; top: 5vh; left: 40vw;"">
            <div style=""margin:0 auto; width: 20vw; top: 8vh; font-size: 2vw""> 
            <font color=""green""> Bonus : $0.6 </font>
            </div>
        </div>
    ","null","","","","","","","",""
"","","","","","html-keyboard-response","123","139202","0.0-6.13-3.13","5fdc9fe2c5f99b233d7e8c20","656d9e5e2de4f984cfed7d4d","656d9ed65ead0a84ccb9c15e","381","./stimuli//pack_shapes_1/cat_1/diff_3/ex_1_3_1.png","arrowleft","response","ArrowLeft","1","1","3","test","true",""
"","","","","","html-keyboard-response","124","140712","0.0-6.13-4.13","5fdc9fe2c5f99b233d7e8c20","656d9e5e2de4f984cfed7d4d","656d9ed65ead0a84ccb9c15e","null","<p> <font color=""green"" size=""5vw""> Correct category! </font> <br> <br> <font color=""green"" size=""8vw""> + $0.05 </font> </p>","null","feedback","","","","","","","0.65"
"","","","","","html-keyboard-response","125","141001","0.0-6.14-0.14","5fdc9fe2c5f99b233d7e8c20","656d9e5e2de4f984cfed7d4d","656d9ed65ead0a84ccb9c15e","289","
            
        <div style=""text-align: center; position: fixed; top: 5vh; left: 40vw;"">
            <div style=""margin:0 auto; width: 20vw; top: 8vh; font-size: 2vw""> 
            <font color=""green""> Bonus : $0.65 </font>
            </div>
        </div>
    
            <div> Please press any key to continue to the next image.</div>
        "," ","ITI","","","","","","",""
"","","","","","html-keyboard-response","126","141610","0.0-6.14-1.14","5fdc9fe2c5f99b233d7e8c20","656d9e5e2de4f984cfed7d4d","656d9ed65ead0a84ccb9c15e","null","
        
        <div style=""text-align: center; position: fixed; top: 5vh; left: 40vw;"">
            <div style=""margin:0 auto; width: 20vw; top: 8vh; font-size: 2vw""> 
            <font color=""green""> Bonus : $0.65 </font>
            </div>
        </div>
    
        <img class=""stim"" src=./stimuli//pack_shapes_1/cat_1/diff_3/ex_1_3_12.png></img>
    ","null","stimulus","","","","","","",""
"","","","","","html-keyboard-response","127","142624","0.0-6.14-2.14","5fdc9fe2c5f99b233d7e8c20","656d9e5e2de4f984cfed7d4d","656d9ed65ead0a84ccb9c15e","null","
        <div style=""text-align: center; position: fixed; top: 5vh; left: 40vw;"">
            <div style=""margin:0 auto; width: 20vw; top: 8vh; font-size: 2vw""> 
            <font color=""green""> Bonus : $0.65 </font>
            </div>
        </div>
    ","null","","","","","","","",""
"","","","","","html-keyboard-response","128","142928","0.0-6.14-3.14","5fdc9fe2c5f99b233d7e8c20","656d9e5e2de4f984cfed7d4d","656d9ed65ead0a84ccb9c15e","304","./stimuli//pack_shapes_1/cat_1/diff_3/ex_1_3_12.png","arrowleft","response","ArrowLeft","12","1","3","test","true",""
"","","","","","html-keyboard-response","129","144430","0.0-6.14-4.14","5fdc9fe2c5f99b233d7e8c20","656d9e5e2de4f984cfed7d4d","656d9ed65ead0a84ccb9c15e","null","<p> <font color=""green"" size=""5vw""> Correct category! </font> <br> <br> <font color=""green"" size=""8vw""> + $0.05 </font> </p>","null","feedback","","","","","","","0.7"
"","","","","","html-keyboard-response","130","144834","0.0-6.15-0.15","5fdc9fe2c5f99b233d7e8c20","656d9e5e2de4f984cfed7d4d","656d9ed65ead0a84ccb9c15e","403","
            
        <div style=""text-align: center; position: fixed; top: 5vh; left: 40vw;"">
            <div style=""margin:0 auto; width: 20vw; top: 8vh; font-size: 2vw""> 
            <font color=""green""> Bonus : $0.7 </font>
            </div>
        </div>
    
            <div> Please press any key to continue to the next image.</div>
        "," ","ITI","","","","","","",""
"","","","","","html-keyboard-response","131","145446","0.0-6.15-1.15","5fdc9fe2c5f99b233d7e8c20","656d9e5e2de4f984cfed7d4d","656d9ed65ead0a84ccb9c15e","null","
        
        <div style=""text-align: center; position: fixed; top: 5vh; left: 40vw;"">
            <div style=""margin:0 auto; width: 20vw; top: 8vh; font-size: 2vw""> 
            <font color=""green""> Bonus : $0.7 </font>
            </div>
        </div>
    
        <img class=""stim"" src=./stimuli//pack_shapes_1/cat_2/diff_4/ex_2_4_7.png></img>
    ","null","stimulus","","","","","","",""
"","","","","","html-keyboard-response","132","146453","0.0-6.15-2.15","5fdc9fe2c5f99b233d7e8c20","656d9e5e2de4f984cfed7d4d","656d9ed65ead0a84ccb9c15e","null","
        <div style=""text-align: center; position: fixed; top: 5vh; left: 40vw;"">
            <div style=""margin:0 auto; width: 20vw; top: 8vh; font-size: 2vw""> 
            <font color=""green""> Bonus : $0.7 </font>
            </div>
        </div>
    ","null","","","","","","","",""
"","","","","","html-keyboard-response","133","146712","0.0-6.15-3.15","5fdc9fe2c5f99b233d7e8c20","656d9e5e2de4f984cfed7d4d","656d9ed65ead0a84ccb9c15e","259","./stimuli//pack_shapes_1/cat_2/diff_4/ex_2_4_7.png","arrowright","response","ArrowRight","7","2","4","test","true",""
"","","","","","html-keyboard-response","134","148216","0.0-6.15-4.15","5fdc9fe2c5f99b233d7e8c20","656d9e5e2de4f984cfed7d4d","656d9ed65ead0a84ccb9c15e","null","<p> <font color=""green"" size=""5vw""> Correct category! </font> <br> <br> <font color=""green"" size=""8vw""> + $0.05 </font> </p>","null","feedback","","","","","","","0.75"
"","","","","","html-keyboard-response","135","148571","0.0-6.16-0.16","5fdc9fe2c5f99b233d7e8c20","656d9e5e2de4f984cfed7d4d","656d9ed65ead0a84ccb9c15e","355","
            
        <div style=""text-align: center; position: fixed; top: 5vh; left: 40vw;"">
            <div style=""margin:0 auto; width: 20vw; top: 8vh; font-size: 2vw""> 
            <font color=""green""> Bonus : $0.75 </font>
            </div>
        </div>
    
            <div> Please press any key to continue to the next image.</div>
        "," ","ITI","","","","","","",""
"","","","","","html-keyboard-response","136","149180","0.0-6.16-1.16","5fdc9fe2c5f99b233d7e8c20","656d9e5e2de4f984cfed7d4d","656d9ed65ead0a84ccb9c15e","null","
        
        <div style=""text-align: center; position: fixed; top: 5vh; left: 40vw;"">
            <div style=""margin:0 auto; width: 20vw; top: 8vh; font-size: 2vw""> 
            <font color=""green""> Bonus : $0.75 </font>
            </div>
        </div>
    
        <img class=""stim"" src=./stimuli//pack_shapes_1/cat_1/diff_4/ex_1_4_6.png></img>
    ","null","stimulus","","","","","","",""
"","","","","","html-keyboard-response","137","150186","0.0-6.16-2.16","5fdc9fe2c5f99b233d7e8c20","656d9e5e2de4f984cfed7d4d","656d9ed65ead0a84ccb9c15e","null","
        <div style=""text-align: center; position: fixed; top: 5vh; left: 40vw;"">
            <div style=""margin:0 auto; width: 20vw; top: 8vh; font-size: 2vw""> 
            <font color=""green""> Bonus : $0.75 </font>
            </div>
        </div>
    ","null","","","","","","","",""
"","","","","","html-keyboard-response","138","150505","0.0-6.16-3.16","5fdc9fe2c5f99b233d7e8c20","656d9e5e2de4f984cfed7d4d","656d9ed65ead0a84ccb9c15e","318","./stimuli//pack_shapes_1/cat_1/diff_4/ex_1_4_6.png","arrowleft","response","ArrowLeft","6","1","4","test","true",""
"","","","","","html-keyboard-response","139","152013","0.0-6.16-4.16","5fdc9fe2c5f99b233d7e8c20","656d9e5e2de4f984cfed7d4d","656d9ed65ead0a84ccb9c15e","null","<p> <font color=""green"" size=""5vw""> Correct category! </font> <br> <br> <font color=""green"" size=""8vw""> + $0.05 </font> </p>","null","feedback","","","","","","","0.8"
"","","","","","html-keyboard-response","140","152399","0.0-6.17-0.17","5fdc9fe2c5f99b233d7e8c20","656d9e5e2de4f984cfed7d4d","656d9ed65ead0a84ccb9c15e","386","
            
        <div style=""text-align: center; position: fixed; top: 5vh; left: 40vw;"">
            <div style=""margin:0 auto; width: 20vw; top: 8vh; font-size: 2vw""> 
            <font color=""green""> Bonus : $0.8 </font>
            </div>
        </div>
    
            <div> Please press any key to continue to the next image.</div>
        "," ","ITI","","","","","","",""
"","","","","","html-keyboard-response","141","153015","0.0-6.17-1.17","5fdc9fe2c5f99b233d7e8c20","656d9e5e2de4f984cfed7d4d","656d9ed65ead0a84ccb9c15e","null","
        
        <div style=""text-align: center; position: fixed; top: 5vh; left: 40vw;"">
            <div style=""margin:0 auto; width: 20vw; top: 8vh; font-size: 2vw""> 
            <font color=""green""> Bonus : $0.8 </font>
            </div>
        </div>
    
        <img class=""stim"" src=./stimuli//pack_shapes_1/cat_1/diff_4/ex_1_4_8.png></img>
    ","null","stimulus","","","","","","",""
"","","","","","html-keyboard-response","142","154021","0.0-6.17-2.17","5fdc9fe2c5f99b233d7e8c20","656d9e5e2de4f984cfed7d4d","656d9ed65ead0a84ccb9c15e","null","
        <div style=""text-align: center; position: fixed; top: 5vh; left: 40vw;"">
            <div style=""margin:0 auto; width: 20vw; top: 8vh; font-size: 2vw""> 
            <font color=""green""> Bonus : $0.8 </font>
            </div>
        </div>
    ","null","","","","","","","",""
"","","","","","html-keyboard-response","143","154285","0.0-6.17-3.17","5fdc9fe2c5f99b233d7e8c20","656d9e5e2de4f984cfed7d4d","656d9ed65ead0a84ccb9c15e","263","./stimuli//pack_shapes_1/cat_1/diff_4/ex_1_4_8.png","arrowleft","response","ArrowLeft","8","1","4","test","true",""
"","","","","","html-keyboard-response","144","155797","0.0-6.17-4.17","5fdc9fe2c5f99b233d7e8c20","656d9e5e2de4f984cfed7d4d","656d9ed65ead0a84ccb9c15e","null","<p> <font color=""green"" size=""5vw""> Correct category! </font> <br> <br> <font color=""green"" size=""8vw""> + $0.05 </font> </p>","null","feedback","","","","","","","0.85"
"","","","","","html-keyboard-response","145","156096","0.0-6.18-0.18","5fdc9fe2c5f99b233d7e8c20","656d9e5e2de4f984cfed7d4d","656d9ed65ead0a84ccb9c15e","298","
            
        <div style=""text-align: center; position: fixed; top: 5vh; left: 40vw;"">
            <div style=""margin:0 auto; width: 20vw; top: 8vh; font-size: 2vw""> 
            <font color=""green""> Bonus : $0.85 </font>
            </div>
        </div>
    
            <div> Please press any key to continue to the next image.</div>
        "," ","ITI","","","","","","",""
"","","","","","html-keyboard-response","146","156711","0.0-6.18-1.18","5fdc9fe2c5f99b233d7e8c20","656d9e5e2de4f984cfed7d4d","656d9ed65ead0a84ccb9c15e","null","
        
        <div style=""text-align: center; position: fixed; top: 5vh; left: 40vw;"">
            <div style=""margin:0 auto; width: 20vw; top: 8vh; font-size: 2vw""> 
            <font color=""green""> Bonus : $0.85 </font>
            </div>
        </div>
    
        <img class=""stim"" src=./stimuli//pack_shapes_1/cat_2/diff_4/ex_2_4_3.png></img>
    ","null","stimulus","","","","","","",""
"","","","","","html-keyboard-response","147","157717","0.0-6.18-2.18","5fdc9fe2c5f99b233d7e8c20","656d9e5e2de4f984cfed7d4d","656d9ed65ead0a84ccb9c15e","null","
        <div style=""text-align: center; position: fixed; top: 5vh; left: 40vw;"">
            <div style=""margin:0 auto; width: 20vw; top: 8vh; font-size: 2vw""> 
            <font color=""green""> Bonus : $0.85 </font>
            </div>
        </div>
    ","null","","","","","","","",""
"","","","","","html-keyboard-response","148","158005","0.0-6.18-3.18","5fdc9fe2c5f99b233d7e8c20","656d9e5e2de4f984cfed7d4d","656d9ed65ead0a84ccb9c15e","288","./stimuli//pack_shapes_1/cat_2/diff_4/ex_2_4_3.png","arrowright","response","ArrowRight","3","2","4","test","true",""
"","","","","","html-keyboard-response","149","159510","0.0-6.18-4.18","5fdc9fe2c5f99b233d7e8c20","656d9e5e2de4f984cfed7d4d","656d9ed65ead0a84ccb9c15e","null","<p> <font color=""green"" size=""5vw""> Correct category! </font> <br> <br> <font color=""green"" size=""8vw""> + $0.05 </font> </p>","null","feedback","","","","","","","0.9"
"","","","","","html-keyboard-response","150","159750","0.0-6.19-0.19","5fdc9fe2c5f99b233d7e8c20","656d9e5e2de4f984cfed7d4d","656d9ed65ead0a84ccb9c15e","239","
            
        <div style=""text-align: center; position: fixed; top: 5vh; left: 40vw;"">
            <div style=""margin:0 auto; width: 20vw; top: 8vh; font-size: 2vw""> 
            <font color=""green""> Bonus : $0.9 </font>
            </div>
        </div>
    
            <div> Please press any key to continue to the next image.</div>
        "," ","ITI","","","","","","",""
"","","","","","html-keyboard-response","151","160364","0.0-6.19-1.19","5fdc9fe2c5f99b233d7e8c20","656d9e5e2de4f984cfed7d4d","656d9ed65ead0a84ccb9c15e","null","
        
        <div style=""text-align: center; position: fixed; top: 5vh; left: 40vw;"">
            <div style=""margin:0 auto; width: 20vw; top: 8vh; font-size: 2vw""> 
            <font color=""green""> Bonus : $0.9 </font>
            </div>
        </div>
    
        <img class=""stim"" src=./stimuli//pack_shapes_1/cat_2/diff_4/ex_2_4_13.png></img>
    ","null","stimulus","","","","","","",""
"","","","","","html-keyboard-response","152","161374","0.0-6.19-2.19","5fdc9fe2c5f99b233d7e8c20","656d9e5e2de4f984cfed7d4d","656d9ed65ead0a84ccb9c15e","null","
        <div style=""text-align: center; position: fixed; top: 5vh; left: 40vw;"">
            <div style=""margin:0 auto; width: 20vw; top: 8vh; font-size: 2vw""> 
            <font color=""green""> Bonus : $0.9 </font>
            </div>
        </div>
    ","null","","","","","","","",""
"","","","","","html-keyboard-response","153","161738","0.0-6.19-3.19","5fdc9fe2c5f99b233d7e8c20","656d9e5e2de4f984cfed7d4d","656d9ed65ead0a84ccb9c15e","363","./stimuli//pack_shapes_1/cat_2/diff_4/ex_2_4_13.png","arrowleft","response","ArrowRight","13","2","4","test","false",""
"","","","","","html-keyboard-response","154","163243","0.0-6.19-4.19","5fdc9fe2c5f99b233d7e8c20","656d9e5e2de4f984cfed7d4d","656d9ed65ead0a84ccb9c15e","null","<p> <font color=""red"" size=""5vw""> Wrong category! </font> <br> <br> <font color=""red"" size=""8vw""> - $0.05 </font> </p>","null","feedback","","","","","","","0.85"
"","","","","","html-keyboard-response","155","163605","0.0-6.20-0.20","5fdc9fe2c5f99b233d7e8c20","656d9e5e2de4f984cfed7d4d","656d9ed65ead0a84ccb9c15e","362","
            
        <div style=""text-align: center; position: fixed; top: 5vh; left: 40vw;"">
            <div style=""margin:0 auto; width: 20vw; top: 8vh; font-size: 2vw""> 
            <font color=""green""> Bonus : $0.85 </font>
            </div>
        </div>
    
            <div> Please press any key to continue to the next image.</div>
        "," ","ITI","","","","","","",""
"","","","","","html-keyboard-response","156","164206","0.0-6.20-1.20","5fdc9fe2c5f99b233d7e8c20","656d9e5e2de4f984cfed7d4d","656d9ed65ead0a84ccb9c15e","null","
        
        <div style=""text-align: center; position: fixed; top: 5vh; left: 40vw;"">
            <div style=""margin:0 auto; width: 20vw; top: 8vh; font-size: 2vw""> 
            <font color=""green""> Bonus : $0.85 </font>
            </div>
        </div>
    
        <img class=""stim"" src=./stimuli//pack_shapes_1/cat_1/diff_5/ex_1_5_17.png></img>
    ","null","stimulus","","","","","","",""
"","","","","","html-keyboard-response","157","165211","0.0-6.20-2.20","5fdc9fe2c5f99b233d7e8c20","656d9e5e2de4f984cfed7d4d","656d9ed65ead0a84ccb9c15e","null","
        <div style=""text-align: center; position: fixed; top: 5vh; left: 40vw;"">
            <div style=""margin:0 auto; width: 20vw; top: 8vh; font-size: 2vw""> 
            <font color=""green""> Bonus : $0.85 </font>
            </div>
        </div>
    ","null","","","","","","","",""
"","","","","","html-keyboard-response","158","165576","0.0-6.20-3.20","5fdc9fe2c5f99b233d7e8c20","656d9e5e2de4f984cfed7d4d","656d9ed65ead0a84ccb9c15e","364","./stimuli//pack_shapes_1/cat_1/diff_5/ex_1_5_17.png","arrowright","response","ArrowLeft","17","1","5","test","false",""
"","","","","","html-keyboard-response","159","167085","0.0-6.20-4.20","5fdc9fe2c5f99b233d7e8c20","656d9e5e2de4f984cfed7d4d","656d9ed65ead0a84ccb9c15e","null","<p> <font color=""red"" size=""5vw""> Wrong category! </font> <br> <br> <font color=""red"" size=""8vw""> - $0.05 </font> </p>","null","feedback","","","","","","","0.8"
"","","","","","html-keyboard-response","160","167463","0.0-6.21-0.21","5fdc9fe2c5f99b233d7e8c20","656d9e5e2de4f984cfed7d4d","656d9ed65ead0a84ccb9c15e","377","
            
        <div style=""text-align: center; position: fixed; top: 5vh; left: 40vw;"">
            <div style=""margin:0 auto; width: 20vw; top: 8vh; font-size: 2vw""> 
            <font color=""green""> Bonus : $0.8 </font>
            </div>
        </div>
    
            <div> Please press any key to continue to the next image.</div>
        "," ","ITI","","","","","","",""
"","","","","","html-keyboard-response","161","168076","0.0-6.21-1.21","5fdc9fe2c5f99b233d7e8c20","656d9e5e2de4f984cfed7d4d","656d9ed65ead0a84ccb9c15e","null","
        
        <div style=""text-align: center; position: fixed; top: 5vh; left: 40vw;"">
            <div style=""margin:0 auto; width: 20vw; top: 8vh; font-size: 2vw""> 
            <font color=""green""> Bonus : $0.8 </font>
            </div>
        </div>
    
        <img class=""stim"" src=./stimuli//pack_shapes_1/cat_2/diff_5/ex_2_5_1.png></img>
    ","null","stimulus","","","","","","",""
"","","","","","html-keyboard-response","162","169082","0.0-6.21-2.21","5fdc9fe2c5f99b233d7e8c20","656d9e5e2de4f984cfed7d4d","656d9ed65ead0a84ccb9c15e","null","
        <div style=""text-align: center; position: fixed; top: 5vh; left: 40vw;"">
            <div style=""margin:0 auto; width: 20vw; top: 8vh; font-size: 2vw""> 
            <font color=""green""> Bonus : $0.8 </font>
            </div>
        </div>
    ","null","","","","","","","",""
"","","","","","html-keyboard-response","163","169391","0.0-6.21-3.21","5fdc9fe2c5f99b233d7e8c20","656d9e5e2de4f984cfed7d4d","656d9ed65ead0a84ccb9c15e","308","./stimuli//pack_shapes_1/cat_2/diff_5/ex_2_5_1.png","arrowright","response","ArrowRight","1","2","5","test","true",""
"","","","","","html-keyboard-response","164","170901","0.0-6.21-4.21","5fdc9fe2c5f99b233d7e8c20","656d9e5e2de4f984cfed7d4d","656d9ed65ead0a84ccb9c15e","null","<p> <font color=""green"" size=""5vw""> Correct category! </font> <br> <br> <font color=""green"" size=""8vw""> + $0.05 </font> </p>","null","feedback","","","","","","","0.85"
"","","","","","html-keyboard-response","165","171370","0.0-6.22-0.22","5fdc9fe2c5f99b233d7e8c20","656d9e5e2de4f984cfed7d4d","656d9ed65ead0a84ccb9c15e","469","
            
        <div style=""text-align: center; position: fixed; top: 5vh; left: 40vw;"">
            <div style=""margin:0 auto; width: 20vw; top: 8vh; font-size: 2vw""> 
            <font color=""green""> Bonus : $0.85 </font>
            </div>
        </div>
    
            <div> Please press any key to continue to the next image.</div>
        "," ","ITI","","","","","","",""
"","","","","","html-keyboard-response","166","171984","0.0-6.22-1.22","5fdc9fe2c5f99b233d7e8c20","656d9e5e2de4f984cfed7d4d","656d9ed65ead0a84ccb9c15e","null","
        
        <div style=""text-align: center; position: fixed; top: 5vh; left: 40vw;"">
            <div style=""margin:0 auto; width: 20vw; top: 8vh; font-size: 2vw""> 
            <font color=""green""> Bonus : $0.85 </font>
            </div>
        </div>
    
        <img class=""stim"" src=./stimuli//pack_shapes_1/cat_2/diff_5/ex_2_5_3.png></img>
    ","null","stimulus","","","","","","",""
"","","","","","html-keyboard-response","167","172986","0.0-6.22-2.22","5fdc9fe2c5f99b233d7e8c20","656d9e5e2de4f984cfed7d4d","656d9ed65ead0a84ccb9c15e","null","
        <div style=""text-align: center; position: fixed; top: 5vh; left: 40vw;"">
            <div style=""margin:0 auto; width: 20vw; top: 8vh; font-size: 2vw""> 
            <font color=""green""> Bonus : $0.85 </font>
            </div>
        </div>
    ","null","","","","","","","",""
"","","","","","html-keyboard-response","168","173350","0.0-6.22-3.22","5fdc9fe2c5f99b233d7e8c20","656d9e5e2de4f984cfed7d4d","656d9ed65ead0a84ccb9c15e","364","./stimuli//pack_shapes_1/cat_2/diff_5/ex_2_5_3.png","arrowright","response","ArrowRight","3","2","5","test","true",""
"","","","","","html-keyboard-response","169","174852","0.0-6.22-4.22","5fdc9fe2c5f99b233d7e8c20","656d9e5e2de4f984cfed7d4d","656d9ed65ead0a84ccb9c15e","null","<p> <font color=""green"" size=""5vw""> Correct category! </font> <br> <br> <font color=""green"" size=""8vw""> + $0.05 </font> </p>","null","feedback","","","","","","","0.9"
"","","","","","html-keyboard-response","170","175180","0.0-6.23-0.23","5fdc9fe2c5f99b233d7e8c20","656d9e5e2de4f984cfed7d4d","656d9ed65ead0a84ccb9c15e","327","
            
        <div style=""text-align: center; position: fixed; top: 5vh; left: 40vw;"">
            <div style=""margin:0 auto; width: 20vw; top: 8vh; font-size: 2vw""> 
            <font color=""green""> Bonus : $0.9 </font>
            </div>
        </div>
    
            <div> Please press any key to continue to the next image.</div>
        "," ","ITI","","","","","","",""
"","","","","","html-keyboard-response","171","175793","0.0-6.23-1.23","5fdc9fe2c5f99b233d7e8c20","656d9e5e2de4f984cfed7d4d","656d9ed65ead0a84ccb9c15e","null","
        
        <div style=""text-align: center; position: fixed; top: 5vh; left: 40vw;"">
            <div style=""margin:0 auto; width: 20vw; top: 8vh; font-size: 2vw""> 
            <font color=""green""> Bonus : $0.9 </font>
            </div>
        </div>
    
        <img class=""stim"" src=./stimuli//pack_shapes_1/cat_2/diff_5/ex_2_5_11.png></img>
    ","null","stimulus","","","","","","",""
"","","","","","html-keyboard-response","172","176798","0.0-6.23-2.23","5fdc9fe2c5f99b233d7e8c20","656d9e5e2de4f984cfed7d4d","656d9ed65ead0a84ccb9c15e","null","
        <div style=""text-align: center; position: fixed; top: 5vh; left: 40vw;"">
            <div style=""margin:0 auto; width: 20vw; top: 8vh; font-size: 2vw""> 
            <font color=""green""> Bonus : $0.9 </font>
            </div>
        </div>
    ","null","","","","","","","",""
"","","","","","html-keyboard-response","173","177130","0.0-6.23-3.23","5fdc9fe2c5f99b233d7e8c20","656d9e5e2de4f984cfed7d4d","656d9ed65ead0a84ccb9c15e","332","./stimuli//pack_shapes_1/cat_2/diff_5/ex_2_5_11.png","arrowright","response","ArrowRight","11","2","5","test","true",""
"","","","","","html-keyboard-response","174","178642","0.0-6.23-4.23","5fdc9fe2c5f99b233d7e8c20","656d9e5e2de4f984cfed7d4d","656d9ed65ead0a84ccb9c15e","null","<p> <font color=""green"" size=""5vw""> Correct category! </font> <br> <br> <font color=""green"" size=""8vw""> + $0.05 </font> </p>","null","feedback","","","","","","","0.95"
"","","","","","html-keyboard-response","175","179078","0.0-6.24-0.24","5fdc9fe2c5f99b233d7e8c20","656d9e5e2de4f984cfed7d4d","656d9ed65ead0a84ccb9c15e","435","
            
        <div style=""text-align: center; position: fixed; top: 5vh; left: 40vw;"">
            <div style=""margin:0 auto; width: 20vw; top: 8vh; font-size: 2vw""> 
            <font color=""green""> Bonus : $0.95 </font>
            </div>
        </div>
    
            <div> Please press any key to continue to the next image.</div>
        "," ","ITI","","","","","","",""
"","","","","","html-keyboard-response","176","179683","0.0-6.24-1.24","5fdc9fe2c5f99b233d7e8c20","656d9e5e2de4f984cfed7d4d","656d9ed65ead0a84ccb9c15e","null","
        
        <div style=""text-align: center; position: fixed; top: 5vh; left: 40vw;"">
            <div style=""margin:0 auto; width: 20vw; top: 8vh; font-size: 2vw""> 
            <font color=""green""> Bonus : $0.95 </font>
            </div>
        </div>
    
        <img class=""stim"" src=./stimuli//pack_shapes_1/cat_2/diff_5/ex_2_5_12.png></img>
    ","null","stimulus","","","","","","",""
"","","","","","html-keyboard-response","177","180686","0.0-6.24-2.24","5fdc9fe2c5f99b233d7e8c20","656d9e5e2de4f984cfed7d4d","656d9ed65ead0a84ccb9c15e","null","
        <div style=""text-align: center; position: fixed; top: 5vh; left: 40vw;"">
            <div style=""margin:0 auto; width: 20vw; top: 8vh; font-size: 2vw""> 
            <font color=""green""> Bonus : $0.95 </font>
            </div>
        </div>
    ","null","","","","","","","",""
"","","","","","html-keyboard-response","178","180966","0.0-6.24-3.24","5fdc9fe2c5f99b233d7e8c20","656d9e5e2de4f984cfed7d4d","656d9ed65ead0a84ccb9c15e","280","./stimuli//pack_shapes_1/cat_2/diff_5/ex_2_5_12.png","arrowleft","response","ArrowRight","12","2","5","test","false",""
"","","","","","html-keyboard-response","179","182468","0.0-6.24-4.24","5fdc9fe2c5f99b233d7e8c20","656d9e5e2de4f984cfed7d4d","656d9ed65ead0a84ccb9c15e","null","<p> <font color=""red"" size=""5vw""> Wrong category! </font> <br> <br> <font color=""red"" size=""8vw""> - $0.05 </font> </p>","null","feedback","","","","","","","0.9"
"","","","","","html-keyboard-response","180","182983","0.0-6.25-0.25","5fdc9fe2c5f99b233d7e8c20","656d9e5e2de4f984cfed7d4d","656d9ed65ead0a84ccb9c15e","514","
            
        <div style=""text-align: center; position: fixed; top: 5vh; left: 40vw;"">
            <div style=""margin:0 auto; width: 20vw; top: 8vh; font-size: 2vw""> 
            <font color=""green""> Bonus : $0.9 </font>
            </div>
        </div>
    
            <div> Please press any key to continue to the next image.</div>
        "," ","ITI","","","","","","",""
"","","","","","html-keyboard-response","181","183585","0.0-6.25-1.25","5fdc9fe2c5f99b233d7e8c20","656d9e5e2de4f984cfed7d4d","656d9ed65ead0a84ccb9c15e","null","
        
        <div style=""text-align: center; position: fixed; top: 5vh; left: 40vw;"">
            <div style=""margin:0 auto; width: 20vw; top: 8vh; font-size: 2vw""> 
            <font color=""green""> Bonus : $0.9 </font>
            </div>
        </div>
    
        <img class=""stim"" src=./stimuli//pack_shapes_1/cat_2/diff_4/ex_2_4_6.png></img>
    ","null","stimulus","","","","","","",""
"","","","","","html-keyboard-response","182","184595","0.0-6.25-2.25","5fdc9fe2c5f99b233d7e8c20","656d9e5e2de4f984cfed7d4d","656d9ed65ead0a84ccb9c15e","null","
        <div style=""text-align: center; position: fixed; top: 5vh; left: 40vw;"">
            <div style=""margin:0 auto; width: 20vw; top: 8vh; font-size: 2vw""> 
            <font color=""green""> Bonus : $0.9 </font>
            </div>
        </div>
    ","null","","","","","","","",""
"","","","","","html-keyboard-response","183","184900","0.0-6.25-3.25","5fdc9fe2c5f99b233d7e8c20","656d9e5e2de4f984cfed7d4d","656d9ed65ead0a84ccb9c15e","304","./stimuli//pack_shapes_1/cat_2/diff_4/ex_2_4_6.png","arrowright","response","ArrowRight","6","2","4","test","true",""
"","","","","","html-keyboard-response","184","186407","0.0-6.25-4.25","5fdc9fe2c5f99b233d7e8c20","656d9e5e2de4f984cfed7d4d","656d9ed65ead0a84ccb9c15e","null","<p> <font color=""green"" size=""5vw""> Correct category! </font> <br> <br> <font color=""green"" size=""8vw""> + $0.05 </font> </p>","null","feedback","","","","","","","0.95"
"","","","","","html-keyboard-response","185","186785","0.0-6.26-0.26","5fdc9fe2c5f99b233d7e8c20","656d9e5e2de4f984cfed7d4d","656d9ed65ead0a84ccb9c15e","378","
            
        <div style=""text-align: center; position: fixed; top: 5vh; left: 40vw;"">
            <div style=""margin:0 auto; width: 20vw; top: 8vh; font-size: 2vw""> 
            <font color=""green""> Bonus : $0.95 </font>
            </div>
        </div>
    
            <div> Please press any key to continue to the next image.</div>
        "," ","ITI","","","","","","",""
"","","","","","html-keyboard-response","186","187399","0.0-6.26-1.26","5fdc9fe2c5f99b233d7e8c20","656d9e5e2de4f984cfed7d4d","656d9ed65ead0a84ccb9c15e","null","
        
        <div style=""text-align: center; position: fixed; top: 5vh; left: 40vw;"">
            <div style=""margin:0 auto; width: 20vw; top: 8vh; font-size: 2vw""> 
            <font color=""green""> Bonus : $0.95 </font>
            </div>
        </div>
    
        <img class=""stim"" src=./stimuli//pack_shapes_1/cat_2/diff_4/ex_2_4_15.png></img>
    ","null","stimulus","","","","","","",""
"","","","","","html-keyboard-response","187","188404","0.0-6.26-2.26","5fdc9fe2c5f99b233d7e8c20","656d9e5e2de4f984cfed7d4d","656d9ed65ead0a84ccb9c15e","null","
        <div style=""text-align: center; position: fixed; top: 5vh; left: 40vw;"">
            <div style=""margin:0 auto; width: 20vw; top: 8vh; font-size: 2vw""> 
            <font color=""green""> Bonus : $0.95 </font>
            </div>
        </div>
    ","null","","","","","","","",""
"","","","","","html-keyboard-response","188","188718","0.0-6.26-3.26","5fdc9fe2c5f99b233d7e8c20","656d9e5e2de4f984cfed7d4d","656d9ed65ead0a84ccb9c15e","313","./stimuli//pack_shapes_1/cat_2/diff_4/ex_2_4_15.png","arrowright","response","ArrowRight","15","2","4","test","true",""
"","","","","","html-keyboard-response","189","190231","0.0-6.26-4.26","5fdc9fe2c5f99b233d7e8c20","656d9e5e2de4f984cfed7d4d","656d9ed65ead0a84ccb9c15e","null","<p> <font color=""green"" size=""5vw""> Correct category! </font> <br> <br> <font color=""green"" size=""8vw""> + $0.05 </font> </p>","null","feedback","","","","","","","1"
"","","","","","html-keyboard-response","190","190664","0.0-6.27-0.27","5fdc9fe2c5f99b233d7e8c20","656d9e5e2de4f984cfed7d4d","656d9ed65ead0a84ccb9c15e","432","
            
        <div style=""text-align: center; position: fixed; top: 5vh; left: 40vw;"">
            <div style=""margin:0 auto; width: 20vw; top: 8vh; font-size: 2vw""> 
            <font color=""green""> Bonus : $1 </font>
            </div>
        </div>
    
            <div> Please press any key to continue to the next image.</div>
        "," ","ITI","","","","","","",""
"","","","","","html-keyboard-response","191","191267","0.0-6.27-1.27","5fdc9fe2c5f99b233d7e8c20","656d9e5e2de4f984cfed7d4d","656d9ed65ead0a84ccb9c15e","null","
        
        <div style=""text-align: center; position: fixed; top: 5vh; left: 40vw;"">
            <div style=""margin:0 auto; width: 20vw; top: 8vh; font-size: 2vw""> 
            <font color=""green""> Bonus : $1 </font>
            </div>
        </div>
    
        <img class=""stim"" src=./stimuli//pack_shapes_1/cat_2/diff_4/ex_2_4_10.png></img>
    ","null","stimulus","","","","","","",""
"","","","","","html-keyboard-response","192","192275","0.0-6.27-2.27","5fdc9fe2c5f99b233d7e8c20","656d9e5e2de4f984cfed7d4d","656d9ed65ead0a84ccb9c15e","null","
        <div style=""text-align: center; position: fixed; top: 5vh; left: 40vw;"">
            <div style=""margin:0 auto; width: 20vw; top: 8vh; font-size: 2vw""> 
            <font color=""green""> Bonus : $1 </font>
            </div>
        </div>
    ","null","","","","","","","",""
"","","","","","html-keyboard-response","193","192574","0.0-6.27-3.27","5fdc9fe2c5f99b233d7e8c20","656d9e5e2de4f984cfed7d4d","656d9ed65ead0a84ccb9c15e","298","./stimuli//pack_shapes_1/cat_2/diff_4/ex_2_4_10.png","arrowright","response","ArrowRight","10","2","4","test","true",""
"","","","","","html-keyboard-response","194","194090","0.0-6.27-4.27","5fdc9fe2c5f99b233d7e8c20","656d9e5e2de4f984cfed7d4d","656d9ed65ead0a84ccb9c15e","null","<p> <font color=""green"" size=""5vw""> Correct category! </font> <br> <br> <font color=""green"" size=""8vw""> + $0.05 </font> </p>","null","feedback","","","","","","","1.05"
"","","","","","html-keyboard-response","195","194430","0.0-6.28-0.28","5fdc9fe2c5f99b233d7e8c20","656d9e5e2de4f984cfed7d4d","656d9ed65ead0a84ccb9c15e","340","
            
        <div style=""text-align: center; position: fixed; top: 5vh; left: 40vw;"">
            <div style=""margin:0 auto; width: 20vw; top: 8vh; font-size: 2vw""> 
            <font color=""green""> Bonus : $1.05 </font>
            </div>
        </div>
    
            <div> Please press any key to continue to the next image.</div>
        "," ","ITI","","","","","","",""
"","","","","","html-keyboard-response","196","195046","0.0-6.28-1.28","5fdc9fe2c5f99b233d7e8c20","656d9e5e2de4f984cfed7d4d","656d9ed65ead0a84ccb9c15e","null","
        
        <div style=""text-align: center; position: fixed; top: 5vh; left: 40vw;"">
            <div style=""margin:0 auto; width: 20vw; top: 8vh; font-size: 2vw""> 
            <font color=""green""> Bonus : $1.05 </font>
            </div>
        </div>
    
        <img class=""stim"" src=./stimuli//pack_shapes_1/cat_2/diff_4/ex_2_4_3.png></img>
    ","null","stimulus","","","","","","",""
"","","","","","html-keyboard-response","197","196051","0.0-6.28-2.28","5fdc9fe2c5f99b233d7e8c20","656d9e5e2de4f984cfed7d4d","656d9ed65ead0a84ccb9c15e","null","
        <div style=""text-align: center; position: fixed; top: 5vh; left: 40vw;"">
            <div style=""margin:0 auto; width: 20vw; top: 8vh; font-size: 2vw""> 
            <font color=""green""> Bonus : $1.05 </font>
            </div>
        </div>
    ","null","","","","","","","",""
"","","","","","html-keyboard-response","198","196360","0.0-6.28-3.28","5fdc9fe2c5f99b233d7e8c20","656d9e5e2de4f984cfed7d4d","656d9ed65ead0a84ccb9c15e","308","./stimuli//pack_shapes_1/cat_2/diff_4/ex_2_4_3.png","arrowright","response","ArrowRight","3","2","4","test","true",""
"","","","","","html-keyboard-response","199","197875","0.0-6.28-4.28","5fdc9fe2c5f99b233d7e8c20","656d9e5e2de4f984cfed7d4d","656d9ed65ead0a84ccb9c15e","null","<p> <font color=""green"" size=""5vw""> Correct category! </font> <br> <br> <font color=""green"" size=""8vw""> + $0.05 </font> </p>","null","feedback","","","","","","","1.1"
"","","","","","html-keyboard-response","200","198214","0.0-6.29-0.29","5fdc9fe2c5f99b233d7e8c20","656d9e5e2de4f984cfed7d4d","656d9ed65ead0a84ccb9c15e","338","
            
        <div style=""text-align: center; position: fixed; top: 5vh; left: 40vw;"">
            <div style=""margin:0 auto; width: 20vw; top: 8vh; font-size: 2vw""> 
            <font color=""green""> Bonus : $1.1 </font>
            </div>
        </div>
    
            <div> Please press any key to continue to the next image.</div>
        "," ","ITI","","","","","","",""
"","","","","","html-keyboard-response","201","198820","0.0-6.29-1.29","5fdc9fe2c5f99b233d7e8c20","656d9e5e2de4f984cfed7d4d","656d9ed65ead0a84ccb9c15e","null","
        
        <div style=""text-align: center; position: fixed; top: 5vh; left: 40vw;"">
            <div style=""margin:0 auto; width: 20vw; top: 8vh; font-size: 2vw""> 
            <font color=""green""> Bonus : $1.1 </font>
            </div>
        </div>
    
        <img class=""stim"" src=./stimuli//pack_shapes_1/cat_2/diff_4/ex_2_4_17.png></img>
    ","null","stimulus","","","","","","",""
"","","","","","html-keyboard-response","202","199827","0.0-6.29-2.29","5fdc9fe2c5f99b233d7e8c20","656d9e5e2de4f984cfed7d4d","656d9ed65ead0a84ccb9c15e","null","
        <div style=""text-align: center; position: fixed; top: 5vh; left: 40vw;"">
            <div style=""margin:0 auto; width: 20vw; top: 8vh; font-size: 2vw""> 
            <font color=""green""> Bonus : $1.1 </font>
            </div>
        </div>
    ","null","","","","","","","",""
"","","","","","html-keyboard-response","203","200088","0.0-6.29-3.29","5fdc9fe2c5f99b233d7e8c20","656d9e5e2de4f984cfed7d4d","656d9ed65ead0a84ccb9c15e","260","./stimuli//pack_shapes_1/cat_2/diff_4/ex_2_4_17.png","arrowleft","response","ArrowRight","17","2","4","test","false",""
"","","","","","html-keyboard-response","204","201594","0.0-6.29-4.29","5fdc9fe2c5f99b233d7e8c20","656d9e5e2de4f984cfed7d4d","656d9ed65ead0a84ccb9c15e","null","<p> <font color=""red"" size=""5vw""> Wrong category! </font> <br> <br> <font color=""red"" size=""8vw""> - $0.05 </font> </p>","null","feedback","","","","","","","1.05"
"","","","","","html-keyboard-response","205","201889","0.0-6.30-0.30","5fdc9fe2c5f99b233d7e8c20","656d9e5e2de4f984cfed7d4d","656d9ed65ead0a84ccb9c15e","294","
            
        <div style=""text-align: center; position: fixed; top: 5vh; left: 40vw;"">
            <div style=""margin:0 auto; width: 20vw; top: 8vh; font-size: 2vw""> 
            <font color=""green""> Bonus : $1.05 </font>
            </div>
        </div>
    
            <div> Please press any key to continue to the next image.</div>
        "," ","ITI","","","","","","",""
"","","","","","html-keyboard-response","206","202497","0.0-6.30-1.30","5fdc9fe2c5f99b233d7e8c20","656d9e5e2de4f984cfed7d4d","656d9ed65ead0a84ccb9c15e","null","
        
        <div style=""text-align: center; position: fixed; top: 5vh; left: 40vw;"">
            <div style=""margin:0 auto; width: 20vw; top: 8vh; font-size: 2vw""> 
            <font color=""green""> Bonus : $1.05 </font>
            </div>
        </div>
    
        <img class=""stim"" src=./stimuli//pack_shapes_1/cat_2/diff_5/ex_2_5_7.png></img>
    ","null","stimulus","","","","","","",""
"","","","","","html-keyboard-response","207","203504","0.0-6.30-2.30","5fdc9fe2c5f99b233d7e8c20","656d9e5e2de4f984cfed7d4d","656d9ed65ead0a84ccb9c15e","null","
        <div style=""text-align: center; position: fixed; top: 5vh; left: 40vw;"">
            <div style=""margin:0 auto; width: 20vw; top: 8vh; font-size: 2vw""> 
            <font color=""green""> Bonus : $1.05 </font>
            </div>
        </div>
    ","null","","","","","","","",""
"","","","","","html-keyboard-response","208","203793","0.0-6.30-3.30","5fdc9fe2c5f99b233d7e8c20","656d9e5e2de4f984cfed7d4d","656d9ed65ead0a84ccb9c15e","288","./stimuli//pack_shapes_1/cat_2/diff_5/ex_2_5_7.png","arrowright","response","ArrowRight","7","2","5","test","true",""
"","","","","","html-keyboard-response","209","205302","0.0-6.30-4.30","5fdc9fe2c5f99b233d7e8c20","656d9e5e2de4f984cfed7d4d","656d9ed65ead0a84ccb9c15e","null","<p> <font color=""green"" size=""5vw""> Correct category! </font> <br> <br> <font color=""green"" size=""8vw""> + $0.05 </font> </p>","null","feedback","","","","","","","1.1"
"","","","","","html-keyboard-response","210","205640","0.0-6.31-0.31","5fdc9fe2c5f99b233d7e8c20","656d9e5e2de4f984cfed7d4d","656d9ed65ead0a84ccb9c15e","337","
            
        <div style=""text-align: center; position: fixed; top: 5vh; left: 40vw;"">
            <div style=""margin:0 auto; width: 20vw; top: 8vh; font-size: 2vw""> 
            <font color=""green""> Bonus : $1.1 </font>
            </div>
        </div>
    
            <div> Please press any key to continue to the next image.</div>
        "," ","ITI","","","","","","",""
"","","","","","html-keyboard-response","211","206245","0.0-6.31-1.31","5fdc9fe2c5f99b233d7e8c20","656d9e5e2de4f984cfed7d4d","656d9ed65ead0a84ccb9c15e","null","
        
        <div style=""text-align: center; position: fixed; top: 5vh; left: 40vw;"">
            <div style=""margin:0 auto; width: 20vw; top: 8vh; font-size: 2vw""> 
            <font color=""green""> Bonus : $1.1 </font>
            </div>
        </div>
    
        <img class=""stim"" src=./stimuli//pack_shapes_1/cat_2/diff_5/ex_2_5_9.png></img>
    ","null","stimulus","","","","","","",""
"","","","","","html-keyboard-response","212","207252","0.0-6.31-2.31","5fdc9fe2c5f99b233d7e8c20","656d9e5e2de4f984cfed7d4d","656d9ed65ead0a84ccb9c15e","null","
        <div style=""text-align: center; position: fixed; top: 5vh; left: 40vw;"">
            <div style=""margin:0 auto; width: 20vw; top: 8vh; font-size: 2vw""> 
            <font color=""green""> Bonus : $1.1 </font>
            </div>
        </div>
    ","null","","","","","","","",""
"","","","","","html-keyboard-response","213","207563","0.0-6.31-3.31","5fdc9fe2c5f99b233d7e8c20","656d9e5e2de4f984cfed7d4d","656d9ed65ead0a84ccb9c15e","310","./stimuli//pack_shapes_1/cat_2/diff_5/ex_2_5_9.png","arrowright","response","ArrowRight","9","2","5","test","true",""
"","","","","","html-keyboard-response","214","209064","0.0-6.31-4.31","5fdc9fe2c5f99b233d7e8c20","656d9e5e2de4f984cfed7d4d","656d9ed65ead0a84ccb9c15e","null","<p> <font color=""green"" size=""5vw""> Correct category! </font> <br> <br> <font color=""green"" size=""8vw""> + $0.05 </font> </p>","null","feedback","","","","","","","1.15"
"","","","","","html-keyboard-response","215","209423","0.0-6.32-0.32","5fdc9fe2c5f99b233d7e8c20","656d9e5e2de4f984cfed7d4d","656d9ed65ead0a84ccb9c15e","358","
            
        <div style=""text-align: center; position: fixed; top: 5vh; left: 40vw;"">
            <div style=""margin:0 auto; width: 20vw; top: 8vh; font-size: 2vw""> 
            <font color=""green""> Bonus : $1.15 </font>
            </div>
        </div>
    
            <div> Please press any key to continue to the next image.</div>
        "," ","ITI","","","","","","",""
"","","","","","html-keyboard-response","216","210039","0.0-6.32-1.32","5fdc9fe2c5f99b233d7e8c20","656d9e5e2de4f984cfed7d4d","656d9ed65ead0a84ccb9c15e","null","
        
        <div style=""text-align: center; position: fixed; top: 5vh; left: 40vw;"">
            <div style=""margin:0 auto; width: 20vw; top: 8vh; font-size: 2vw""> 
            <font color=""green""> Bonus : $1.15 </font>
            </div>
        </div>
    
        <img class=""stim"" src=./stimuli//pack_shapes_1/cat_2/diff_5/ex_2_5_10.png></img>
    ","null","stimulus","","","","","","",""
"","","","","","html-keyboard-response","217","211043","0.0-6.32-2.32","5fdc9fe2c5f99b233d7e8c20","656d9e5e2de4f984cfed7d4d","656d9ed65ead0a84ccb9c15e","null","
        <div style=""text-align: center; position: fixed; top: 5vh; left: 40vw;"">
            <div style=""margin:0 auto; width: 20vw; top: 8vh; font-size: 2vw""> 
            <font color=""green""> Bonus : $1.15 </font>
            </div>
        </div>
    ","null","","","","","","","",""
"","","","","","html-keyboard-response","218","211324","0.0-6.32-3.32","5fdc9fe2c5f99b233d7e8c20","656d9e5e2de4f984cfed7d4d","656d9ed65ead0a84ccb9c15e","280","./stimuli//pack_shapes_1/cat_2/diff_5/ex_2_5_10.png","arrowright","response","ArrowRight","10","2","5","test","true",""
"","","","","","html-keyboard-response","219","212825","0.0-6.32-4.32","5fdc9fe2c5f99b233d7e8c20","656d9e5e2de4f984cfed7d4d","656d9ed65ead0a84ccb9c15e","null","<p> <font color=""green"" size=""5vw""> Correct category! </font> <br> <br> <font color=""green"" size=""8vw""> + $0.05 </font> </p>","null","feedback","","","","","","","1.2"
"","","","","","html-keyboard-response","220","213244","0.0-6.33-0.33","5fdc9fe2c5f99b233d7e8c20","656d9e5e2de4f984cfed7d4d","656d9ed65ead0a84ccb9c15e","418","
            
        <div style=""text-align: center; position: fixed; top: 5vh; left: 40vw;"">
            <div style=""margin:0 auto; width: 20vw; top: 8vh; font-size: 2vw""> 
            <font color=""green""> Bonus : $1.2 </font>
            </div>
        </div>
    
            <div> Please press any key to continue to the next image.</div>
        "," ","ITI","","","","","","",""
"","","","","","html-keyboard-response","221","213845","0.0-6.33-1.33","5fdc9fe2c5f99b233d7e8c20","656d9e5e2de4f984cfed7d4d","656d9ed65ead0a84ccb9c15e","null","
        
        <div style=""text-align: center; position: fixed; top: 5vh; left: 40vw;"">
            <div style=""margin:0 auto; width: 20vw; top: 8vh; font-size: 2vw""> 
            <font color=""green""> Bonus : $1.2 </font>
            </div>
        </div>
    
        <img class=""stim"" src=./stimuli//pack_shapes_1/cat_1/diff_5/ex_1_5_9.png></img>
    ","null","stimulus","","","","","","",""
"","","","","","html-keyboard-response","222","214853","0.0-6.33-2.33","5fdc9fe2c5f99b233d7e8c20","656d9e5e2de4f984cfed7d4d","656d9ed65ead0a84ccb9c15e","null","
        <div style=""text-align: center; position: fixed; top: 5vh; left: 40vw;"">
            <div style=""margin:0 auto; width: 20vw; top: 8vh; font-size: 2vw""> 
            <font color=""green""> Bonus : $1.2 </font>
            </div>
        </div>
    ","null","","","","","","","",""
"","","","","","html-keyboard-response","223","215105","0.0-6.33-3.33","5fdc9fe2c5f99b233d7e8c20","656d9e5e2de4f984cfed7d4d","656d9ed65ead0a84ccb9c15e","252","./stimuli//pack_shapes_1/cat_1/diff_5/ex_1_5_9.png","arrowleft","response","ArrowLeft","9","1","5","test","true",""
"","","","","","html-keyboard-response","224","216609","0.0-6.33-4.33","5fdc9fe2c5f99b233d7e8c20","656d9e5e2de4f984cfed7d4d","656d9ed65ead0a84ccb9c15e","null","<p> <font color=""green"" size=""5vw""> Correct category! </font> <br> <br> <font color=""green"" size=""8vw""> + $0.05 </font> </p>","null","feedback","","","","","","","1.25"
"","","","","","html-keyboard-response","225","216857","0.0-6.34-0.34","5fdc9fe2c5f99b233d7e8c20","656d9e5e2de4f984cfed7d4d","656d9ed65ead0a84ccb9c15e","248","
            
        <div style=""text-align: center; position: fixed; top: 5vh; left: 40vw;"">
            <div style=""margin:0 auto; width: 20vw; top: 8vh; font-size: 2vw""> 
            <font color=""green""> Bonus : $1.25 </font>
            </div>
        </div>
    
            <div> Please press any key to continue to the next image.</div>
        "," ","ITI","","","","","","",""
"","","","","","html-keyboard-response","226","217460","0.0-6.34-1.34","5fdc9fe2c5f99b233d7e8c20","656d9e5e2de4f984cfed7d4d","656d9ed65ead0a84ccb9c15e","null","
        
        <div style=""text-align: center; position: fixed; top: 5vh; left: 40vw;"">
            <div style=""margin:0 auto; width: 20vw; top: 8vh; font-size: 2vw""> 
            <font color=""green""> Bonus : $1.25 </font>
            </div>
        </div>
    
        <img class=""stim"" src=./stimuli//pack_shapes_1/cat_2/diff_5/ex_2_5_10.png></img>
    ","null","stimulus","","","","","","",""
"","","","","","html-keyboard-response","227","218463","0.0-6.34-2.34","5fdc9fe2c5f99b233d7e8c20","656d9e5e2de4f984cfed7d4d","656d9ed65ead0a84ccb9c15e","null","
        <div style=""text-align: center; position: fixed; top: 5vh; left: 40vw;"">
            <div style=""margin:0 auto; width: 20vw; top: 8vh; font-size: 2vw""> 
            <font color=""green""> Bonus : $1.25 </font>
            </div>
        </div>
    ","null","","","","","","","",""
"","","","","","html-keyboard-response","228","218746","0.0-6.34-3.34","5fdc9fe2c5f99b233d7e8c20","656d9e5e2de4f984cfed7d4d","656d9ed65ead0a84ccb9c15e","282","./stimuli//pack_shapes_1/cat_2/diff_5/ex_2_5_10.png","arrowright","response","ArrowRight","10","2","5","test","true",""
"","","","","","html-keyboard-response","229","220256","0.0-6.34-4.34","5fdc9fe2c5f99b233d7e8c20","656d9e5e2de4f984cfed7d4d","656d9ed65ead0a84ccb9c15e","null","<p> <font color=""green"" size=""5vw""> Correct category! </font> <br> <br> <font color=""green"" size=""8vw""> + $0.05 </font> </p>","null","feedback","","","","","","","1.3"
"","","","","","html-keyboard-response","230","220632","0.0-6.35-0.35","5fdc9fe2c5f99b233d7e8c20","656d9e5e2de4f984cfed7d4d","656d9ed65ead0a84ccb9c15e","375","
            
        <div style=""text-align: center; position: fixed; top: 5vh; left: 40vw;"">
