"success","timeout","failed_images","failed_audio","failed_video","trial_type","trial_index","time_elapsed","internal_node_id","subject_id","study_id","session_id","rt","stimulus","response","task","correct_response","exemplar_ID","category","difficulty","phase","correct","bonus"
"true","false","[]","[]","[]","preload","0","9","0.0-0.0","610d42ce297f0c4f3542f0c8","656d9e5e2de4f984cfed7d4d","656d9ed52d90244628b2a5f8","","","","","","","","","","",""
"","","","","","html-keyboard-response","1","2912","0.0-1.0","610d42ce297f0c4f3542f0c8","656d9e5e2de4f984cfed7d4d","656d9ed52d90244628b2a5f8","2900","Welcome to the Category Learning experiment! Press any key to continue."," ","welcome","","","","","","",""
"","","","","","html-keyboard-response","2","25838","0.0-2.0","610d42ce297f0c4f3542f0c8","656d9e5e2de4f984cfed7d4d","656d9ed52d90244628b2a5f8","22924","
            <p>You will be shown images of white shapes. Some are category A, some are category B.
            <br>You will not know in advance which category a specific shape belongs to.</p>
            <p>After you see an image, you will be asked to guess its category <b>(left arrow for category A, right arrow for category B)</b></p>
            <p>After you choose, the screen will show you whether you were correct or not.</p>
            <p><b>You will receive a bonus payment of $0.05 for each correct answer!</b></p>
            <p><b>You will lose $0.05 from your bonus payment for each incorrect answer! The bonus can not become less that $0.</b></p>
            <p>Press any key to continue.</p>
            "," ","introduction_1","","","","","","",""
"","","","","","html-keyboard-response","3","32736","0.0-3.0","610d42ce297f0c4f3542f0c8","656d9e5e2de4f984cfed7d4d","656d9ed52d90244628b2a5f8","6896","
            <p> <b>The first 10 trials are a practice round that will not count towards your bonus payment.</b></p>
            <p> You will be notified when practice finishes and the test begins. </p>
            <p> Press any key to begin the practice round.</p>
            "," ","introduction_2","","","","","","",""
"","","","","","html-keyboard-response","4","34715","0.0-4.0-0.0","610d42ce297f0c4f3542f0c8","656d9e5e2de4f984cfed7d4d","656d9ed52d90244628b2a5f8","1976","
            
        <div style=""text-align: center; position: fixed; top: 5vh; left: 40vw;"">
            <div style=""margin:0 auto; width: 20vw; top: 8vh; font-size: 2vw""> 
            <font color=""green""> Bonus : $0 </font>
            </div>
        </div>
    
            <div> Please press any key to continue to the next image.</div>
        "," ","ITI","","","","","","",""
"","","","","","html-keyboard-response","5","35323","0.0-4.0-1.0","610d42ce297f0c4f3542f0c8","656d9e5e2de4f984cfed7d4d","656d9ed52d90244628b2a5f8","null","
        
        <div style=""text-align: center; position: fixed; top: 5vh; left: 40vw;"">
            <div style=""margin:0 auto; width: 20vw; top: 8vh; font-size: 2vw""> 
            <font color=""green""> Bonus : $0 </font>
            </div>
        </div>
    
        <img class=""stim"" src=./stimuli//pack_shapes_1/cat_2/diff_1/ex_2_1_8.png></img>
    ","null","stimulus","","","","","","",""
"","","","","","html-keyboard-response","6","36332","0.0-4.0-2.0","610d42ce297f0c4f3542f0c8","656d9e5e2de4f984cfed7d4d","656d9ed52d90244628b2a5f8","null","
        <div style=""text-align: center; position: fixed; top: 5vh; left: 40vw;"">
            <div style=""margin:0 auto; width: 20vw; top: 8vh; font-size: 2vw""> 
            <font color=""green""> Bonus : $0 </font>
            </div>
        </div>
    ","null","","","","","","","",""
"","","","","","html-keyboard-response","7","40343","0.0-4.0-3.0","610d42ce297f0c4f3542f0c8","656d9e5e2de4f984cfed7d4d","656d9ed52d90244628b2a5f8","null","./stimuli//pack_shapes_1/cat_2/diff_1/ex_2_1_8.png","null","response","ArrowRight","8","2","1","train","false",""
"","","","","","html-keyboard-response","8","41858","0.0-4.0-4.0","610d42ce297f0c4f3542f0c8","656d9e5e2de4f984cfed7d4d","656d9ed52d90244628b2a5f8","null","<p> <font color=""red"" size=""5vw""> Time out! </font> <br> <br> Please try to respond as quickly as possible. </p>","null","feedback","","","","","","","0"
"","","","","","html-keyboard-response","9","43611","0.0-4.0-0.1","610d42ce297f0c4f3542f0c8","656d9e5e2de4f984cfed7d4d","656d9ed52d90244628b2a5f8","1750","
            
        <div style=""text-align: center; position: fixed; top: 5vh; left: 40vw;"">
            <div style=""margin:0 auto; width: 20vw; top: 8vh; font-size: 2vw""> 
            <font color=""green""> Bonus : $0 </font>
            </div>
        </div>
    
            <div> Please press any key to continue to the next image.</div>
        "," ","ITI","","","","","","",""
"","","","","","html-keyboard-response","10","44225","0.0-4.0-1.1","610d42ce297f0c4f3542f0c8","656d9e5e2de4f984cfed7d4d","656d9ed52d90244628b2a5f8","null","
        
        <div style=""text-align: center; position: fixed; top: 5vh; left: 40vw;"">
            <div style=""margin:0 auto; width: 20vw; top: 8vh; font-size: 2vw""> 
            <font color=""green""> Bonus : $0 </font>
            </div>
        </div>
    
        <img class=""stim"" src=./stimuli//pack_shapes_1/cat_2/diff_1/ex_2_1_1.png></img>
    ","null","stimulus","","","","","","",""
"","","","","","html-keyboard-response","11","45237","0.0-4.0-2.1","610d42ce297f0c4f3542f0c8","656d9e5e2de4f984cfed7d4d","656d9ed52d90244628b2a5f8","null","
        <div style=""text-align: center; position: fixed; top: 5vh; left: 40vw;"">
            <div style=""margin:0 auto; width: 20vw; top: 8vh; font-size: 2vw""> 
            <font color=""green""> Bonus : $0 </font>
            </div>
        </div>
    ","null","","","","","","","",""
"","","","","","html-keyboard-response","12","49242","0.0-4.0-3.1","610d42ce297f0c4f3542f0c8","656d9e5e2de4f984cfed7d4d","656d9ed52d90244628b2a5f8","null","./stimuli//pack_shapes_1/cat_2/diff_1/ex_2_1_1.png","null","response","ArrowRight","1","2","1","train","false",""
"","","","","","html-keyboard-response","13","50746","0.0-4.0-4.1","610d42ce297f0c4f3542f0c8","656d9e5e2de4f984cfed7d4d","656d9ed52d90244628b2a5f8","null","<p> <font color=""red"" size=""5vw""> Time out! </font> <br> <br> Please try to respond as quickly as possible. </p>","null","feedback","","","","","","","0"
"","","","","","html-keyboard-response","14","54272","0.0-4.0-0.2","610d42ce297f0c4f3542f0c8","656d9e5e2de4f984cfed7d4d","656d9ed52d90244628b2a5f8","3526","
            
        <div style=""text-align: center; position: fixed; top: 5vh; left: 40vw;"">
            <div style=""margin:0 auto; width: 20vw; top: 8vh; font-size: 2vw""> 
            <font color=""green""> Bonus : $0 </font>
            </div>
        </div>
    
            <div> Please press any key to continue to the next image.</div>
        "," ","ITI","","","","","","",""
"","","","","","html-keyboard-response","15","54880","0.0-4.0-1.2","610d42ce297f0c4f3542f0c8","656d9e5e2de4f984cfed7d4d","656d9ed52d90244628b2a5f8","null","
        
        <div style=""text-align: center; position: fixed; top: 5vh; left: 40vw;"">
            <div style=""margin:0 auto; width: 20vw; top: 8vh; font-size: 2vw""> 
            <font color=""green""> Bonus : $0 </font>
            </div>
        </div>
    
        <img class=""stim"" src=./stimuli//pack_shapes_1/cat_1/diff_1/ex_1_1_4.png></img>
    ","null","stimulus","","","","","","",""
"","","","","","html-keyboard-response","16","55889","0.0-4.0-2.2","610d42ce297f0c4f3542f0c8","656d9e5e2de4f984cfed7d4d","656d9ed52d90244628b2a5f8","null","
        <div style=""text-align: center; position: fixed; top: 5vh; left: 40vw;"">
            <div style=""margin:0 auto; width: 20vw; top: 8vh; font-size: 2vw""> 
            <font color=""green""> Bonus : $0 </font>
            </div>
        </div>
    ","null","","","","","","","",""
"","","","","","html-keyboard-response","17","59892","0.0-4.0-3.2","610d42ce297f0c4f3542f0c8","656d9e5e2de4f984cfed7d4d","656d9ed52d90244628b2a5f8","null","./stimuli//pack_shapes_1/cat_1/diff_1/ex_1_1_4.png","null","response","ArrowLeft","4","1","1","train","false",""
"","","","","","html-keyboard-response","18","61396","0.0-4.0-4.2","610d42ce297f0c4f3542f0c8","656d9e5e2de4f984cfed7d4d","656d9ed52d90244628b2a5f8","null","<p> <font color=""red"" size=""5vw""> Time out! </font> <br> <br> Please try to respond as quickly as possible. </p>","null","feedback","","","","","","","0"
"","","","","","html-keyboard-response","19","62581","0.0-4.0-0.3","610d42ce297f0c4f3542f0c8","656d9e5e2de4f984cfed7d4d","656d9ed52d90244628b2a5f8","1182","
            
        <div style=""text-align: center; position: fixed; top: 5vh; left: 40vw;"">
            <div style=""margin:0 auto; width: 20vw; top: 8vh; font-size: 2vw""> 
            <font color=""green""> Bonus : $0 </font>
            </div>
        </div>
    
            <div> Please press any key to continue to the next image.</div>
        "," ","ITI","","","","","","",""
"","","","","","html-keyboard-response","20","63193","0.0-4.0-1.3","610d42ce297f0c4f3542f0c8","656d9e5e2de4f984cfed7d4d","656d9ed52d90244628b2a5f8","null","
        
        <div style=""text-align: center; position: fixed; top: 5vh; left: 40vw;"">
            <div style=""margin:0 auto; width: 20vw; top: 8vh; font-size: 2vw""> 
            <font color=""green""> Bonus : $0 </font>
            </div>
        </div>
    
        <img class=""stim"" src=./stimuli//pack_shapes_1/cat_1/diff_1/ex_1_1_16.png></img>
    ","null","stimulus","","","","","","",""
"","","","","","html-keyboard-response","21","64196","0.0-4.0-2.3","610d42ce297f0c4f3542f0c8","656d9e5e2de4f984cfed7d4d","656d9ed52d90244628b2a5f8","null","
        <div style=""text-align: center; position: fixed; top: 5vh; left: 40vw;"">
            <div style=""margin:0 auto; width: 20vw; top: 8vh; font-size: 2vw""> 
            <font color=""green""> Bonus : $0 </font>
            </div>
        </div>
    ","null","","","","","","","",""
"","","","","","html-keyboard-response","22","66027","0.0-4.0-3.3","610d42ce297f0c4f3542f0c8","656d9e5e2de4f984cfed7d4d","656d9ed52d90244628b2a5f8","1829","./stimuli//pack_shapes_1/cat_1/diff_1/ex_1_1_16.png","arrowright","response","ArrowLeft","16","1","1","train","false",""
"","","","","","html-keyboard-response","23","67533","0.0-4.0-4.3","610d42ce297f0c4f3542f0c8","656d9e5e2de4f984cfed7d4d","656d9ed52d90244628b2a5f8","null","<p> <font color=""red"" size=""5vw""> Wrong category! </font> </p>","null","feedback","","","","","","","0"
"","","","","","html-keyboard-response","24","69117","0.0-4.0-0.4","610d42ce297f0c4f3542f0c8","656d9e5e2de4f984cfed7d4d","656d9ed52d90244628b2a5f8","1581","
            
        <div style=""text-align: center; position: fixed; top: 5vh; left: 40vw;"">
            <div style=""margin:0 auto; width: 20vw; top: 8vh; font-size: 2vw""> 
            <font color=""green""> Bonus : $0 </font>
            </div>
        </div>
    
            <div> Please press any key to continue to the next image.</div>
        "," ","ITI","","","","","","",""
"","","","","","html-keyboard-response","25","69719","0.0-4.0-1.4","610d42ce297f0c4f3542f0c8","656d9e5e2de4f984cfed7d4d","656d9ed52d90244628b2a5f8","null","
        
        <div style=""text-align: center; position: fixed; top: 5vh; left: 40vw;"">
            <div style=""margin:0 auto; width: 20vw; top: 8vh; font-size: 2vw""> 
            <font color=""green""> Bonus : $0 </font>
            </div>
        </div>
    
        <img class=""stim"" src=./stimuli//pack_shapes_1/cat_1/diff_2/ex_1_2_14.png></img>
    ","null","stimulus","","","","","","",""
"","","","","","html-keyboard-response","26","70737","0.0-4.0-2.4","610d42ce297f0c4f3542f0c8","656d9e5e2de4f984cfed7d4d","656d9ed52d90244628b2a5f8","null","
        <div style=""text-align: center; position: fixed; top: 5vh; left: 40vw;"">
            <div style=""margin:0 auto; width: 20vw; top: 8vh; font-size: 2vw""> 
            <font color=""green""> Bonus : $0 </font>
            </div>
        </div>
    ","null","","","","","","","",""
"","","","","","html-keyboard-response","27","71130","0.0-4.0-3.4","610d42ce297f0c4f3542f0c8","656d9e5e2de4f984cfed7d4d","656d9ed52d90244628b2a5f8","391","./stimuli//pack_shapes_1/cat_1/diff_2/ex_1_2_14.png","arrowleft","response","ArrowLeft","14","1","2","train","true",""
"","","","","","html-keyboard-response","28","72648","0.0-4.0-4.4","610d42ce297f0c4f3542f0c8","656d9e5e2de4f984cfed7d4d","656d9ed52d90244628b2a5f8","null","<p><font color=""green"" size=""5vw""> Correct category! </font></p>","null","feedback","","","","","","","0"
"","","","","","html-keyboard-response","29","74754","0.0-4.0-0.5","610d42ce297f0c4f3542f0c8","656d9e5e2de4f984cfed7d4d","656d9ed52d90244628b2a5f8","2104","
            
        <div style=""text-align: center; position: fixed; top: 5vh; left: 40vw;"">
            <div style=""margin:0 auto; width: 20vw; top: 8vh; font-size: 2vw""> 
            <font color=""green""> Bonus : $0 </font>
            </div>
        </div>
    
            <div> Please press any key to continue to the next image.</div>
        ","arrowleft","ITI","","","","","","",""
"","","","","","html-keyboard-response","30","75360","0.0-4.0-1.5","610d42ce297f0c4f3542f0c8","656d9e5e2de4f984cfed7d4d","656d9ed52d90244628b2a5f8","null","
        
        <div style=""text-align: center; position: fixed; top: 5vh; left: 40vw;"">
            <div style=""margin:0 auto; width: 20vw; top: 8vh; font-size: 2vw""> 
            <font color=""green""> Bonus : $0 </font>
            </div>
        </div>
    
        <img class=""stim"" src=./stimuli//pack_shapes_1/cat_2/diff_1/ex_2_1_5.png></img>
    ","null","stimulus","","","","","","",""
"","","","","","html-keyboard-response","31","76365","0.0-4.0-2.5","610d42ce297f0c4f3542f0c8","656d9e5e2de4f984cfed7d4d","656d9ed52d90244628b2a5f8","null","
        <div style=""text-align: center; position: fixed; top: 5vh; left: 40vw;"">
            <div style=""margin:0 auto; width: 20vw; top: 8vh; font-size: 2vw""> 
            <font color=""green""> Bonus : $0 </font>
            </div>
        </div>
    ","null","","","","","","","",""
"","","","","","html-keyboard-response","32","77572","0.0-4.0-3.5","610d42ce297f0c4f3542f0c8","656d9e5e2de4f984cfed7d4d","656d9ed52d90244628b2a5f8","1205","./stimuli//pack_shapes_1/cat_2/diff_1/ex_2_1_5.png","arrowleft","response","ArrowRight","5","2","1","train","false",""
"","","","","","html-keyboard-response","33","79080","0.0-4.0-4.5","610d42ce297f0c4f3542f0c8","656d9e5e2de4f984cfed7d4d","656d9ed52d90244628b2a5f8","null","<p> <font color=""red"" size=""5vw""> Wrong category! </font> </p>","null","feedback","","","","","","","0"
"","","","","","html-keyboard-response","34","79990","0.0-4.0-0.6","610d42ce297f0c4f3542f0c8","656d9e5e2de4f984cfed7d4d","656d9ed52d90244628b2a5f8","908","
            
        <div style=""text-align: center; position: fixed; top: 5vh; left: 40vw;"">
            <div style=""margin:0 auto; width: 20vw; top: 8vh; font-size: 2vw""> 
            <font color=""green""> Bonus : $0 </font>
            </div>
        </div>
    
            <div> Please press any key to continue to the next image.</div>
        ","arrowleft","ITI","","","","","","",""
"","","","","","html-keyboard-response","35","80602","0.0-4.0-1.6","610d42ce297f0c4f3542f0c8","656d9e5e2de4f984cfed7d4d","656d9ed52d90244628b2a5f8","null","
        
        <div style=""text-align: center; position: fixed; top: 5vh; left: 40vw;"">
            <div style=""margin:0 auto; width: 20vw; top: 8vh; font-size: 2vw""> 
            <font color=""green""> Bonus : $0 </font>
            </div>
        </div>
    
        <img class=""stim"" src=./stimuli//pack_shapes_1/cat_2/diff_2/ex_2_2_7.png></img>
    ","null","stimulus","","","","","","",""
"","","","","","html-keyboard-response","36","81611","0.0-4.0-2.6","610d42ce297f0c4f3542f0c8","656d9e5e2de4f984cfed7d4d","656d9ed52d90244628b2a5f8","null","
        <div style=""text-align: center; position: fixed; top: 5vh; left: 40vw;"">
            <div style=""margin:0 auto; width: 20vw; top: 8vh; font-size: 2vw""> 
            <font color=""green""> Bonus : $0 </font>
            </div>
        </div>
    ","null","","","","","","","",""
"","","","","","html-keyboard-response","37","82911","0.0-4.0-3.6","610d42ce297f0c4f3542f0c8","656d9e5e2de4f984cfed7d4d","656d9ed52d90244628b2a5f8","1298","./stimuli//pack_shapes_1/cat_2/diff_2/ex_2_2_7.png","arrowleft","response","ArrowRight","7","2","2","train","false",""
"","","","","","html-keyboard-response","38","84426","0.0-4.0-4.6","610d42ce297f0c4f3542f0c8","656d9e5e2de4f984cfed7d4d","656d9ed52d90244628b2a5f8","null","<p> <font color=""red"" size=""5vw""> Wrong category! </font> </p>","null","feedback","","","","","","","0"
"","","","","","html-keyboard-response","39","85265","0.0-4.0-0.7","610d42ce297f0c4f3542f0c8","656d9e5e2de4f984cfed7d4d","656d9ed52d90244628b2a5f8","837","
            
        <div style=""text-align: center; position: fixed; top: 5vh; left: 40vw;"">
            <div style=""margin:0 auto; width: 20vw; top: 8vh; font-size: 2vw""> 
            <font color=""green""> Bonus : $0 </font>
            </div>
        </div>
    
            <div> Please press any key to continue to the next image.</div>
        ","arrowleft","ITI","","","","","","",""
"","","","","","html-keyboard-response","40","85880","0.0-4.0-1.7","610d42ce297f0c4f3542f0c8","656d9e5e2de4f984cfed7d4d","656d9ed52d90244628b2a5f8","null","
        
        <div style=""text-align: center; position: fixed; top: 5vh; left: 40vw;"">
            <div style=""margin:0 auto; width: 20vw; top: 8vh; font-size: 2vw""> 
            <font color=""green""> Bonus : $0 </font>
            </div>
        </div>
    
        <img class=""stim"" src=./stimuli//pack_shapes_1/cat_2/diff_2/ex_2_2_6.png></img>
    ","null","stimulus","","","","","","",""
"","","","","","html-keyboard-response","41","86883","0.0-4.0-2.7","610d42ce297f0c4f3542f0c8","656d9e5e2de4f984cfed7d4d","656d9ed52d90244628b2a5f8","null","
        <div style=""text-align: center; position: fixed; top: 5vh; left: 40vw;"">
            <div style=""margin:0 auto; width: 20vw; top: 8vh; font-size: 2vw""> 
            <font color=""green""> Bonus : $0 </font>
            </div>
        </div>
    ","null","","","","","","","",""
"","","","","","html-keyboard-response","42","87559","0.0-4.0-3.7","610d42ce297f0c4f3542f0c8","656d9e5e2de4f984cfed7d4d","656d9ed52d90244628b2a5f8","675","./stimuli//pack_shapes_1/cat_2/diff_2/ex_2_2_6.png","arrowright","response","ArrowRight","6","2","2","train","true",""
"","","","","","html-keyboard-response","43","89067","0.0-4.0-4.7","610d42ce297f0c4f3542f0c8","656d9e5e2de4f984cfed7d4d","656d9ed52d90244628b2a5f8","null","<p><font color=""green"" size=""5vw""> Correct category! </font></p>","null","feedback","","","","","","","0"
"","","","","","html-keyboard-response","44","90546","0.0-4.0-0.8","610d42ce297f0c4f3542f0c8","656d9e5e2de4f984cfed7d4d","656d9ed52d90244628b2a5f8","1478","
            
        <div style=""text-align: center; position: fixed; top: 5vh; left: 40vw;"">
            <div style=""margin:0 auto; width: 20vw; top: 8vh; font-size: 2vw""> 
            <font color=""green""> Bonus : $0 </font>
            </div>
        </div>
    
            <div> Please press any key to continue to the next image.</div>
        ","arrowleft","ITI","","","","","","",""
"","","","","","html-keyboard-response","45","91149","0.0-4.0-1.8","610d42ce297f0c4f3542f0c8","656d9e5e2de4f984cfed7d4d","656d9ed52d90244628b2a5f8","null","
        
        <div style=""text-align: center; position: fixed; top: 5vh; left: 40vw;"">
            <div style=""margin:0 auto; width: 20vw; top: 8vh; font-size: 2vw""> 
            <font color=""green""> Bonus : $0 </font>
            </div>
        </div>
    
        <img class=""stim"" src=./stimuli//pack_shapes_1/cat_1/diff_2/ex_1_2_7.png></img>
    ","null","stimulus","","","","","","",""
"","","","","","html-keyboard-response","46","92163","0.0-4.0-2.8","610d42ce297f0c4f3542f0c8","656d9e5e2de4f984cfed7d4d","656d9ed52d90244628b2a5f8","null","
        <div style=""text-align: center; position: fixed; top: 5vh; left: 40vw;"">
            <div style=""margin:0 auto; width: 20vw; top: 8vh; font-size: 2vw""> 
            <font color=""green""> Bonus : $0 </font>
            </div>
        </div>
    ","null","","","","","","","",""
"","","","","","html-keyboard-response","47","93347","0.0-4.0-3.8","610d42ce297f0c4f3542f0c8","656d9e5e2de4f984cfed7d4d","656d9ed52d90244628b2a5f8","1181","./stimuli//pack_shapes_1/cat_1/diff_2/ex_1_2_7.png","arrowleft","response","ArrowLeft","7","1","2","train","true",""
"","","","","","html-keyboard-response","48","94857","0.0-4.0-4.8","610d42ce297f0c4f3542f0c8","656d9e5e2de4f984cfed7d4d","656d9ed52d90244628b2a5f8","null","<p><font color=""green"" size=""5vw""> Correct category! </font></p>","null","feedback","","","","","","","0"
"","","","","","html-keyboard-response","49","95526","0.0-4.0-0.9","610d42ce297f0c4f3542f0c8","656d9e5e2de4f984cfed7d4d","656d9ed52d90244628b2a5f8","667","
            
        <div style=""text-align: center; position: fixed; top: 5vh; left: 40vw;"">
            <div style=""margin:0 auto; width: 20vw; top: 8vh; font-size: 2vw""> 
            <font color=""green""> Bonus : $0 </font>
            </div>
        </div>
    
            <div> Please press any key to continue to the next image.</div>
        ","arrowleft","ITI","","","","","","",""
"","","","","","html-keyboard-response","50","96130","0.0-4.0-1.9","610d42ce297f0c4f3542f0c8","656d9e5e2de4f984cfed7d4d","656d9ed52d90244628b2a5f8","null","
        
        <div style=""text-align: center; position: fixed; top: 5vh; left: 40vw;"">
            <div style=""margin:0 auto; width: 20vw; top: 8vh; font-size: 2vw""> 
            <font color=""green""> Bonus : $0 </font>
            </div>
        </div>
    
        <img class=""stim"" src=./stimuli//pack_shapes_1/cat_1/diff_1/ex_1_1_1.png></img>
    ","null","stimulus","","","","","","",""
"","","","","","html-keyboard-response","51","97136","0.0-4.0-2.9","610d42ce297f0c4f3542f0c8","656d9e5e2de4f984cfed7d4d","656d9ed52d90244628b2a5f8","null","
        <div style=""text-align: center; position: fixed; top: 5vh; left: 40vw;"">
            <div style=""margin:0 auto; width: 20vw; top: 8vh; font-size: 2vw""> 
            <font color=""green""> Bonus : $0 </font>
            </div>
        </div>
    ","null","","","","","","","",""
"","","","","","html-keyboard-response","52","97894","0.0-4.0-3.9","610d42ce297f0c4f3542f0c8","656d9e5e2de4f984cfed7d4d","656d9ed52d90244628b2a5f8","756","./stimuli//pack_shapes_1/cat_1/diff_1/ex_1_1_1.png","arrowleft","response","ArrowLeft","1","1","1","train","true",""
"","","","","","html-keyboard-response","53","99399","0.0-4.0-4.9","610d42ce297f0c4f3542f0c8","656d9e5e2de4f984cfed7d4d","656d9ed52d90244628b2a5f8","null","<p><font color=""green"" size=""5vw""> Correct category! </font></p>","null","feedback","","","","","","","0"
"","","","","","html-keyboard-response","54","101725","0.0-5.0","610d42ce297f0c4f3542f0c8","656d9e5e2de4f984cfed7d4d","656d9ed52d90244628b2a5f8","2324","
            <b> <p> The practice round has finished.</p>
            <p> For the rest of the experiment you will receive a $0.05 bonus for each correct answer and lose $0.05 from your bonus for each incorrect answer!</p>
            <p> The bonus can not become less than $0. </b>
            <p> Press any key to begin the test. </p>
            "," ","intermission","","","","","","",""
"","","","","","html-keyboard-response","55","103217","0.0-6.0-0.0","610d42ce297f0c4f3542f0c8","656d9e5e2de4f984cfed7d4d","656d9ed52d90244628b2a5f8","1490","
            
        <div style=""text-align: center; position: fixed; top: 5vh; left: 40vw;"">
            <div style=""margin:0 auto; width: 20vw; top: 8vh; font-size: 2vw""> 
            <font color=""green""> Bonus : $0 </font>
            </div>
        </div>
    
            <div> Please press any key to continue to the next image.</div>
        ","arrowleft","ITI","","","","","","",""
"","","","","","html-keyboard-response","56","103822","0.0-6.0-1.0","610d42ce297f0c4f3542f0c8","656d9e5e2de4f984cfed7d4d","656d9ed52d90244628b2a5f8","null","
        
        <div style=""text-align: center; position: fixed; top: 5vh; left: 40vw;"">
            <div style=""margin:0 auto; width: 20vw; top: 8vh; font-size: 2vw""> 
            <font color=""green""> Bonus : $0 </font>
            </div>
        </div>
    
        <img class=""stim"" src=./stimuli//pack_shapes_1/cat_1/diff_1/ex_1_1_3.png></img>
    ","null","stimulus","","","","","","",""
"","","","","","html-keyboard-response","57","104836","0.0-6.0-2.0","610d42ce297f0c4f3542f0c8","656d9e5e2de4f984cfed7d4d","656d9ed52d90244628b2a5f8","null","
        <div style=""text-align: center; position: fixed; top: 5vh; left: 40vw;"">
            <div style=""margin:0 auto; width: 20vw; top: 8vh; font-size: 2vw""> 
            <font color=""green""> Bonus : $0 </font>
            </div>
        </div>
    ","null","","","","","","","",""
"","","","","","html-keyboard-response","58","105257","0.0-6.0-3.0","610d42ce297f0c4f3542f0c8","656d9e5e2de4f984cfed7d4d","656d9ed52d90244628b2a5f8","420","./stimuli//pack_shapes_1/cat_1/diff_1/ex_1_1_3.png","arrowright","response","ArrowLeft","3","1","1","test","false",""
"","","","","","html-keyboard-response","59","106772","0.0-6.0-4.0","610d42ce297f0c4f3542f0c8","656d9e5e2de4f984cfed7d4d","656d9ed52d90244628b2a5f8","null","<p> <font color=""red"" size=""5vw""> Wrong category! </font> </p>","null","feedback","","","","","","","0"
"","","","","","html-keyboard-response","60","107502","0.0-6.1-0.1","610d42ce297f0c4f3542f0c8","656d9e5e2de4f984cfed7d4d","656d9ed52d90244628b2a5f8","728","
            
        <div style=""text-align: center; position: fixed; top: 5vh; left: 40vw;"">
            <div style=""margin:0 auto; width: 20vw; top: 8vh; font-size: 2vw""> 
            <font color=""green""> Bonus : $0 </font>
            </div>
        </div>
    
            <div> Please press any key to continue to the next image.</div>
        ","arrowleft","ITI","","","","","","",""
"","","","","","html-keyboard-response","61","108114","0.0-6.1-1.1","610d42ce297f0c4f3542f0c8","656d9e5e2de4f984cfed7d4d","656d9ed52d90244628b2a5f8","null","
        
        <div style=""text-align: center; position: fixed; top: 5vh; left: 40vw;"">
            <div style=""margin:0 auto; width: 20vw; top: 8vh; font-size: 2vw""> 
            <font color=""green""> Bonus : $0 </font>
            </div>
        </div>
    
        <img class=""stim"" src=./stimuli//pack_shapes_1/cat_2/diff_1/ex_2_1_12.png></img>
    ","null","stimulus","","","","","","",""
"","","","","","html-keyboard-response","62","109127","0.0-6.1-2.1","610d42ce297f0c4f3542f0c8","656d9e5e2de4f984cfed7d4d","656d9ed52d90244628b2a5f8","null","
        <div style=""text-align: center; position: fixed; top: 5vh; left: 40vw;"">
            <div style=""margin:0 auto; width: 20vw; top: 8vh; font-size: 2vw""> 
            <font color=""green""> Bonus : $0 </font>
            </div>
        </div>
    ","null","","","","","","","",""
"","","","","","html-keyboard-response","63","109640","0.0-6.1-3.1","610d42ce297f0c4f3542f0c8","656d9e5e2de4f984cfed7d4d","656d9ed52d90244628b2a5f8","510","./stimuli//pack_shapes_1/cat_2/diff_1/ex_2_1_12.png","arrowleft","response","ArrowRight","12","2","1","test","false",""
"","","","","","html-keyboard-response","64","111144","0.0-6.1-4.1","610d42ce297f0c4f3542f0c8","656d9e5e2de4f984cfed7d4d","656d9ed52d90244628b2a5f8","null","<p> <font color=""red"" size=""5vw""> Wrong category! </font> </p>","null","feedback","","","","","","","0"
"","","","","","html-keyboard-response","65","111739","0.0-6.2-0.2","610d42ce297f0c4f3542f0c8","656d9e5e2de4f984cfed7d4d","656d9ed52d90244628b2a5f8","593","
            
        <div style=""text-align: center; position: fixed; top: 5vh; left: 40vw;"">
            <div style=""margin:0 auto; width: 20vw; top: 8vh; font-size: 2vw""> 
            <font color=""green""> Bonus : $0 </font>
            </div>
        </div>
    
            <div> Please press any key to continue to the next image.</div>
        ","arrowleft","ITI","","","","","","",""
"","","","","","html-keyboard-response","66","112353","0.0-6.2-1.2","610d42ce297f0c4f3542f0c8","656d9e5e2de4f984cfed7d4d","656d9ed52d90244628b2a5f8","null","
        
        <div style=""text-align: center; position: fixed; top: 5vh; left: 40vw;"">
            <div style=""margin:0 auto; width: 20vw; top: 8vh; font-size: 2vw""> 
            <font color=""green""> Bonus : $0 </font>
            </div>
        </div>
    
        <img class=""stim"" src=./stimuli//pack_shapes_1/cat_1/diff_1/ex_1_1_7.png></img>
    ","null","stimulus","","","","","","",""
"","","","","","html-keyboard-response","67","113362","0.0-6.2-2.2","610d42ce297f0c4f3542f0c8","656d9e5e2de4f984cfed7d4d","656d9ed52d90244628b2a5f8","null","
        <div style=""text-align: center; position: fixed; top: 5vh; left: 40vw;"">
            <div style=""margin:0 auto; width: 20vw; top: 8vh; font-size: 2vw""> 
            <font color=""green""> Bonus : $0 </font>
            </div>
        </div>
    ","null","","","","","","","",""
"","","","","","html-keyboard-response","68","113470","0.0-6.2-3.2","610d42ce297f0c4f3542f0c8","656d9e5e2de4f984cfed7d4d","656d9ed52d90244628b2a5f8","106","./stimuli//pack_shapes_1/cat_1/diff_1/ex_1_1_7.png","arrowleft","response","ArrowLeft","7","1","1","test","true",""
"","","","","","html-keyboard-response","69","114976","0.0-6.2-4.2","610d42ce297f0c4f3542f0c8","656d9e5e2de4f984cfed7d4d","656d9ed52d90244628b2a5f8","null","<p> <font color=""green"" size=""5vw""> Correct category! </font> <br> <br> <font color=""green"" size=""8vw""> + $0.05 </font> </p>","null","feedback","","","","","","","0.05"
"","","","","","html-keyboard-response","70","115941","0.0-6.3-0.3","610d42ce297f0c4f3542f0c8","656d9e5e2de4f984cfed7d4d","656d9ed52d90244628b2a5f8","962","
            
        <div style=""text-align: center; position: fixed; top: 5vh; left: 40vw;"">
            <div style=""margin:0 auto; width: 20vw; top: 8vh; font-size: 2vw""> 
            <font color=""green""> Bonus : $0.05 </font>
            </div>
        </div>
    
            <div> Please press any key to continue to the next image.</div>
        ","arrowleft","ITI","","","","","","",""
"","","","","","html-keyboard-response","71","116550","0.0-6.3-1.3","610d42ce297f0c4f3542f0c8","656d9e5e2de4f984cfed7d4d","656d9ed52d90244628b2a5f8","null","
        
        <div style=""text-align: center; position: fixed; top: 5vh; left: 40vw;"">
            <div style=""margin:0 auto; width: 20vw; top: 8vh; font-size: 2vw""> 
            <font color=""green""> Bonus : $0.05 </font>
            </div>
        </div>
    
        <img class=""stim"" src=./stimuli//pack_shapes_1/cat_1/diff_1/ex_1_1_17.png></img>
    ","null","stimulus","","","","","","",""
"","","","","","html-keyboard-response","72","117559","0.0-6.3-2.3","610d42ce297f0c4f3542f0c8","656d9e5e2de4f984cfed7d4d","656d9ed52d90244628b2a5f8","null","
        <div style=""text-align: center; position: fixed; top: 5vh; left: 40vw;"">
            <div style=""margin:0 auto; width: 20vw; top: 8vh; font-size: 2vw""> 
            <font color=""green""> Bonus : $0.05 </font>
            </div>
        </div>
    ","null","","","","","","","",""
"","","","","","html-keyboard-response","73","118179","0.0-6.3-3.3","610d42ce297f0c4f3542f0c8","656d9e5e2de4f984cfed7d4d","656d9ed52d90244628b2a5f8","618","./stimuli//pack_shapes_1/cat_1/diff_1/ex_1_1_17.png","arrowright","response","ArrowLeft","17","1","1","test","false",""
"","","","","","html-keyboard-response","74","119689","0.0-6.3-4.3","610d42ce297f0c4f3542f0c8","656d9e5e2de4f984cfed7d4d","656d9ed52d90244628b2a5f8","null","<p> <font color=""red"" size=""5vw""> Wrong category! </font> <br> <br> <font color=""red"" size=""8vw""> - $0.05 </font> </p>","null","feedback","","","","","","","0"
"","","","","","html-keyboard-response","75","120503","0.0-6.4-0.4","610d42ce297f0c4f3542f0c8","656d9e5e2de4f984cfed7d4d","656d9ed52d90244628b2a5f8","811","
            
        <div style=""text-align: center; position: fixed; top: 5vh; left: 40vw;"">
            <div style=""margin:0 auto; width: 20vw; top: 8vh; font-size: 2vw""> 
            <font color=""green""> Bonus : $0 </font>
            </div>
        </div>
    
            <div> Please press any key to continue to the next image.</div>
        ","arrowleft","ITI","","","","","","",""
"","","","","","html-keyboard-response","76","121118","0.0-6.4-1.4","610d42ce297f0c4f3542f0c8","656d9e5e2de4f984cfed7d4d","656d9ed52d90244628b2a5f8","null","
        
        <div style=""text-align: center; position: fixed; top: 5vh; left: 40vw;"">
            <div style=""margin:0 auto; width: 20vw; top: 8vh; font-size: 2vw""> 
            <font color=""green""> Bonus : $0 </font>
            </div>
        </div>
    
        <img class=""stim"" src=./stimuli//pack_shapes_1/cat_2/diff_1/ex_2_1_15.png></img>
    ","null","stimulus","","","","","","",""
"","","","","","html-keyboard-response","77","122121","0.0-6.4-2.4","610d42ce297f0c4f3542f0c8","656d9e5e2de4f984cfed7d4d","656d9ed52d90244628b2a5f8","null","
        <div style=""text-align: center; position: fixed; top: 5vh; left: 40vw;"">
            <div style=""margin:0 auto; width: 20vw; top: 8vh; font-size: 2vw""> 
            <font color=""green""> Bonus : $0 </font>
            </div>
        </div>
    ","null","","","","","","","",""
"","","","","","html-keyboard-response","78","122679","0.0-6.4-3.4","610d42ce297f0c4f3542f0c8","656d9e5e2de4f984cfed7d4d","656d9ed52d90244628b2a5f8","556","./stimuli//pack_shapes_1/cat_2/diff_1/ex_2_1_15.png","arrowright","response","ArrowRight","15","2","1","test","true",""
"","","","","","html-keyboard-response","79","124182","0.0-6.4-4.4","610d42ce297f0c4f3542f0c8","656d9e5e2de4f984cfed7d4d","656d9ed52d90244628b2a5f8","null","<p> <font color=""green"" size=""5vw""> Correct category! </font> <br> <br> <font color=""green"" size=""8vw""> + $0.05 </font> </p>","null","feedback","","","","","","","0.05"
"","","","","","html-keyboard-response","80","124923","0.0-6.5-0.5","610d42ce297f0c4f3542f0c8","656d9e5e2de4f984cfed7d4d","656d9ed52d90244628b2a5f8","739","
            
        <div style=""text-align: center; position: fixed; top: 5vh; left: 40vw;"">
            <div style=""margin:0 auto; width: 20vw; top: 8vh; font-size: 2vw""> 
            <font color=""green""> Bonus : $0.05 </font>
            </div>
        </div>
    
            <div> Please press any key to continue to the next image.</div>
        ","arrowleft","ITI","","","","","","",""
"","","","","","html-keyboard-response","81","125534","0.0-6.5-1.5","610d42ce297f0c4f3542f0c8","656d9e5e2de4f984cfed7d4d","656d9ed52d90244628b2a5f8","null","
        
        <div style=""text-align: center; position: fixed; top: 5vh; left: 40vw;"">
            <div style=""margin:0 auto; width: 20vw; top: 8vh; font-size: 2vw""> 
            <font color=""green""> Bonus : $0.05 </font>
            </div>
        </div>
    
        <img class=""stim"" src=./stimuli//pack_shapes_1/cat_2/diff_1/ex_2_1_7.png></img>
    ","null","stimulus","","","","","","",""
"","","","","","html-keyboard-response","82","126540","0.0-6.5-2.5","610d42ce297f0c4f3542f0c8","656d9e5e2de4f984cfed7d4d","656d9ed52d90244628b2a5f8","null","
        <div style=""text-align: center; position: fixed; top: 5vh; left: 40vw;"">
            <div style=""margin:0 auto; width: 20vw; top: 8vh; font-size: 2vw""> 
            <font color=""green""> Bonus : $0.05 </font>
            </div>
        </div>
    ","null","","","","","","","",""
"","","","","","html-keyboard-response","83","126923","0.0-6.5-3.5","610d42ce297f0c4f3542f0c8","656d9e5e2de4f984cfed7d4d","656d9ed52d90244628b2a5f8","380","./stimuli//pack_shapes_1/cat_2/diff_1/ex_2_1_7.png","arrowright","response","ArrowRight","7","2","1","test","true",""
"","","","","","html-keyboard-response","84","128433","0.0-6.5-4.5","610d42ce297f0c4f3542f0c8","656d9e5e2de4f984cfed7d4d","656d9ed52d90244628b2a5f8","null","<p> <font color=""green"" size=""5vw""> Correct category! </font> <br> <br> <font color=""green"" size=""8vw""> + $0.05 </font> </p>","null","feedback","","","","","","","0.1"
"","","","","","html-keyboard-response","85","129092","0.0-6.6-0.6","610d42ce297f0c4f3542f0c8","656d9e5e2de4f984cfed7d4d","656d9ed52d90244628b2a5f8","655","
            
        <div style=""text-align: center; position: fixed; top: 5vh; left: 40vw;"">
            <div style=""margin:0 auto; width: 20vw; top: 8vh; font-size: 2vw""> 
            <font color=""green""> Bonus : $0.1 </font>
            </div>
        </div>
    
            <div> Please press any key to continue to the next image.</div>
        ","arrowright","ITI","","","","","","",""
"","","","","","html-keyboard-response","86","129704","0.0-6.6-1.6","610d42ce297f0c4f3542f0c8","656d9e5e2de4f984cfed7d4d","656d9ed52d90244628b2a5f8","null","
        
        <div style=""text-align: center; position: fixed; top: 5vh; left: 40vw;"">
            <div style=""margin:0 auto; width: 20vw; top: 8vh; font-size: 2vw""> 
            <font color=""green""> Bonus : $0.1 </font>
            </div>
        </div>
    
        <img class=""stim"" src=./stimuli//pack_shapes_1/cat_2/diff_1/ex_2_1_17.png></img>
    ","null","stimulus","","","","","","",""
"","","","","","html-keyboard-response","87","130715","0.0-6.6-2.6","610d42ce297f0c4f3542f0c8","656d9e5e2de4f984cfed7d4d","656d9ed52d90244628b2a5f8","null","
        <div style=""text-align: center; position: fixed; top: 5vh; left: 40vw;"">
            <div style=""margin:0 auto; width: 20vw; top: 8vh; font-size: 2vw""> 
            <font color=""green""> Bonus : $0.1 </font>
            </div>
        </div>
    ","null","","","","","","","",""
"","","","","","html-keyboard-response","88","131467","0.0-6.6-3.6","610d42ce297f0c4f3542f0c8","656d9e5e2de4f984cfed7d4d","656d9ed52d90244628b2a5f8","749","./stimuli//pack_shapes_1/cat_2/diff_1/ex_2_1_17.png","arrowright","response","ArrowRight","17","2","1","test","true",""
"","","","","","html-keyboard-response","89","132977","0.0-6.6-4.6","610d42ce297f0c4f3542f0c8","656d9e5e2de4f984cfed7d4d","656d9ed52d90244628b2a5f8","null","<p> <font color=""green"" size=""5vw""> Correct category! </font> <br> <br> <font color=""green"" size=""8vw""> + $0.05 </font> </p>","null","feedback","","","","","","","0.15"
"","","","","","html-keyboard-response","90","133607","0.0-6.7-0.7","610d42ce297f0c4f3542f0c8","656d9e5e2de4f984cfed7d4d","656d9ed52d90244628b2a5f8","629","
            
        <div style=""text-align: center; position: fixed; top: 5vh; left: 40vw;"">
            <div style=""margin:0 auto; width: 20vw; top: 8vh; font-size: 2vw""> 
            <font color=""green""> Bonus : $0.15 </font>
            </div>
        </div>
    
            <div> Please press any key to continue to the next image.</div>
        ","arrowleft","ITI","","","","","","",""
"","","","","","html-keyboard-response","91","134219","0.0-6.7-1.7","610d42ce297f0c4f3542f0c8","656d9e5e2de4f984cfed7d4d","656d9ed52d90244628b2a5f8","null","
        
        <div style=""text-align: center; position: fixed; top: 5vh; left: 40vw;"">
            <div style=""margin:0 auto; width: 20vw; top: 8vh; font-size: 2vw""> 
            <font color=""green""> Bonus : $0.15 </font>
            </div>
        </div>
    
        <img class=""stim"" src=./stimuli//pack_shapes_1/cat_1/diff_2/ex_1_2_16.png></img>
    ","null","stimulus","","","","","","",""
"","","","","","html-keyboard-response","92","135227","0.0-6.7-2.7","610d42ce297f0c4f3542f0c8","656d9e5e2de4f984cfed7d4d","656d9ed52d90244628b2a5f8","null","
        <div style=""text-align: center; position: fixed; top: 5vh; left: 40vw;"">
            <div style=""margin:0 auto; width: 20vw; top: 8vh; font-size: 2vw""> 
            <font color=""green""> Bonus : $0.15 </font>
            </div>
        </div>
    ","null","","","","","","","",""
"","","","","","html-keyboard-response","93","135903","0.0-6.7-3.7","610d42ce297f0c4f3542f0c8","656d9e5e2de4f984cfed7d4d","656d9ed52d90244628b2a5f8","673","./stimuli//pack_shapes_1/cat_1/diff_2/ex_1_2_16.png","arrowleft","response","ArrowLeft","16","1","2","test","true",""
"","","","","","html-keyboard-response","94","137417","0.0-6.7-4.7","610d42ce297f0c4f3542f0c8","656d9e5e2de4f984cfed7d4d","656d9ed52d90244628b2a5f8","null","<p> <font color=""green"" size=""5vw""> Correct category! </font> <br> <br> <font color=""green"" size=""8vw""> + $0.05 </font> </p>","null","feedback","","","","","","","0.2"
"","","","","","html-keyboard-response","95","138041","0.0-6.8-0.8","610d42ce297f0c4f3542f0c8","656d9e5e2de4f984cfed7d4d","656d9ed52d90244628b2a5f8","622","
            
        <div style=""text-align: center; position: fixed; top: 5vh; left: 40vw;"">
            <div style=""margin:0 auto; width: 20vw; top: 8vh; font-size: 2vw""> 
            <font color=""green""> Bonus : $0.2 </font>
            </div>
        </div>
    
            <div> Please press any key to continue to the next image.</div>
        ","arrowleft","ITI","","","","","","",""
"","","","","","html-keyboard-response","96","138649","0.0-6.8-1.8","610d42ce297f0c4f3542f0c8","656d9e5e2de4f984cfed7d4d","656d9ed52d90244628b2a5f8","null","
        
        <div style=""text-align: center; position: fixed; top: 5vh; left: 40vw;"">
            <div style=""margin:0 auto; width: 20vw; top: 8vh; font-size: 2vw""> 
            <font color=""green""> Bonus : $0.2 </font>
            </div>
        </div>
    
        <img class=""stim"" src=./stimuli//pack_shapes_1/cat_2/diff_2/ex_2_2_2.png></img>
    ","null","stimulus","","","","","","",""
"","","","","","html-keyboard-response","97","139653","0.0-6.8-2.8","610d42ce297f0c4f3542f0c8","656d9e5e2de4f984cfed7d4d","656d9ed52d90244628b2a5f8","null","
        <div style=""text-align: center; position: fixed; top: 5vh; left: 40vw;"">
            <div style=""margin:0 auto; width: 20vw; top: 8vh; font-size: 2vw""> 
            <font color=""green""> Bonus : $0.2 </font>
            </div>
        </div>
    ","null","","","","","","","",""
"","","","","","html-keyboard-response","98","140947","0.0-6.8-3.8","610d42ce297f0c4f3542f0c8","656d9e5e2de4f984cfed7d4d","656d9ed52d90244628b2a5f8","1292","./stimuli//pack_shapes_1/cat_2/diff_2/ex_2_2_2.png","arrowleft","response","ArrowRight","2","2","2","test","false",""
"","","","","","html-keyboard-response","99","142464","0.0-6.8-4.8","610d42ce297f0c4f3542f0c8","656d9e5e2de4f984cfed7d4d","656d9ed52d90244628b2a5f8","null","<p> <font color=""red"" size=""5vw""> Wrong category! </font> <br> <br> <font color=""red"" size=""8vw""> - $0.05 </font> </p>","null","feedback","","","","","","","0.15"
"","","","","","html-keyboard-response","100","143389","0.0-6.9-0.9","610d42ce297f0c4f3542f0c8","656d9e5e2de4f984cfed7d4d","656d9ed52d90244628b2a5f8","923","
            
        <div style=""text-align: center; position: fixed; top: 5vh; left: 40vw;"">
            <div style=""margin:0 auto; width: 20vw; top: 8vh; font-size: 2vw""> 
            <font color=""green""> Bonus : $0.15 </font>
            </div>
        </div>
    
            <div> Please press any key to continue to the next image.</div>
        ","arrowleft","ITI","","","","","","",""
"","","","","","html-keyboard-response","101","143999","0.0-6.9-1.9","610d42ce297f0c4f3542f0c8","656d9e5e2de4f984cfed7d4d","656d9ed52d90244628b2a5f8","null","
        
        <div style=""text-align: center; position: fixed; top: 5vh; left: 40vw;"">
            <div style=""margin:0 auto; width: 20vw; top: 8vh; font-size: 2vw""> 
            <font color=""green""> Bonus : $0.15 </font>
            </div>
        </div>
    
        <img class=""stim"" src=./stimuli//pack_shapes_1/cat_1/diff_2/ex_1_2_17.png></img>
    ","null","stimulus","","","","","","",""
"","","","","","html-keyboard-response","102","145014","0.0-6.9-2.9","610d42ce297f0c4f3542f0c8","656d9e5e2de4f984cfed7d4d","656d9ed52d90244628b2a5f8","null","
        <div style=""text-align: center; position: fixed; top: 5vh; left: 40vw;"">
            <div style=""margin:0 auto; width: 20vw; top: 8vh; font-size: 2vw""> 
            <font color=""green""> Bonus : $0.15 </font>
            </div>
        </div>
    ","null","","","","","","","",""
"","","","","","html-keyboard-response","103","145532","0.0-6.9-3.9","610d42ce297f0c4f3542f0c8","656d9e5e2de4f984cfed7d4d","656d9ed52d90244628b2a5f8","516","./stimuli//pack_shapes_1/cat_1/diff_2/ex_1_2_17.png","arrowright","response","ArrowLeft","17","1","2","test","false",""
"","","","","","html-keyboard-response","104","147036","0.0-6.9-4.9","610d42ce297f0c4f3542f0c8","656d9e5e2de4f984cfed7d4d","656d9ed52d90244628b2a5f8","null","<p> <font color=""red"" size=""5vw""> Wrong category! </font> <br> <br> <font color=""red"" size=""8vw""> - $0.05 </font> </p>","null","feedback","","","","","","","0.1"
"","","","","","html-keyboard-response","105","147695","0.0-6.10-0.10","610d42ce297f0c4f3542f0c8","656d9e5e2de4f984cfed7d4d","656d9ed52d90244628b2a5f8","657","
            
        <div style=""text-align: center; position: fixed; top: 5vh; left: 40vw;"">
            <div style=""margin:0 auto; width: 20vw; top: 8vh; font-size: 2vw""> 
            <font color=""green""> Bonus : $0.1 </font>
            </div>
        </div>
    
            <div> Please press any key to continue to the next image.</div>
        ","arrowleft","ITI","","","","","","",""
"","","","","","html-keyboard-response","106","148304","0.0-6.10-1.10","610d42ce297f0c4f3542f0c8","656d9e5e2de4f984cfed7d4d","656d9ed52d90244628b2a5f8","null","
        
        <div style=""text-align: center; position: fixed; top: 5vh; left: 40vw;"">
            <div style=""margin:0 auto; width: 20vw; top: 8vh; font-size: 2vw""> 
            <font color=""green""> Bonus : $0.1 </font>
            </div>
        </div>
    
        <img class=""stim"" src=./stimuli//pack_shapes_1/cat_2/diff_2/ex_2_2_2.png></img>
    ","null","stimulus","","","","","","",""
"","","","","","html-keyboard-response","107","149312","0.0-6.10-2.10","610d42ce297f0c4f3542f0c8","656d9e5e2de4f984cfed7d4d","656d9ed52d90244628b2a5f8","null","
        <div style=""text-align: center; position: fixed; top: 5vh; left: 40vw;"">
            <div style=""margin:0 auto; width: 20vw; top: 8vh; font-size: 2vw""> 
            <font color=""green""> Bonus : $0.1 </font>
            </div>
        </div>
    ","null","","","","","","","",""
"","","","","","html-keyboard-response","108","150522","0.0-6.10-3.10","610d42ce297f0c4f3542f0c8","656d9e5e2de4f984cfed7d4d","656d9ed52d90244628b2a5f8","1207","./stimuli//pack_shapes_1/cat_2/diff_2/ex_2_2_2.png","arrowleft","response","ArrowRight","2","2","2","test","false",""
"","","","","","html-keyboard-response","109","152039","0.0-6.10-4.10","610d42ce297f0c4f3542f0c8","656d9e5e2de4f984cfed7d4d","656d9ed52d90244628b2a5f8","null","<p> <font color=""red"" size=""5vw""> Wrong category! </font> <br> <br> <font color=""red"" size=""8vw""> - $0.05 </font> </p>","null","feedback","","","","","","","0.05"
"","","","","","html-keyboard-response","110","152827","0.0-6.11-0.11","610d42ce297f0c4f3542f0c8","656d9e5e2de4f984cfed7d4d","656d9ed52d90244628b2a5f8","786","
            
        <div style=""text-align: center; position: fixed; top: 5vh; left: 40vw;"">
            <div style=""margin:0 auto; width: 20vw; top: 8vh; font-size: 2vw""> 
            <font color=""green""> Bonus : $0.05 </font>
            </div>
        </div>
    
            <div> Please press any key to continue to the next image.</div>
        ","arrowleft","ITI","","","","","","",""
"","","","","","html-keyboard-response","111","153441","0.0-6.11-1.11","610d42ce297f0c4f3542f0c8","656d9e5e2de4f984cfed7d4d","656d9ed52d90244628b2a5f8","null","
        
        <div style=""text-align: center; position: fixed; top: 5vh; left: 40vw;"">
            <div style=""margin:0 auto; width: 20vw; top: 8vh; font-size: 2vw""> 
            <font color=""green""> Bonus : $0.05 </font>
            </div>
        </div>
    
        <img class=""stim"" src=./stimuli//pack_shapes_1/cat_1/diff_2/ex_1_2_5.png></img>
    ","null","stimulus","","","","","","",""
"","","","","","html-keyboard-response","112","154451","0.0-6.11-2.11","610d42ce297f0c4f3542f0c8","656d9e5e2de4f984cfed7d4d","656d9ed52d90244628b2a5f8","null","
        <div style=""text-align: center; position: fixed; top: 5vh; left: 40vw;"">
            <div style=""margin:0 auto; width: 20vw; top: 8vh; font-size: 2vw""> 
            <font color=""green""> Bonus : $0.05 </font>
            </div>
        </div>
    ","null","","","","","","","",""
"","","","","","html-keyboard-response","113","155020","0.0-6.11-3.11","610d42ce297f0c4f3542f0c8","656d9e5e2de4f984cfed7d4d","656d9ed52d90244628b2a5f8","567","./stimuli//pack_shapes_1/cat_1/diff_2/ex_1_2_5.png","arrowleft","response","ArrowLeft","5","1","2","test","true",""
"","","","","","html-keyboard-response","114","156533","0.0-6.11-4.11","610d42ce297f0c4f3542f0c8","656d9e5e2de4f984cfed7d4d","656d9ed52d90244628b2a5f8","null","<p> <font color=""green"" size=""5vw""> Correct category! </font> <br> <br> <font color=""green"" size=""8vw""> + $0.05 </font> </p>","null","feedback","","","","","","","0.1"
"","","","","","html-keyboard-response","115","157421","0.0-6.12-0.12","610d42ce297f0c4f3542f0c8","656d9e5e2de4f984cfed7d4d","656d9ed52d90244628b2a5f8","887","
            
        <div style=""text-align: center; position: fixed; top: 5vh; left: 40vw;"">
            <div style=""margin:0 auto; width: 20vw; top: 8vh; font-size: 2vw""> 
            <font color=""green""> Bonus : $0.1 </font>
            </div>
        </div>
    
            <div> Please press any key to continue to the next image.</div>
        ","arrowleft","ITI","","","","","","",""
"","","","","","html-keyboard-response","116","158030","0.0-6.12-1.12","610d42ce297f0c4f3542f0c8","656d9e5e2de4f984cfed7d4d","656d9ed52d90244628b2a5f8","null","
        
        <div style=""text-align: center; position: fixed; top: 5vh; left: 40vw;"">
            <div style=""margin:0 auto; width: 20vw; top: 8vh; font-size: 2vw""> 
            <font color=""green""> Bonus : $0.1 </font>
            </div>
        </div>
    
        <img class=""stim"" src=./stimuli//pack_shapes_1/cat_1/diff_1/ex_1_1_8.png></img>
    ","null","stimulus","","","","","","",""
"","","","","","html-keyboard-response","117","159040","0.0-6.12-2.12","610d42ce297f0c4f3542f0c8","656d9e5e2de4f984cfed7d4d","656d9ed52d90244628b2a5f8","null","
        <div style=""text-align: center; position: fixed; top: 5vh; left: 40vw;"">
            <div style=""margin:0 auto; width: 20vw; top: 8vh; font-size: 2vw""> 
            <font color=""green""> Bonus : $0.1 </font>
            </div>
        </div>
    ","null","","","","","","","",""
"","","","","","html-keyboard-response","118","159050","0.0-6.12-3.12","610d42ce297f0c4f3542f0c8","656d9e5e2de4f984cfed7d4d","656d9ed52d90244628b2a5f8","8","./stimuli//pack_shapes_1/cat_1/diff_1/ex_1_1_8.png","arrowright","response","ArrowLeft","8","1","1","test","false",""
"","","","","","html-keyboard-response","119","160564","0.0-6.12-4.12","610d42ce297f0c4f3542f0c8","656d9e5e2de4f984cfed7d4d","656d9ed52d90244628b2a5f8","null","<p> <font color=""red"" size=""5vw""> Wrong category! </font> <br> <br> <font color=""red"" size=""8vw""> - $0.05 </font> </p>","null","feedback","","","","","","","0.05"
"","","","","","html-keyboard-response","120","160987","0.0-6.13-0.13","610d42ce297f0c4f3542f0c8","656d9e5e2de4f984cfed7d4d","656d9ed52d90244628b2a5f8","422","
            
        <div style=""text-align: center; position: fixed; top: 5vh; left: 40vw;"">
            <div style=""margin:0 auto; width: 20vw; top: 8vh; font-size: 2vw""> 
            <font color=""green""> Bonus : $0.05 </font>
            </div>
        </div>
    
            <div> Please press any key to continue to the next image.</div>
        ","arrowleft","ITI","","","","","","",""
"","","","","","html-keyboard-response","121","161599","0.0-6.13-1.13","610d42ce297f0c4f3542f0c8","656d9e5e2de4f984cfed7d4d","656d9ed52d90244628b2a5f8","null","
        
        <div style=""text-align: center; position: fixed; top: 5vh; left: 40vw;"">
            <div style=""margin:0 auto; width: 20vw; top: 8vh; font-size: 2vw""> 
            <font color=""green""> Bonus : $0.05 </font>
            </div>
        </div>
    
        <img class=""stim"" src=./stimuli//pack_shapes_1/cat_1/diff_1/ex_1_1_14.png></img>
    ","null","stimulus","","","","","","",""
"","","","","","html-keyboard-response","122","162608","0.0-6.13-2.13","610d42ce297f0c4f3542f0c8","656d9e5e2de4f984cfed7d4d","656d9ed52d90244628b2a5f8","null","
        <div style=""text-align: center; position: fixed; top: 5vh; left: 40vw;"">
            <div style=""margin:0 auto; width: 20vw; top: 8vh; font-size: 2vw""> 
            <font color=""green""> Bonus : $0.05 </font>
            </div>
        </div>
    ","null","","","","","","","",""
"","","","","","html-keyboard-response","123","162990","0.0-6.13-3.13","610d42ce297f0c4f3542f0c8","656d9e5e2de4f984cfed7d4d","656d9ed52d90244628b2a5f8","380","./stimuli//pack_shapes_1/cat_1/diff_1/ex_1_1_14.png","arrowleft","response","ArrowLeft","14","1","1","test","true",""
"","","","","","html-keyboard-response","124","164502","0.0-6.13-4.13","610d42ce297f0c4f3542f0c8","656d9e5e2de4f984cfed7d4d","656d9ed52d90244628b2a5f8","null","<p> <font color=""green"" size=""5vw""> Correct category! </font> <br> <br> <font color=""green"" size=""8vw""> + $0.05 </font> </p>","null","feedback","","","","","","","0.1"
"","","","","","html-keyboard-response","125","164992","0.0-6.14-0.14","610d42ce297f0c4f3542f0c8","656d9e5e2de4f984cfed7d4d","656d9ed52d90244628b2a5f8","488","
            
        <div style=""text-align: center; position: fixed; top: 5vh; left: 40vw;"">
            <div style=""margin:0 auto; width: 20vw; top: 8vh; font-size: 2vw""> 
            <font color=""green""> Bonus : $0.1 </font>
            </div>
        </div>
    
            <div> Please press any key to continue to the next image.</div>
        ","arrowleft","ITI","","","","","","",""
"","","","","","html-keyboard-response","126","165610","0.0-6.14-1.14","610d42ce297f0c4f3542f0c8","656d9e5e2de4f984cfed7d4d","656d9ed52d90244628b2a5f8","null","
        
        <div style=""text-align: center; position: fixed; top: 5vh; left: 40vw;"">
            <div style=""margin:0 auto; width: 20vw; top: 8vh; font-size: 2vw""> 
            <font color=""green""> Bonus : $0.1 </font>
            </div>
        </div>
    
        <img class=""stim"" src=./stimuli//pack_shapes_1/cat_1/diff_1/ex_1_1_3.png></img>
    ","null","stimulus","","","","","","",""
"","","","","","html-keyboard-response","127","166615","0.0-6.14-2.14","610d42ce297f0c4f3542f0c8","656d9e5e2de4f984cfed7d4d","656d9ed52d90244628b2a5f8","null","
        <div style=""text-align: center; position: fixed; top: 5vh; left: 40vw;"">
            <div style=""margin:0 auto; width: 20vw; top: 8vh; font-size: 2vw""> 
            <font color=""green""> Bonus : $0.1 </font>
            </div>
        </div>
    ","null","","","","","","","",""
"","","","","","html-keyboard-response","128","167153","0.0-6.14-3.14","610d42ce297f0c4f3542f0c8","656d9e5e2de4f984cfed7d4d","656d9ed52d90244628b2a5f8","536","./stimuli//pack_shapes_1/cat_1/diff_1/ex_1_1_3.png","arrowleft","response","ArrowLeft","3","1","1","test","true",""
"","","","","","html-keyboard-response","129","168667","0.0-6.14-4.14","610d42ce297f0c4f3542f0c8","656d9e5e2de4f984cfed7d4d","656d9ed52d90244628b2a5f8","null","<p> <font color=""green"" size=""5vw""> Correct category! </font> <br> <br> <font color=""green"" size=""8vw""> + $0.05 </font> </p>","null","feedback","","","","","","","0.15"
"","","","","","html-keyboard-response","130","169435","0.0-6.15-0.15","610d42ce297f0c4f3542f0c8","656d9e5e2de4f984cfed7d4d","656d9ed52d90244628b2a5f8","766","
            
        <div style=""text-align: center; position: fixed; top: 5vh; left: 40vw;"">
            <div style=""margin:0 auto; width: 20vw; top: 8vh; font-size: 2vw""> 
            <font color=""green""> Bonus : $0.15 </font>
            </div>
        </div>
    
            <div> Please press any key to continue to the next image.</div>
        ","arrowleft","ITI","","","","","","",""
"","","","","","html-keyboard-response","131","170042","0.0-6.15-1.15","610d42ce297f0c4f3542f0c8","656d9e5e2de4f984cfed7d4d","656d9ed52d90244628b2a5f8","null","
        
        <div style=""text-align: center; position: fixed; top: 5vh; left: 40vw;"">
            <div style=""margin:0 auto; width: 20vw; top: 8vh; font-size: 2vw""> 
            <font color=""green""> Bonus : $0.15 </font>
            </div>
        </div>
    
        <img class=""stim"" src=./stimuli//pack_shapes_1/cat_2/diff_1/ex_2_1_2.png></img>
    ","null","stimulus","","","","","","",""
"","","","","","html-keyboard-response","132","171048","0.0-6.15-2.15","610d42ce297f0c4f3542f0c8","656d9e5e2de4f984cfed7d4d","656d9ed52d90244628b2a5f8","null","
        <div style=""text-align: center; position: fixed; top: 5vh; left: 40vw;"">
            <div style=""margin:0 auto; width: 20vw; top: 8vh; font-size: 2vw""> 
            <font color=""green""> Bonus : $0.15 </font>
            </div>
        </div>
    ","null","","","","","","","",""
"","","","","","html-keyboard-response","133","171597","0.0-6.15-3.15","610d42ce297f0c4f3542f0c8","656d9e5e2de4f984cfed7d4d","656d9ed52d90244628b2a5f8","547","./stimuli//pack_shapes_1/cat_2/diff_1/ex_2_1_2.png","arrowleft","response","ArrowRight","2","2","1","test","false",""
"","","","","","html-keyboard-response","134","173111","0.0-6.15-4.15","610d42ce297f0c4f3542f0c8","656d9e5e2de4f984cfed7d4d","656d9ed52d90244628b2a5f8","null","<p> <font color=""red"" size=""5vw""> Wrong category! </font> <br> <br> <font color=""red"" size=""8vw""> - $0.05 </font> </p>","null","feedback","","","","","","","0.1"
"","","","","","html-keyboard-response","135","173712","0.0-6.16-0.16","610d42ce297f0c4f3542f0c8","656d9e5e2de4f984cfed7d4d","656d9ed52d90244628b2a5f8","599","
            
        <div style=""text-align: center; position: fixed; top: 5vh; left: 40vw;"">
            <div style=""margin:0 auto; width: 20vw; top: 8vh; font-size: 2vw""> 
            <font color=""green""> Bonus : $0.1 </font>
            </div>
        </div>
    
            <div> Please press any key to continue to the next image.</div>
        ","arrowleft","ITI","","","","","","",""
"","","","","","html-keyboard-response","136","174322","0.0-6.16-1.16","610d42ce297f0c4f3542f0c8","656d9e5e2de4f984cfed7d4d","656d9ed52d90244628b2a5f8","null","
        
        <div style=""text-align: center; position: fixed; top: 5vh; left: 40vw;"">
            <div style=""margin:0 auto; width: 20vw; top: 8vh; font-size: 2vw""> 
            <font color=""green""> Bonus : $0.1 </font>
            </div>
        </div>
    
        <img class=""stim"" src=./stimuli//pack_shapes_1/cat_2/diff_1/ex_2_1_6.png></img>
    ","null","stimulus","","","","","","",""
"","","","","","html-keyboard-response","137","175328","0.0-6.16-2.16","610d42ce297f0c4f3542f0c8","656d9e5e2de4f984cfed7d4d","656d9ed52d90244628b2a5f8","null","
        <div style=""text-align: center; position: fixed; top: 5vh; left: 40vw;"">
            <div style=""margin:0 auto; width: 20vw; top: 8vh; font-size: 2vw""> 
            <font color=""green""> Bonus : $0.1 </font>
            </div>
        </div>
    ","null","","","","","","","",""
"","","","","","html-keyboard-response","138","175535","0.0-6.16-3.16","610d42ce297f0c4f3542f0c8","656d9e5e2de4f984cfed7d4d","656d9ed52d90244628b2a5f8","205","./stimuli//pack_shapes_1/cat_2/diff_1/ex_2_1_6.png","arrowright","response","ArrowRight","6","2","1","test","true",""
"","","","","","html-keyboard-response","139","177052","0.0-6.16-4.16","610d42ce297f0c4f3542f0c8","656d9e5e2de4f984cfed7d4d","656d9ed52d90244628b2a5f8","null","<p> <font color=""green"" size=""5vw""> Correct category! </font> <br> <br> <font color=""green"" size=""8vw""> + $0.05 </font> </p>","null","feedback","","","","","","","0.15"
"","","","","","html-keyboard-response","140","177812","0.0-6.17-0.17","610d42ce297f0c4f3542f0c8","656d9e5e2de4f984cfed7d4d","656d9ed52d90244628b2a5f8","757","
            
        <div style=""text-align: center; position: fixed; top: 5vh; left: 40vw;"">
            <div style=""margin:0 auto; width: 20vw; top: 8vh; font-size: 2vw""> 
            <font color=""green""> Bonus : $0.15 </font>
            </div>
        </div>
    
            <div> Please press any key to continue to the next image.</div>
        ","arrowleft","ITI","","","","","","",""
"","","","","","html-keyboard-response","141","178423","0.0-6.17-1.17","610d42ce297f0c4f3542f0c8","656d9e5e2de4f984cfed7d4d","656d9ed52d90244628b2a5f8","null","
        
        <div style=""text-align: center; position: fixed; top: 5vh; left: 40vw;"">
            <div style=""margin:0 auto; width: 20vw; top: 8vh; font-size: 2vw""> 
            <font color=""green""> Bonus : $0.15 </font>
            </div>
        </div>
    
        <img class=""stim"" src=./stimuli//pack_shapes_1/cat_2/diff_1/ex_2_1_2.png></img>
    ","null","stimulus","","","","","","",""
"","","","","","html-keyboard-response","142","179428","0.0-6.17-2.17","610d42ce297f0c4f3542f0c8","656d9e5e2de4f984cfed7d4d","656d9ed52d90244628b2a5f8","null","
        <div style=""text-align: center; position: fixed; top: 5vh; left: 40vw;"">
            <div style=""margin:0 auto; width: 20vw; top: 8vh; font-size: 2vw""> 
            <font color=""green""> Bonus : $0.15 </font>
            </div>
        </div>
    ","null","","","","","","","",""
"","","","","","html-keyboard-response","143","180207","0.0-6.17-3.17","610d42ce297f0c4f3542f0c8","656d9e5e2de4f984cfed7d4d","656d9ed52d90244628b2a5f8","777","./stimuli//pack_shapes_1/cat_2/diff_1/ex_2_1_2.png","arrowright","response","ArrowRight","2","2","1","test","true",""
"","","","","","html-keyboard-response","144","181712","0.0-6.17-4.17","610d42ce297f0c4f3542f0c8","656d9e5e2de4f984cfed7d4d","656d9ed52d90244628b2a5f8","null","<p> <font color=""green"" size=""5vw""> Correct category! </font> <br> <br> <font color=""green"" size=""8vw""> + $0.05 </font> </p>","null","feedback","","","","","","","0.2"
"","","","","","html-keyboard-response","145","182419","0.0-6.18-0.18","610d42ce297f0c4f3542f0c8","656d9e5e2de4f984cfed7d4d","656d9ed52d90244628b2a5f8","706","
            
        <div style=""text-align: center; position: fixed; top: 5vh; left: 40vw;"">
            <div style=""margin:0 auto; width: 20vw; top: 8vh; font-size: 2vw""> 
            <font color=""green""> Bonus : $0.2 </font>
            </div>
        </div>
    
            <div> Please press any key to continue to the next image.</div>
        ","arrowleft","ITI","","","","","","",""
"","","","","","html-keyboard-response","146","183035","0.0-6.18-1.18","610d42ce297f0c4f3542f0c8","656d9e5e2de4f984cfed7d4d","656d9ed52d90244628b2a5f8","null","
        
        <div style=""text-align: center; position: fixed; top: 5vh; left: 40vw;"">
            <div style=""margin:0 auto; width: 20vw; top: 8vh; font-size: 2vw""> 
            <font color=""green""> Bonus : $0.2 </font>
            </div>
        </div>
    
        <img class=""stim"" src=./stimuli//pack_shapes_1/cat_1/diff_2/ex_1_2_6.png></img>
    ","null","stimulus","","","","","","",""
"","","","","","html-keyboard-response","147","184048","0.0-6.18-2.18","610d42ce297f0c4f3542f0c8","656d9e5e2de4f984cfed7d4d","656d9ed52d90244628b2a5f8","null","
        <div style=""text-align: center; position: fixed; top: 5vh; left: 40vw;"">
            <div style=""margin:0 auto; width: 20vw; top: 8vh; font-size: 2vw""> 
            <font color=""green""> Bonus : $0.2 </font>
            </div>
        </div>
    ","null","","","","","","","",""
"","","","","","html-keyboard-response","148","184931","0.0-6.18-3.18","610d42ce297f0c4f3542f0c8","656d9e5e2de4f984cfed7d4d","656d9ed52d90244628b2a5f8","881","./stimuli//pack_shapes_1/cat_1/diff_2/ex_1_2_6.png","arrowright","response","ArrowLeft","6","1","2","test","false",""
"","","","","","html-keyboard-response","149","186440","0.0-6.18-4.18","610d42ce297f0c4f3542f0c8","656d9e5e2de4f984cfed7d4d","656d9ed52d90244628b2a5f8","null","<p> <font color=""red"" size=""5vw""> Wrong category! </font> <br> <br> <font color=""red"" size=""8vw""> - $0.05 </font> </p>","null","feedback","","","","","","","0.15"
"","","","","","html-keyboard-response","150","187263","0.0-6.19-0.19","610d42ce297f0c4f3542f0c8","656d9e5e2de4f984cfed7d4d","656d9ed52d90244628b2a5f8","821","
            
        <div style=""text-align: center; position: fixed; top: 5vh; left: 40vw;"">
            <div style=""margin:0 auto; width: 20vw; top: 8vh; font-size: 2vw""> 
            <font color=""green""> Bonus : $0.15 </font>
            </div>
        </div>
    
            <div> Please press any key to continue to the next image.</div>
        ","arrowleft","ITI","","","","","","",""
"","","","","","html-keyboard-response","151","187872","0.0-6.19-1.19","610d42ce297f0c4f3542f0c8","656d9e5e2de4f984cfed7d4d","656d9ed52d90244628b2a5f8","null","
        
        <div style=""text-align: center; position: fixed; top: 5vh; left: 40vw;"">
            <div style=""margin:0 auto; width: 20vw; top: 8vh; font-size: 2vw""> 
            <font color=""green""> Bonus : $0.15 </font>
            </div>
        </div>
    
        <img class=""stim"" src=./stimuli//pack_shapes_1/cat_1/diff_2/ex_1_2_1.png></img>
    ","null","stimulus","","","","","","",""
"","","","","","html-keyboard-response","152","188882","0.0-6.19-2.19","610d42ce297f0c4f3542f0c8","656d9e5e2de4f984cfed7d4d","656d9ed52d90244628b2a5f8","null","
        <div style=""text-align: center; position: fixed; top: 5vh; left: 40vw;"">
            <div style=""margin:0 auto; width: 20vw; top: 8vh; font-size: 2vw""> 
            <font color=""green""> Bonus : $0.15 </font>
            </div>
        </div>
    ","null","","","","","","","",""
"","","","","","html-keyboard-response","153","188955","0.0-6.19-3.19","610d42ce297f0c4f3542f0c8","656d9e5e2de4f984cfed7d4d","656d9ed52d90244628b2a5f8","71","./stimuli//pack_shapes_1/cat_1/diff_2/ex_1_2_1.png","arrowleft","response","ArrowLeft","1","1","2","test","true",""
"","","","","","html-keyboard-response","154","190464","0.0-6.19-4.19","610d42ce297f0c4f3542f0c8","656d9e5e2de4f984cfed7d4d","656d9ed52d90244628b2a5f8","null","<p> <font color=""green"" size=""5vw""> Correct category! </font> <br> <br> <font color=""green"" size=""8vw""> + $0.05 </font> </p>","null","feedback","","","","","","","0.2"
"","","","","","html-keyboard-response","155","191164","0.0-6.20-0.20","610d42ce297f0c4f3542f0c8","656d9e5e2de4f984cfed7d4d","656d9ed52d90244628b2a5f8","698","
            
        <div style=""text-align: center; position: fixed; top: 5vh; left: 40vw;"">
            <div style=""margin:0 auto; width: 20vw; top: 8vh; font-size: 2vw""> 
            <font color=""green""> Bonus : $0.2 </font>
            </div>
        </div>
    
            <div> Please press any key to continue to the next image.</div>
        ","arrowleft","ITI","","","","","","",""
"","","","","","html-keyboard-response","156","191774","0.0-6.20-1.20","610d42ce297f0c4f3542f0c8","656d9e5e2de4f984cfed7d4d","656d9ed52d90244628b2a5f8","null","
        
        <div style=""text-align: center; position: fixed; top: 5vh; left: 40vw;"">
            <div style=""margin:0 auto; width: 20vw; top: 8vh; font-size: 2vw""> 
            <font color=""green""> Bonus : $0.2 </font>
            </div>
        </div>
    
        <img class=""stim"" src=./stimuli//pack_shapes_1/cat_2/diff_2/ex_2_2_11.png></img>
    ","null","stimulus","","","","","","",""
"","","","","","html-keyboard-response","157","192782","0.0-6.20-2.20","610d42ce297f0c4f3542f0c8","656d9e5e2de4f984cfed7d4d","656d9ed52d90244628b2a5f8","null","
        <div style=""text-align: center; position: fixed; top: 5vh; left: 40vw;"">
            <div style=""margin:0 auto; width: 20vw; top: 8vh; font-size: 2vw""> 
            <font color=""green""> Bonus : $0.2 </font>
            </div>
        </div>
    ","null","","","","","","","",""
"","","","","","html-keyboard-response","158","193222","0.0-6.20-3.20","610d42ce297f0c4f3542f0c8","656d9e5e2de4f984cfed7d4d","656d9ed52d90244628b2a5f8","437","./stimuli//pack_shapes_1/cat_2/diff_2/ex_2_2_11.png","arrowleft","response","ArrowRight","11","2","2","test","false",""
"","","","","","html-keyboard-response","159","193224","0.0-6.20-4.20","610d42ce297f0c4f3542f0c8","656d9e5e2de4f984cfed7d4d","656d9ed52d90244628b2a5f8","1","<p> <font color=""red"" size=""5vw""> Wrong category! </font> <br> <br> <font color=""red"" size=""8vw""> - $0.05 </font> </p>","arrowright","feedback","","","","","","","0.15"
"","","","","","html-keyboard-response","160","195152","0.0-6.21-0.21","610d42ce297f0c4f3542f0c8","656d9e5e2de4f984cfed7d4d","656d9ed52d90244628b2a5f8","1926","
            
        <div style=""text-align: center; position: fixed; top: 5vh; left: 40vw;"">
            <div style=""margin:0 auto; width: 20vw; top: 8vh; font-size: 2vw""> 
            <font color=""green""> Bonus : $0.15 </font>
            </div>
        </div>
    
            <div> Please press any key to continue to the next image.</div>
        ","arrowleft","ITI","","","","","","",""
"","","","","","html-keyboard-response","161","195765","0.0-6.21-1.21","610d42ce297f0c4f3542f0c8","656d9e5e2de4f984cfed7d4d","656d9ed52d90244628b2a5f8","null","
        
        <div style=""text-align: center; position: fixed; top: 5vh; left: 40vw;"">
            <div style=""margin:0 auto; width: 20vw; top: 8vh; font-size: 2vw""> 
            <font color=""green""> Bonus : $0.15 </font>
            </div>
        </div>
    
        <img class=""stim"" src=./stimuli//pack_shapes_1/cat_1/diff_2/ex_1_2_15.png></img>
    ","null","stimulus","","","","","","",""
"","","","","","html-keyboard-response","162","196773","0.0-6.21-2.21","610d42ce297f0c4f3542f0c8","656d9e5e2de4f984cfed7d4d","656d9ed52d90244628b2a5f8","null","
        <div style=""text-align: center; position: fixed; top: 5vh; left: 40vw;"">
            <div style=""margin:0 auto; width: 20vw; top: 8vh; font-size: 2vw""> 
            <font color=""green""> Bonus : $0.15 </font>
            </div>
        </div>
    ","null","","","","","","","",""
"","","","","","html-keyboard-response","163","197953","0.0-6.21-3.21","610d42ce297f0c4f3542f0c8","656d9e5e2de4f984cfed7d4d","656d9ed52d90244628b2a5f8","1178","./stimuli//pack_shapes_1/cat_1/diff_2/ex_1_2_15.png","arrowleft","response","ArrowLeft","15","1","2","test","true",""
"","","","","","html-keyboard-response","164","199467","0.0-6.21-4.21","610d42ce297f0c4f3542f0c8","656d9e5e2de4f984cfed7d4d","656d9ed52d90244628b2a5f8","null","<p> <font color=""green"" size=""5vw""> Correct category! </font> <br> <br> <font color=""green"" size=""8vw""> + $0.05 </font> </p>","null","feedback","","","","","","","0.2"
"","","","","","html-keyboard-response","165","200092","0.0-6.22-0.22","610d42ce297f0c4f3542f0c8","656d9e5e2de4f984cfed7d4d","656d9ed52d90244628b2a5f8","623","
            
        <div style=""text-align: center; position: fixed; top: 5vh; left: 40vw;"">
            <div style=""margin:0 auto; width: 20vw; top: 8vh; font-size: 2vw""> 
            <font color=""green""> Bonus : $0.2 </font>
            </div>
        </div>
    
            <div> Please press any key to continue to the next image.</div>
        ","arrowleft","ITI","","","","","","",""
"","","","","","html-keyboard-response","166","200706","0.0-6.22-1.22","610d42ce297f0c4f3542f0c8","656d9e5e2de4f984cfed7d4d","656d9ed52d90244628b2a5f8","null","
        
        <div style=""text-align: center; position: fixed; top: 5vh; left: 40vw;"">
            <div style=""margin:0 auto; width: 20vw; top: 8vh; font-size: 2vw""> 
            <font color=""green""> Bonus : $0.2 </font>
            </div>
        </div>
    
        <img class=""stim"" src=./stimuli//pack_shapes_1/cat_1/diff_2/ex_1_2_1.png></img>
    ","null","stimulus","","","","","","",""
"","","","","","html-keyboard-response","167","201720","0.0-6.22-2.22","610d42ce297f0c4f3542f0c8","656d9e5e2de4f984cfed7d4d","656d9ed52d90244628b2a5f8","null","
        <div style=""text-align: center; position: fixed; top: 5vh; left: 40vw;"">
            <div style=""margin:0 auto; width: 20vw; top: 8vh; font-size: 2vw""> 
            <font color=""green""> Bonus : $0.2 </font>
            </div>
        </div>
    ","null","","","","","","","",""
"","","","","","html-keyboard-response","168","201934","0.0-6.22-3.22","610d42ce297f0c4f3542f0c8","656d9e5e2de4f984cfed7d4d","656d9ed52d90244628b2a5f8","213","./stimuli//pack_shapes_1/cat_1/diff_2/ex_1_2_1.png","arrowleft","response","ArrowLeft","1","1","2","test","true",""
"","","","","","html-keyboard-response","169","203441","0.0-6.22-4.22","610d42ce297f0c4f3542f0c8","656d9e5e2de4f984cfed7d4d","656d9ed52d90244628b2a5f8","null","<p> <font color=""green"" size=""5vw""> Correct category! </font> <br> <br> <font color=""green"" size=""8vw""> + $0.05 </font> </p>","null","feedback","","","","","","","0.25"
"","","","","","html-keyboard-response","170","204416","0.0-6.23-0.23","610d42ce297f0c4f3542f0c8","656d9e5e2de4f984cfed7d4d","656d9ed52d90244628b2a5f8","973","
            
        <div style=""text-align: center; position: fixed; top: 5vh; left: 40vw;"">
            <div style=""margin:0 auto; width: 20vw; top: 8vh; font-size: 2vw""> 
            <font color=""green""> Bonus : $0.25 </font>
            </div>
        </div>
    
            <div> Please press any key to continue to the next image.</div>
        ","arrowleft","ITI","","","","","","",""
"","","","","","html-keyboard-response","171","205023","0.0-6.23-1.23","610d42ce297f0c4f3542f0c8","656d9e5e2de4f984cfed7d4d","656d9ed52d90244628b2a5f8","null","
        
        <div style=""text-align: center; position: fixed; top: 5vh; left: 40vw;"">
            <div style=""margin:0 auto; width: 20vw; top: 8vh; font-size: 2vw""> 
            <font color=""green""> Bonus : $0.25 </font>
            </div>
        </div>
    
        <img class=""stim"" src=./stimuli//pack_shapes_1/cat_2/diff_1/ex_2_1_12.png></img>
    ","null","stimulus","","","","","","",""
"","","","","","html-keyboard-response","172","206037","0.0-6.23-2.23","610d42ce297f0c4f3542f0c8","656d9e5e2de4f984cfed7d4d","656d9ed52d90244628b2a5f8","null","
        <div style=""text-align: center; position: fixed; top: 5vh; left: 40vw;"">
            <div style=""margin:0 auto; width: 20vw; top: 8vh; font-size: 2vw""> 
            <font color=""green""> Bonus : $0.25 </font>
            </div>
        </div>
    ","null","","","","","","","",""
"","","","","","html-keyboard-response","173","208690","0.0-6.23-3.23","610d42ce297f0c4f3542f0c8","656d9e5e2de4f984cfed7d4d","656d9ed52d90244628b2a5f8","2649","./stimuli//pack_shapes_1/cat_2/diff_1/ex_2_1_12.png","arrowleft","response","ArrowRight","12","2","1","test","false",""
"","","","","","html-keyboard-response","174","208693","0.0-6.23-4.23","610d42ce297f0c4f3542f0c8","656d9e5e2de4f984cfed7d4d","656d9ed52d90244628b2a5f8","1","<p> <font color=""red"" size=""5vw""> Wrong category! </font> <br> <br> <font color=""red"" size=""8vw""> - $0.05 </font> </p>","arrowright","feedback","","","","","","","0.2"
"","","","","","html-keyboard-response","175","209749","0.0-6.24-0.24","610d42ce297f0c4f3542f0c8","656d9e5e2de4f984cfed7d4d","656d9ed52d90244628b2a5f8","1055","
            
        <div style=""text-align: center; position: fixed; top: 5vh; left: 40vw;"">
            <div style=""margin:0 auto; width: 20vw; top: 8vh; font-size: 2vw""> 
            <font color=""green""> Bonus : $0.2 </font>
            </div>
        </div>
    
            <div> Please press any key to continue to the next image.</div>
        ","arrowleft","ITI","","","","","","",""
"","","","","","html-keyboard-response","176","210361","0.0-6.24-1.24","610d42ce297f0c4f3542f0c8","656d9e5e2de4f984cfed7d4d","656d9ed52d90244628b2a5f8","null","
        
        <div style=""text-align: center; position: fixed; top: 5vh; left: 40vw;"">
            <div style=""margin:0 auto; width: 20vw; top: 8vh; font-size: 2vw""> 
            <font color=""green""> Bonus : $0.2 </font>
            </div>
        </div>
    
        <img class=""stim"" src=./stimuli//pack_shapes_1/cat_1/diff_1/ex_1_1_5.png></img>
    ","null","stimulus","","","","","","",""
"","","","","","html-keyboard-response","177","211367","0.0-6.24-2.24","610d42ce297f0c4f3542f0c8","656d9e5e2de4f984cfed7d4d","656d9ed52d90244628b2a5f8","null","
        <div style=""text-align: center; position: fixed; top: 5vh; left: 40vw;"">
            <div style=""margin:0 auto; width: 20vw; top: 8vh; font-size: 2vw""> 
            <font color=""green""> Bonus : $0.2 </font>
            </div>
        </div>
    ","null","","","","","","","",""
"","","","","","html-keyboard-response","178","212072","0.0-6.24-3.24","610d42ce297f0c4f3542f0c8","656d9e5e2de4f984cfed7d4d","656d9ed52d90244628b2a5f8","702","./stimuli//pack_shapes_1/cat_1/diff_1/ex_1_1_5.png","arrowleft","response","ArrowLeft","5","1","1","test","true",""
"","","","","","html-keyboard-response","179","212075","0.0-6.24-4.24","610d42ce297f0c4f3542f0c8","656d9e5e2de4f984cfed7d4d","656d9ed52d90244628b2a5f8","1","<p> <font color=""green"" size=""5vw""> Correct category! </font> <br> <br> <font color=""green"" size=""8vw""> + $0.05 </font> </p>","arrowright","feedback","","","","","","","0.25"
"","","","","","html-keyboard-response","180","213520","0.0-6.25-0.25","610d42ce297f0c4f3542f0c8","656d9e5e2de4f984cfed7d4d","656d9ed52d90244628b2a5f8","1443","
            
        <div style=""text-align: center; position: fixed; top: 5vh; left: 40vw;"">
            <div style=""margin:0 auto; width: 20vw; top: 8vh; font-size: 2vw""> 
            <font color=""green""> Bonus : $0.25 </font>
            </div>
        </div>
    
            <div> Please press any key to continue to the next image.</div>
        ","arrowright","ITI","","","","","","",""
"","","","","","html-keyboard-response","181","214130","0.0-6.25-1.25","610d42ce297f0c4f3542f0c8","656d9e5e2de4f984cfed7d4d","656d9ed52d90244628b2a5f8","null","
        
        <div style=""text-align: center; position: fixed; top: 5vh; left: 40vw;"">
            <div style=""margin:0 auto; width: 20vw; top: 8vh; font-size: 2vw""> 
            <font color=""green""> Bonus : $0.25 </font>
            </div>
        </div>
    
        <img class=""stim"" src=./stimuli//pack_shapes_1/cat_1/diff_1/ex_1_1_2.png></img>
    ","null","stimulus","","","","","","",""
"","","","","","html-keyboard-response","182","215141","0.0-6.25-2.25","610d42ce297f0c4f3542f0c8","656d9e5e2de4f984cfed7d4d","656d9ed52d90244628b2a5f8","null","
        <div style=""text-align: center; position: fixed; top: 5vh; left: 40vw;"">
            <div style=""margin:0 auto; width: 20vw; top: 8vh; font-size: 2vw""> 
            <font color=""green""> Bonus : $0.25 </font>
            </div>
        </div>
    ","null","","","","","","","",""
"","","","","","html-keyboard-response","183","215961","0.0-6.25-3.25","610d42ce297f0c4f3542f0c8","656d9e5e2de4f984cfed7d4d","656d9ed52d90244628b2a5f8","818","./stimuli//pack_shapes_1/cat_1/diff_1/ex_1_1_2.png","arrowleft","response","ArrowLeft","2","1","1","test","true",""
"","","","","","html-keyboard-response","184","217472","0.0-6.25-4.25","610d42ce297f0c4f3542f0c8","656d9e5e2de4f984cfed7d4d","656d9ed52d90244628b2a5f8","null","<p> <font color=""green"" size=""5vw""> Correct category! </font> <br> <br> <font color=""green"" size=""8vw""> + $0.05 </font> </p>","null","feedback","","","","","","","0.3"
"","","","","","html-keyboard-response","185","219194","0.0-6.26-0.26","610d42ce297f0c4f3542f0c8","656d9e5e2de4f984cfed7d4d","656d9ed52d90244628b2a5f8","1719","
            
        <div style=""text-align: center; position: fixed; top: 5vh; left: 40vw;"">
            <div style=""margin:0 auto; width: 20vw; top: 8vh; font-size: 2vw""> 
            <font color=""green""> Bonus : $0.3 </font>
            </div>
        </div>
    
            <div> Please press any key to continue to the next image.</div>
        ","arrowleft","ITI","","","","","","",""
"","","","","","html-keyboard-response","186","219804","0.0-6.26-1.26","610d42ce297f0c4f3542f0c8","656d9e5e2de4f984cfed7d4d","656d9ed52d90244628b2a5f8","null","
        
        <div style=""text-align: center; position: fixed; top: 5vh; left: 40vw;"">
            <div style=""margin:0 auto; width: 20vw; top: 8vh; font-size: 2vw""> 
            <font color=""green""> Bonus : $0.3 </font>
            </div>
        </div>
    
        <img class=""stim"" src=./stimuli//pack_shapes_1/cat_1/diff_1/ex_1_1_9.png></img>
    ","null","stimulus","","","","","","",""
"","","","","","html-keyboard-response","187","220807","0.0-6.26-2.26","610d42ce297f0c4f3542f0c8","656d9e5e2de4f984cfed7d4d","656d9ed52d90244628b2a5f8","null","
        <div style=""text-align: center; position: fixed; top: 5vh; left: 40vw;"">
            <div style=""margin:0 auto; width: 20vw; top: 8vh; font-size: 2vw""> 
            <font color=""green""> Bonus : $0.3 </font>
            </div>
        </div>
    ","null","","","","","","","",""
"","","","","","html-keyboard-response","188","220955","0.0-6.26-3.26","610d42ce297f0c4f3542f0c8","656d9e5e2de4f984cfed7d4d","656d9ed52d90244628b2a5f8","146","./stimuli//pack_shapes_1/cat_1/diff_1/ex_1_1_9.png","arrowright","response","ArrowLeft","9","1","1","test","false",""
"","","","","","html-keyboard-response","189","222460","0.0-6.26-4.26","610d42ce297f0c4f3542f0c8","656d9e5e2de4f984cfed7d4d","656d9ed52d90244628b2a5f8","null","<p> <font color=""red"" size=""5vw""> Wrong category! </font> <br> <br> <font color=""red"" size=""8vw""> - $0.05 </font> </p>","null","feedback","","","","","","","0.25"
"","","","","","html-keyboard-response","190","222992","0.0-6.27-0.27","610d42ce297f0c4f3542f0c8","656d9e5e2de4f984cfed7d4d","656d9ed52d90244628b2a5f8","530","
            
        <div style=""text-align: center; position: fixed; top: 5vh; left: 40vw;"">
            <div style=""margin:0 auto; width: 20vw; top: 8vh; font-size: 2vw""> 
            <font color=""green""> Bonus : $0.25 </font>
            </div>
        </div>
    
            <div> Please press any key to continue to the next image.</div>
        ","arrowleft","ITI","","","","","","",""
"","","","","","html-keyboard-response","191","223609","0.0-6.27-1.27","610d42ce297f0c4f3542f0c8","656d9e5e2de4f984cfed7d4d","656d9ed52d90244628b2a5f8","null","
        
        <div style=""text-align: center; position: fixed; top: 5vh; left: 40vw;"">
            <div style=""margin:0 auto; width: 20vw; top: 8vh; font-size: 2vw""> 
            <font color=""green""> Bonus : $0.25 </font>
            </div>
        </div>
    
        <img class=""stim"" src=./stimuli//pack_shapes_1/cat_2/diff_1/ex_2_1_6.png></img>
    ","null","stimulus","","","","","","",""
"","","","","","html-keyboard-response","192","224612","0.0-6.27-2.27","610d42ce297f0c4f3542f0c8","656d9e5e2de4f984cfed7d4d","656d9ed52d90244628b2a5f8","null","
        <div style=""text-align: center; position: fixed; top: 5vh; left: 40vw;"">
            <div style=""margin:0 auto; width: 20vw; top: 8vh; font-size: 2vw""> 
            <font color=""green""> Bonus : $0.25 </font>
            </div>
        </div>
    ","null","","","","","","","",""
"","","","","","html-keyboard-response","193","225136","0.0-6.27-3.27","610d42ce297f0c4f3542f0c8","656d9e5e2de4f984cfed7d4d","656d9ed52d90244628b2a5f8","522","./stimuli//pack_shapes_1/cat_2/diff_1/ex_2_1_6.png","arrowright","response","ArrowRight","6","2","1","test","true",""
"","","","","","html-keyboard-response","194","225162","0.0-6.27-4.27","610d42ce297f0c4f3542f0c8","656d9e5e2de4f984cfed7d4d","656d9ed52d90244628b2a5f8","24","<p> <font color=""green"" size=""5vw""> Correct category! </font> <br> <br> <font color=""green"" size=""8vw""> + $0.05 </font> </p>","arrowleft","feedback","","","","","","","0.3"
"","","","","","html-keyboard-response","195","226243","0.0-6.28-0.28","610d42ce297f0c4f3542f0c8","656d9e5e2de4f984cfed7d4d","656d9ed52d90244628b2a5f8","1079","
            
        <div style=""text-align: center; position: fixed; top: 5vh; left: 40vw;"">
            <div style=""margin:0 auto; width: 20vw; top: 8vh; font-size: 2vw""> 
            <font color=""green""> Bonus : $0.3 </font>
            </div>
        </div>
    
            <div> Please press any key to continue to the next image.</div>
        ","arrowleft","ITI","","","","","","",""
"","","","","","html-keyboard-response","196","226853","0.0-6.28-1.28","610d42ce297f0c4f3542f0c8","656d9e5e2de4f984cfed7d4d","656d9ed52d90244628b2a5f8","null","
        
        <div style=""text-align: center; position: fixed; top: 5vh; left: 40vw;"">
            <div style=""margin:0 auto; width: 20vw; top: 8vh; font-size: 2vw""> 
            <font color=""green""> Bonus : $0.3 </font>
            </div>
        </div>
    
        <img class=""stim"" src=./stimuli//pack_shapes_1/cat_1/diff_1/ex_1_1_15.png></img>
    ","null","stimulus","","","","","","",""
"","","","","","html-keyboard-response","197","227859","0.0-6.28-2.28","610d42ce297f0c4f3542f0c8","656d9e5e2de4f984cfed7d4d","656d9ed52d90244628b2a5f8","null","
        <div style=""text-align: center; position: fixed; top: 5vh; left: 40vw;"">
            <div style=""margin:0 auto; width: 20vw; top: 8vh; font-size: 2vw""> 
            <font color=""green""> Bonus : $0.3 </font>
            </div>
        </div>
    ","null","","","","","","","",""
"","","","","","html-keyboard-response","198","228471","0.0-6.28-3.28","610d42ce297f0c4f3542f0c8","656d9e5e2de4f984cfed7d4d","656d9ed52d90244628b2a5f8","610","./stimuli//pack_shapes_1/cat_1/diff_1/ex_1_1_15.png","arrowleft","response","ArrowLeft","15","1","1","test","true",""
"","","","","","html-keyboard-response","199","228473","0.0-6.28-4.28","610d42ce297f0c4f3542f0c8","656d9e5e2de4f984cfed7d4d","656d9ed52d90244628b2a5f8","1","<p> <font color=""green"" size=""5vw""> Correct category! </font> <br> <br> <font color=""green"" size=""8vw""> + $0.05 </font> </p>","arrowright","feedback","","","","","","","0.35"
"","","","","","html-keyboard-response","200","229809","0.0-6.29-0.29","610d42ce297f0c4f3542f0c8","656d9e5e2de4f984cfed7d4d","656d9ed52d90244628b2a5f8","1334","
            
        <div style=""text-align: center; position: fixed; top: 5vh; left: 40vw;"">
            <div style=""margin:0 auto; width: 20vw; top: 8vh; font-size: 2vw""> 
            <font color=""green""> Bonus : $0.35 </font>
            </div>
        </div>
    
            <div> Please press any key to continue to the next image.</div>
        ","arrowright","ITI","","","","","","",""
"","","","","","html-keyboard-response","201","230417","0.0-6.29-1.29","610d42ce297f0c4f3542f0c8","656d9e5e2de4f984cfed7d4d","656d9ed52d90244628b2a5f8","null","
        
        <div style=""text-align: center; position: fixed; top: 5vh; left: 40vw;"">
            <div style=""margin:0 auto; width: 20vw; top: 8vh; font-size: 2vw""> 
            <font color=""green""> Bonus : $0.35 </font>
            </div>
        </div>
    
        <img class=""stim"" src=./stimuli//pack_shapes_1/cat_1/diff_2/ex_1_2_12.png></img>
    ","null","stimulus","","","","","","",""
"","","","","","html-keyboard-response","202","231430","0.0-6.29-2.29","610d42ce297f0c4f3542f0c8","656d9e5e2de4f984cfed7d4d","656d9ed52d90244628b2a5f8","null","
        <div style=""text-align: center; position: fixed; top: 5vh; left: 40vw;"">
            <div style=""margin:0 auto; width: 20vw; top: 8vh; font-size: 2vw""> 
            <font color=""green""> Bonus : $0.35 </font>
            </div>
        </div>
    ","null","","","","","","","",""
"","","","","","html-keyboard-response","203","232646","0.0-6.29-3.29","610d42ce297f0c4f3542f0c8","656d9e5e2de4f984cfed7d4d","656d9ed52d90244628b2a5f8","1214","./stimuli//pack_shapes_1/cat_1/diff_2/ex_1_2_12.png","arrowleft","response","ArrowLeft","12","1","2","test","true",""
"","","","","","html-keyboard-response","204","234152","0.0-6.29-4.29","610d42ce297f0c4f3542f0c8","656d9e5e2de4f984cfed7d4d","656d9ed52d90244628b2a5f8","null","<p> <font color=""green"" size=""5vw""> Correct category! </font> <br> <br> <font color=""green"" size=""8vw""> + $0.05 </font> </p>","null","feedback","","","","","","","0.4"
"","","","","","html-keyboard-response","205","234689","0.0-6.30-0.30","610d42ce297f0c4f3542f0c8","656d9e5e2de4f984cfed7d4d","656d9ed52d90244628b2a5f8","535","
            
        <div style=""text-align: center; position: fixed; top: 5vh; left: 40vw;"">
            <div style=""margin:0 auto; width: 20vw; top: 8vh; font-size: 2vw""> 
            <font color=""green""> Bonus : $0.4 </font>
            </div>
        </div>
    
            <div> Please press any key to continue to the next image.</div>
        ","arrowleft","ITI","","","","","","",""
"","","","","","html-keyboard-response","206","235303","0.0-6.30-1.30","610d42ce297f0c4f3542f0c8","656d9e5e2de4f984cfed7d4d","656d9ed52d90244628b2a5f8","null","
        
        <div style=""text-align: center; position: fixed; top: 5vh; left: 40vw;"">
            <div style=""margin:0 auto; width: 20vw; top: 8vh; font-size: 2vw""> 
            <font color=""green""> Bonus : $0.4 </font>
            </div>
        </div>
    
        <img class=""stim"" src=./stimuli//pack_shapes_1/cat_2/diff_2/ex_2_2_12.png></img>
    ","null","stimulus","","","","","","",""
"","","","","","html-keyboard-response","207","236309","0.0-6.30-2.30","610d42ce297f0c4f3542f0c8","656d9e5e2de4f984cfed7d4d","656d9ed52d90244628b2a5f8","null","
        <div style=""text-align: center; position: fixed; top: 5vh; left: 40vw;"">
            <div style=""margin:0 auto; width: 20vw; top: 8vh; font-size: 2vw""> 
            <font color=""green""> Bonus : $0.4 </font>
            </div>
        </div>
    ","null","","","","","","","",""
"","","","","","html-keyboard-response","208","236917","0.0-6.30-3.30","610d42ce297f0c4f3542f0c8","656d9e5e2de4f984cfed7d4d","656d9ed52d90244628b2a5f8","606","./stimuli//pack_shapes_1/cat_2/diff_2/ex_2_2_12.png","arrowleft","response","ArrowRight","12","2","2","test","false",""
"","","","","","html-keyboard-response","209","238384","0.0-6.30-4.30","610d42ce297f0c4f3542f0c8","656d9e5e2de4f984cfed7d4d","656d9ed52d90244628b2a5f8","1465","<p> <font color=""red"" size=""5vw""> Wrong category! </font> <br> <br> <font color=""red"" size=""8vw""> - $0.05 </font> </p>","arrowleft","feedback","","","","","","","0.35"
"","","","","","html-keyboard-response","210","239013","0.0-6.31-0.31","610d42ce297f0c4f3542f0c8","656d9e5e2de4f984cfed7d4d","656d9ed52d90244628b2a5f8","627","
            
        <div style=""text-align: center; position: fixed; top: 5vh; left: 40vw;"">
            <div style=""margin:0 auto; width: 20vw; top: 8vh; font-size: 2vw""> 
            <font color=""green""> Bonus : $0.35 </font>
            </div>
        </div>
    
            <div> Please press any key to continue to the next image.</div>
        ","arrowleft","ITI","","","","","","",""
"","","","","","html-keyboard-response","211","239630","0.0-6.31-1.31","610d42ce297f0c4f3542f0c8","656d9e5e2de4f984cfed7d4d","656d9ed52d90244628b2a5f8","null","
        
        <div style=""text-align: center; position: fixed; top: 5vh; left: 40vw;"">
            <div style=""margin:0 auto; width: 20vw; top: 8vh; font-size: 2vw""> 
            <font color=""green""> Bonus : $0.35 </font>
            </div>
        </div>
    
        <img class=""stim"" src=./stimuli//pack_shapes_1/cat_1/diff_2/ex_1_2_17.png></img>
    ","null","stimulus","","","","","","",""
"","","","","","html-keyboard-response","212","240639","0.0-6.31-2.31","610d42ce297f0c4f3542f0c8","656d9e5e2de4f984cfed7d4d","656d9ed52d90244628b2a5f8","null","
        <div style=""text-align: center; position: fixed; top: 5vh; left: 40vw;"">
            <div style=""margin:0 auto; width: 20vw; top: 8vh; font-size: 2vw""> 
            <font color=""green""> Bonus : $0.35 </font>
            </div>
        </div>
    ","null","","","","","","","",""
"","","","","","html-keyboard-response","213","240734","0.0-6.31-3.31","610d42ce297f0c4f3542f0c8","656d9e5e2de4f984cfed7d4d","656d9ed52d90244628b2a5f8","93","./stimuli//pack_shapes_1/cat_1/diff_2/ex_1_2_17.png","arrowleft","response","ArrowLeft","17","1","2","test","true",""
"","","","","","html-keyboard-response","214","242238","0.0-6.31-4.31","610d42ce297f0c4f3542f0c8","656d9e5e2de4f984cfed7d4d","656d9ed52d90244628b2a5f8","null","<p> <font color=""green"" size=""5vw""> Correct category! </font> <br> <br> <font color=""green"" size=""8vw""> + $0.05 </font> </p>","null","feedback","","","","","","","0.4"
"","","","","","html-keyboard-response","215","244989","0.0-6.32-0.32","610d42ce297f0c4f3542f0c8","656d9e5e2de4f984cfed7d4d","656d9ed52d90244628b2a5f8","2749","
            
        <div style=""text-align: center; position: fixed; top: 5vh; left: 40vw;"">
            <div style=""margin:0 auto; width: 20vw; top: 8vh; font-size: 2vw""> 
            <font color=""green""> Bonus : $0.4 </font>
            </div>
        </div>
    
            <div> Please press any key to continue to the next image.</div>
        ","arrowleft","ITI","","","","","","",""
"","","","","","html-keyboard-response","216","245594","0.0-6.32-1.32","610d42ce297f0c4f3542f0c8","656d9e5e2de4f984cfed7d4d","656d9ed52d90244628b2a5f8","null","
        
        <div style=""text-align: center; position: fixed; top: 5vh; left: 40vw;"">
            <div style=""margin:0 auto; width: 20vw; top: 8vh; font-size: 2vw""> 
            <font color=""green""> Bonus : $0.4 </font>
            </div>
        </div>
    
        <img class=""stim"" src=./stimuli//pack_shapes_1/cat_1/diff_2/ex_1_2_1.png></img>
    ","null","stimulus","","","","","","",""
"","","","","","html-keyboard-response","217","246598","0.0-6.32-2.32","610d42ce297f0c4f3542f0c8","656d9e5e2de4f984cfed7d4d","656d9ed52d90244628b2a5f8","null","
        <div style=""text-align: center; position: fixed; top: 5vh; left: 40vw;"">
            <div style=""margin:0 auto; width: 20vw; top: 8vh; font-size: 2vw""> 
            <font color=""green""> Bonus : $0.4 </font>
            </div>
        </div>
    ","null","","","","","","","",""
"","","","","","html-keyboard-response","218","247356","0.0-6.32-3.32","610d42ce297f0c4f3542f0c8","656d9e5e2de4f984cfed7d4d","656d9ed52d90244628b2a5f8","756","./stimuli//pack_shapes_1/cat_1/diff_2/ex_1_2_1.png","arrowright","response","ArrowLeft","1","1","2","test","false",""
"","","","","","html-keyboard-response","219","248862","0.0-6.32-4.32","610d42ce297f0c4f3542f0c8","656d9e5e2de4f984cfed7d4d","656d9ed52d90244628b2a5f8","null","<p> <font color=""red"" size=""5vw""> Wrong category! </font> <br> <br> <font color=""red"" size=""8vw""> - $0.05 </font> </p>","null","feedback","","","","","","","0.35"
"","","","","","html-keyboard-response","220","249320","0.0-6.33-0.33","610d42ce297f0c4f3542f0c8","656d9e5e2de4f984cfed7d4d","656d9ed52d90244628b2a5f8","456","
            
        <div style=""text-align: center; position: fixed; top: 5vh; left: 40vw;"">
            <div style=""margin:0 auto; width: 20vw; top: 8vh; font-size: 2vw""> 
            <font color=""green""> Bonus : $0.35 </font>
            </div>
        </div>
    
            <div> Please press any key to continue to the next image.</div>
        ","arrowleft","ITI","","","","","","",""
"","","","","","html-keyboard-response","221","249932","0.0-6.33-1.33","610d42ce297f0c4f3542f0c8","656d9e5e2de4f984cfed7d4d","656d9ed52d90244628b2a5f8","null","
        
        <div style=""text-align: center; position: fixed; top: 5vh; left: 40vw;"">
            <div style=""margin:0 auto; width: 20vw; top: 8vh; font-size: 2vw""> 
            <font color=""green""> Bonus : $0.35 </font>
            </div>
        </div>
    
        <img class=""stim"" src=./stimuli//pack_shapes_1/cat_2/diff_2/ex_2_2_14.png></img>
    ","null","stimulus","","","","","","",""
"","","","","","html-keyboard-response","222","250941","0.0-6.33-2.33","610d42ce297f0c4f3542f0c8","656d9e5e2de4f984cfed7d4d","656d9ed52d90244628b2a5f8","null","
        <div style=""text-align: center; position: fixed; top: 5vh; left: 40vw;"">
            <div style=""margin:0 auto; width: 20vw; top: 8vh; font-size: 2vw""> 
            <font color=""green""> Bonus : $0.35 </font>
            </div>
        </div>
    ","null","","","","","","","",""
"","","","","","html-keyboard-response","223","251529","0.0-6.33-3.33","610d42ce297f0c4f3542f0c8","656d9e5e2de4f984cfed7d4d","656d9ed52d90244628b2a5f8","586","./stimuli//pack_shapes_1/cat_2/diff_2/ex_2_2_14.png","arrowright","response","ArrowRight","14","2","2","test","true",""
"","","","","","html-keyboard-response","224","251545","0.0-6.33-4.33","610d42ce297f0c4f3542f0c8","656d9e5e2de4f984cfed7d4d","656d9ed52d90244628b2a5f8","14","<p> <font color=""green"" size=""5vw""> Correct category! </font> <br> <br> <font color=""green"" size=""8vw""> + $0.05 </font> </p>","arrowleft","feedback","","","","","","","0.4"
"","","","","","html-keyboard-response","225","253467","0.0-6.34-0.34","610d42ce297f0c4f3542f0c8","656d9e5e2de4f984cfed7d4d","656d9ed52d90244628b2a5f8","1920","
            
        <div style=""text-align: center; position: fixed; top: 5vh; left: 40vw;"">
            <div style=""margin:0 auto; width: 20vw; top: 8vh; font-size: 2vw""> 
            <font color=""green""> Bonus : $0.4 </font>
            </div>
        </div>
    
            <div> Please press any key to continue to the next image.</div>
        ","arrowleft","ITI","","","","","","",""
"","","","","","html-keyboard-response","226","254078","0.0-6.34-1.34","610d42ce297f0c4f3542f0c8","656d9e5e2de4f984cfed7d4d","656d9ed52d90244628b2a5f8","null","
        
        <div style=""text-align: center; position: fixed; top: 5vh; left: 40vw;"">
            <div style=""margin:0 auto; width: 20vw; top: 8vh; font-size: 2vw""> 
            <font color=""green""> Bonus : $0.4 </font>
            </div>
        </div>
    
        <img class=""stim"" src=./stimuli//pack_shapes_1/cat_2/diff_1/ex_2_1_15.png></img>
    ","null","stimulus","","","","","","",""
"","","","","","html-keyboard-response","227","255089","0.0-6.34-2.34","610d42ce297f0c4f3542f0c8","656d9e5e2de4f984cfed7d4d","656d9ed52d90244628b2a5f8","null","
        <div style=""text-align: center; position: fixed; top: 5vh; left: 40vw;"">
            <div style=""margin:0 auto; width: 20vw; top: 8vh; font-size: 2vw""> 
            <font color=""green""> Bonus : $0.4 </font>
            </div>
        </div>
    ","null","","","","","","","",""
"","","","","","html-keyboard-response","228","255666","0.0-6.34-3.34","610d42ce297f0c4f3542f0c8","656d9e5e2de4f984cfed7d4d","656d9ed52d90244628b2a5f8","575","./stimuli//pack_shapes_1/cat_2/diff_1/ex_2_1_15.png","arrowright","response","ArrowRight","15","2","1","test","true",""
