"success","timeout","failed_images","failed_audio","failed_video","trial_type","trial_index","time_elapsed","internal_node_id","subject_id","study_id","session_id","rt","stimulus","response","task","correct_response","exemplar_ID","category","difficulty","phase","correct","bonus"
"true","false","[]","[]","[]","preload","0","2","0.0-0.0","5e306dbd001ff8069617732a","656d9e5e2de4f984cfed7d4d","656d9ec0312272fd91c70743","","","","","","","","","","",""
"","","","","","html-keyboard-response","1","16487","0.0-1.0","5e306dbd001ff8069617732a","656d9e5e2de4f984cfed7d4d","656d9ec0312272fd91c70743","16484","Welcome to the Category Learning experiment! Press any key to continue."," ","welcome","","","","","","",""
"","","","","","html-keyboard-response","2","28727","0.0-2.0","5e306dbd001ff8069617732a","656d9e5e2de4f984cfed7d4d","656d9ec0312272fd91c70743","12240","
            <p>You will be shown images of white shapes. Some are category A, some are category B.
            <br>You will not know in advance which category a specific shape belongs to.</p>
            <p>After you see an image, you will be asked to guess its category <b>(left arrow for category A, right arrow for category B)</b></p>
            <p>After you choose, the screen will show you whether you were correct or not.</p>
            <p><b>You will receive a bonus payment of $0.05 for each correct answer!</b></p>
            <p><b>You will lose $0.05 from your bonus payment for each incorrect answer! The bonus can not become less that $0.</b></p>
            <p>Press any key to continue.</p>
            "," ","introduction_1","","","","","","",""
"","","","","","html-keyboard-response","3","31167","0.0-3.0","5e306dbd001ff8069617732a","656d9e5e2de4f984cfed7d4d","656d9ec0312272fd91c70743","2439","
            <p> <b>The first 10 trials are a practice round that will not count towards your bonus payment.</b></p>
            <p> You will be notified when practice finishes and the test begins. </p>
            <p> Press any key to begin the practice round.</p>
            "," ","introduction_2","","","","","","",""
"","","","","","html-keyboard-response","4","32975","0.0-4.0-0.0","5e306dbd001ff8069617732a","656d9e5e2de4f984cfed7d4d","656d9ec0312272fd91c70743","1808","
            
        <div style=""text-align: center; position: fixed; top: 5vh; left: 40vw;"">
            <div style=""margin:0 auto; width: 20vw; top: 8vh; font-size: 2vw""> 
            <font color=""green""> Bonus : $0 </font>
            </div>
        </div>
    
            <div> Please press any key to continue to the next image.</div>
        "," ","ITI","","","","","","",""
"","","","","","html-keyboard-response","5","33576","0.0-4.0-1.0","5e306dbd001ff8069617732a","656d9e5e2de4f984cfed7d4d","656d9ec0312272fd91c70743","null","
        
        <div style=""text-align: center; position: fixed; top: 5vh; left: 40vw;"">
            <div style=""margin:0 auto; width: 20vw; top: 8vh; font-size: 2vw""> 
            <font color=""green""> Bonus : $0 </font>
            </div>
        </div>
    
        <img class=""stim"" src=./stimuli//pack_shapes_1/cat_1/diff_1/ex_1_1_15.png></img>
    ","null","stimulus","","","","","","",""
"","","","","","html-keyboard-response","6","34582","0.0-4.0-2.0","5e306dbd001ff8069617732a","656d9e5e2de4f984cfed7d4d","656d9ec0312272fd91c70743","null","
        <div style=""text-align: center; position: fixed; top: 5vh; left: 40vw;"">
            <div style=""margin:0 auto; width: 20vw; top: 8vh; font-size: 2vw""> 
            <font color=""green""> Bonus : $0 </font>
            </div>
        </div>
    ","null","","","","","","","",""
"","","","","","html-keyboard-response","7","38588","0.0-4.0-3.0","5e306dbd001ff8069617732a","656d9e5e2de4f984cfed7d4d","656d9ec0312272fd91c70743","null","./stimuli//pack_shapes_1/cat_1/diff_1/ex_1_1_15.png","null","response","ArrowLeft","15","1","1","train","false",""
"","","","","","html-keyboard-response","8","40091","0.0-4.0-4.0","5e306dbd001ff8069617732a","656d9e5e2de4f984cfed7d4d","656d9ec0312272fd91c70743","null","<p> <font color=""red"" size=""5vw""> Time out! </font> <br> <br> Please try to respond as quickly as possible. </p>","null","feedback","","","","","","","0"
"","","","","","html-keyboard-response","9","41959","0.0-4.0-0.1","5e306dbd001ff8069617732a","656d9e5e2de4f984cfed7d4d","656d9ec0312272fd91c70743","1868","
            
        <div style=""text-align: center; position: fixed; top: 5vh; left: 40vw;"">
            <div style=""margin:0 auto; width: 20vw; top: 8vh; font-size: 2vw""> 
            <font color=""green""> Bonus : $0 </font>
            </div>
        </div>
    
            <div> Please press any key to continue to the next image.</div>
        "," ","ITI","","","","","","",""
"","","","","","html-keyboard-response","10","42569","0.0-4.0-1.1","5e306dbd001ff8069617732a","656d9e5e2de4f984cfed7d4d","656d9ec0312272fd91c70743","null","
        
        <div style=""text-align: center; position: fixed; top: 5vh; left: 40vw;"">
            <div style=""margin:0 auto; width: 20vw; top: 8vh; font-size: 2vw""> 
            <font color=""green""> Bonus : $0 </font>
            </div>
        </div>
    
        <img class=""stim"" src=./stimuli//pack_shapes_1/cat_2/diff_2/ex_2_2_2.png></img>
    ","null","stimulus","","","","","","",""
"","","","","","html-keyboard-response","11","43576","0.0-4.0-2.1","5e306dbd001ff8069617732a","656d9e5e2de4f984cfed7d4d","656d9ec0312272fd91c70743","null","
        <div style=""text-align: center; position: fixed; top: 5vh; left: 40vw;"">
            <div style=""margin:0 auto; width: 20vw; top: 8vh; font-size: 2vw""> 
            <font color=""green""> Bonus : $0 </font>
            </div>
        </div>
    ","null","","","","","","","",""
"","","","","","html-keyboard-response","12","47584","0.0-4.0-3.1","5e306dbd001ff8069617732a","656d9e5e2de4f984cfed7d4d","656d9ec0312272fd91c70743","null","./stimuli//pack_shapes_1/cat_2/diff_2/ex_2_2_2.png","null","response","ArrowRight","2","2","2","train","false",""
"","","","","","html-keyboard-response","13","49096","0.0-4.0-4.1","5e306dbd001ff8069617732a","656d9e5e2de4f984cfed7d4d","656d9ec0312272fd91c70743","null","<p> <font color=""red"" size=""5vw""> Time out! </font> <br> <br> Please try to respond as quickly as possible. </p>","null","feedback","","","","","","","0"
"","","","","","html-keyboard-response","14","50665","0.0-4.0-0.2","5e306dbd001ff8069617732a","656d9e5e2de4f984cfed7d4d","656d9ec0312272fd91c70743","1568","
            
        <div style=""text-align: center; position: fixed; top: 5vh; left: 40vw;"">
            <div style=""margin:0 auto; width: 20vw; top: 8vh; font-size: 2vw""> 
            <font color=""green""> Bonus : $0 </font>
            </div>
        </div>
    
            <div> Please press any key to continue to the next image.</div>
        ","a","ITI","","","","","","",""
"","","","","","html-keyboard-response","15","51273","0.0-4.0-1.2","5e306dbd001ff8069617732a","656d9e5e2de4f984cfed7d4d","656d9ec0312272fd91c70743","null","
        
        <div style=""text-align: center; position: fixed; top: 5vh; left: 40vw;"">
            <div style=""margin:0 auto; width: 20vw; top: 8vh; font-size: 2vw""> 
            <font color=""green""> Bonus : $0 </font>
            </div>
        </div>
    
        <img class=""stim"" src=./stimuli//pack_shapes_1/cat_1/diff_1/ex_1_1_17.png></img>
    ","null","stimulus","","","","","","",""
"","","","","","html-keyboard-response","16","52288","0.0-4.0-2.2","5e306dbd001ff8069617732a","656d9e5e2de4f984cfed7d4d","656d9ec0312272fd91c70743","null","
        <div style=""text-align: center; position: fixed; top: 5vh; left: 40vw;"">
            <div style=""margin:0 auto; width: 20vw; top: 8vh; font-size: 2vw""> 
            <font color=""green""> Bonus : $0 </font>
            </div>
        </div>
    ","null","","","","","","","",""
"","","","","","html-keyboard-response","17","52719","0.0-4.0-3.2","5e306dbd001ff8069617732a","656d9e5e2de4f984cfed7d4d","656d9ec0312272fd91c70743","430","./stimuli//pack_shapes_1/cat_1/diff_1/ex_1_1_17.png","arrowright","response","ArrowLeft","17","1","1","train","false",""
"","","","","","html-keyboard-response","18","54230","0.0-4.0-4.2","5e306dbd001ff8069617732a","656d9e5e2de4f984cfed7d4d","656d9ec0312272fd91c70743","null","<p> <font color=""red"" size=""5vw""> Wrong category! </font> </p>","null","feedback","","","","","","","0"
"","","","","","html-keyboard-response","19","55656","0.0-4.0-0.3","5e306dbd001ff8069617732a","656d9e5e2de4f984cfed7d4d","656d9ec0312272fd91c70743","1426","
            
        <div style=""text-align: center; position: fixed; top: 5vh; left: 40vw;"">
            <div style=""margin:0 auto; width: 20vw; top: 8vh; font-size: 2vw""> 
            <font color=""green""> Bonus : $0 </font>
            </div>
        </div>
    
            <div> Please press any key to continue to the next image.</div>
        ","arrowright","ITI","","","","","","",""
"","","","","","html-keyboard-response","20","56263","0.0-4.0-1.3","5e306dbd001ff8069617732a","656d9e5e2de4f984cfed7d4d","656d9ec0312272fd91c70743","null","
        
        <div style=""text-align: center; position: fixed; top: 5vh; left: 40vw;"">
            <div style=""margin:0 auto; width: 20vw; top: 8vh; font-size: 2vw""> 
            <font color=""green""> Bonus : $0 </font>
            </div>
        </div>
    
        <img class=""stim"" src=./stimuli//pack_shapes_1/cat_2/diff_1/ex_2_1_4.png></img>
    ","null","stimulus","","","","","","",""
"","","","","","html-keyboard-response","21","57274","0.0-4.0-2.3","5e306dbd001ff8069617732a","656d9e5e2de4f984cfed7d4d","656d9ec0312272fd91c70743","null","
        <div style=""text-align: center; position: fixed; top: 5vh; left: 40vw;"">
            <div style=""margin:0 auto; width: 20vw; top: 8vh; font-size: 2vw""> 
            <font color=""green""> Bonus : $0 </font>
            </div>
        </div>
    ","null","","","","","","","",""
"","","","","","html-keyboard-response","22","57768","0.0-4.0-3.3","5e306dbd001ff8069617732a","656d9e5e2de4f984cfed7d4d","656d9ec0312272fd91c70743","493","./stimuli//pack_shapes_1/cat_2/diff_1/ex_2_1_4.png","arrowleft","response","ArrowRight","4","2","1","train","false",""
"","","","","","html-keyboard-response","23","59284","0.0-4.0-4.3","5e306dbd001ff8069617732a","656d9e5e2de4f984cfed7d4d","656d9ec0312272fd91c70743","null","<p> <font color=""red"" size=""5vw""> Wrong category! </font> </p>","null","feedback","","","","","","","0"
"","","","","","html-keyboard-response","24","61584","0.0-4.0-0.4","5e306dbd001ff8069617732a","656d9e5e2de4f984cfed7d4d","656d9ec0312272fd91c70743","2299","
            
        <div style=""text-align: center; position: fixed; top: 5vh; left: 40vw;"">
            <div style=""margin:0 auto; width: 20vw; top: 8vh; font-size: 2vw""> 
            <font color=""green""> Bonus : $0 </font>
            </div>
        </div>
    
            <div> Please press any key to continue to the next image.</div>
        ","arrowleft","ITI","","","","","","",""
"","","","","","html-keyboard-response","25","62186","0.0-4.0-1.4","5e306dbd001ff8069617732a","656d9e5e2de4f984cfed7d4d","656d9ec0312272fd91c70743","null","
        
        <div style=""text-align: center; position: fixed; top: 5vh; left: 40vw;"">
            <div style=""margin:0 auto; width: 20vw; top: 8vh; font-size: 2vw""> 
            <font color=""green""> Bonus : $0 </font>
            </div>
        </div>
    
        <img class=""stim"" src=./stimuli//pack_shapes_1/cat_1/diff_1/ex_1_1_5.png></img>
    ","null","stimulus","","","","","","",""
"","","","","","html-keyboard-response","26","63196","0.0-4.0-2.4","5e306dbd001ff8069617732a","656d9e5e2de4f984cfed7d4d","656d9ec0312272fd91c70743","null","
        <div style=""text-align: center; position: fixed; top: 5vh; left: 40vw;"">
            <div style=""margin:0 auto; width: 20vw; top: 8vh; font-size: 2vw""> 
            <font color=""green""> Bonus : $0 </font>
            </div>
        </div>
    ","null","","","","","","","",""
"","","","","","html-keyboard-response","27","63456","0.0-4.0-3.4","5e306dbd001ff8069617732a","656d9e5e2de4f984cfed7d4d","656d9ec0312272fd91c70743","260","./stimuli//pack_shapes_1/cat_1/diff_1/ex_1_1_5.png","arrowleft","response","ArrowLeft","5","1","1","train","true",""
"","","","","","html-keyboard-response","28","64963","0.0-4.0-4.4","5e306dbd001ff8069617732a","656d9e5e2de4f984cfed7d4d","656d9ec0312272fd91c70743","null","<p><font color=""green"" size=""5vw""> Correct category! </font></p>","null","feedback","","","","","","","0"
"","","","","","html-keyboard-response","29","65992","0.0-4.0-0.5","5e306dbd001ff8069617732a","656d9e5e2de4f984cfed7d4d","656d9ec0312272fd91c70743","1028","
            
        <div style=""text-align: center; position: fixed; top: 5vh; left: 40vw;"">
            <div style=""margin:0 auto; width: 20vw; top: 8vh; font-size: 2vw""> 
            <font color=""green""> Bonus : $0 </font>
            </div>
        </div>
    
            <div> Please press any key to continue to the next image.</div>
        ","arrowleft","ITI","","","","","","",""
"","","","","","html-keyboard-response","30","66598","0.0-4.0-1.5","5e306dbd001ff8069617732a","656d9e5e2de4f984cfed7d4d","656d9ec0312272fd91c70743","null","
        
        <div style=""text-align: center; position: fixed; top: 5vh; left: 40vw;"">
            <div style=""margin:0 auto; width: 20vw; top: 8vh; font-size: 2vw""> 
            <font color=""green""> Bonus : $0 </font>
            </div>
        </div>
    
        <img class=""stim"" src=./stimuli//pack_shapes_1/cat_2/diff_1/ex_2_1_16.png></img>
    ","null","stimulus","","","","","","",""
"","","","","","html-keyboard-response","31","67613","0.0-4.0-2.5","5e306dbd001ff8069617732a","656d9e5e2de4f984cfed7d4d","656d9ec0312272fd91c70743","null","
        <div style=""text-align: center; position: fixed; top: 5vh; left: 40vw;"">
            <div style=""margin:0 auto; width: 20vw; top: 8vh; font-size: 2vw""> 
            <font color=""green""> Bonus : $0 </font>
            </div>
        </div>
    ","null","","","","","","","",""
"","","","","","html-keyboard-response","32","68008","0.0-4.0-3.5","5e306dbd001ff8069617732a","656d9e5e2de4f984cfed7d4d","656d9ec0312272fd91c70743","395","./stimuli//pack_shapes_1/cat_2/diff_1/ex_2_1_16.png","arrowright","response","ArrowRight","16","2","1","train","true",""
"","","","","","html-keyboard-response","33","69525","0.0-4.0-4.5","5e306dbd001ff8069617732a","656d9e5e2de4f984cfed7d4d","656d9ec0312272fd91c70743","null","<p><font color=""green"" size=""5vw""> Correct category! </font></p>","null","feedback","","","","","","","0"
"","","","","","html-keyboard-response","34","70720","0.0-4.0-0.6","5e306dbd001ff8069617732a","656d9e5e2de4f984cfed7d4d","656d9ec0312272fd91c70743","1194","
            
        <div style=""text-align: center; position: fixed; top: 5vh; left: 40vw;"">
            <div style=""margin:0 auto; width: 20vw; top: 8vh; font-size: 2vw""> 
            <font color=""green""> Bonus : $0 </font>
            </div>
        </div>
    
            <div> Please press any key to continue to the next image.</div>
        ","arrowright","ITI","","","","","","",""
"","","","","","html-keyboard-response","35","71323","0.0-4.0-1.6","5e306dbd001ff8069617732a","656d9e5e2de4f984cfed7d4d","656d9ec0312272fd91c70743","null","
        
        <div style=""text-align: center; position: fixed; top: 5vh; left: 40vw;"">
            <div style=""margin:0 auto; width: 20vw; top: 8vh; font-size: 2vw""> 
            <font color=""green""> Bonus : $0 </font>
            </div>
        </div>
    
        <img class=""stim"" src=./stimuli//pack_shapes_1/cat_2/diff_1/ex_2_1_7.png></img>
    ","null","stimulus","","","","","","",""
"","","","","","html-keyboard-response","36","72336","0.0-4.0-2.6","5e306dbd001ff8069617732a","656d9e5e2de4f984cfed7d4d","656d9ec0312272fd91c70743","null","
        <div style=""text-align: center; position: fixed; top: 5vh; left: 40vw;"">
            <div style=""margin:0 auto; width: 20vw; top: 8vh; font-size: 2vw""> 
            <font color=""green""> Bonus : $0 </font>
            </div>
        </div>
    ","null","","","","","","","",""
"","","","","","html-keyboard-response","37","72585","0.0-4.0-3.6","5e306dbd001ff8069617732a","656d9e5e2de4f984cfed7d4d","656d9ec0312272fd91c70743","248","./stimuli//pack_shapes_1/cat_2/diff_1/ex_2_1_7.png","arrowright","response","ArrowRight","7","2","1","train","true",""
"","","","","","html-keyboard-response","38","74098","0.0-4.0-4.6","5e306dbd001ff8069617732a","656d9e5e2de4f984cfed7d4d","656d9ec0312272fd91c70743","null","<p><font color=""green"" size=""5vw""> Correct category! </font></p>","null","feedback","","","","","","","0"
"","","","","","html-keyboard-response","39","74728","0.0-4.0-0.7","5e306dbd001ff8069617732a","656d9e5e2de4f984cfed7d4d","656d9ec0312272fd91c70743","629","
            
        <div style=""text-align: center; position: fixed; top: 5vh; left: 40vw;"">
            <div style=""margin:0 auto; width: 20vw; top: 8vh; font-size: 2vw""> 
            <font color=""green""> Bonus : $0 </font>
            </div>
        </div>
    
            <div> Please press any key to continue to the next image.</div>
        ","arrowright","ITI","","","","","","",""
"","","","","","html-keyboard-response","40","75341","0.0-4.0-1.7","5e306dbd001ff8069617732a","656d9e5e2de4f984cfed7d4d","656d9ec0312272fd91c70743","null","
        
        <div style=""text-align: center; position: fixed; top: 5vh; left: 40vw;"">
            <div style=""margin:0 auto; width: 20vw; top: 8vh; font-size: 2vw""> 
            <font color=""green""> Bonus : $0 </font>
            </div>
        </div>
    
        <img class=""stim"" src=./stimuli//pack_shapes_1/cat_1/diff_2/ex_1_2_16.png></img>
    ","null","stimulus","","","","","","",""
"","","","","","html-keyboard-response","41","76356","0.0-4.0-2.7","5e306dbd001ff8069617732a","656d9e5e2de4f984cfed7d4d","656d9ec0312272fd91c70743","null","
        <div style=""text-align: center; position: fixed; top: 5vh; left: 40vw;"">
            <div style=""margin:0 auto; width: 20vw; top: 8vh; font-size: 2vw""> 
            <font color=""green""> Bonus : $0 </font>
            </div>
        </div>
    ","null","","","","","","","",""
"","","","","","html-keyboard-response","42","76617","0.0-4.0-3.7","5e306dbd001ff8069617732a","656d9e5e2de4f984cfed7d4d","656d9ec0312272fd91c70743","261","./stimuli//pack_shapes_1/cat_1/diff_2/ex_1_2_16.png","arrowleft","response","ArrowLeft","16","1","2","train","true",""
"","","","","","html-keyboard-response","43","78119","0.0-4.0-4.7","5e306dbd001ff8069617732a","656d9e5e2de4f984cfed7d4d","656d9ec0312272fd91c70743","null","<p><font color=""green"" size=""5vw""> Correct category! </font></p>","null","feedback","","","","","","","0"
"","","","","","html-keyboard-response","44","80089","0.0-4.0-0.8","5e306dbd001ff8069617732a","656d9e5e2de4f984cfed7d4d","656d9ec0312272fd91c70743","1969","
            
        <div style=""text-align: center; position: fixed; top: 5vh; left: 40vw;"">
            <div style=""margin:0 auto; width: 20vw; top: 8vh; font-size: 2vw""> 
            <font color=""green""> Bonus : $0 </font>
            </div>
        </div>
    
            <div> Please press any key to continue to the next image.</div>
        ","arrowleft","ITI","","","","","","",""
"","","","","","html-keyboard-response","45","80694","0.0-4.0-1.8","5e306dbd001ff8069617732a","656d9e5e2de4f984cfed7d4d","656d9ec0312272fd91c70743","null","
        
        <div style=""text-align: center; position: fixed; top: 5vh; left: 40vw;"">
            <div style=""margin:0 auto; width: 20vw; top: 8vh; font-size: 2vw""> 
            <font color=""green""> Bonus : $0 </font>
            </div>
        </div>
    
        <img class=""stim"" src=./stimuli//pack_shapes_1/cat_1/diff_2/ex_1_2_13.png></img>
    ","null","stimulus","","","","","","",""
"","","","","","html-keyboard-response","46","81709","0.0-4.0-2.8","5e306dbd001ff8069617732a","656d9e5e2de4f984cfed7d4d","656d9ec0312272fd91c70743","null","
        <div style=""text-align: center; position: fixed; top: 5vh; left: 40vw;"">
            <div style=""margin:0 auto; width: 20vw; top: 8vh; font-size: 2vw""> 
            <font color=""green""> Bonus : $0 </font>
            </div>
        </div>
    ","null","","","","","","","",""
"","","","","","html-keyboard-response","47","81976","0.0-4.0-3.8","5e306dbd001ff8069617732a","656d9e5e2de4f984cfed7d4d","656d9ec0312272fd91c70743","267","./stimuli//pack_shapes_1/cat_1/diff_2/ex_1_2_13.png","arrowleft","response","ArrowLeft","13","1","2","train","true",""
"","","","","","html-keyboard-response","48","83487","0.0-4.0-4.8","5e306dbd001ff8069617732a","656d9e5e2de4f984cfed7d4d","656d9ec0312272fd91c70743","null","<p><font color=""green"" size=""5vw""> Correct category! </font></p>","null","feedback","","","","","","","0"
"","","","","","html-keyboard-response","49","85841","0.0-4.0-0.9","5e306dbd001ff8069617732a","656d9e5e2de4f984cfed7d4d","656d9ec0312272fd91c70743","2353","
            
        <div style=""text-align: center; position: fixed; top: 5vh; left: 40vw;"">
            <div style=""margin:0 auto; width: 20vw; top: 8vh; font-size: 2vw""> 
            <font color=""green""> Bonus : $0 </font>
            </div>
        </div>
    
            <div> Please press any key to continue to the next image.</div>
        ","arrowleft","ITI","","","","","","",""
"","","","","","html-keyboard-response","50","86445","0.0-4.0-1.9","5e306dbd001ff8069617732a","656d9e5e2de4f984cfed7d4d","656d9ec0312272fd91c70743","null","
        
        <div style=""text-align: center; position: fixed; top: 5vh; left: 40vw;"">
            <div style=""margin:0 auto; width: 20vw; top: 8vh; font-size: 2vw""> 
            <font color=""green""> Bonus : $0 </font>
            </div>
        </div>
    
        <img class=""stim"" src=./stimuli//pack_shapes_1/cat_2/diff_2/ex_2_2_14.png></img>
    ","null","stimulus","","","","","","",""
"","","","","","html-keyboard-response","51","87459","0.0-4.0-2.9","5e306dbd001ff8069617732a","656d9e5e2de4f984cfed7d4d","656d9ec0312272fd91c70743","null","
        <div style=""text-align: center; position: fixed; top: 5vh; left: 40vw;"">
            <div style=""margin:0 auto; width: 20vw; top: 8vh; font-size: 2vw""> 
            <font color=""green""> Bonus : $0 </font>
            </div>
        </div>
    ","null","","","","","","","",""
"","","","","","html-keyboard-response","52","87953","0.0-4.0-3.9","5e306dbd001ff8069617732a","656d9e5e2de4f984cfed7d4d","656d9ec0312272fd91c70743","493","./stimuli//pack_shapes_1/cat_2/diff_2/ex_2_2_14.png","arrowright","response","ArrowRight","14","2","2","train","true",""
"","","","","","html-keyboard-response","53","89454","0.0-4.0-4.9","5e306dbd001ff8069617732a","656d9e5e2de4f984cfed7d4d","656d9ec0312272fd91c70743","null","<p><font color=""green"" size=""5vw""> Correct category! </font></p>","null","feedback","","","","","","","0"
"","","","","","html-keyboard-response","54","116082","0.0-5.0","5e306dbd001ff8069617732a","656d9e5e2de4f984cfed7d4d","656d9ec0312272fd91c70743","26627","
            <b> <p> The practice round has finished.</p>
            <p> For the rest of the experiment you will receive a $0.05 bonus for each correct answer and lose $0.05 from your bonus for each incorrect answer!</p>
            <p> The bonus can not become less than $0. </b>
            <p> Press any key to begin the test. </p>
            "," ","intermission","","","","","","",""
"","","","","","html-keyboard-response","55","117633","0.0-6.0-0.0","5e306dbd001ff8069617732a","656d9e5e2de4f984cfed7d4d","656d9ec0312272fd91c70743","1551","
            
        <div style=""text-align: center; position: fixed; top: 5vh; left: 40vw;"">
            <div style=""margin:0 auto; width: 20vw; top: 8vh; font-size: 2vw""> 
            <font color=""green""> Bonus : $0 </font>
            </div>
        </div>
    
            <div> Please press any key to continue to the next image.</div>
        ","arrowleft","ITI","","","","","","",""
"","","","","","html-keyboard-response","56","118247","0.0-6.0-1.0","5e306dbd001ff8069617732a","656d9e5e2de4f984cfed7d4d","656d9ec0312272fd91c70743","null","
        
        <div style=""text-align: center; position: fixed; top: 5vh; left: 40vw;"">
            <div style=""margin:0 auto; width: 20vw; top: 8vh; font-size: 2vw""> 
            <font color=""green""> Bonus : $0 </font>
            </div>
        </div>
    
        <img class=""stim"" src=./stimuli//pack_shapes_1/cat_1/diff_1/ex_1_1_8.png></img>
    ","null","stimulus","","","","","","",""
"","","","","","html-keyboard-response","57","119260","0.0-6.0-2.0","5e306dbd001ff8069617732a","656d9e5e2de4f984cfed7d4d","656d9ec0312272fd91c70743","null","
        <div style=""text-align: center; position: fixed; top: 5vh; left: 40vw;"">
            <div style=""margin:0 auto; width: 20vw; top: 8vh; font-size: 2vw""> 
            <font color=""green""> Bonus : $0 </font>
            </div>
        </div>
    ","null","","","","","","","",""
"","","","","","html-keyboard-response","58","119354","0.0-6.0-3.0","5e306dbd001ff8069617732a","656d9e5e2de4f984cfed7d4d","656d9ec0312272fd91c70743","94","./stimuli//pack_shapes_1/cat_1/diff_1/ex_1_1_8.png","arrowleft","response","ArrowLeft","8","1","1","test","true",""
"","","","","","html-keyboard-response","59","120871","0.0-6.0-4.0","5e306dbd001ff8069617732a","656d9e5e2de4f984cfed7d4d","656d9ec0312272fd91c70743","null","<p> <font color=""green"" size=""5vw""> Correct category! </font> <br> <br> <font color=""green"" size=""8vw""> + $0.05 </font> </p>","null","feedback","","","","","","","0.05"
"","","","","","html-keyboard-response","60","121545","0.0-6.1-0.1","5e306dbd001ff8069617732a","656d9e5e2de4f984cfed7d4d","656d9ec0312272fd91c70743","674","
            
        <div style=""text-align: center; position: fixed; top: 5vh; left: 40vw;"">
            <div style=""margin:0 auto; width: 20vw; top: 8vh; font-size: 2vw""> 
            <font color=""green""> Bonus : $0.05 </font>
            </div>
        </div>
    
            <div> Please press any key to continue to the next image.</div>
        ","arrowleft","ITI","","","","","","",""
"","","","","","html-keyboard-response","61","122150","0.0-6.1-1.1","5e306dbd001ff8069617732a","656d9e5e2de4f984cfed7d4d","656d9ec0312272fd91c70743","null","
        
        <div style=""text-align: center; position: fixed; top: 5vh; left: 40vw;"">
            <div style=""margin:0 auto; width: 20vw; top: 8vh; font-size: 2vw""> 
            <font color=""green""> Bonus : $0.05 </font>
            </div>
        </div>
    
        <img class=""stim"" src=./stimuli//pack_shapes_1/cat_1/diff_1/ex_1_1_4.png></img>
    ","null","stimulus","","","","","","",""
"","","","","","html-keyboard-response","62","123152","0.0-6.1-2.1","5e306dbd001ff8069617732a","656d9e5e2de4f984cfed7d4d","656d9ec0312272fd91c70743","null","
        <div style=""text-align: center; position: fixed; top: 5vh; left: 40vw;"">
            <div style=""margin:0 auto; width: 20vw; top: 8vh; font-size: 2vw""> 
            <font color=""green""> Bonus : $0.05 </font>
            </div>
        </div>
    ","null","","","","","","","",""
"","","","","","html-keyboard-response","63","123345","0.0-6.1-3.1","5e306dbd001ff8069617732a","656d9e5e2de4f984cfed7d4d","656d9ec0312272fd91c70743","192","./stimuli//pack_shapes_1/cat_1/diff_1/ex_1_1_4.png","arrowleft","response","ArrowLeft","4","1","1","test","true",""
"","","","","","html-keyboard-response","64","124858","0.0-6.1-4.1","5e306dbd001ff8069617732a","656d9e5e2de4f984cfed7d4d","656d9ec0312272fd91c70743","null","<p> <font color=""green"" size=""5vw""> Correct category! </font> <br> <br> <font color=""green"" size=""8vw""> + $0.05 </font> </p>","null","feedback","","","","","","","0.1"
"","","","","","html-keyboard-response","65","125386","0.0-6.2-0.2","5e306dbd001ff8069617732a","656d9e5e2de4f984cfed7d4d","656d9ec0312272fd91c70743","527","
            
        <div style=""text-align: center; position: fixed; top: 5vh; left: 40vw;"">
            <div style=""margin:0 auto; width: 20vw; top: 8vh; font-size: 2vw""> 
            <font color=""green""> Bonus : $0.1 </font>
            </div>
        </div>
    
            <div> Please press any key to continue to the next image.</div>
        ","arrowleft","ITI","","","","","","",""
"","","","","","html-keyboard-response","66","125998","0.0-6.2-1.2","5e306dbd001ff8069617732a","656d9e5e2de4f984cfed7d4d","656d9ec0312272fd91c70743","null","
        
        <div style=""text-align: center; position: fixed; top: 5vh; left: 40vw;"">
            <div style=""margin:0 auto; width: 20vw; top: 8vh; font-size: 2vw""> 
            <font color=""green""> Bonus : $0.1 </font>
            </div>
        </div>
    
        <img class=""stim"" src=./stimuli//pack_shapes_1/cat_1/diff_1/ex_1_1_14.png></img>
    ","null","stimulus","","","","","","",""
"","","","","","html-keyboard-response","67","127012","0.0-6.2-2.2","5e306dbd001ff8069617732a","656d9e5e2de4f984cfed7d4d","656d9ec0312272fd91c70743","null","
        <div style=""text-align: center; position: fixed; top: 5vh; left: 40vw;"">
            <div style=""margin:0 auto; width: 20vw; top: 8vh; font-size: 2vw""> 
            <font color=""green""> Bonus : $0.1 </font>
            </div>
        </div>
    ","null","","","","","","","",""
"","","","","","html-keyboard-response","68","127250","0.0-6.2-3.2","5e306dbd001ff8069617732a","656d9e5e2de4f984cfed7d4d","656d9ec0312272fd91c70743","237","./stimuli//pack_shapes_1/cat_1/diff_1/ex_1_1_14.png","arrowleft","response","ArrowLeft","14","1","1","test","true",""
"","","","","","html-keyboard-response","69","128757","0.0-6.2-4.2","5e306dbd001ff8069617732a","656d9e5e2de4f984cfed7d4d","656d9ec0312272fd91c70743","null","<p> <font color=""green"" size=""5vw""> Correct category! </font> <br> <br> <font color=""green"" size=""8vw""> + $0.05 </font> </p>","null","feedback","","","","","","","0.15"
"","","","","","html-keyboard-response","70","129194","0.0-6.3-0.3","5e306dbd001ff8069617732a","656d9e5e2de4f984cfed7d4d","656d9ec0312272fd91c70743","436","
            
        <div style=""text-align: center; position: fixed; top: 5vh; left: 40vw;"">
            <div style=""margin:0 auto; width: 20vw; top: 8vh; font-size: 2vw""> 
            <font color=""green""> Bonus : $0.15 </font>
            </div>
        </div>
    
            <div> Please press any key to continue to the next image.</div>
        ","arrowleft","ITI","","","","","","",""
"","","","","","html-keyboard-response","71","129804","0.0-6.3-1.3","5e306dbd001ff8069617732a","656d9e5e2de4f984cfed7d4d","656d9ec0312272fd91c70743","null","
        
        <div style=""text-align: center; position: fixed; top: 5vh; left: 40vw;"">
            <div style=""margin:0 auto; width: 20vw; top: 8vh; font-size: 2vw""> 
            <font color=""green""> Bonus : $0.15 </font>
            </div>
        </div>
    
        <img class=""stim"" src=./stimuli//pack_shapes_1/cat_1/diff_1/ex_1_1_9.png></img>
    ","null","stimulus","","","","","","",""
"","","","","","html-keyboard-response","72","130820","0.0-6.3-2.3","5e306dbd001ff8069617732a","656d9e5e2de4f984cfed7d4d","656d9ec0312272fd91c70743","null","
        <div style=""text-align: center; position: fixed; top: 5vh; left: 40vw;"">
            <div style=""margin:0 auto; width: 20vw; top: 8vh; font-size: 2vw""> 
            <font color=""green""> Bonus : $0.15 </font>
            </div>
        </div>
    ","null","","","","","","","",""
"","","","","","html-keyboard-response","73","131026","0.0-6.3-3.3","5e306dbd001ff8069617732a","656d9e5e2de4f984cfed7d4d","656d9ec0312272fd91c70743","206","./stimuli//pack_shapes_1/cat_1/diff_1/ex_1_1_9.png","arrowleft","response","ArrowLeft","9","1","1","test","true",""
"","","","","","html-keyboard-response","74","132534","0.0-6.3-4.3","5e306dbd001ff8069617732a","656d9e5e2de4f984cfed7d4d","656d9ec0312272fd91c70743","null","<p> <font color=""green"" size=""5vw""> Correct category! </font> <br> <br> <font color=""green"" size=""8vw""> + $0.05 </font> </p>","null","feedback","","","","","","","0.2"
"","","","","","html-keyboard-response","75","133051","0.0-6.4-0.4","5e306dbd001ff8069617732a","656d9e5e2de4f984cfed7d4d","656d9ec0312272fd91c70743","516","
            
        <div style=""text-align: center; position: fixed; top: 5vh; left: 40vw;"">
            <div style=""margin:0 auto; width: 20vw; top: 8vh; font-size: 2vw""> 
            <font color=""green""> Bonus : $0.2 </font>
            </div>
        </div>
    
            <div> Please press any key to continue to the next image.</div>
        ","arrowleft","ITI","","","","","","",""
"","","","","","html-keyboard-response","76","133661","0.0-6.4-1.4","5e306dbd001ff8069617732a","656d9e5e2de4f984cfed7d4d","656d9ec0312272fd91c70743","null","
        
        <div style=""text-align: center; position: fixed; top: 5vh; left: 40vw;"">
            <div style=""margin:0 auto; width: 20vw; top: 8vh; font-size: 2vw""> 
            <font color=""green""> Bonus : $0.2 </font>
            </div>
        </div>
    
        <img class=""stim"" src=./stimuli//pack_shapes_1/cat_2/diff_1/ex_2_1_6.png></img>
    ","null","stimulus","","","","","","",""
"","","","","","html-keyboard-response","77","134677","0.0-6.4-2.4","5e306dbd001ff8069617732a","656d9e5e2de4f984cfed7d4d","656d9ec0312272fd91c70743","null","
        <div style=""text-align: center; position: fixed; top: 5vh; left: 40vw;"">
            <div style=""margin:0 auto; width: 20vw; top: 8vh; font-size: 2vw""> 
            <font color=""green""> Bonus : $0.2 </font>
            </div>
        </div>
    ","null","","","","","","","",""
"","","","","","html-keyboard-response","78","134954","0.0-6.4-3.4","5e306dbd001ff8069617732a","656d9e5e2de4f984cfed7d4d","656d9ec0312272fd91c70743","276","./stimuli//pack_shapes_1/cat_2/diff_1/ex_2_1_6.png","arrowright","response","ArrowRight","6","2","1","test","true",""
"","","","","","html-keyboard-response","79","136463","0.0-6.4-4.4","5e306dbd001ff8069617732a","656d9e5e2de4f984cfed7d4d","656d9ec0312272fd91c70743","null","<p> <font color=""green"" size=""5vw""> Correct category! </font> <br> <br> <font color=""green"" size=""8vw""> + $0.05 </font> </p>","null","feedback","","","","","","","0.25"
"","","","","","html-keyboard-response","80","137115","0.0-6.5-0.5","5e306dbd001ff8069617732a","656d9e5e2de4f984cfed7d4d","656d9ec0312272fd91c70743","651","
            
        <div style=""text-align: center; position: fixed; top: 5vh; left: 40vw;"">
            <div style=""margin:0 auto; width: 20vw; top: 8vh; font-size: 2vw""> 
            <font color=""green""> Bonus : $0.25 </font>
            </div>
        </div>
    
            <div> Please press any key to continue to the next image.</div>
        ","arrowright","ITI","","","","","","",""
"","","","","","html-keyboard-response","81","137717","0.0-6.5-1.5","5e306dbd001ff8069617732a","656d9e5e2de4f984cfed7d4d","656d9ec0312272fd91c70743","null","
        
        <div style=""text-align: center; position: fixed; top: 5vh; left: 40vw;"">
            <div style=""margin:0 auto; width: 20vw; top: 8vh; font-size: 2vw""> 
            <font color=""green""> Bonus : $0.25 </font>
            </div>
        </div>
    
        <img class=""stim"" src=./stimuli//pack_shapes_1/cat_1/diff_2/ex_1_2_5.png></img>
    ","null","stimulus","","","","","","",""
"","","","","","html-keyboard-response","82","138729","0.0-6.5-2.5","5e306dbd001ff8069617732a","656d9e5e2de4f984cfed7d4d","656d9ec0312272fd91c70743","null","
        <div style=""text-align: center; position: fixed; top: 5vh; left: 40vw;"">
            <div style=""margin:0 auto; width: 20vw; top: 8vh; font-size: 2vw""> 
            <font color=""green""> Bonus : $0.25 </font>
            </div>
        </div>
    ","null","","","","","","","",""
"","","","","","html-keyboard-response","83","138899","0.0-6.5-3.5","5e306dbd001ff8069617732a","656d9e5e2de4f984cfed7d4d","656d9ec0312272fd91c70743","169","./stimuli//pack_shapes_1/cat_1/diff_2/ex_1_2_5.png","arrowleft","response","ArrowLeft","5","1","2","test","true",""
"","","","","","html-keyboard-response","84","140414","0.0-6.5-4.5","5e306dbd001ff8069617732a","656d9e5e2de4f984cfed7d4d","656d9ec0312272fd91c70743","null","<p> <font color=""green"" size=""5vw""> Correct category! </font> <br> <br> <font color=""green"" size=""8vw""> + $0.05 </font> </p>","null","feedback","","","","","","","0.3"
"","","","","","html-keyboard-response","85","140907","0.0-6.6-0.6","5e306dbd001ff8069617732a","656d9e5e2de4f984cfed7d4d","656d9ec0312272fd91c70743","492","
            
        <div style=""text-align: center; position: fixed; top: 5vh; left: 40vw;"">
            <div style=""margin:0 auto; width: 20vw; top: 8vh; font-size: 2vw""> 
            <font color=""green""> Bonus : $0.3 </font>
            </div>
        </div>
    
            <div> Please press any key to continue to the next image.</div>
        ","arrowleft","ITI","","","","","","",""
"","","","","","html-keyboard-response","86","141521","0.0-6.6-1.6","5e306dbd001ff8069617732a","656d9e5e2de4f984cfed7d4d","656d9ec0312272fd91c70743","null","
        
        <div style=""text-align: center; position: fixed; top: 5vh; left: 40vw;"">
            <div style=""margin:0 auto; width: 20vw; top: 8vh; font-size: 2vw""> 
            <font color=""green""> Bonus : $0.3 </font>
            </div>
        </div>
    
        <img class=""stim"" src=./stimuli//pack_shapes_1/cat_2/diff_2/ex_2_2_5.png></img>
    ","null","stimulus","","","","","","",""
"","","","","","html-keyboard-response","87","142536","0.0-6.6-2.6","5e306dbd001ff8069617732a","656d9e5e2de4f984cfed7d4d","656d9ec0312272fd91c70743","null","
        <div style=""text-align: center; position: fixed; top: 5vh; left: 40vw;"">
            <div style=""margin:0 auto; width: 20vw; top: 8vh; font-size: 2vw""> 
            <font color=""green""> Bonus : $0.3 </font>
            </div>
        </div>
    ","null","","","","","","","",""
"","","","","","html-keyboard-response","88","142562","0.0-6.6-3.6","5e306dbd001ff8069617732a","656d9e5e2de4f984cfed7d4d","656d9ec0312272fd91c70743","25","./stimuli//pack_shapes_1/cat_2/diff_2/ex_2_2_5.png","arrowright","response","ArrowRight","5","2","2","test","true",""
"","","","","","html-keyboard-response","89","144072","0.0-6.6-4.6","5e306dbd001ff8069617732a","656d9e5e2de4f984cfed7d4d","656d9ec0312272fd91c70743","null","<p> <font color=""green"" size=""5vw""> Correct category! </font> <br> <br> <font color=""green"" size=""8vw""> + $0.05 </font> </p>","null","feedback","","","","","","","0.35"
"","","","","","html-keyboard-response","90","144611","0.0-6.7-0.7","5e306dbd001ff8069617732a","656d9e5e2de4f984cfed7d4d","656d9ec0312272fd91c70743","538","
            
        <div style=""text-align: center; position: fixed; top: 5vh; left: 40vw;"">
            <div style=""margin:0 auto; width: 20vw; top: 8vh; font-size: 2vw""> 
            <font color=""green""> Bonus : $0.35 </font>
            </div>
        </div>
    
            <div> Please press any key to continue to the next image.</div>
        ","arrowleft","ITI","","","","","","",""
"","","","","","html-keyboard-response","91","145214","0.0-6.7-1.7","5e306dbd001ff8069617732a","656d9e5e2de4f984cfed7d4d","656d9ec0312272fd91c70743","null","
        
        <div style=""text-align: center; position: fixed; top: 5vh; left: 40vw;"">
            <div style=""margin:0 auto; width: 20vw; top: 8vh; font-size: 2vw""> 
            <font color=""green""> Bonus : $0.35 </font>
            </div>
        </div>
    
        <img class=""stim"" src=./stimuli//pack_shapes_1/cat_1/diff_2/ex_1_2_8.png></img>
    ","null","stimulus","","","","","","",""
"","","","","","html-keyboard-response","92","146218","0.0-6.7-2.7","5e306dbd001ff8069617732a","656d9e5e2de4f984cfed7d4d","656d9ec0312272fd91c70743","null","
        <div style=""text-align: center; position: fixed; top: 5vh; left: 40vw;"">
            <div style=""margin:0 auto; width: 20vw; top: 8vh; font-size: 2vw""> 
            <font color=""green""> Bonus : $0.35 </font>
            </div>
        </div>
    ","null","","","","","","","",""
"","","","","","html-keyboard-response","93","146379","0.0-6.7-3.7","5e306dbd001ff8069617732a","656d9e5e2de4f984cfed7d4d","656d9ec0312272fd91c70743","160","./stimuli//pack_shapes_1/cat_1/diff_2/ex_1_2_8.png","arrowleft","response","ArrowLeft","8","1","2","test","true",""
"","","","","","html-keyboard-response","94","147892","0.0-6.7-4.7","5e306dbd001ff8069617732a","656d9e5e2de4f984cfed7d4d","656d9ec0312272fd91c70743","null","<p> <font color=""green"" size=""5vw""> Correct category! </font> <br> <br> <font color=""green"" size=""8vw""> + $0.05 </font> </p>","null","feedback","","","","","","","0.4"
"","","","","","html-keyboard-response","95","148043","0.0-6.8-0.8","5e306dbd001ff8069617732a","656d9e5e2de4f984cfed7d4d","656d9ec0312272fd91c70743","150","
            
        <div style=""text-align: center; position: fixed; top: 5vh; left: 40vw;"">
            <div style=""margin:0 auto; width: 20vw; top: 8vh; font-size: 2vw""> 
            <font color=""green""> Bonus : $0.4 </font>
            </div>
        </div>
    
            <div> Please press any key to continue to the next image.</div>
        ","arrowleft","ITI","","","","","","",""
"","","","","","html-keyboard-response","96","148656","0.0-6.8-1.8","5e306dbd001ff8069617732a","656d9e5e2de4f984cfed7d4d","656d9ec0312272fd91c70743","null","
        
        <div style=""text-align: center; position: fixed; top: 5vh; left: 40vw;"">
            <div style=""margin:0 auto; width: 20vw; top: 8vh; font-size: 2vw""> 
            <font color=""green""> Bonus : $0.4 </font>
            </div>
        </div>
    
        <img class=""stim"" src=./stimuli//pack_shapes_1/cat_2/diff_2/ex_2_2_3.png></img>
    ","null","stimulus","","","","","","",""
"","","","","","html-keyboard-response","97","149658","0.0-6.8-2.8","5e306dbd001ff8069617732a","656d9e5e2de4f984cfed7d4d","656d9ec0312272fd91c70743","null","
        <div style=""text-align: center; position: fixed; top: 5vh; left: 40vw;"">
            <div style=""margin:0 auto; width: 20vw; top: 8vh; font-size: 2vw""> 
            <font color=""green""> Bonus : $0.4 </font>
            </div>
        </div>
    ","null","","","","","","","",""
"","","","","","html-keyboard-response","98","149970","0.0-6.8-3.8","5e306dbd001ff8069617732a","656d9e5e2de4f984cfed7d4d","656d9ec0312272fd91c70743","312","./stimuli//pack_shapes_1/cat_2/diff_2/ex_2_2_3.png","arrowright","response","ArrowRight","3","2","2","test","true",""
"","","","","","html-keyboard-response","99","151485","0.0-6.8-4.8","5e306dbd001ff8069617732a","656d9e5e2de4f984cfed7d4d","656d9ec0312272fd91c70743","null","<p> <font color=""green"" size=""5vw""> Correct category! </font> <br> <br> <font color=""green"" size=""8vw""> + $0.05 </font> </p>","null","feedback","","","","","","","0.45"
"","","","","","html-keyboard-response","100","152139","0.0-6.9-0.9","5e306dbd001ff8069617732a","656d9e5e2de4f984cfed7d4d","656d9ec0312272fd91c70743","653","
            
        <div style=""text-align: center; position: fixed; top: 5vh; left: 40vw;"">
            <div style=""margin:0 auto; width: 20vw; top: 8vh; font-size: 2vw""> 
            <font color=""green""> Bonus : $0.45 </font>
            </div>
        </div>
    
            <div> Please press any key to continue to the next image.</div>
        ","arrowright","ITI","","","","","","",""
"","","","","","html-keyboard-response","101","152748","0.0-6.9-1.9","5e306dbd001ff8069617732a","656d9e5e2de4f984cfed7d4d","656d9ec0312272fd91c70743","null","
        
        <div style=""text-align: center; position: fixed; top: 5vh; left: 40vw;"">
            <div style=""margin:0 auto; width: 20vw; top: 8vh; font-size: 2vw""> 
            <font color=""green""> Bonus : $0.45 </font>
            </div>
        </div>
    
        <img class=""stim"" src=./stimuli//pack_shapes_1/cat_2/diff_2/ex_2_2_15.png></img>
    ","null","stimulus","","","","","","",""
"","","","","","html-keyboard-response","102","153761","0.0-6.9-2.9","5e306dbd001ff8069617732a","656d9e5e2de4f984cfed7d4d","656d9ec0312272fd91c70743","null","
        <div style=""text-align: center; position: fixed; top: 5vh; left: 40vw;"">
            <div style=""margin:0 auto; width: 20vw; top: 8vh; font-size: 2vw""> 
            <font color=""green""> Bonus : $0.45 </font>
            </div>
        </div>
    ","null","","","","","","","",""
"","","","","","html-keyboard-response","103","153995","0.0-6.9-3.9","5e306dbd001ff8069617732a","656d9e5e2de4f984cfed7d4d","656d9ec0312272fd91c70743","233","./stimuli//pack_shapes_1/cat_2/diff_2/ex_2_2_15.png","arrowright","response","ArrowRight","15","2","2","test","true",""
"","","","","","html-keyboard-response","104","155235","0.0-6.9-4.9","5e306dbd001ff8069617732a","656d9e5e2de4f984cfed7d4d","656d9ec0312272fd91c70743","1240","<p> <font color=""green"" size=""5vw""> Correct category! </font> <br> <br> <font color=""green"" size=""8vw""> + $0.05 </font> </p>","arrowright","feedback","","","","","","","0.5"
"","","","","","html-keyboard-response","105","156827","0.0-6.10-0.10","5e306dbd001ff8069617732a","656d9e5e2de4f984cfed7d4d","656d9ec0312272fd91c70743","1592","
            
        <div style=""text-align: center; position: fixed; top: 5vh; left: 40vw;"">
            <div style=""margin:0 auto; width: 20vw; top: 8vh; font-size: 2vw""> 
            <font color=""green""> Bonus : $0.5 </font>
            </div>
        </div>
    
            <div> Please press any key to continue to the next image.</div>
        ","arrowright","ITI","","","","","","",""
"","","","","","html-keyboard-response","106","157442","0.0-6.10-1.10","5e306dbd001ff8069617732a","656d9e5e2de4f984cfed7d4d","656d9ec0312272fd91c70743","null","
        
        <div style=""text-align: center; position: fixed; top: 5vh; left: 40vw;"">
            <div style=""margin:0 auto; width: 20vw; top: 8vh; font-size: 2vw""> 
            <font color=""green""> Bonus : $0.5 </font>
            </div>
        </div>
    
        <img class=""stim"" src=./stimuli//pack_shapes_1/cat_1/diff_3/ex_1_3_12.png></img>
    ","null","stimulus","","","","","","",""
"","","","","","html-keyboard-response","107","158444","0.0-6.10-2.10","5e306dbd001ff8069617732a","656d9e5e2de4f984cfed7d4d","656d9ec0312272fd91c70743","null","
        <div style=""text-align: center; position: fixed; top: 5vh; left: 40vw;"">
            <div style=""margin:0 auto; width: 20vw; top: 8vh; font-size: 2vw""> 
            <font color=""green""> Bonus : $0.5 </font>
            </div>
        </div>
    ","null","","","","","","","",""
"","","","","","html-keyboard-response","108","158508","0.0-6.10-3.10","5e306dbd001ff8069617732a","656d9e5e2de4f984cfed7d4d","656d9ec0312272fd91c70743","63","./stimuli//pack_shapes_1/cat_1/diff_3/ex_1_3_12.png","arrowleft","response","ArrowLeft","12","1","3","test","true",""
"","","","","","html-keyboard-response","109","160010","0.0-6.10-4.10","5e306dbd001ff8069617732a","656d9e5e2de4f984cfed7d4d","656d9ec0312272fd91c70743","null","<p> <font color=""green"" size=""5vw""> Correct category! </font> <br> <br> <font color=""green"" size=""8vw""> + $0.05 </font> </p>","null","feedback","","","","","","","0.55"
"","","","","","html-keyboard-response","110","161371","0.0-6.11-0.11","5e306dbd001ff8069617732a","656d9e5e2de4f984cfed7d4d","656d9ec0312272fd91c70743","1360","
            
        <div style=""text-align: center; position: fixed; top: 5vh; left: 40vw;"">
            <div style=""margin:0 auto; width: 20vw; top: 8vh; font-size: 2vw""> 
            <font color=""green""> Bonus : $0.55 </font>
            </div>
        </div>
    
            <div> Please press any key to continue to the next image.</div>
        ","arrowleft","ITI","","","","","","",""
"","","","","","html-keyboard-response","111","161977","0.0-6.11-1.11","5e306dbd001ff8069617732a","656d9e5e2de4f984cfed7d4d","656d9ec0312272fd91c70743","null","
        
        <div style=""text-align: center; position: fixed; top: 5vh; left: 40vw;"">
            <div style=""margin:0 auto; width: 20vw; top: 8vh; font-size: 2vw""> 
            <font color=""green""> Bonus : $0.55 </font>
            </div>
        </div>
    
        <img class=""stim"" src=./stimuli//pack_shapes_1/cat_1/diff_3/ex_1_3_9.png></img>
    ","null","stimulus","","","","","","",""
"","","","","","html-keyboard-response","112","162990","0.0-6.11-2.11","5e306dbd001ff8069617732a","656d9e5e2de4f984cfed7d4d","656d9ec0312272fd91c70743","null","
        <div style=""text-align: center; position: fixed; top: 5vh; left: 40vw;"">
            <div style=""margin:0 auto; width: 20vw; top: 8vh; font-size: 2vw""> 
            <font color=""green""> Bonus : $0.55 </font>
            </div>
        </div>
    ","null","","","","","","","",""
"","","","","","html-keyboard-response","113","163227","0.0-6.11-3.11","5e306dbd001ff8069617732a","656d9e5e2de4f984cfed7d4d","656d9ec0312272fd91c70743","236","./stimuli//pack_shapes_1/cat_1/diff_3/ex_1_3_9.png","arrowleft","response","ArrowLeft","9","1","3","test","true",""
"","","","","","html-keyboard-response","114","164731","0.0-6.11-4.11","5e306dbd001ff8069617732a","656d9e5e2de4f984cfed7d4d","656d9ec0312272fd91c70743","null","<p> <font color=""green"" size=""5vw""> Correct category! </font> <br> <br> <font color=""green"" size=""8vw""> + $0.05 </font> </p>","null","feedback","","","","","","","0.6"
"","","","","","html-keyboard-response","115","165403","0.0-6.12-0.12","5e306dbd001ff8069617732a","656d9e5e2de4f984cfed7d4d","656d9ec0312272fd91c70743","671","
            
        <div style=""text-align: center; position: fixed; top: 5vh; left: 40vw;"">
            <div style=""margin:0 auto; width: 20vw; top: 8vh; font-size: 2vw""> 
            <font color=""green""> Bonus : $0.6 </font>
            </div>
        </div>
    
            <div> Please press any key to continue to the next image.</div>
        ","arrowleft","ITI","","","","","","",""
"","","","","","html-keyboard-response","116","166006","0.0-6.12-1.12","5e306dbd001ff8069617732a","656d9e5e2de4f984cfed7d4d","656d9ec0312272fd91c70743","null","
        
        <div style=""text-align: center; position: fixed; top: 5vh; left: 40vw;"">
            <div style=""margin:0 auto; width: 20vw; top: 8vh; font-size: 2vw""> 
            <font color=""green""> Bonus : $0.6 </font>
            </div>
        </div>
    
        <img class=""stim"" src=./stimuli//pack_shapes_1/cat_1/diff_3/ex_1_3_11.png></img>
    ","null","stimulus","","","","","","",""
"","","","","","html-keyboard-response","117","167021","0.0-6.12-2.12","5e306dbd001ff8069617732a","656d9e5e2de4f984cfed7d4d","656d9ec0312272fd91c70743","null","
        <div style=""text-align: center; position: fixed; top: 5vh; left: 40vw;"">
            <div style=""margin:0 auto; width: 20vw; top: 8vh; font-size: 2vw""> 
            <font color=""green""> Bonus : $0.6 </font>
            </div>
        </div>
    ","null","","","","","","","",""
"","","","","","html-keyboard-response","118","167604","0.0-6.12-3.12","5e306dbd001ff8069617732a","656d9e5e2de4f984cfed7d4d","656d9ec0312272fd91c70743","583","./stimuli//pack_shapes_1/cat_1/diff_3/ex_1_3_11.png","arrowleft","response","ArrowLeft","11","1","3","test","true",""
"","","","","","html-keyboard-response","119","169111","0.0-6.12-4.12","5e306dbd001ff8069617732a","656d9e5e2de4f984cfed7d4d","656d9ec0312272fd91c70743","null","<p> <font color=""green"" size=""5vw""> Correct category! </font> <br> <br> <font color=""green"" size=""8vw""> + $0.05 </font> </p>","null","feedback","","","","","","","0.65"
"","","","","","html-keyboard-response","120","169540","0.0-6.13-0.13","5e306dbd001ff8069617732a","656d9e5e2de4f984cfed7d4d","656d9ec0312272fd91c70743","429","
            
        <div style=""text-align: center; position: fixed; top: 5vh; left: 40vw;"">
            <div style=""margin:0 auto; width: 20vw; top: 8vh; font-size: 2vw""> 
            <font color=""green""> Bonus : $0.65 </font>
            </div>
        </div>
    
            <div> Please press any key to continue to the next image.</div>
        ","arrowleft","ITI","","","","","","",""
"","","","","","html-keyboard-response","121","170153","0.0-6.13-1.13","5e306dbd001ff8069617732a","656d9e5e2de4f984cfed7d4d","656d9ec0312272fd91c70743","null","
        
        <div style=""text-align: center; position: fixed; top: 5vh; left: 40vw;"">
            <div style=""margin:0 auto; width: 20vw; top: 8vh; font-size: 2vw""> 
            <font color=""green""> Bonus : $0.65 </font>
            </div>
        </div>
    
        <img class=""stim"" src=./stimuli//pack_shapes_1/cat_2/diff_3/ex_2_3_5.png></img>
    ","null","stimulus","","","","","","",""
"","","","","","html-keyboard-response","122","171162","0.0-6.13-2.13","5e306dbd001ff8069617732a","656d9e5e2de4f984cfed7d4d","656d9ec0312272fd91c70743","null","
        <div style=""text-align: center; position: fixed; top: 5vh; left: 40vw;"">
            <div style=""margin:0 auto; width: 20vw; top: 8vh; font-size: 2vw""> 
            <font color=""green""> Bonus : $0.65 </font>
            </div>
        </div>
    ","null","","","","","","","",""
"","","","","","html-keyboard-response","123","171469","0.0-6.13-3.13","5e306dbd001ff8069617732a","656d9e5e2de4f984cfed7d4d","656d9ec0312272fd91c70743","306","./stimuli//pack_shapes_1/cat_2/diff_3/ex_2_3_5.png","arrowright","response","ArrowRight","5","2","3","test","true",""
"","","","","","html-keyboard-response","124","172984","0.0-6.13-4.13","5e306dbd001ff8069617732a","656d9e5e2de4f984cfed7d4d","656d9ec0312272fd91c70743","null","<p> <font color=""green"" size=""5vw""> Correct category! </font> <br> <br> <font color=""green"" size=""8vw""> + $0.05 </font> </p>","null","feedback","","","","","","","0.7"
"","","","","","html-keyboard-response","125","173516","0.0-6.14-0.14","5e306dbd001ff8069617732a","656d9e5e2de4f984cfed7d4d","656d9ec0312272fd91c70743","532","
            
        <div style=""text-align: center; position: fixed; top: 5vh; left: 40vw;"">
            <div style=""margin:0 auto; width: 20vw; top: 8vh; font-size: 2vw""> 
            <font color=""green""> Bonus : $0.7 </font>
            </div>
        </div>
    
            <div> Please press any key to continue to the next image.</div>
        ","arrowright","ITI","","","","","","",""
"","","","","","html-keyboard-response","126","174125","0.0-6.14-1.14","5e306dbd001ff8069617732a","656d9e5e2de4f984cfed7d4d","656d9ec0312272fd91c70743","null","
        
        <div style=""text-align: center; position: fixed; top: 5vh; left: 40vw;"">
            <div style=""margin:0 auto; width: 20vw; top: 8vh; font-size: 2vw""> 
            <font color=""green""> Bonus : $0.7 </font>
            </div>
        </div>
    
        <img class=""stim"" src=./stimuli//pack_shapes_1/cat_1/diff_3/ex_1_3_13.png></img>
    ","null","stimulus","","","","","","",""
"","","","","","html-keyboard-response","127","175127","0.0-6.14-2.14","5e306dbd001ff8069617732a","656d9e5e2de4f984cfed7d4d","656d9ec0312272fd91c70743","null","
        <div style=""text-align: center; position: fixed; top: 5vh; left: 40vw;"">
            <div style=""margin:0 auto; width: 20vw; top: 8vh; font-size: 2vw""> 
            <font color=""green""> Bonus : $0.7 </font>
            </div>
        </div>
    ","null","","","","","","","",""
"","","","","","html-keyboard-response","128","175308","0.0-6.14-3.14","5e306dbd001ff8069617732a","656d9e5e2de4f984cfed7d4d","656d9ec0312272fd91c70743","180","./stimuli//pack_shapes_1/cat_1/diff_3/ex_1_3_13.png","arrowleft","response","ArrowLeft","13","1","3","test","true",""
"","","","","","html-keyboard-response","129","176819","0.0-6.14-4.14","5e306dbd001ff8069617732a","656d9e5e2de4f984cfed7d4d","656d9ec0312272fd91c70743","null","<p> <font color=""green"" size=""5vw""> Correct category! </font> <br> <br> <font color=""green"" size=""8vw""> + $0.05 </font> </p>","null","feedback","","","","","","","0.75"
"","","","","","html-keyboard-response","130","177636","0.0-6.15-0.15","5e306dbd001ff8069617732a","656d9e5e2de4f984cfed7d4d","656d9ec0312272fd91c70743","817","
            
        <div style=""text-align: center; position: fixed; top: 5vh; left: 40vw;"">
            <div style=""margin:0 auto; width: 20vw; top: 8vh; font-size: 2vw""> 
            <font color=""green""> Bonus : $0.75 </font>
            </div>
        </div>
    
            <div> Please press any key to continue to the next image.</div>
        ","arrowleft","ITI","","","","","","",""
"","","","","","html-keyboard-response","131","178252","0.0-6.15-1.15","5e306dbd001ff8069617732a","656d9e5e2de4f984cfed7d4d","656d9ec0312272fd91c70743","null","
        
        <div style=""text-align: center; position: fixed; top: 5vh; left: 40vw;"">
            <div style=""margin:0 auto; width: 20vw; top: 8vh; font-size: 2vw""> 
            <font color=""green""> Bonus : $0.75 </font>
            </div>
        </div>
    
        <img class=""stim"" src=./stimuli//pack_shapes_1/cat_2/diff_4/ex_2_4_9.png></img>
    ","null","stimulus","","","","","","",""
"","","","","","html-keyboard-response","132","179266","0.0-6.15-2.15","5e306dbd001ff8069617732a","656d9e5e2de4f984cfed7d4d","656d9ec0312272fd91c70743","null","
        <div style=""text-align: center; position: fixed; top: 5vh; left: 40vw;"">
            <div style=""margin:0 auto; width: 20vw; top: 8vh; font-size: 2vw""> 
            <font color=""green""> Bonus : $0.75 </font>
            </div>
        </div>
    ","null","","","","","","","",""
"","","","","","html-keyboard-response","133","179509","0.0-6.15-3.15","5e306dbd001ff8069617732a","656d9e5e2de4f984cfed7d4d","656d9ec0312272fd91c70743","242","./stimuli//pack_shapes_1/cat_2/diff_4/ex_2_4_9.png","arrowright","response","ArrowRight","9","2","4","test","true",""
"","","","","","html-keyboard-response","134","181021","0.0-6.15-4.15","5e306dbd001ff8069617732a","656d9e5e2de4f984cfed7d4d","656d9ec0312272fd91c70743","null","<p> <font color=""green"" size=""5vw""> Correct category! </font> <br> <br> <font color=""green"" size=""8vw""> + $0.05 </font> </p>","null","feedback","","","","","","","0.8"
"","","","","","html-keyboard-response","135","181589","0.0-6.16-0.16","5e306dbd001ff8069617732a","656d9e5e2de4f984cfed7d4d","656d9ec0312272fd91c70743","567","
            
        <div style=""text-align: center; position: fixed; top: 5vh; left: 40vw;"">
            <div style=""margin:0 auto; width: 20vw; top: 8vh; font-size: 2vw""> 
            <font color=""green""> Bonus : $0.8 </font>
            </div>
        </div>
    
            <div> Please press any key to continue to the next image.</div>
        ","arrowright","ITI","","","","","","",""
"","","","","","html-keyboard-response","136","182204","0.0-6.16-1.16","5e306dbd001ff8069617732a","656d9e5e2de4f984cfed7d4d","656d9ec0312272fd91c70743","null","
        
        <div style=""text-align: center; position: fixed; top: 5vh; left: 40vw;"">
            <div style=""margin:0 auto; width: 20vw; top: 8vh; font-size: 2vw""> 
            <font color=""green""> Bonus : $0.8 </font>
            </div>
        </div>
    
        <img class=""stim"" src=./stimuli//pack_shapes_1/cat_2/diff_4/ex_2_4_13.png></img>
    ","null","stimulus","","","","","","",""
"","","","","","html-keyboard-response","137","183207","0.0-6.16-2.16","5e306dbd001ff8069617732a","656d9e5e2de4f984cfed7d4d","656d9ec0312272fd91c70743","null","
        <div style=""text-align: center; position: fixed; top: 5vh; left: 40vw;"">
            <div style=""margin:0 auto; width: 20vw; top: 8vh; font-size: 2vw""> 
            <font color=""green""> Bonus : $0.8 </font>
            </div>
        </div>
    ","null","","","","","","","",""
"","","","","","html-keyboard-response","138","183412","0.0-6.16-3.16","5e306dbd001ff8069617732a","656d9e5e2de4f984cfed7d4d","656d9ec0312272fd91c70743","205","./stimuli//pack_shapes_1/cat_2/diff_4/ex_2_4_13.png","arrowright","response","ArrowRight","13","2","4","test","true",""
"","","","","","html-keyboard-response","139","184924","0.0-6.16-4.16","5e306dbd001ff8069617732a","656d9e5e2de4f984cfed7d4d","656d9ec0312272fd91c70743","null","<p> <font color=""green"" size=""5vw""> Correct category! </font> <br> <br> <font color=""green"" size=""8vw""> + $0.05 </font> </p>","null","feedback","","","","","","","0.85"
"","","","","","html-keyboard-response","140","185052","0.0-6.17-0.17","5e306dbd001ff8069617732a","656d9e5e2de4f984cfed7d4d","656d9ec0312272fd91c70743","128","
            
        <div style=""text-align: center; position: fixed; top: 5vh; left: 40vw;"">
            <div style=""margin:0 auto; width: 20vw; top: 8vh; font-size: 2vw""> 
            <font color=""green""> Bonus : $0.85 </font>
            </div>
        </div>
    
            <div> Please press any key to continue to the next image.</div>
        ","arrowright","ITI","","","","","","",""
"","","","","","html-keyboard-response","141","185656","0.0-6.17-1.17","5e306dbd001ff8069617732a","656d9e5e2de4f984cfed7d4d","656d9ec0312272fd91c70743","null","
        
        <div style=""text-align: center; position: fixed; top: 5vh; left: 40vw;"">
            <div style=""margin:0 auto; width: 20vw; top: 8vh; font-size: 2vw""> 
            <font color=""green""> Bonus : $0.85 </font>
            </div>
        </div>
    
        <img class=""stim"" src=./stimuli//pack_shapes_1/cat_1/diff_4/ex_1_4_4.png></img>
    ","null","stimulus","","","","","","",""
"","","","","","html-keyboard-response","142","186660","0.0-6.17-2.17","5e306dbd001ff8069617732a","656d9e5e2de4f984cfed7d4d","656d9ec0312272fd91c70743","null","
        <div style=""text-align: center; position: fixed; top: 5vh; left: 40vw;"">
            <div style=""margin:0 auto; width: 20vw; top: 8vh; font-size: 2vw""> 
            <font color=""green""> Bonus : $0.85 </font>
            </div>
        </div>
    ","null","","","","","","","",""
"","","","","","html-keyboard-response","143","186957","0.0-6.17-3.17","5e306dbd001ff8069617732a","656d9e5e2de4f984cfed7d4d","656d9ec0312272fd91c70743","296","./stimuli//pack_shapes_1/cat_1/diff_4/ex_1_4_4.png","arrowleft","response","ArrowLeft","4","1","4","test","true",""
"","","","","","html-keyboard-response","144","188461","0.0-6.17-4.17","5e306dbd001ff8069617732a","656d9e5e2de4f984cfed7d4d","656d9ec0312272fd91c70743","null","<p> <font color=""green"" size=""5vw""> Correct category! </font> <br> <br> <font color=""green"" size=""8vw""> + $0.05 </font> </p>","null","feedback","","","","","","","0.9"
"","","","","","html-keyboard-response","145","188997","0.0-6.18-0.18","5e306dbd001ff8069617732a","656d9e5e2de4f984cfed7d4d","656d9ec0312272fd91c70743","535","
            
        <div style=""text-align: center; position: fixed; top: 5vh; left: 40vw;"">
            <div style=""margin:0 auto; width: 20vw; top: 8vh; font-size: 2vw""> 
            <font color=""green""> Bonus : $0.9 </font>
            </div>
        </div>
    
            <div> Please press any key to continue to the next image.</div>
        ","arrowleft","ITI","","","","","","",""
"","","","","","html-keyboard-response","146","189600","0.0-6.18-1.18","5e306dbd001ff8069617732a","656d9e5e2de4f984cfed7d4d","656d9ec0312272fd91c70743","null","
        
        <div style=""text-align: center; position: fixed; top: 5vh; left: 40vw;"">
            <div style=""margin:0 auto; width: 20vw; top: 8vh; font-size: 2vw""> 
            <font color=""green""> Bonus : $0.9 </font>
            </div>
        </div>
    
        <img class=""stim"" src=./stimuli//pack_shapes_1/cat_2/diff_4/ex_2_4_14.png></img>
    ","null","stimulus","","","","","","",""
"","","","","","html-keyboard-response","147","190611","0.0-6.18-2.18","5e306dbd001ff8069617732a","656d9e5e2de4f984cfed7d4d","656d9ec0312272fd91c70743","null","
        <div style=""text-align: center; position: fixed; top: 5vh; left: 40vw;"">
            <div style=""margin:0 auto; width: 20vw; top: 8vh; font-size: 2vw""> 
            <font color=""green""> Bonus : $0.9 </font>
            </div>
        </div>
    ","null","","","","","","","",""
"","","","","","html-keyboard-response","148","190861","0.0-6.18-3.18","5e306dbd001ff8069617732a","656d9e5e2de4f984cfed7d4d","656d9ec0312272fd91c70743","249","./stimuli//pack_shapes_1/cat_2/diff_4/ex_2_4_14.png","arrowleft","response","ArrowRight","14","2","4","test","false",""
"","","","","","html-keyboard-response","149","192365","0.0-6.18-4.18","5e306dbd001ff8069617732a","656d9e5e2de4f984cfed7d4d","656d9ec0312272fd91c70743","null","<p> <font color=""red"" size=""5vw""> Wrong category! </font> <br> <br> <font color=""red"" size=""8vw""> - $0.05 </font> </p>","null","feedback","","","","","","","0.85"
"","","","","","html-keyboard-response","150","192877","0.0-6.19-0.19","5e306dbd001ff8069617732a","656d9e5e2de4f984cfed7d4d","656d9ec0312272fd91c70743","510","
            
        <div style=""text-align: center; position: fixed; top: 5vh; left: 40vw;"">
            <div style=""margin:0 auto; width: 20vw; top: 8vh; font-size: 2vw""> 
            <font color=""green""> Bonus : $0.85 </font>
            </div>
        </div>
    
            <div> Please press any key to continue to the next image.</div>
        ","arrowleft","ITI","","","","","","",""
"","","","","","html-keyboard-response","151","193483","0.0-6.19-1.19","5e306dbd001ff8069617732a","656d9e5e2de4f984cfed7d4d","656d9ec0312272fd91c70743","null","
        
        <div style=""text-align: center; position: fixed; top: 5vh; left: 40vw;"">
            <div style=""margin:0 auto; width: 20vw; top: 8vh; font-size: 2vw""> 
            <font color=""green""> Bonus : $0.85 </font>
            </div>
        </div>
    
        <img class=""stim"" src=./stimuli//pack_shapes_1/cat_1/diff_4/ex_1_4_12.png></img>
    ","null","stimulus","","","","","","",""
"","","","","","html-keyboard-response","152","194486","0.0-6.19-2.19","5e306dbd001ff8069617732a","656d9e5e2de4f984cfed7d4d","656d9ec0312272fd91c70743","null","
        <div style=""text-align: center; position: fixed; top: 5vh; left: 40vw;"">
            <div style=""margin:0 auto; width: 20vw; top: 8vh; font-size: 2vw""> 
            <font color=""green""> Bonus : $0.85 </font>
            </div>
        </div>
    ","null","","","","","","","",""
"","","","","","html-keyboard-response","153","194829","0.0-6.19-3.19","5e306dbd001ff8069617732a","656d9e5e2de4f984cfed7d4d","656d9ec0312272fd91c70743","342","./stimuli//pack_shapes_1/cat_1/diff_4/ex_1_4_12.png","arrowleft","response","ArrowLeft","12","1","4","test","true",""
"","","","","","html-keyboard-response","154","196331","0.0-6.19-4.19","5e306dbd001ff8069617732a","656d9e5e2de4f984cfed7d4d","656d9ec0312272fd91c70743","null","<p> <font color=""green"" size=""5vw""> Correct category! </font> <br> <br> <font color=""green"" size=""8vw""> + $0.05 </font> </p>","null","feedback","","","","","","","0.9"
"","","","","","html-keyboard-response","155","196789","0.0-6.20-0.20","5e306dbd001ff8069617732a","656d9e5e2de4f984cfed7d4d","656d9ec0312272fd91c70743","457","
            
        <div style=""text-align: center; position: fixed; top: 5vh; left: 40vw;"">
            <div style=""margin:0 auto; width: 20vw; top: 8vh; font-size: 2vw""> 
            <font color=""green""> Bonus : $0.9 </font>
            </div>
        </div>
    
            <div> Please press any key to continue to the next image.</div>
        ","arrowleft","ITI","","","","","","",""
"","","","","","html-keyboard-response","156","197391","0.0-6.20-1.20","5e306dbd001ff8069617732a","656d9e5e2de4f984cfed7d4d","656d9ec0312272fd91c70743","null","
        
        <div style=""text-align: center; position: fixed; top: 5vh; left: 40vw;"">
            <div style=""margin:0 auto; width: 20vw; top: 8vh; font-size: 2vw""> 
            <font color=""green""> Bonus : $0.9 </font>
            </div>
        </div>
    
        <img class=""stim"" src=./stimuli//pack_shapes_1/cat_1/diff_5/ex_1_5_12.png></img>
    ","null","stimulus","","","","","","",""
"","","","","","html-keyboard-response","157","198404","0.0-6.20-2.20","5e306dbd001ff8069617732a","656d9e5e2de4f984cfed7d4d","656d9ec0312272fd91c70743","null","
        <div style=""text-align: center; position: fixed; top: 5vh; left: 40vw;"">
            <div style=""margin:0 auto; width: 20vw; top: 8vh; font-size: 2vw""> 
            <font color=""green""> Bonus : $0.9 </font>
            </div>
        </div>
    ","null","","","","","","","",""
"","","","","","html-keyboard-response","158","198709","0.0-6.20-3.20","5e306dbd001ff8069617732a","656d9e5e2de4f984cfed7d4d","656d9ec0312272fd91c70743","304","./stimuli//pack_shapes_1/cat_1/diff_5/ex_1_5_12.png","arrowleft","response","ArrowLeft","12","1","5","test","true",""
"","","","","","html-keyboard-response","159","200214","0.0-6.20-4.20","5e306dbd001ff8069617732a","656d9e5e2de4f984cfed7d4d","656d9ec0312272fd91c70743","null","<p> <font color=""green"" size=""5vw""> Correct category! </font> <br> <br> <font color=""green"" size=""8vw""> + $0.05 </font> </p>","null","feedback","","","","","","","0.95"
"","","","","","html-keyboard-response","160","200366","0.0-6.21-0.21","5e306dbd001ff8069617732a","656d9e5e2de4f984cfed7d4d","656d9ec0312272fd91c70743","151","
            
        <div style=""text-align: center; position: fixed; top: 5vh; left: 40vw;"">
            <div style=""margin:0 auto; width: 20vw; top: 8vh; font-size: 2vw""> 
            <font color=""green""> Bonus : $0.95 </font>
            </div>
        </div>
    
            <div> Please press any key to continue to the next image.</div>
        ","arrowleft","ITI","","","","","","",""
"","","","","","html-keyboard-response","161","200980","0.0-6.21-1.21","5e306dbd001ff8069617732a","656d9e5e2de4f984cfed7d4d","656d9ec0312272fd91c70743","null","
        
        <div style=""text-align: center; position: fixed; top: 5vh; left: 40vw;"">
            <div style=""margin:0 auto; width: 20vw; top: 8vh; font-size: 2vw""> 
            <font color=""green""> Bonus : $0.95 </font>
            </div>
        </div>
    
        <img class=""stim"" src=./stimuli//pack_shapes_1/cat_2/diff_5/ex_2_5_15.png></img>
    ","null","stimulus","","","","","","",""
"","","","","","html-keyboard-response","162","201982","0.0-6.21-2.21","5e306dbd001ff8069617732a","656d9e5e2de4f984cfed7d4d","656d9ec0312272fd91c70743","null","
        <div style=""text-align: center; position: fixed; top: 5vh; left: 40vw;"">
            <div style=""margin:0 auto; width: 20vw; top: 8vh; font-size: 2vw""> 
            <font color=""green""> Bonus : $0.95 </font>
            </div>
        </div>
    ","null","","","","","","","",""
"","","","","","html-keyboard-response","163","202453","0.0-6.21-3.21","5e306dbd001ff8069617732a","656d9e5e2de4f984cfed7d4d","656d9ec0312272fd91c70743","471","./stimuli//pack_shapes_1/cat_2/diff_5/ex_2_5_15.png","arrowleft","response","ArrowRight","15","2","5","test","false",""
"","","","","","html-keyboard-response","164","203966","0.0-6.21-4.21","5e306dbd001ff8069617732a","656d9e5e2de4f984cfed7d4d","656d9ec0312272fd91c70743","null","<p> <font color=""red"" size=""5vw""> Wrong category! </font> <br> <br> <font color=""red"" size=""8vw""> - $0.05 </font> </p>","null","feedback","","","","","","","0.9"
"","","","","","html-keyboard-response","165","204613","0.0-6.22-0.22","5e306dbd001ff8069617732a","656d9e5e2de4f984cfed7d4d","656d9ec0312272fd91c70743","647","
            
        <div style=""text-align: center; position: fixed; top: 5vh; left: 40vw;"">
            <div style=""margin:0 auto; width: 20vw; top: 8vh; font-size: 2vw""> 
            <font color=""green""> Bonus : $0.9 </font>
            </div>
        </div>
    
            <div> Please press any key to continue to the next image.</div>
        ","arrowleft","ITI","","","","","","",""
"","","","","","html-keyboard-response","166","205217","0.0-6.22-1.22","5e306dbd001ff8069617732a","656d9e5e2de4f984cfed7d4d","656d9ec0312272fd91c70743","null","
        
        <div style=""text-align: center; position: fixed; top: 5vh; left: 40vw;"">
            <div style=""margin:0 auto; width: 20vw; top: 8vh; font-size: 2vw""> 
            <font color=""green""> Bonus : $0.9 </font>
            </div>
        </div>
    
        <img class=""stim"" src=./stimuli//pack_shapes_1/cat_1/diff_5/ex_1_5_8.png></img>
    ","null","stimulus","","","","","","",""
"","","","","","html-keyboard-response","167","206220","0.0-6.22-2.22","5e306dbd001ff8069617732a","656d9e5e2de4f984cfed7d4d","656d9ec0312272fd91c70743","null","
        <div style=""text-align: center; position: fixed; top: 5vh; left: 40vw;"">
            <div style=""margin:0 auto; width: 20vw; top: 8vh; font-size: 2vw""> 
            <font color=""green""> Bonus : $0.9 </font>
            </div>
        </div>
    ","null","","","","","","","",""
"","","","","","html-keyboard-response","168","206477","0.0-6.22-3.22","5e306dbd001ff8069617732a","656d9e5e2de4f984cfed7d4d","656d9ec0312272fd91c70743","257","./stimuli//pack_shapes_1/cat_1/diff_5/ex_1_5_8.png","arrowright","response","ArrowLeft","8","1","5","test","false",""
"","","","","","html-keyboard-response","169","207984","0.0-6.22-4.22","5e306dbd001ff8069617732a","656d9e5e2de4f984cfed7d4d","656d9ec0312272fd91c70743","null","<p> <font color=""red"" size=""5vw""> Wrong category! </font> <br> <br> <font color=""red"" size=""8vw""> - $0.05 </font> </p>","null","feedback","","","","","","","0.85"
"","","","","","html-keyboard-response","170","208517","0.0-6.23-0.23","5e306dbd001ff8069617732a","656d9e5e2de4f984cfed7d4d","656d9ec0312272fd91c70743","533","
            
        <div style=""text-align: center; position: fixed; top: 5vh; left: 40vw;"">
            <div style=""margin:0 auto; width: 20vw; top: 8vh; font-size: 2vw""> 
            <font color=""green""> Bonus : $0.85 </font>
            </div>
        </div>
    
            <div> Please press any key to continue to the next image.</div>
        ","arrowleft","ITI","","","","","","",""
"","","","","","html-keyboard-response","171","209128","0.0-6.23-1.23","5e306dbd001ff8069617732a","656d9e5e2de4f984cfed7d4d","656d9ec0312272fd91c70743","null","
        
        <div style=""text-align: center; position: fixed; top: 5vh; left: 40vw;"">
            <div style=""margin:0 auto; width: 20vw; top: 8vh; font-size: 2vw""> 
            <font color=""green""> Bonus : $0.85 </font>
            </div>
        </div>
    
        <img class=""stim"" src=./stimuli//pack_shapes_1/cat_2/diff_5/ex_2_5_4.png></img>
    ","null","stimulus","","","","","","",""
"","","","","","html-keyboard-response","172","210129","0.0-6.23-2.23","5e306dbd001ff8069617732a","656d9e5e2de4f984cfed7d4d","656d9ec0312272fd91c70743","null","
        <div style=""text-align: center; position: fixed; top: 5vh; left: 40vw;"">
            <div style=""margin:0 auto; width: 20vw; top: 8vh; font-size: 2vw""> 
            <font color=""green""> Bonus : $0.85 </font>
            </div>
        </div>
    ","null","","","","","","","",""
"","","","","","html-keyboard-response","173","210406","0.0-6.23-3.23","5e306dbd001ff8069617732a","656d9e5e2de4f984cfed7d4d","656d9ec0312272fd91c70743","276","./stimuli//pack_shapes_1/cat_2/diff_5/ex_2_5_4.png","arrowleft","response","ArrowRight","4","2","5","test","false",""
"","","","","","html-keyboard-response","174","211920","0.0-6.23-4.23","5e306dbd001ff8069617732a","656d9e5e2de4f984cfed7d4d","656d9ec0312272fd91c70743","null","<p> <font color=""red"" size=""5vw""> Wrong category! </font> <br> <br> <font color=""red"" size=""8vw""> - $0.05 </font> </p>","null","feedback","","","","","","","0.8"
"","","","","","html-keyboard-response","175","212598","0.0-6.24-0.24","5e306dbd001ff8069617732a","656d9e5e2de4f984cfed7d4d","656d9ec0312272fd91c70743","677","
            
        <div style=""text-align: center; position: fixed; top: 5vh; left: 40vw;"">
            <div style=""margin:0 auto; width: 20vw; top: 8vh; font-size: 2vw""> 
            <font color=""green""> Bonus : $0.8 </font>
            </div>
        </div>
    
            <div> Please press any key to continue to the next image.</div>
        ","arrowleft","ITI","","","","","","",""
"","","","","","html-keyboard-response","176","213213","0.0-6.24-1.24","5e306dbd001ff8069617732a","656d9e5e2de4f984cfed7d4d","656d9ec0312272fd91c70743","null","
        
        <div style=""text-align: center; position: fixed; top: 5vh; left: 40vw;"">
            <div style=""margin:0 auto; width: 20vw; top: 8vh; font-size: 2vw""> 
            <font color=""green""> Bonus : $0.8 </font>
            </div>
        </div>
    
        <img class=""stim"" src=./stimuli//pack_shapes_1/cat_1/diff_5/ex_1_5_3.png></img>
    ","null","stimulus","","","","","","",""
"","","","","","html-keyboard-response","177","214224","0.0-6.24-2.24","5e306dbd001ff8069617732a","656d9e5e2de4f984cfed7d4d","656d9ec0312272fd91c70743","null","
        <div style=""text-align: center; position: fixed; top: 5vh; left: 40vw;"">
            <div style=""margin:0 auto; width: 20vw; top: 8vh; font-size: 2vw""> 
            <font color=""green""> Bonus : $0.8 </font>
            </div>
        </div>
    ","null","","","","","","","",""
"","","","","","html-keyboard-response","178","214533","0.0-6.24-3.24","5e306dbd001ff8069617732a","656d9e5e2de4f984cfed7d4d","656d9ec0312272fd91c70743","309","./stimuli//pack_shapes_1/cat_1/diff_5/ex_1_5_3.png","arrowright","response","ArrowLeft","3","1","5","test","false",""
"","","","","","html-keyboard-response","179","216041","0.0-6.24-4.24","5e306dbd001ff8069617732a","656d9e5e2de4f984cfed7d4d","656d9ec0312272fd91c70743","null","<p> <font color=""red"" size=""5vw""> Wrong category! </font> <br> <br> <font color=""red"" size=""8vw""> - $0.05 </font> </p>","null","feedback","","","","","","","0.75"
"","","","","","html-keyboard-response","180","216911","0.0-6.25-0.25","5e306dbd001ff8069617732a","656d9e5e2de4f984cfed7d4d","656d9ec0312272fd91c70743","869","
            
        <div style=""text-align: center; position: fixed; top: 5vh; left: 40vw;"">
            <div style=""margin:0 auto; width: 20vw; top: 8vh; font-size: 2vw""> 
            <font color=""green""> Bonus : $0.75 </font>
            </div>
        </div>
    
            <div> Please press any key to continue to the next image.</div>
        ","arrowleft","ITI","","","","","","",""
"","","","","","html-keyboard-response","181","217524","0.0-6.25-1.25","5e306dbd001ff8069617732a","656d9e5e2de4f984cfed7d4d","656d9ec0312272fd91c70743","null","
        
        <div style=""text-align: center; position: fixed; top: 5vh; left: 40vw;"">
            <div style=""margin:0 auto; width: 20vw; top: 8vh; font-size: 2vw""> 
            <font color=""green""> Bonus : $0.75 </font>
            </div>
        </div>
    
        <img class=""stim"" src=./stimuli//pack_shapes_1/cat_1/diff_4/ex_1_4_10.png></img>
    ","null","stimulus","","","","","","",""
"","","","","","html-keyboard-response","182","218539","0.0-6.25-2.25","5e306dbd001ff8069617732a","656d9e5e2de4f984cfed7d4d","656d9ec0312272fd91c70743","null","
        <div style=""text-align: center; position: fixed; top: 5vh; left: 40vw;"">
            <div style=""margin:0 auto; width: 20vw; top: 8vh; font-size: 2vw""> 
            <font color=""green""> Bonus : $0.75 </font>
            </div>
        </div>
    ","null","","","","","","","",""
"","","","","","html-keyboard-response","183","218814","0.0-6.25-3.25","5e306dbd001ff8069617732a","656d9e5e2de4f984cfed7d4d","656d9ec0312272fd91c70743","274","./stimuli//pack_shapes_1/cat_1/diff_4/ex_1_4_10.png","arrowleft","response","ArrowLeft","10","1","4","test","true",""
"","","","","","html-keyboard-response","184","220319","0.0-6.25-4.25","5e306dbd001ff8069617732a","656d9e5e2de4f984cfed7d4d","656d9ec0312272fd91c70743","null","<p> <font color=""green"" size=""5vw""> Correct category! </font> <br> <br> <font color=""green"" size=""8vw""> + $0.05 </font> </p>","null","feedback","","","","","","","0.8"
"","","","","","html-keyboard-response","185","220911","0.0-6.26-0.26","5e306dbd001ff8069617732a","656d9e5e2de4f984cfed7d4d","656d9ec0312272fd91c70743","591","
            
        <div style=""text-align: center; position: fixed; top: 5vh; left: 40vw;"">
            <div style=""margin:0 auto; width: 20vw; top: 8vh; font-size: 2vw""> 
            <font color=""green""> Bonus : $0.8 </font>
            </div>
        </div>
    
            <div> Please press any key to continue to the next image.</div>
        ","arrowleft","ITI","","","","","","",""
"","","","","","html-keyboard-response","186","221520","0.0-6.26-1.26","5e306dbd001ff8069617732a","656d9e5e2de4f984cfed7d4d","656d9ec0312272fd91c70743","null","
        
        <div style=""text-align: center; position: fixed; top: 5vh; left: 40vw;"">
            <div style=""margin:0 auto; width: 20vw; top: 8vh; font-size: 2vw""> 
            <font color=""green""> Bonus : $0.8 </font>
            </div>
        </div>
    
        <img class=""stim"" src=./stimuli//pack_shapes_1/cat_1/diff_4/ex_1_4_6.png></img>
    ","null","stimulus","","","","","","",""
"","","","","","html-keyboard-response","187","222535","0.0-6.26-2.26","5e306dbd001ff8069617732a","656d9e5e2de4f984cfed7d4d","656d9ec0312272fd91c70743","null","
        <div style=""text-align: center; position: fixed; top: 5vh; left: 40vw;"">
            <div style=""margin:0 auto; width: 20vw; top: 8vh; font-size: 2vw""> 
            <font color=""green""> Bonus : $0.8 </font>
            </div>
        </div>
    ","null","","","","","","","",""
"","","","","","html-keyboard-response","188","222806","0.0-6.26-3.26","5e306dbd001ff8069617732a","656d9e5e2de4f984cfed7d4d","656d9ec0312272fd91c70743","270","./stimuli//pack_shapes_1/cat_1/diff_4/ex_1_4_6.png","arrowleft","response","ArrowLeft","6","1","4","test","true",""
"","","","","","html-keyboard-response","189","224319","0.0-6.26-4.26","5e306dbd001ff8069617732a","656d9e5e2de4f984cfed7d4d","656d9ec0312272fd91c70743","null","<p> <font color=""green"" size=""5vw""> Correct category! </font> <br> <br> <font color=""green"" size=""8vw""> + $0.05 </font> </p>","null","feedback","","","","","","","0.85"
"","","","","","html-keyboard-response","190","224981","0.0-6.27-0.27","5e306dbd001ff8069617732a","656d9e5e2de4f984cfed7d4d","656d9ec0312272fd91c70743","662","
            
        <div style=""text-align: center; position: fixed; top: 5vh; left: 40vw;"">
            <div style=""margin:0 auto; width: 20vw; top: 8vh; font-size: 2vw""> 
            <font color=""green""> Bonus : $0.85 </font>
            </div>
        </div>
    
            <div> Please press any key to continue to the next image.</div>
        ","arrowleft","ITI","","","","","","",""
"","","","","","html-keyboard-response","191","225589","0.0-6.27-1.27","5e306dbd001ff8069617732a","656d9e5e2de4f984cfed7d4d","656d9ec0312272fd91c70743","null","
        
        <div style=""text-align: center; position: fixed; top: 5vh; left: 40vw;"">
            <div style=""margin:0 auto; width: 20vw; top: 8vh; font-size: 2vw""> 
            <font color=""green""> Bonus : $0.85 </font>
            </div>
        </div>
    
        <img class=""stim"" src=./stimuli//pack_shapes_1/cat_1/diff_4/ex_1_4_17.png></img>
    ","null","stimulus","","","","","","",""
"","","","","","html-keyboard-response","192","226591","0.0-6.27-2.27","5e306dbd001ff8069617732a","656d9e5e2de4f984cfed7d4d","656d9ec0312272fd91c70743","null","
        <div style=""text-align: center; position: fixed; top: 5vh; left: 40vw;"">
            <div style=""margin:0 auto; width: 20vw; top: 8vh; font-size: 2vw""> 
            <font color=""green""> Bonus : $0.85 </font>
            </div>
        </div>
    ","null","","","","","","","",""
"","","","","","html-keyboard-response","193","226870","0.0-6.27-3.27","5e306dbd001ff8069617732a","656d9e5e2de4f984cfed7d4d","656d9ec0312272fd91c70743","279","./stimuli//pack_shapes_1/cat_1/diff_4/ex_1_4_17.png","arrowleft","response","ArrowLeft","17","1","4","test","true",""
"","","","","","html-keyboard-response","194","228377","0.0-6.27-4.27","5e306dbd001ff8069617732a","656d9e5e2de4f984cfed7d4d","656d9ec0312272fd91c70743","null","<p> <font color=""green"" size=""5vw""> Correct category! </font> <br> <br> <font color=""green"" size=""8vw""> + $0.05 </font> </p>","null","feedback","","","","","","","0.9"
"","","","","","html-keyboard-response","195","228983","0.0-6.28-0.28","5e306dbd001ff8069617732a","656d9e5e2de4f984cfed7d4d","656d9ec0312272fd91c70743","605","
            
        <div style=""text-align: center; position: fixed; top: 5vh; left: 40vw;"">
            <div style=""margin:0 auto; width: 20vw; top: 8vh; font-size: 2vw""> 
            <font color=""green""> Bonus : $0.9 </font>
            </div>
        </div>
    
            <div> Please press any key to continue to the next image.</div>
        ","arrowleft","ITI","","","","","","",""
"","","","","","html-keyboard-response","196","229594","0.0-6.28-1.28","5e306dbd001ff8069617732a","656d9e5e2de4f984cfed7d4d","656d9ec0312272fd91c70743","null","
        
        <div style=""text-align: center; position: fixed; top: 5vh; left: 40vw;"">
            <div style=""margin:0 auto; width: 20vw; top: 8vh; font-size: 2vw""> 
            <font color=""green""> Bonus : $0.9 </font>
            </div>
        </div>
    
        <img class=""stim"" src=./stimuli//pack_shapes_1/cat_1/diff_4/ex_1_4_3.png></img>
    ","null","stimulus","","","","","","",""
"","","","","","html-keyboard-response","197","230596","0.0-6.28-2.28","5e306dbd001ff8069617732a","656d9e5e2de4f984cfed7d4d","656d9ec0312272fd91c70743","null","
        <div style=""text-align: center; position: fixed; top: 5vh; left: 40vw;"">
            <div style=""margin:0 auto; width: 20vw; top: 8vh; font-size: 2vw""> 
            <font color=""green""> Bonus : $0.9 </font>
            </div>
        </div>
    ","null","","","","","","","",""
"","","","","","html-keyboard-response","198","230871","0.0-6.28-3.28","5e306dbd001ff8069617732a","656d9e5e2de4f984cfed7d4d","656d9ec0312272fd91c70743","273","./stimuli//pack_shapes_1/cat_1/diff_4/ex_1_4_3.png","arrowleft","response","ArrowLeft","3","1","4","test","true",""
"","","","","","html-keyboard-response","199","232377","0.0-6.28-4.28","5e306dbd001ff8069617732a","656d9e5e2de4f984cfed7d4d","656d9ec0312272fd91c70743","null","<p> <font color=""green"" size=""5vw""> Correct category! </font> <br> <br> <font color=""green"" size=""8vw""> + $0.05 </font> </p>","null","feedback","","","","","","","0.95"
"","","","","","html-keyboard-response","200","232935","0.0-6.29-0.29","5e306dbd001ff8069617732a","656d9e5e2de4f984cfed7d4d","656d9ec0312272fd91c70743","557","
            
        <div style=""text-align: center; position: fixed; top: 5vh; left: 40vw;"">
            <div style=""margin:0 auto; width: 20vw; top: 8vh; font-size: 2vw""> 
            <font color=""green""> Bonus : $0.95 </font>
            </div>
        </div>
    
            <div> Please press any key to continue to the next image.</div>
        ","arrowleft","ITI","","","","","","",""
"","","","","","html-keyboard-response","201","233548","0.0-6.29-1.29","5e306dbd001ff8069617732a","656d9e5e2de4f984cfed7d4d","656d9ec0312272fd91c70743","null","
        
        <div style=""text-align: center; position: fixed; top: 5vh; left: 40vw;"">
            <div style=""margin:0 auto; width: 20vw; top: 8vh; font-size: 2vw""> 
            <font color=""green""> Bonus : $0.95 </font>
            </div>
        </div>
    
        <img class=""stim"" src=./stimuli//pack_shapes_1/cat_1/diff_4/ex_1_4_3.png></img>
    ","null","stimulus","","","","","","",""
"","","","","","html-keyboard-response","202","234561","0.0-6.29-2.29","5e306dbd001ff8069617732a","656d9e5e2de4f984cfed7d4d","656d9ec0312272fd91c70743","null","
        <div style=""text-align: center; position: fixed; top: 5vh; left: 40vw;"">
            <div style=""margin:0 auto; width: 20vw; top: 8vh; font-size: 2vw""> 
            <font color=""green""> Bonus : $0.95 </font>
            </div>
        </div>
    ","null","","","","","","","",""
"","","","","","html-keyboard-response","203","234887","0.0-6.29-3.29","5e306dbd001ff8069617732a","656d9e5e2de4f984cfed7d4d","656d9ec0312272fd91c70743","325","./stimuli//pack_shapes_1/cat_1/diff_4/ex_1_4_3.png","arrowleft","response","ArrowLeft","3","1","4","test","true",""
"","","","","","html-keyboard-response","204","236401","0.0-6.29-4.29","5e306dbd001ff8069617732a","656d9e5e2de4f984cfed7d4d","656d9ec0312272fd91c70743","null","<p> <font color=""green"" size=""5vw""> Correct category! </font> <br> <br> <font color=""green"" size=""8vw""> + $0.05 </font> </p>","null","feedback","","","","","","","1"
"","","","","","html-keyboard-response","205","236718","0.0-6.30-0.30","5e306dbd001ff8069617732a","656d9e5e2de4f984cfed7d4d","656d9ec0312272fd91c70743","316","
            
        <div style=""text-align: center; position: fixed; top: 5vh; left: 40vw;"">
            <div style=""margin:0 auto; width: 20vw; top: 8vh; font-size: 2vw""> 
            <font color=""green""> Bonus : $1 </font>
            </div>
        </div>
    
            <div> Please press any key to continue to the next image.</div>
        ","arrowleft","ITI","","","","","","",""
"","","","","","html-keyboard-response","206","237324","0.0-6.30-1.30","5e306dbd001ff8069617732a","656d9e5e2de4f984cfed7d4d","656d9ec0312272fd91c70743","null","
        
        <div style=""text-align: center; position: fixed; top: 5vh; left: 40vw;"">
            <div style=""margin:0 auto; width: 20vw; top: 8vh; font-size: 2vw""> 
            <font color=""green""> Bonus : $1 </font>
            </div>
        </div>
    
        <img class=""stim"" src=./stimuli//pack_shapes_1/cat_1/diff_5/ex_1_5_13.png></img>
    ","null","stimulus","","","","","","",""
"","","","","","html-keyboard-response","207","238337","0.0-6.30-2.30","5e306dbd001ff8069617732a","656d9e5e2de4f984cfed7d4d","656d9ec0312272fd91c70743","null","
        <div style=""text-align: center; position: fixed; top: 5vh; left: 40vw;"">
            <div style=""margin:0 auto; width: 20vw; top: 8vh; font-size: 2vw""> 
            <font color=""green""> Bonus : $1 </font>
            </div>
        </div>
    ","null","","","","","","","",""
"","","","","","html-keyboard-response","208","238639","0.0-6.30-3.30","5e306dbd001ff8069617732a","656d9e5e2de4f984cfed7d4d","656d9ec0312272fd91c70743","301","./stimuli//pack_shapes_1/cat_1/diff_5/ex_1_5_13.png","arrowleft","response","ArrowLeft","13","1","5","test","true",""
"","","","","","html-keyboard-response","209","240147","0.0-6.30-4.30","5e306dbd001ff8069617732a","656d9e5e2de4f984cfed7d4d","656d9ec0312272fd91c70743","null","<p> <font color=""green"" size=""5vw""> Correct category! </font> <br> <br> <font color=""green"" size=""8vw""> + $0.05 </font> </p>","null","feedback","","","","","","","1.05"
"","","","","","html-keyboard-response","210","240831","0.0-6.31-0.31","5e306dbd001ff8069617732a","656d9e5e2de4f984cfed7d4d","656d9ec0312272fd91c70743","683","
            
        <div style=""text-align: center; position: fixed; top: 5vh; left: 40vw;"">
            <div style=""margin:0 auto; width: 20vw; top: 8vh; font-size: 2vw""> 
            <font color=""green""> Bonus : $1.05 </font>
            </div>
        </div>
    
            <div> Please press any key to continue to the next image.</div>
        ","arrowleft","ITI","","","","","","",""
"","","","","","html-keyboard-response","211","241443","0.0-6.31-1.31","5e306dbd001ff8069617732a","656d9e5e2de4f984cfed7d4d","656d9ec0312272fd91c70743","null","
        
        <div style=""text-align: center; position: fixed; top: 5vh; left: 40vw;"">
            <div style=""margin:0 auto; width: 20vw; top: 8vh; font-size: 2vw""> 
            <font color=""green""> Bonus : $1.05 </font>
            </div>
        </div>
    
        <img class=""stim"" src=./stimuli//pack_shapes_1/cat_1/diff_5/ex_1_5_11.png></img>
    ","null","stimulus","","","","","","",""
"","","","","","html-keyboard-response","212","242456","0.0-6.31-2.31","5e306dbd001ff8069617732a","656d9e5e2de4f984cfed7d4d","656d9ec0312272fd91c70743","null","
        <div style=""text-align: center; position: fixed; top: 5vh; left: 40vw;"">
            <div style=""margin:0 auto; width: 20vw; top: 8vh; font-size: 2vw""> 
            <font color=""green""> Bonus : $1.05 </font>
            </div>
        </div>
    ","null","","","","","","","",""
"","","","","","html-keyboard-response","213","242734","0.0-6.31-3.31","5e306dbd001ff8069617732a","656d9e5e2de4f984cfed7d4d","656d9ec0312272fd91c70743","278","./stimuli//pack_shapes_1/cat_1/diff_5/ex_1_5_11.png","arrowleft","response","ArrowLeft","11","1","5","test","true",""
"","","","","","html-keyboard-response","214","244238","0.0-6.31-4.31","5e306dbd001ff8069617732a","656d9e5e2de4f984cfed7d4d","656d9ec0312272fd91c70743","null","<p> <font color=""green"" size=""5vw""> Correct category! </font> <br> <br> <font color=""green"" size=""8vw""> + $0.05 </font> </p>","null","feedback","","","","","","","1.1"
"","","","","","html-keyboard-response","215","244639","0.0-6.32-0.32","5e306dbd001ff8069617732a","656d9e5e2de4f984cfed7d4d","656d9ec0312272fd91c70743","400","
            
        <div style=""text-align: center; position: fixed; top: 5vh; left: 40vw;"">
            <div style=""margin:0 auto; width: 20vw; top: 8vh; font-size: 2vw""> 
            <font color=""green""> Bonus : $1.1 </font>
            </div>
        </div>
    
            <div> Please press any key to continue to the next image.</div>
        ","arrowleft","ITI","","","","","","",""
"","","","","","html-keyboard-response","216","245252","0.0-6.32-1.32","5e306dbd001ff8069617732a","656d9e5e2de4f984cfed7d4d","656d9ec0312272fd91c70743","null","
        
        <div style=""text-align: center; position: fixed; top: 5vh; left: 40vw;"">
            <div style=""margin:0 auto; width: 20vw; top: 8vh; font-size: 2vw""> 
            <font color=""green""> Bonus : $1.1 </font>
            </div>
        </div>
    
        <img class=""stim"" src=./stimuli//pack_shapes_1/cat_1/diff_5/ex_1_5_12.png></img>
    ","null","stimulus","","","","","","",""
"","","","","","html-keyboard-response","217","246267","0.0-6.32-2.32","5e306dbd001ff8069617732a","656d9e5e2de4f984cfed7d4d","656d9ec0312272fd91c70743","null","
        <div style=""text-align: center; position: fixed; top: 5vh; left: 40vw;"">
            <div style=""margin:0 auto; width: 20vw; top: 8vh; font-size: 2vw""> 
            <font color=""green""> Bonus : $1.1 </font>
            </div>
        </div>
    ","null","","","","","","","",""
"","","","","","html-keyboard-response","218","246663","0.0-6.32-3.32","5e306dbd001ff8069617732a","656d9e5e2de4f984cfed7d4d","656d9ec0312272fd91c70743","396","./stimuli//pack_shapes_1/cat_1/diff_5/ex_1_5_12.png","arrowleft","response","ArrowLeft","12","1","5","test","true",""
"","","","","","html-keyboard-response","219","248172","0.0-6.32-4.32","5e306dbd001ff8069617732a","656d9e5e2de4f984cfed7d4d","656d9ec0312272fd91c70743","null","<p> <font color=""green"" size=""5vw""> Correct category! </font> <br> <br> <font color=""green"" size=""8vw""> + $0.05 </font> </p>","null","feedback","","","","","","","1.15"
"","","","","","html-keyboard-response","220","248687","0.0-6.33-0.33","5e306dbd001ff8069617732a","656d9e5e2de4f984cfed7d4d","656d9ec0312272fd91c70743","514","
            
        <div style=""text-align: center; position: fixed; top: 5vh; left: 40vw;"">
            <div style=""margin:0 auto; width: 20vw; top: 8vh; font-size: 2vw""> 
            <font color=""green""> Bonus : $1.15 </font>
            </div>
        </div>
    
            <div> Please press any key to continue to the next image.</div>
        ","arrowleft","ITI","","","","","","",""
"","","","","","html-keyboard-response","221","249296","0.0-6.33-1.33","5e306dbd001ff8069617732a","656d9e5e2de4f984cfed7d4d","656d9ec0312272fd91c70743","null","
        
        <div style=""text-align: center; position: fixed; top: 5vh; left: 40vw;"">
            <div style=""margin:0 auto; width: 20vw; top: 8vh; font-size: 2vw""> 
            <font color=""green""> Bonus : $1.15 </font>
            </div>
        </div>
    
        <img class=""stim"" src=./stimuli//pack_shapes_1/cat_2/diff_5/ex_2_5_6.png></img>
    ","null","stimulus","","","","","","",""
"","","","","","html-keyboard-response","222","250298","0.0-6.33-2.33","5e306dbd001ff8069617732a","656d9e5e2de4f984cfed7d4d","656d9ec0312272fd91c70743","null","
        <div style=""text-align: center; position: fixed; top: 5vh; left: 40vw;"">
            <div style=""margin:0 auto; width: 20vw; top: 8vh; font-size: 2vw""> 
            <font color=""green""> Bonus : $1.15 </font>
            </div>
        </div>
    ","null","","","","","","","",""
"","","","","","html-keyboard-response","223","250583","0.0-6.33-3.33","5e306dbd001ff8069617732a","656d9e5e2de4f984cfed7d4d","656d9ec0312272fd91c70743","285","./stimuli//pack_shapes_1/cat_2/diff_5/ex_2_5_6.png","arrowleft","response","ArrowRight","6","2","5","test","false",""
"","","","","","html-keyboard-response","224","252097","0.0-6.33-4.33","5e306dbd001ff8069617732a","656d9e5e2de4f984cfed7d4d","656d9ec0312272fd91c70743","null","<p> <font color=""red"" size=""5vw""> Wrong category! </font> <br> <br> <font color=""red"" size=""8vw""> - $0.05 </font> </p>","null","feedback","","","","","","","1.1"
"","","","","","html-keyboard-response","225","252647","0.0-6.34-0.34","5e306dbd001ff8069617732a","656d9e5e2de4f984cfed7d4d","656d9ec0312272fd91c70743","549","
            
        <div style=""text-align: center; position: fixed; top: 5vh; left: 40vw;"">
            <div style=""margin:0 auto; width: 20vw; top: 8vh; font-size: 2vw""> 
            <font color=""green""> Bonus : $1.1 </font>
            </div>
        </div>
    
            <div> Please press any key to continue to the next image.</div>
        ","arrowleft","ITI","","","","","","",""
"","","","","","html-keyboard-response","226","253252","0.0-6.34-1.34","5e306dbd001ff8069617732a","656d9e5e2de4f984cfed7d4d","656d9ec0312272fd91c70743","null","
        
        <div style=""text-align: center; position: fixed; top: 5vh; left: 40vw;"">
            <div style=""margin:0 auto; width: 20vw; top: 8vh; font-size: 2vw""> 
            <font color=""green""> Bonus : $1.1 </font>
            </div>
        </div>
    
        <img class=""stim"" src=./stimuli//pack_shapes_1/cat_1/diff_5/ex_1_5_17.png></img>
    ","null","stimulus","","","","","","",""
"","","","","","html-keyboard-response","227","254255","0.0-6.34-2.34","5e306dbd001ff8069617732a","656d9e5e2de4f984cfed7d4d","656d9ec0312272fd91c70743","null","
        <div style=""text-align: center; position: fixed; top: 5vh; left: 40vw;"">
            <div style=""margin:0 auto; width: 20vw; top: 8vh; font-size: 2vw""> 
            <font color=""green""> Bonus : $1.1 </font>
            </div>
        </div>
    ","null","","","","","","","",""
"","","","","","html-keyboard-response","228","254543","0.0-6.34-3.34","5e306dbd001ff8069617732a","656d9e5e2de4f984cfed7d4d","656d9ec0312272fd91c70743","288","./stimuli//pack_shapes_1/cat_1/diff_5/ex_1_5_17.png","arrowright","response","ArrowLeft","17","1","5","test","false",""
