"success","timeout","failed_images","failed_audio","failed_video","trial_type","trial_index","time_elapsed","internal_node_id","subject_id","study_id","session_id","rt","stimulus","response","task","correct_response","exemplar_ID","category","difficulty","phase","correct","bonus"
"true","false","[]","[]","[]","preload","0","1","0.0-0.0","5e8efc69dc9b18027705fc4b","656d9e5e2de4f984cfed7d4d","656d9ef82335be29f7484144","","","","","","","","","","",""
"","","","","","html-keyboard-response","1","10793","0.0-1.0","5e8efc69dc9b18027705fc4b","656d9e5e2de4f984cfed7d4d","656d9ef82335be29f7484144","10792","Welcome to the Category Learning experiment! Press any key to continue."," ","welcome","","","","","","",""
"","","","","","html-keyboard-response","2","45432","0.0-2.0","5e8efc69dc9b18027705fc4b","656d9e5e2de4f984cfed7d4d","656d9ef82335be29f7484144","34638","
            <p>You will be shown images of white shapes. Some are category A, some are category B.
            <br>You will not know in advance which category a specific shape belongs to.</p>
            <p>After you see an image, you will be asked to guess its category <b>(left arrow for category A, right arrow for category B)</b></p>
            <p>After you choose, the screen will show you whether you were correct or not.</p>
            <p><b>You will receive a bonus payment of $0.05 for each correct answer!</b></p>
            <p><b>You will lose $0.05 from your bonus payment for each incorrect answer! The bonus can not become less that $0.</b></p>
            <p>Press any key to continue.</p>
            ",",","introduction_1","","","","","","",""
"","","","","","html-keyboard-response","3","47831","0.0-3.0","5e8efc69dc9b18027705fc4b","656d9e5e2de4f984cfed7d4d","656d9ef82335be29f7484144","2398","
            <p> <b>The first 10 trials are a practice round that will not count towards your bonus payment.</b></p>
            <p> You will be notified when practice finishes and the test begins. </p>
            <p> Press any key to begin the practice round.</p>
            ","numlock","introduction_2","","","","","","",""
"","","","","","html-keyboard-response","4","53299","0.0-4.0-0.0","5e8efc69dc9b18027705fc4b","656d9e5e2de4f984cfed7d4d","656d9ef82335be29f7484144","5468","
            
        <div style=""text-align: center; position: fixed; top: 5vh; left: 40vw;"">
            <div style=""margin:0 auto; width: 20vw; top: 8vh; font-size: 2vw""> 
            <font color=""green""> Bonus : $0 </font>
            </div>
        </div>
    
            <div> Please press any key to continue to the next image.</div>
        ","arrowright","ITI","","","","","","",""
"","","","","","html-keyboard-response","5","53901","0.0-4.0-1.0","5e8efc69dc9b18027705fc4b","656d9e5e2de4f984cfed7d4d","656d9ef82335be29f7484144","null","
        
        <div style=""text-align: center; position: fixed; top: 5vh; left: 40vw;"">
            <div style=""margin:0 auto; width: 20vw; top: 8vh; font-size: 2vw""> 
            <font color=""green""> Bonus : $0 </font>
            </div>
        </div>
    
        <img class=""stim"" src=./stimuli//pack_shapes_1/cat_2/diff_1/ex_2_1_1.png></img>
    ","null","stimulus","","","","","","",""
"","","","","","html-keyboard-response","6","54902","0.0-4.0-2.0","5e8efc69dc9b18027705fc4b","656d9e5e2de4f984cfed7d4d","656d9ef82335be29f7484144","null","
        <div style=""text-align: center; position: fixed; top: 5vh; left: 40vw;"">
            <div style=""margin:0 auto; width: 20vw; top: 8vh; font-size: 2vw""> 
            <font color=""green""> Bonus : $0 </font>
            </div>
        </div>
    ","null","","","","","","","",""
"","","","","","html-keyboard-response","7","55085","0.0-4.0-3.0","5e8efc69dc9b18027705fc4b","656d9e5e2de4f984cfed7d4d","656d9ef82335be29f7484144","183","./stimuli//pack_shapes_1/cat_2/diff_1/ex_2_1_1.png","arrowleft","response","ArrowRight","1","2","1","train","false",""
"","","","","","html-keyboard-response","8","56587","0.0-4.0-4.0","5e8efc69dc9b18027705fc4b","656d9e5e2de4f984cfed7d4d","656d9ef82335be29f7484144","null","<p> <font color=""red"" size=""5vw""> Wrong category! </font> </p>","null","feedback","","","","","","","0"
"","","","","","html-keyboard-response","9","57902","0.0-4.0-0.1","5e8efc69dc9b18027705fc4b","656d9e5e2de4f984cfed7d4d","656d9ef82335be29f7484144","1314","
            
        <div style=""text-align: center; position: fixed; top: 5vh; left: 40vw;"">
            <div style=""margin:0 auto; width: 20vw; top: 8vh; font-size: 2vw""> 
            <font color=""green""> Bonus : $0 </font>
            </div>
        </div>
    
            <div> Please press any key to continue to the next image.</div>
        ","arrowleft","ITI","","","","","","",""
"","","","","","html-keyboard-response","10","58503","0.0-4.0-1.1","5e8efc69dc9b18027705fc4b","656d9e5e2de4f984cfed7d4d","656d9ef82335be29f7484144","null","
        
        <div style=""text-align: center; position: fixed; top: 5vh; left: 40vw;"">
            <div style=""margin:0 auto; width: 20vw; top: 8vh; font-size: 2vw""> 
            <font color=""green""> Bonus : $0 </font>
            </div>
        </div>
    
        <img class=""stim"" src=./stimuli//pack_shapes_1/cat_2/diff_1/ex_2_1_15.png></img>
    ","null","stimulus","","","","","","",""
"","","","","","html-keyboard-response","11","59504","0.0-4.0-2.1","5e8efc69dc9b18027705fc4b","656d9e5e2de4f984cfed7d4d","656d9ef82335be29f7484144","null","
        <div style=""text-align: center; position: fixed; top: 5vh; left: 40vw;"">
            <div style=""margin:0 auto; width: 20vw; top: 8vh; font-size: 2vw""> 
            <font color=""green""> Bonus : $0 </font>
            </div>
        </div>
    ","null","","","","","","","",""
"","","","","","html-keyboard-response","12","60447","0.0-4.0-3.1","5e8efc69dc9b18027705fc4b","656d9e5e2de4f984cfed7d4d","656d9ef82335be29f7484144","943","./stimuli//pack_shapes_1/cat_2/diff_1/ex_2_1_15.png","arrowright","response","ArrowRight","15","2","1","train","true",""
"","","","","","html-keyboard-response","13","61949","0.0-4.0-4.1","5e8efc69dc9b18027705fc4b","656d9e5e2de4f984cfed7d4d","656d9ef82335be29f7484144","null","<p><font color=""green"" size=""5vw""> Correct category! </font></p>","null","feedback","","","","","","","0"
"","","","","","html-keyboard-response","14","62835","0.0-4.0-0.2","5e8efc69dc9b18027705fc4b","656d9e5e2de4f984cfed7d4d","656d9ef82335be29f7484144","886","
            
        <div style=""text-align: center; position: fixed; top: 5vh; left: 40vw;"">
            <div style=""margin:0 auto; width: 20vw; top: 8vh; font-size: 2vw""> 
            <font color=""green""> Bonus : $0 </font>
            </div>
        </div>
    
            <div> Please press any key to continue to the next image.</div>
        ","arrowright","ITI","","","","","","",""
"","","","","","html-keyboard-response","15","63436","0.0-4.0-1.2","5e8efc69dc9b18027705fc4b","656d9e5e2de4f984cfed7d4d","656d9ef82335be29f7484144","null","
        
        <div style=""text-align: center; position: fixed; top: 5vh; left: 40vw;"">
            <div style=""margin:0 auto; width: 20vw; top: 8vh; font-size: 2vw""> 
            <font color=""green""> Bonus : $0 </font>
            </div>
        </div>
    
        <img class=""stim"" src=./stimuli//pack_shapes_1/cat_1/diff_1/ex_1_1_4.png></img>
    ","null","stimulus","","","","","","",""
"","","","","","html-keyboard-response","16","64437","0.0-4.0-2.2","5e8efc69dc9b18027705fc4b","656d9e5e2de4f984cfed7d4d","656d9ef82335be29f7484144","null","
        <div style=""text-align: center; position: fixed; top: 5vh; left: 40vw;"">
            <div style=""margin:0 auto; width: 20vw; top: 8vh; font-size: 2vw""> 
            <font color=""green""> Bonus : $0 </font>
            </div>
        </div>
    ","null","","","","","","","",""
"","","","","","html-keyboard-response","17","64961","0.0-4.0-3.2","5e8efc69dc9b18027705fc4b","656d9e5e2de4f984cfed7d4d","656d9ef82335be29f7484144","524","./stimuli//pack_shapes_1/cat_1/diff_1/ex_1_1_4.png","arrowright","response","ArrowLeft","4","1","1","train","false",""
"","","","","","html-keyboard-response","18","66462","0.0-4.0-4.2","5e8efc69dc9b18027705fc4b","656d9e5e2de4f984cfed7d4d","656d9ef82335be29f7484144","null","<p> <font color=""red"" size=""5vw""> Wrong category! </font> </p>","null","feedback","","","","","","","0"
"","","","","","html-keyboard-response","19","67081","0.0-4.0-0.3","5e8efc69dc9b18027705fc4b","656d9e5e2de4f984cfed7d4d","656d9ef82335be29f7484144","619","
            
        <div style=""text-align: center; position: fixed; top: 5vh; left: 40vw;"">
            <div style=""margin:0 auto; width: 20vw; top: 8vh; font-size: 2vw""> 
            <font color=""green""> Bonus : $0 </font>
            </div>
        </div>
    
            <div> Please press any key to continue to the next image.</div>
        ","arrowright","ITI","","","","","","",""
"","","","","","html-keyboard-response","20","67682","0.0-4.0-1.3","5e8efc69dc9b18027705fc4b","656d9e5e2de4f984cfed7d4d","656d9ef82335be29f7484144","null","
        
        <div style=""text-align: center; position: fixed; top: 5vh; left: 40vw;"">
            <div style=""margin:0 auto; width: 20vw; top: 8vh; font-size: 2vw""> 
            <font color=""green""> Bonus : $0 </font>
            </div>
        </div>
    
        <img class=""stim"" src=./stimuli//pack_shapes_1/cat_1/diff_1/ex_1_1_7.png></img>
    ","null","stimulus","","","","","","",""
"","","","","","html-keyboard-response","21","68683","0.0-4.0-2.3","5e8efc69dc9b18027705fc4b","656d9e5e2de4f984cfed7d4d","656d9ef82335be29f7484144","null","
        <div style=""text-align: center; position: fixed; top: 5vh; left: 40vw;"">
            <div style=""margin:0 auto; width: 20vw; top: 8vh; font-size: 2vw""> 
            <font color=""green""> Bonus : $0 </font>
            </div>
        </div>
    ","null","","","","","","","",""
"","","","","","html-keyboard-response","22","69329","0.0-4.0-3.3","5e8efc69dc9b18027705fc4b","656d9e5e2de4f984cfed7d4d","656d9ef82335be29f7484144","646","./stimuli//pack_shapes_1/cat_1/diff_1/ex_1_1_7.png","arrowleft","response","ArrowLeft","7","1","1","train","true",""
"","","","","","html-keyboard-response","23","70829","0.0-4.0-4.3","5e8efc69dc9b18027705fc4b","656d9e5e2de4f984cfed7d4d","656d9ef82335be29f7484144","null","<p><font color=""green"" size=""5vw""> Correct category! </font></p>","null","feedback","","","","","","","0"
"","","","","","html-keyboard-response","24","72754","0.0-4.0-0.4","5e8efc69dc9b18027705fc4b","656d9e5e2de4f984cfed7d4d","656d9ef82335be29f7484144","1924","
            
        <div style=""text-align: center; position: fixed; top: 5vh; left: 40vw;"">
            <div style=""margin:0 auto; width: 20vw; top: 8vh; font-size: 2vw""> 
            <font color=""green""> Bonus : $0 </font>
            </div>
        </div>
    
            <div> Please press any key to continue to the next image.</div>
        ","arrowleft","ITI","","","","","","",""
"","","","","","html-keyboard-response","25","73355","0.0-4.0-1.4","5e8efc69dc9b18027705fc4b","656d9e5e2de4f984cfed7d4d","656d9ef82335be29f7484144","null","
        
        <div style=""text-align: center; position: fixed; top: 5vh; left: 40vw;"">
            <div style=""margin:0 auto; width: 20vw; top: 8vh; font-size: 2vw""> 
            <font color=""green""> Bonus : $0 </font>
            </div>
        </div>
    
        <img class=""stim"" src=./stimuli//pack_shapes_1/cat_1/diff_2/ex_1_2_8.png></img>
    ","null","stimulus","","","","","","",""
"","","","","","html-keyboard-response","26","74356","0.0-4.0-2.4","5e8efc69dc9b18027705fc4b","656d9e5e2de4f984cfed7d4d","656d9ef82335be29f7484144","null","
        <div style=""text-align: center; position: fixed; top: 5vh; left: 40vw;"">
            <div style=""margin:0 auto; width: 20vw; top: 8vh; font-size: 2vw""> 
            <font color=""green""> Bonus : $0 </font>
            </div>
        </div>
    ","null","","","","","","","",""
"","","","","","html-keyboard-response","27","77205","0.0-4.0-3.4","5e8efc69dc9b18027705fc4b","656d9e5e2de4f984cfed7d4d","656d9ef82335be29f7484144","2849","./stimuli//pack_shapes_1/cat_1/diff_2/ex_1_2_8.png","arrowleft","response","ArrowLeft","8","1","2","train","true",""
"","","","","","html-keyboard-response","28","78707","0.0-4.0-4.4","5e8efc69dc9b18027705fc4b","656d9e5e2de4f984cfed7d4d","656d9ef82335be29f7484144","null","<p><font color=""green"" size=""5vw""> Correct category! </font></p>","null","feedback","","","","","","","0"
"","","","","","html-keyboard-response","29","79724","0.0-4.0-0.5","5e8efc69dc9b18027705fc4b","656d9e5e2de4f984cfed7d4d","656d9ef82335be29f7484144","1017","
            
        <div style=""text-align: center; position: fixed; top: 5vh; left: 40vw;"">
            <div style=""margin:0 auto; width: 20vw; top: 8vh; font-size: 2vw""> 
            <font color=""green""> Bonus : $0 </font>
            </div>
        </div>
    
            <div> Please press any key to continue to the next image.</div>
        ","arrowleft","ITI","","","","","","",""
"","","","","","html-keyboard-response","30","80326","0.0-4.0-1.5","5e8efc69dc9b18027705fc4b","656d9e5e2de4f984cfed7d4d","656d9ef82335be29f7484144","null","
        
        <div style=""text-align: center; position: fixed; top: 5vh; left: 40vw;"">
            <div style=""margin:0 auto; width: 20vw; top: 8vh; font-size: 2vw""> 
            <font color=""green""> Bonus : $0 </font>
            </div>
        </div>
    
        <img class=""stim"" src=./stimuli//pack_shapes_1/cat_2/diff_1/ex_2_1_3.png></img>
    ","null","stimulus","","","","","","",""
"","","","","","html-keyboard-response","31","81327","0.0-4.0-2.5","5e8efc69dc9b18027705fc4b","656d9e5e2de4f984cfed7d4d","656d9ef82335be29f7484144","null","
        <div style=""text-align: center; position: fixed; top: 5vh; left: 40vw;"">
            <div style=""margin:0 auto; width: 20vw; top: 8vh; font-size: 2vw""> 
            <font color=""green""> Bonus : $0 </font>
            </div>
        </div>
    ","null","","","","","","","",""
"","","","","","html-keyboard-response","32","81860","0.0-4.0-3.5","5e8efc69dc9b18027705fc4b","656d9e5e2de4f984cfed7d4d","656d9ef82335be29f7484144","533","./stimuli//pack_shapes_1/cat_2/diff_1/ex_2_1_3.png","arrowright","response","ArrowRight","3","2","1","train","true",""
"","","","","","html-keyboard-response","33","83361","0.0-4.0-4.5","5e8efc69dc9b18027705fc4b","656d9e5e2de4f984cfed7d4d","656d9ef82335be29f7484144","null","<p><font color=""green"" size=""5vw""> Correct category! </font></p>","null","feedback","","","","","","","0"
"","","","","","html-keyboard-response","34","84058","0.0-4.0-0.6","5e8efc69dc9b18027705fc4b","656d9e5e2de4f984cfed7d4d","656d9ef82335be29f7484144","697","
            
        <div style=""text-align: center; position: fixed; top: 5vh; left: 40vw;"">
            <div style=""margin:0 auto; width: 20vw; top: 8vh; font-size: 2vw""> 
            <font color=""green""> Bonus : $0 </font>
            </div>
        </div>
    
            <div> Please press any key to continue to the next image.</div>
        ","arrowleft","ITI","","","","","","",""
"","","","","","html-keyboard-response","35","84659","0.0-4.0-1.6","5e8efc69dc9b18027705fc4b","656d9e5e2de4f984cfed7d4d","656d9ef82335be29f7484144","null","
        
        <div style=""text-align: center; position: fixed; top: 5vh; left: 40vw;"">
            <div style=""margin:0 auto; width: 20vw; top: 8vh; font-size: 2vw""> 
            <font color=""green""> Bonus : $0 </font>
            </div>
        </div>
    
        <img class=""stim"" src=./stimuli//pack_shapes_1/cat_2/diff_2/ex_2_2_8.png></img>
    ","null","stimulus","","","","","","",""
"","","","","","html-keyboard-response","36","85660","0.0-4.0-2.6","5e8efc69dc9b18027705fc4b","656d9e5e2de4f984cfed7d4d","656d9ef82335be29f7484144","null","
        <div style=""text-align: center; position: fixed; top: 5vh; left: 40vw;"">
            <div style=""margin:0 auto; width: 20vw; top: 8vh; font-size: 2vw""> 
            <font color=""green""> Bonus : $0 </font>
            </div>
        </div>
    ","null","","","","","","","",""
"","","","","","html-keyboard-response","37","86575","0.0-4.0-3.6","5e8efc69dc9b18027705fc4b","656d9e5e2de4f984cfed7d4d","656d9ef82335be29f7484144","914","./stimuli//pack_shapes_1/cat_2/diff_2/ex_2_2_8.png","arrowright","response","ArrowRight","8","2","2","train","true",""
"","","","","","html-keyboard-response","38","88077","0.0-4.0-4.6","5e8efc69dc9b18027705fc4b","656d9e5e2de4f984cfed7d4d","656d9ef82335be29f7484144","null","<p><font color=""green"" size=""5vw""> Correct category! </font></p>","null","feedback","","","","","","","0"
"","","","","","html-keyboard-response","39","89088","0.0-4.0-0.7","5e8efc69dc9b18027705fc4b","656d9e5e2de4f984cfed7d4d","656d9ef82335be29f7484144","1011","
            
        <div style=""text-align: center; position: fixed; top: 5vh; left: 40vw;"">
            <div style=""margin:0 auto; width: 20vw; top: 8vh; font-size: 2vw""> 
            <font color=""green""> Bonus : $0 </font>
            </div>
        </div>
    
            <div> Please press any key to continue to the next image.</div>
        ","arrowright","ITI","","","","","","",""
"","","","","","html-keyboard-response","40","89688","0.0-4.0-1.7","5e8efc69dc9b18027705fc4b","656d9e5e2de4f984cfed7d4d","656d9ef82335be29f7484144","null","
        
        <div style=""text-align: center; position: fixed; top: 5vh; left: 40vw;"">
            <div style=""margin:0 auto; width: 20vw; top: 8vh; font-size: 2vw""> 
            <font color=""green""> Bonus : $0 </font>
            </div>
        </div>
    
        <img class=""stim"" src=./stimuli//pack_shapes_1/cat_1/diff_1/ex_1_1_6.png></img>
    ","null","stimulus","","","","","","",""
"","","","","","html-keyboard-response","41","90690","0.0-4.0-2.7","5e8efc69dc9b18027705fc4b","656d9e5e2de4f984cfed7d4d","656d9ef82335be29f7484144","null","
        <div style=""text-align: center; position: fixed; top: 5vh; left: 40vw;"">
            <div style=""margin:0 auto; width: 20vw; top: 8vh; font-size: 2vw""> 
            <font color=""green""> Bonus : $0 </font>
            </div>
        </div>
    ","null","","","","","","","",""
"","","","","","html-keyboard-response","42","91126","0.0-4.0-3.7","5e8efc69dc9b18027705fc4b","656d9e5e2de4f984cfed7d4d","656d9ef82335be29f7484144","436","./stimuli//pack_shapes_1/cat_1/diff_1/ex_1_1_6.png","arrowleft","response","ArrowLeft","6","1","1","train","true",""
"","","","","","html-keyboard-response","43","92627","0.0-4.0-4.7","5e8efc69dc9b18027705fc4b","656d9e5e2de4f984cfed7d4d","656d9ef82335be29f7484144","null","<p><font color=""green"" size=""5vw""> Correct category! </font></p>","null","feedback","","","","","","","0"
"","","","","","html-keyboard-response","44","94273","0.0-4.0-0.8","5e8efc69dc9b18027705fc4b","656d9e5e2de4f984cfed7d4d","656d9ef82335be29f7484144","1645","
            
        <div style=""text-align: center; position: fixed; top: 5vh; left: 40vw;"">
            <div style=""margin:0 auto; width: 20vw; top: 8vh; font-size: 2vw""> 
            <font color=""green""> Bonus : $0 </font>
            </div>
        </div>
    
            <div> Please press any key to continue to the next image.</div>
        ","arrowleft","ITI","","","","","","",""
"","","","","","html-keyboard-response","45","94874","0.0-4.0-1.8","5e8efc69dc9b18027705fc4b","656d9e5e2de4f984cfed7d4d","656d9ef82335be29f7484144","null","
        
        <div style=""text-align: center; position: fixed; top: 5vh; left: 40vw;"">
            <div style=""margin:0 auto; width: 20vw; top: 8vh; font-size: 2vw""> 
            <font color=""green""> Bonus : $0 </font>
            </div>
        </div>
    
        <img class=""stim"" src=./stimuli//pack_shapes_1/cat_1/diff_2/ex_1_2_9.png></img>
    ","null","stimulus","","","","","","",""
"","","","","","html-keyboard-response","46","95874","0.0-4.0-2.8","5e8efc69dc9b18027705fc4b","656d9e5e2de4f984cfed7d4d","656d9ef82335be29f7484144","null","
        <div style=""text-align: center; position: fixed; top: 5vh; left: 40vw;"">
            <div style=""margin:0 auto; width: 20vw; top: 8vh; font-size: 2vw""> 
            <font color=""green""> Bonus : $0 </font>
            </div>
        </div>
    ","null","","","","","","","",""
"","","","","","html-keyboard-response","47","97421","0.0-4.0-3.8","5e8efc69dc9b18027705fc4b","656d9e5e2de4f984cfed7d4d","656d9ef82335be29f7484144","1546","./stimuli//pack_shapes_1/cat_1/diff_2/ex_1_2_9.png","arrowleft","response","ArrowLeft","9","1","2","train","true",""
"","","","","","html-keyboard-response","48","98922","0.0-4.0-4.8","5e8efc69dc9b18027705fc4b","656d9e5e2de4f984cfed7d4d","656d9ef82335be29f7484144","null","<p><font color=""green"" size=""5vw""> Correct category! </font></p>","null","feedback","","","","","","","0"
"","","","","","html-keyboard-response","49","101321","0.0-4.0-0.9","5e8efc69dc9b18027705fc4b","656d9e5e2de4f984cfed7d4d","656d9ef82335be29f7484144","2398","
            
        <div style=""text-align: center; position: fixed; top: 5vh; left: 40vw;"">
            <div style=""margin:0 auto; width: 20vw; top: 8vh; font-size: 2vw""> 
            <font color=""green""> Bonus : $0 </font>
            </div>
        </div>
    
            <div> Please press any key to continue to the next image.</div>
        ","arrowleft","ITI","","","","","","",""
"","","","","","html-keyboard-response","50","101922","0.0-4.0-1.9","5e8efc69dc9b18027705fc4b","656d9e5e2de4f984cfed7d4d","656d9ef82335be29f7484144","null","
        
        <div style=""text-align: center; position: fixed; top: 5vh; left: 40vw;"">
            <div style=""margin:0 auto; width: 20vw; top: 8vh; font-size: 2vw""> 
            <font color=""green""> Bonus : $0 </font>
            </div>
        </div>
    
        <img class=""stim"" src=./stimuli//pack_shapes_1/cat_2/diff_2/ex_2_2_17.png></img>
    ","null","stimulus","","","","","","",""
"","","","","","html-keyboard-response","51","102922","0.0-4.0-2.9","5e8efc69dc9b18027705fc4b","656d9e5e2de4f984cfed7d4d","656d9ef82335be29f7484144","null","
        <div style=""text-align: center; position: fixed; top: 5vh; left: 40vw;"">
            <div style=""margin:0 auto; width: 20vw; top: 8vh; font-size: 2vw""> 
            <font color=""green""> Bonus : $0 </font>
            </div>
        </div>
    ","null","","","","","","","",""
"","","","","","html-keyboard-response","52","103671","0.0-4.0-3.9","5e8efc69dc9b18027705fc4b","656d9e5e2de4f984cfed7d4d","656d9ef82335be29f7484144","749","./stimuli//pack_shapes_1/cat_2/diff_2/ex_2_2_17.png","arrowright","response","ArrowRight","17","2","2","train","true",""
"","","","","","html-keyboard-response","53","105173","0.0-4.0-4.9","5e8efc69dc9b18027705fc4b","656d9e5e2de4f984cfed7d4d","656d9ef82335be29f7484144","null","<p><font color=""green"" size=""5vw""> Correct category! </font></p>","null","feedback","","","","","","","0"
"","","","","","html-keyboard-response","54","117068","0.0-5.0","5e8efc69dc9b18027705fc4b","656d9e5e2de4f984cfed7d4d","656d9ef82335be29f7484144","11896","
            <b> <p> The practice round has finished.</p>
            <p> For the rest of the experiment you will receive a $0.05 bonus for each correct answer and lose $0.05 from your bonus for each incorrect answer!</p>
            <p> The bonus can not become less than $0. </b>
            <p> Press any key to begin the test. </p>
            ","arrowleft","intermission","","","","","","",""
"","","","","","html-keyboard-response","55","119569","0.0-6.0-0.0","5e8efc69dc9b18027705fc4b","656d9e5e2de4f984cfed7d4d","656d9ef82335be29f7484144","2500","
            
        <div style=""text-align: center; position: fixed; top: 5vh; left: 40vw;"">
            <div style=""margin:0 auto; width: 20vw; top: 8vh; font-size: 2vw""> 
            <font color=""green""> Bonus : $0 </font>
            </div>
        </div>
    
            <div> Please press any key to continue to the next image.</div>
        ","arrowleft","ITI","","","","","","",""
"","","","","","html-keyboard-response","56","120170","0.0-6.0-1.0","5e8efc69dc9b18027705fc4b","656d9e5e2de4f984cfed7d4d","656d9ef82335be29f7484144","null","
        
        <div style=""text-align: center; position: fixed; top: 5vh; left: 40vw;"">
            <div style=""margin:0 auto; width: 20vw; top: 8vh; font-size: 2vw""> 
            <font color=""green""> Bonus : $0 </font>
            </div>
        </div>
    
        <img class=""stim"" src=./stimuli//pack_shapes_1/cat_2/diff_1/ex_2_1_6.png></img>
    ","null","stimulus","","","","","","",""
"","","","","","html-keyboard-response","57","121171","0.0-6.0-2.0","5e8efc69dc9b18027705fc4b","656d9e5e2de4f984cfed7d4d","656d9ef82335be29f7484144","null","
        <div style=""text-align: center; position: fixed; top: 5vh; left: 40vw;"">
            <div style=""margin:0 auto; width: 20vw; top: 8vh; font-size: 2vw""> 
            <font color=""green""> Bonus : $0 </font>
            </div>
        </div>
    ","null","","","","","","","",""
"","","","","","html-keyboard-response","58","121746","0.0-6.0-3.0","5e8efc69dc9b18027705fc4b","656d9e5e2de4f984cfed7d4d","656d9ef82335be29f7484144","575","./stimuli//pack_shapes_1/cat_2/diff_1/ex_2_1_6.png","arrowleft","response","ArrowRight","6","2","1","test","false",""
"","","","","","html-keyboard-response","59","123248","0.0-6.0-4.0","5e8efc69dc9b18027705fc4b","656d9e5e2de4f984cfed7d4d","656d9ef82335be29f7484144","null","<p> <font color=""red"" size=""5vw""> Wrong category! </font> </p>","null","feedback","","","","","","","0"
"","","","","","html-keyboard-response","60","123804","0.0-6.1-0.1","5e8efc69dc9b18027705fc4b","656d9e5e2de4f984cfed7d4d","656d9ef82335be29f7484144","556","
            
        <div style=""text-align: center; position: fixed; top: 5vh; left: 40vw;"">
            <div style=""margin:0 auto; width: 20vw; top: 8vh; font-size: 2vw""> 
            <font color=""green""> Bonus : $0 </font>
            </div>
        </div>
    
            <div> Please press any key to continue to the next image.</div>
        ","arrowleft","ITI","","","","","","",""
"","","","","","html-keyboard-response","61","124404","0.0-6.1-1.1","5e8efc69dc9b18027705fc4b","656d9e5e2de4f984cfed7d4d","656d9ef82335be29f7484144","null","
        
        <div style=""text-align: center; position: fixed; top: 5vh; left: 40vw;"">
            <div style=""margin:0 auto; width: 20vw; top: 8vh; font-size: 2vw""> 
            <font color=""green""> Bonus : $0 </font>
            </div>
        </div>
    
        <img class=""stim"" src=./stimuli//pack_shapes_1/cat_1/diff_1/ex_1_1_13.png></img>
    ","null","stimulus","","","","","","",""
"","","","","","html-keyboard-response","62","125405","0.0-6.1-2.1","5e8efc69dc9b18027705fc4b","656d9e5e2de4f984cfed7d4d","656d9ef82335be29f7484144","null","
        <div style=""text-align: center; position: fixed; top: 5vh; left: 40vw;"">
            <div style=""margin:0 auto; width: 20vw; top: 8vh; font-size: 2vw""> 
            <font color=""green""> Bonus : $0 </font>
            </div>
        </div>
    ","null","","","","","","","",""
"","","","","","html-keyboard-response","63","125889","0.0-6.1-3.1","5e8efc69dc9b18027705fc4b","656d9e5e2de4f984cfed7d4d","656d9ef82335be29f7484144","483","./stimuli//pack_shapes_1/cat_1/diff_1/ex_1_1_13.png","arrowleft","response","ArrowLeft","13","1","1","test","true",""
"","","","","","html-keyboard-response","64","127390","0.0-6.1-4.1","5e8efc69dc9b18027705fc4b","656d9e5e2de4f984cfed7d4d","656d9ef82335be29f7484144","null","<p> <font color=""green"" size=""5vw""> Correct category! </font> <br> <br> <font color=""green"" size=""8vw""> + $0.05 </font> </p>","null","feedback","","","","","","","0.05"
"","","","","","html-keyboard-response","65","128000","0.0-6.2-0.2","5e8efc69dc9b18027705fc4b","656d9e5e2de4f984cfed7d4d","656d9ef82335be29f7484144","610","
            
        <div style=""text-align: center; position: fixed; top: 5vh; left: 40vw;"">
            <div style=""margin:0 auto; width: 20vw; top: 8vh; font-size: 2vw""> 
            <font color=""green""> Bonus : $0.05 </font>
            </div>
        </div>
    
            <div> Please press any key to continue to the next image.</div>
        ","arrowleft","ITI","","","","","","",""
"","","","","","html-keyboard-response","66","128601","0.0-6.2-1.2","5e8efc69dc9b18027705fc4b","656d9e5e2de4f984cfed7d4d","656d9ef82335be29f7484144","null","
        
        <div style=""text-align: center; position: fixed; top: 5vh; left: 40vw;"">
            <div style=""margin:0 auto; width: 20vw; top: 8vh; font-size: 2vw""> 
            <font color=""green""> Bonus : $0.05 </font>
            </div>
        </div>
    
        <img class=""stim"" src=./stimuli//pack_shapes_1/cat_2/diff_1/ex_2_1_7.png></img>
    ","null","stimulus","","","","","","",""
"","","","","","html-keyboard-response","67","129602","0.0-6.2-2.2","5e8efc69dc9b18027705fc4b","656d9e5e2de4f984cfed7d4d","656d9ef82335be29f7484144","null","
        <div style=""text-align: center; position: fixed; top: 5vh; left: 40vw;"">
            <div style=""margin:0 auto; width: 20vw; top: 8vh; font-size: 2vw""> 
            <font color=""green""> Bonus : $0.05 </font>
            </div>
        </div>
    ","null","","","","","","","",""
"","","","","","html-keyboard-response","68","130164","0.0-6.2-3.2","5e8efc69dc9b18027705fc4b","656d9e5e2de4f984cfed7d4d","656d9ef82335be29f7484144","562","./stimuli//pack_shapes_1/cat_2/diff_1/ex_2_1_7.png","arrowright","response","ArrowRight","7","2","1","test","true",""
"","","","","","html-keyboard-response","69","131665","0.0-6.2-4.2","5e8efc69dc9b18027705fc4b","656d9e5e2de4f984cfed7d4d","656d9ef82335be29f7484144","null","<p> <font color=""green"" size=""5vw""> Correct category! </font> <br> <br> <font color=""green"" size=""8vw""> + $0.05 </font> </p>","null","feedback","","","","","","","0.1"
"","","","","","html-keyboard-response","70","132544","0.0-6.3-0.3","5e8efc69dc9b18027705fc4b","656d9e5e2de4f984cfed7d4d","656d9ef82335be29f7484144","879","
            
        <div style=""text-align: center; position: fixed; top: 5vh; left: 40vw;"">
            <div style=""margin:0 auto; width: 20vw; top: 8vh; font-size: 2vw""> 
            <font color=""green""> Bonus : $0.1 </font>
            </div>
        </div>
    
            <div> Please press any key to continue to the next image.</div>
        ","arrowleft","ITI","","","","","","",""
"","","","","","html-keyboard-response","71","133146","0.0-6.3-1.3","5e8efc69dc9b18027705fc4b","656d9e5e2de4f984cfed7d4d","656d9ef82335be29f7484144","null","
        
        <div style=""text-align: center; position: fixed; top: 5vh; left: 40vw;"">
            <div style=""margin:0 auto; width: 20vw; top: 8vh; font-size: 2vw""> 
            <font color=""green""> Bonus : $0.1 </font>
            </div>
        </div>
    
        <img class=""stim"" src=./stimuli//pack_shapes_1/cat_1/diff_1/ex_1_1_14.png></img>
    ","null","stimulus","","","","","","",""
"","","","","","html-keyboard-response","72","134147","0.0-6.3-2.3","5e8efc69dc9b18027705fc4b","656d9e5e2de4f984cfed7d4d","656d9ef82335be29f7484144","null","
        <div style=""text-align: center; position: fixed; top: 5vh; left: 40vw;"">
            <div style=""margin:0 auto; width: 20vw; top: 8vh; font-size: 2vw""> 
            <font color=""green""> Bonus : $0.1 </font>
            </div>
        </div>
    ","null","","","","","","","",""
"","","","","","html-keyboard-response","73","134639","0.0-6.3-3.3","5e8efc69dc9b18027705fc4b","656d9e5e2de4f984cfed7d4d","656d9ef82335be29f7484144","492","./stimuli//pack_shapes_1/cat_1/diff_1/ex_1_1_14.png","arrowright","response","ArrowLeft","14","1","1","test","false",""
"","","","","","html-keyboard-response","74","136141","0.0-6.3-4.3","5e8efc69dc9b18027705fc4b","656d9e5e2de4f984cfed7d4d","656d9ef82335be29f7484144","null","<p> <font color=""red"" size=""5vw""> Wrong category! </font> <br> <br> <font color=""red"" size=""8vw""> - $0.05 </font> </p>","null","feedback","","","","","","","0.05"
"","","","","","html-keyboard-response","75","136772","0.0-6.4-0.4","5e8efc69dc9b18027705fc4b","656d9e5e2de4f984cfed7d4d","656d9ef82335be29f7484144","631","
            
        <div style=""text-align: center; position: fixed; top: 5vh; left: 40vw;"">
            <div style=""margin:0 auto; width: 20vw; top: 8vh; font-size: 2vw""> 
            <font color=""green""> Bonus : $0.05 </font>
            </div>
        </div>
    
            <div> Please press any key to continue to the next image.</div>
        ","arrowleft","ITI","","","","","","",""
"","","","","","html-keyboard-response","76","137373","0.0-6.4-1.4","5e8efc69dc9b18027705fc4b","656d9e5e2de4f984cfed7d4d","656d9ef82335be29f7484144","null","
        
        <div style=""text-align: center; position: fixed; top: 5vh; left: 40vw;"">
            <div style=""margin:0 auto; width: 20vw; top: 8vh; font-size: 2vw""> 
            <font color=""green""> Bonus : $0.05 </font>
            </div>
        </div>
    
        <img class=""stim"" src=./stimuli//pack_shapes_1/cat_2/diff_1/ex_2_1_5.png></img>
    ","null","stimulus","","","","","","",""
"","","","","","html-keyboard-response","77","138373","0.0-6.4-2.4","5e8efc69dc9b18027705fc4b","656d9e5e2de4f984cfed7d4d","656d9ef82335be29f7484144","null","
        <div style=""text-align: center; position: fixed; top: 5vh; left: 40vw;"">
            <div style=""margin:0 auto; width: 20vw; top: 8vh; font-size: 2vw""> 
            <font color=""green""> Bonus : $0.05 </font>
            </div>
        </div>
    ","null","","","","","","","",""
"","","","","","html-keyboard-response","78","138821","0.0-6.4-3.4","5e8efc69dc9b18027705fc4b","656d9e5e2de4f984cfed7d4d","656d9ef82335be29f7484144","448","./stimuli//pack_shapes_1/cat_2/diff_1/ex_2_1_5.png","arrowright","response","ArrowRight","5","2","1","test","true",""
"","","","","","html-keyboard-response","79","140322","0.0-6.4-4.4","5e8efc69dc9b18027705fc4b","656d9e5e2de4f984cfed7d4d","656d9ef82335be29f7484144","null","<p> <font color=""green"" size=""5vw""> Correct category! </font> <br> <br> <font color=""green"" size=""8vw""> + $0.05 </font> </p>","null","feedback","","","","","","","0.1"
"","","","","","html-keyboard-response","80","141052","0.0-6.5-0.5","5e8efc69dc9b18027705fc4b","656d9e5e2de4f984cfed7d4d","656d9ef82335be29f7484144","730","
            
        <div style=""text-align: center; position: fixed; top: 5vh; left: 40vw;"">
            <div style=""margin:0 auto; width: 20vw; top: 8vh; font-size: 2vw""> 
            <font color=""green""> Bonus : $0.1 </font>
            </div>
        </div>
    
            <div> Please press any key to continue to the next image.</div>
        ","arrowleft","ITI","","","","","","",""
"","","","","","html-keyboard-response","81","141653","0.0-6.5-1.5","5e8efc69dc9b18027705fc4b","656d9e5e2de4f984cfed7d4d","656d9ef82335be29f7484144","null","
        
        <div style=""text-align: center; position: fixed; top: 5vh; left: 40vw;"">
            <div style=""margin:0 auto; width: 20vw; top: 8vh; font-size: 2vw""> 
            <font color=""green""> Bonus : $0.1 </font>
            </div>
        </div>
    
        <img class=""stim"" src=./stimuli//pack_shapes_1/cat_2/diff_1/ex_2_1_9.png></img>
    ","null","stimulus","","","","","","",""
"","","","","","html-keyboard-response","82","142655","0.0-6.5-2.5","5e8efc69dc9b18027705fc4b","656d9e5e2de4f984cfed7d4d","656d9ef82335be29f7484144","null","
        <div style=""text-align: center; position: fixed; top: 5vh; left: 40vw;"">
            <div style=""margin:0 auto; width: 20vw; top: 8vh; font-size: 2vw""> 
            <font color=""green""> Bonus : $0.1 </font>
            </div>
        </div>
    ","null","","","","","","","",""
"","","","","","html-keyboard-response","83","143145","0.0-6.5-3.5","5e8efc69dc9b18027705fc4b","656d9e5e2de4f984cfed7d4d","656d9ef82335be29f7484144","490","./stimuli//pack_shapes_1/cat_2/diff_1/ex_2_1_9.png","arrowright","response","ArrowRight","9","2","1","test","true",""
"","","","","","html-keyboard-response","84","144647","0.0-6.5-4.5","5e8efc69dc9b18027705fc4b","656d9e5e2de4f984cfed7d4d","656d9ef82335be29f7484144","null","<p> <font color=""green"" size=""5vw""> Correct category! </font> <br> <br> <font color=""green"" size=""8vw""> + $0.05 </font> </p>","null","feedback","","","","","","","0.15"
"","","","","","html-keyboard-response","85","145677","0.0-6.6-0.6","5e8efc69dc9b18027705fc4b","656d9e5e2de4f984cfed7d4d","656d9ef82335be29f7484144","1030","
            
        <div style=""text-align: center; position: fixed; top: 5vh; left: 40vw;"">
            <div style=""margin:0 auto; width: 20vw; top: 8vh; font-size: 2vw""> 
            <font color=""green""> Bonus : $0.15 </font>
            </div>
        </div>
    
            <div> Please press any key to continue to the next image.</div>
        ","arrowright","ITI","","","","","","",""
"","","","","","html-keyboard-response","86","146278","0.0-6.6-1.6","5e8efc69dc9b18027705fc4b","656d9e5e2de4f984cfed7d4d","656d9ef82335be29f7484144","null","
        
        <div style=""text-align: center; position: fixed; top: 5vh; left: 40vw;"">
            <div style=""margin:0 auto; width: 20vw; top: 8vh; font-size: 2vw""> 
            <font color=""green""> Bonus : $0.15 </font>
            </div>
        </div>
    
        <img class=""stim"" src=./stimuli//pack_shapes_1/cat_1/diff_2/ex_1_2_11.png></img>
    ","null","stimulus","","","","","","",""
"","","","","","html-keyboard-response","87","147279","0.0-6.6-2.6","5e8efc69dc9b18027705fc4b","656d9e5e2de4f984cfed7d4d","656d9ef82335be29f7484144","null","
        <div style=""text-align: center; position: fixed; top: 5vh; left: 40vw;"">
            <div style=""margin:0 auto; width: 20vw; top: 8vh; font-size: 2vw""> 
            <font color=""green""> Bonus : $0.15 </font>
            </div>
        </div>
    ","null","","","","","","","",""
"","","","","","html-keyboard-response","88","147959","0.0-6.6-3.6","5e8efc69dc9b18027705fc4b","656d9e5e2de4f984cfed7d4d","656d9ef82335be29f7484144","679","./stimuli//pack_shapes_1/cat_1/diff_2/ex_1_2_11.png","arrowleft","response","ArrowLeft","11","1","2","test","true",""
"","","","","","html-keyboard-response","89","149460","0.0-6.6-4.6","5e8efc69dc9b18027705fc4b","656d9e5e2de4f984cfed7d4d","656d9ef82335be29f7484144","null","<p> <font color=""green"" size=""5vw""> Correct category! </font> <br> <br> <font color=""green"" size=""8vw""> + $0.05 </font> </p>","null","feedback","","","","","","","0.2"
"","","","","","html-keyboard-response","90","150000","0.0-6.7-0.7","5e8efc69dc9b18027705fc4b","656d9e5e2de4f984cfed7d4d","656d9ef82335be29f7484144","539","
            
        <div style=""text-align: center; position: fixed; top: 5vh; left: 40vw;"">
            <div style=""margin:0 auto; width: 20vw; top: 8vh; font-size: 2vw""> 
            <font color=""green""> Bonus : $0.2 </font>
            </div>
        </div>
    
            <div> Please press any key to continue to the next image.</div>
        ","arrowleft","ITI","","","","","","",""
"","","","","","html-keyboard-response","91","150600","0.0-6.7-1.7","5e8efc69dc9b18027705fc4b","656d9e5e2de4f984cfed7d4d","656d9ef82335be29f7484144","null","
        
        <div style=""text-align: center; position: fixed; top: 5vh; left: 40vw;"">
            <div style=""margin:0 auto; width: 20vw; top: 8vh; font-size: 2vw""> 
            <font color=""green""> Bonus : $0.2 </font>
            </div>
        </div>
    
        <img class=""stim"" src=./stimuli//pack_shapes_1/cat_2/diff_2/ex_2_2_12.png></img>
    ","null","stimulus","","","","","","",""
"","","","","","html-keyboard-response","92","151601","0.0-6.7-2.7","5e8efc69dc9b18027705fc4b","656d9e5e2de4f984cfed7d4d","656d9ef82335be29f7484144","null","
        <div style=""text-align: center; position: fixed; top: 5vh; left: 40vw;"">
            <div style=""margin:0 auto; width: 20vw; top: 8vh; font-size: 2vw""> 
            <font color=""green""> Bonus : $0.2 </font>
            </div>
        </div>
    ","null","","","","","","","",""
"","","","","","html-keyboard-response","93","152450","0.0-6.7-3.7","5e8efc69dc9b18027705fc4b","656d9e5e2de4f984cfed7d4d","656d9ef82335be29f7484144","848","./stimuli//pack_shapes_1/cat_2/diff_2/ex_2_2_12.png","arrowleft","response","ArrowRight","12","2","2","test","false",""
"","","","","","html-keyboard-response","94","153951","0.0-6.7-4.7","5e8efc69dc9b18027705fc4b","656d9e5e2de4f984cfed7d4d","656d9ef82335be29f7484144","null","<p> <font color=""red"" size=""5vw""> Wrong category! </font> <br> <br> <font color=""red"" size=""8vw""> - $0.05 </font> </p>","null","feedback","","","","","","","0.15"
"","","","","","html-keyboard-response","95","154327","0.0-6.8-0.8","5e8efc69dc9b18027705fc4b","656d9e5e2de4f984cfed7d4d","656d9ef82335be29f7484144","376","
            
        <div style=""text-align: center; position: fixed; top: 5vh; left: 40vw;"">
            <div style=""margin:0 auto; width: 20vw; top: 8vh; font-size: 2vw""> 
            <font color=""green""> Bonus : $0.15 </font>
            </div>
        </div>
    
            <div> Please press any key to continue to the next image.</div>
        ","arrowleft","ITI","","","","","","",""
"","","","","","html-keyboard-response","96","154928","0.0-6.8-1.8","5e8efc69dc9b18027705fc4b","656d9e5e2de4f984cfed7d4d","656d9ef82335be29f7484144","null","
        
        <div style=""text-align: center; position: fixed; top: 5vh; left: 40vw;"">
            <div style=""margin:0 auto; width: 20vw; top: 8vh; font-size: 2vw""> 
            <font color=""green""> Bonus : $0.15 </font>
            </div>
        </div>
    
        <img class=""stim"" src=./stimuli//pack_shapes_1/cat_2/diff_2/ex_2_2_2.png></img>
    ","null","stimulus","","","","","","",""
"","","","","","html-keyboard-response","97","155930","0.0-6.8-2.8","5e8efc69dc9b18027705fc4b","656d9e5e2de4f984cfed7d4d","656d9ef82335be29f7484144","null","
        <div style=""text-align: center; position: fixed; top: 5vh; left: 40vw;"">
            <div style=""margin:0 auto; width: 20vw; top: 8vh; font-size: 2vw""> 
            <font color=""green""> Bonus : $0.15 </font>
            </div>
        </div>
    ","null","","","","","","","",""
"","","","","","html-keyboard-response","98","156271","0.0-6.8-3.8","5e8efc69dc9b18027705fc4b","656d9e5e2de4f984cfed7d4d","656d9ef82335be29f7484144","341","./stimuli//pack_shapes_1/cat_2/diff_2/ex_2_2_2.png","arrowright","response","ArrowRight","2","2","2","test","true",""
"","","","","","html-keyboard-response","99","157771","0.0-6.8-4.8","5e8efc69dc9b18027705fc4b","656d9e5e2de4f984cfed7d4d","656d9ef82335be29f7484144","null","<p> <font color=""green"" size=""5vw""> Correct category! </font> <br> <br> <font color=""green"" size=""8vw""> + $0.05 </font> </p>","null","feedback","","","","","","","0.2"
"","","","","","html-keyboard-response","100","158499","0.0-6.9-0.9","5e8efc69dc9b18027705fc4b","656d9e5e2de4f984cfed7d4d","656d9ef82335be29f7484144","728","
            
        <div style=""text-align: center; position: fixed; top: 5vh; left: 40vw;"">
            <div style=""margin:0 auto; width: 20vw; top: 8vh; font-size: 2vw""> 
            <font color=""green""> Bonus : $0.2 </font>
            </div>
        </div>
    
            <div> Please press any key to continue to the next image.</div>
        ","arrowright","ITI","","","","","","",""
"","","","","","html-keyboard-response","101","159100","0.0-6.9-1.9","5e8efc69dc9b18027705fc4b","656d9e5e2de4f984cfed7d4d","656d9ef82335be29f7484144","null","
        
        <div style=""text-align: center; position: fixed; top: 5vh; left: 40vw;"">
            <div style=""margin:0 auto; width: 20vw; top: 8vh; font-size: 2vw""> 
            <font color=""green""> Bonus : $0.2 </font>
            </div>
        </div>
    
        <img class=""stim"" src=./stimuli//pack_shapes_1/cat_2/diff_2/ex_2_2_16.png></img>
    ","null","stimulus","","","","","","",""
"","","","","","html-keyboard-response","102","160101","0.0-6.9-2.9","5e8efc69dc9b18027705fc4b","656d9e5e2de4f984cfed7d4d","656d9ef82335be29f7484144","null","
        <div style=""text-align: center; position: fixed; top: 5vh; left: 40vw;"">
            <div style=""margin:0 auto; width: 20vw; top: 8vh; font-size: 2vw""> 
            <font color=""green""> Bonus : $0.2 </font>
            </div>
        </div>
    ","null","","","","","","","",""
"","","","","","html-keyboard-response","103","160497","0.0-6.9-3.9","5e8efc69dc9b18027705fc4b","656d9e5e2de4f984cfed7d4d","656d9ef82335be29f7484144","397","./stimuli//pack_shapes_1/cat_2/diff_2/ex_2_2_16.png","arrowleft","response","ArrowRight","16","2","2","test","false",""
"","","","","","html-keyboard-response","104","161999","0.0-6.9-4.9","5e8efc69dc9b18027705fc4b","656d9e5e2de4f984cfed7d4d","656d9ef82335be29f7484144","null","<p> <font color=""red"" size=""5vw""> Wrong category! </font> <br> <br> <font color=""red"" size=""8vw""> - $0.05 </font> </p>","null","feedback","","","","","","","0.15"
"","","","","","html-keyboard-response","105","162417","0.0-6.10-0.10","5e8efc69dc9b18027705fc4b","656d9e5e2de4f984cfed7d4d","656d9ef82335be29f7484144","418","
            
        <div style=""text-align: center; position: fixed; top: 5vh; left: 40vw;"">
            <div style=""margin:0 auto; width: 20vw; top: 8vh; font-size: 2vw""> 
            <font color=""green""> Bonus : $0.15 </font>
            </div>
        </div>
    
            <div> Please press any key to continue to the next image.</div>
        ","arrowright","ITI","","","","","","",""
"","","","","","html-keyboard-response","106","163018","0.0-6.10-1.10","5e8efc69dc9b18027705fc4b","656d9e5e2de4f984cfed7d4d","656d9ef82335be29f7484144","null","
        
        <div style=""text-align: center; position: fixed; top: 5vh; left: 40vw;"">
            <div style=""margin:0 auto; width: 20vw; top: 8vh; font-size: 2vw""> 
            <font color=""green""> Bonus : $0.15 </font>
            </div>
        </div>
    
        <img class=""stim"" src=./stimuli//pack_shapes_1/cat_1/diff_2/ex_1_2_14.png></img>
    ","null","stimulus","","","","","","",""
"","","","","","html-keyboard-response","107","164020","0.0-6.10-2.10","5e8efc69dc9b18027705fc4b","656d9e5e2de4f984cfed7d4d","656d9ef82335be29f7484144","null","
        <div style=""text-align: center; position: fixed; top: 5vh; left: 40vw;"">
            <div style=""margin:0 auto; width: 20vw; top: 8vh; font-size: 2vw""> 
            <font color=""green""> Bonus : $0.15 </font>
            </div>
        </div>
    ","null","","","","","","","",""
"","","","","","html-keyboard-response","108","165045","0.0-6.10-3.10","5e8efc69dc9b18027705fc4b","656d9e5e2de4f984cfed7d4d","656d9ef82335be29f7484144","1025","./stimuli//pack_shapes_1/cat_1/diff_2/ex_1_2_14.png","arrowleft","response","ArrowLeft","14","1","2","test","true",""
"","","","","","html-keyboard-response","109","166546","0.0-6.10-4.10","5e8efc69dc9b18027705fc4b","656d9e5e2de4f984cfed7d4d","656d9ef82335be29f7484144","null","<p> <font color=""green"" size=""5vw""> Correct category! </font> <br> <br> <font color=""green"" size=""8vw""> + $0.05 </font> </p>","null","feedback","","","","","","","0.2"
"","","","","","html-keyboard-response","110","167183","0.0-6.11-0.11","5e8efc69dc9b18027705fc4b","656d9e5e2de4f984cfed7d4d","656d9ef82335be29f7484144","637","
            
        <div style=""text-align: center; position: fixed; top: 5vh; left: 40vw;"">
            <div style=""margin:0 auto; width: 20vw; top: 8vh; font-size: 2vw""> 
            <font color=""green""> Bonus : $0.2 </font>
            </div>
        </div>
    
            <div> Please press any key to continue to the next image.</div>
        ","arrowleft","ITI","","","","","","",""
"","","","","","html-keyboard-response","111","167783","0.0-6.11-1.11","5e8efc69dc9b18027705fc4b","656d9e5e2de4f984cfed7d4d","656d9ef82335be29f7484144","null","
        
        <div style=""text-align: center; position: fixed; top: 5vh; left: 40vw;"">
            <div style=""margin:0 auto; width: 20vw; top: 8vh; font-size: 2vw""> 
            <font color=""green""> Bonus : $0.2 </font>
            </div>
        </div>
    
        <img class=""stim"" src=./stimuli//pack_shapes_1/cat_1/diff_1/ex_1_1_14.png></img>
    ","null","stimulus","","","","","","",""
"","","","","","html-keyboard-response","112","168784","0.0-6.11-2.11","5e8efc69dc9b18027705fc4b","656d9e5e2de4f984cfed7d4d","656d9ef82335be29f7484144","null","
        <div style=""text-align: center; position: fixed; top: 5vh; left: 40vw;"">
            <div style=""margin:0 auto; width: 20vw; top: 8vh; font-size: 2vw""> 
            <font color=""green""> Bonus : $0.2 </font>
            </div>
        </div>
    ","null","","","","","","","",""
"","","","","","html-keyboard-response","113","169245","0.0-6.11-3.11","5e8efc69dc9b18027705fc4b","656d9e5e2de4f984cfed7d4d","656d9ef82335be29f7484144","461","./stimuli//pack_shapes_1/cat_1/diff_1/ex_1_1_14.png","arrowleft","response","ArrowLeft","14","1","1","test","true",""
"","","","","","html-keyboard-response","114","170746","0.0-6.11-4.11","5e8efc69dc9b18027705fc4b","656d9e5e2de4f984cfed7d4d","656d9ef82335be29f7484144","null","<p> <font color=""green"" size=""5vw""> Correct category! </font> <br> <br> <font color=""green"" size=""8vw""> + $0.05 </font> </p>","null","feedback","","","","","","","0.25"
"","","","","","html-keyboard-response","115","171208","0.0-6.12-0.12","5e8efc69dc9b18027705fc4b","656d9e5e2de4f984cfed7d4d","656d9ef82335be29f7484144","462","
            
        <div style=""text-align: center; position: fixed; top: 5vh; left: 40vw;"">
            <div style=""margin:0 auto; width: 20vw; top: 8vh; font-size: 2vw""> 
            <font color=""green""> Bonus : $0.25 </font>
            </div>
        </div>
    
            <div> Please press any key to continue to the next image.</div>
        ","arrowleft","ITI","","","","","","",""
"","","","","","html-keyboard-response","116","171808","0.0-6.12-1.12","5e8efc69dc9b18027705fc4b","656d9e5e2de4f984cfed7d4d","656d9ef82335be29f7484144","null","
        
        <div style=""text-align: center; position: fixed; top: 5vh; left: 40vw;"">
            <div style=""margin:0 auto; width: 20vw; top: 8vh; font-size: 2vw""> 
            <font color=""green""> Bonus : $0.25 </font>
            </div>
        </div>
    
        <img class=""stim"" src=./stimuli//pack_shapes_1/cat_1/diff_1/ex_1_1_5.png></img>
    ","null","stimulus","","","","","","",""
"","","","","","html-keyboard-response","117","172810","0.0-6.12-2.12","5e8efc69dc9b18027705fc4b","656d9e5e2de4f984cfed7d4d","656d9ef82335be29f7484144","null","
        <div style=""text-align: center; position: fixed; top: 5vh; left: 40vw;"">
            <div style=""margin:0 auto; width: 20vw; top: 8vh; font-size: 2vw""> 
            <font color=""green""> Bonus : $0.25 </font>
            </div>
        </div>
    ","null","","","","","","","",""
"","","","","","html-keyboard-response","118","173176","0.0-6.12-3.12","5e8efc69dc9b18027705fc4b","656d9e5e2de4f984cfed7d4d","656d9ef82335be29f7484144","366","./stimuli//pack_shapes_1/cat_1/diff_1/ex_1_1_5.png","arrowleft","response","ArrowLeft","5","1","1","test","true",""
"","","","","","html-keyboard-response","119","174676","0.0-6.12-4.12","5e8efc69dc9b18027705fc4b","656d9e5e2de4f984cfed7d4d","656d9ef82335be29f7484144","null","<p> <font color=""green"" size=""5vw""> Correct category! </font> <br> <br> <font color=""green"" size=""8vw""> + $0.05 </font> </p>","null","feedback","","","","","","","0.3"
"","","","","","html-keyboard-response","120","175674","0.0-6.13-0.13","5e8efc69dc9b18027705fc4b","656d9e5e2de4f984cfed7d4d","656d9ef82335be29f7484144","998","
            
        <div style=""text-align: center; position: fixed; top: 5vh; left: 40vw;"">
            <div style=""margin:0 auto; width: 20vw; top: 8vh; font-size: 2vw""> 
            <font color=""green""> Bonus : $0.3 </font>
            </div>
        </div>
    
            <div> Please press any key to continue to the next image.</div>
        ","arrowleft","ITI","","","","","","",""
"","","","","","html-keyboard-response","121","176276","0.0-6.13-1.13","5e8efc69dc9b18027705fc4b","656d9e5e2de4f984cfed7d4d","656d9ef82335be29f7484144","null","
        
        <div style=""text-align: center; position: fixed; top: 5vh; left: 40vw;"">
            <div style=""margin:0 auto; width: 20vw; top: 8vh; font-size: 2vw""> 
            <font color=""green""> Bonus : $0.3 </font>
            </div>
        </div>
    
        <img class=""stim"" src=./stimuli//pack_shapes_1/cat_2/diff_1/ex_2_1_7.png></img>
    ","null","stimulus","","","","","","",""
"","","","","","html-keyboard-response","122","177277","0.0-6.13-2.13","5e8efc69dc9b18027705fc4b","656d9e5e2de4f984cfed7d4d","656d9ef82335be29f7484144","null","
        <div style=""text-align: center; position: fixed; top: 5vh; left: 40vw;"">
            <div style=""margin:0 auto; width: 20vw; top: 8vh; font-size: 2vw""> 
            <font color=""green""> Bonus : $0.3 </font>
            </div>
        </div>
    ","null","","","","","","","",""
"","","","","","html-keyboard-response","123","177690","0.0-6.13-3.13","5e8efc69dc9b18027705fc4b","656d9e5e2de4f984cfed7d4d","656d9ef82335be29f7484144","413","./stimuli//pack_shapes_1/cat_2/diff_1/ex_2_1_7.png","arrowright","response","ArrowRight","7","2","1","test","true",""
"","","","","","html-keyboard-response","124","179191","0.0-6.13-4.13","5e8efc69dc9b18027705fc4b","656d9e5e2de4f984cfed7d4d","656d9ef82335be29f7484144","null","<p> <font color=""green"" size=""5vw""> Correct category! </font> <br> <br> <font color=""green"" size=""8vw""> + $0.05 </font> </p>","null","feedback","","","","","","","0.35"
"","","","","","html-keyboard-response","125","179718","0.0-6.14-0.14","5e8efc69dc9b18027705fc4b","656d9e5e2de4f984cfed7d4d","656d9ef82335be29f7484144","527","
            
        <div style=""text-align: center; position: fixed; top: 5vh; left: 40vw;"">
            <div style=""margin:0 auto; width: 20vw; top: 8vh; font-size: 2vw""> 
            <font color=""green""> Bonus : $0.35 </font>
            </div>
        </div>
    
            <div> Please press any key to continue to the next image.</div>
        ","arrowleft","ITI","","","","","","",""
"","","","","","html-keyboard-response","126","180320","0.0-6.14-1.14","5e8efc69dc9b18027705fc4b","656d9e5e2de4f984cfed7d4d","656d9ef82335be29f7484144","null","
        
        <div style=""text-align: center; position: fixed; top: 5vh; left: 40vw;"">
            <div style=""margin:0 auto; width: 20vw; top: 8vh; font-size: 2vw""> 
            <font color=""green""> Bonus : $0.35 </font>
            </div>
        </div>
    
        <img class=""stim"" src=./stimuli//pack_shapes_1/cat_2/diff_1/ex_2_1_5.png></img>
    ","null","stimulus","","","","","","",""
"","","","","","html-keyboard-response","127","181321","0.0-6.14-2.14","5e8efc69dc9b18027705fc4b","656d9e5e2de4f984cfed7d4d","656d9ef82335be29f7484144","null","
        <div style=""text-align: center; position: fixed; top: 5vh; left: 40vw;"">
            <div style=""margin:0 auto; width: 20vw; top: 8vh; font-size: 2vw""> 
            <font color=""green""> Bonus : $0.35 </font>
            </div>
        </div>
    ","null","","","","","","","",""
"","","","","","html-keyboard-response","128","181806","0.0-6.14-3.14","5e8efc69dc9b18027705fc4b","656d9e5e2de4f984cfed7d4d","656d9ef82335be29f7484144","485","./stimuli//pack_shapes_1/cat_2/diff_1/ex_2_1_5.png","arrowright","response","ArrowRight","5","2","1","test","true",""
"","","","","","html-keyboard-response","129","183308","0.0-6.14-4.14","5e8efc69dc9b18027705fc4b","656d9e5e2de4f984cfed7d4d","656d9ef82335be29f7484144","null","<p> <font color=""green"" size=""5vw""> Correct category! </font> <br> <br> <font color=""green"" size=""8vw""> + $0.05 </font> </p>","null","feedback","","","","","","","0.4"
"","","","","","html-keyboard-response","130","184369","0.0-6.15-0.15","5e8efc69dc9b18027705fc4b","656d9e5e2de4f984cfed7d4d","656d9ef82335be29f7484144","1061","
            
        <div style=""text-align: center; position: fixed; top: 5vh; left: 40vw;"">
            <div style=""margin:0 auto; width: 20vw; top: 8vh; font-size: 2vw""> 
            <font color=""green""> Bonus : $0.4 </font>
            </div>
        </div>
    
            <div> Please press any key to continue to the next image.</div>
        ","arrowright","ITI","","","","","","",""
"","","","","","html-keyboard-response","131","184970","0.0-6.15-1.15","5e8efc69dc9b18027705fc4b","656d9e5e2de4f984cfed7d4d","656d9ef82335be29f7484144","null","
        
        <div style=""text-align: center; position: fixed; top: 5vh; left: 40vw;"">
            <div style=""margin:0 auto; width: 20vw; top: 8vh; font-size: 2vw""> 
            <font color=""green""> Bonus : $0.4 </font>
            </div>
        </div>
    
        <img class=""stim"" src=./stimuli//pack_shapes_1/cat_1/diff_1/ex_1_1_15.png></img>
    ","null","stimulus","","","","","","",""
"","","","","","html-keyboard-response","132","185971","0.0-6.15-2.15","5e8efc69dc9b18027705fc4b","656d9e5e2de4f984cfed7d4d","656d9ef82335be29f7484144","null","
        <div style=""text-align: center; position: fixed; top: 5vh; left: 40vw;"">
            <div style=""margin:0 auto; width: 20vw; top: 8vh; font-size: 2vw""> 
            <font color=""green""> Bonus : $0.4 </font>
            </div>
        </div>
    ","null","","","","","","","",""
"","","","","","html-keyboard-response","133","186402","0.0-6.15-3.15","5e8efc69dc9b18027705fc4b","656d9e5e2de4f984cfed7d4d","656d9ef82335be29f7484144","431","./stimuli//pack_shapes_1/cat_1/diff_1/ex_1_1_15.png","arrowleft","response","ArrowLeft","15","1","1","test","true",""
"","","","","","html-keyboard-response","134","187902","0.0-6.15-4.15","5e8efc69dc9b18027705fc4b","656d9e5e2de4f984cfed7d4d","656d9ef82335be29f7484144","null","<p> <font color=""green"" size=""5vw""> Correct category! </font> <br> <br> <font color=""green"" size=""8vw""> + $0.05 </font> </p>","null","feedback","","","","","","","0.45"
"","","","","","html-keyboard-response","135","188545","0.0-6.16-0.16","5e8efc69dc9b18027705fc4b","656d9e5e2de4f984cfed7d4d","656d9ef82335be29f7484144","643","
            
        <div style=""text-align: center; position: fixed; top: 5vh; left: 40vw;"">
            <div style=""margin:0 auto; width: 20vw; top: 8vh; font-size: 2vw""> 
            <font color=""green""> Bonus : $0.45 </font>
            </div>
        </div>
    
            <div> Please press any key to continue to the next image.</div>
        ","arrowright","ITI","","","","","","",""
"","","","","","html-keyboard-response","136","189146","0.0-6.16-1.16","5e8efc69dc9b18027705fc4b","656d9e5e2de4f984cfed7d4d","656d9ef82335be29f7484144","null","
        
        <div style=""text-align: center; position: fixed; top: 5vh; left: 40vw;"">
            <div style=""margin:0 auto; width: 20vw; top: 8vh; font-size: 2vw""> 
            <font color=""green""> Bonus : $0.45 </font>
            </div>
        </div>
    
        <img class=""stim"" src=./stimuli//pack_shapes_1/cat_1/diff_2/ex_1_2_1.png></img>
    ","null","stimulus","","","","","","",""
"","","","","","html-keyboard-response","137","190147","0.0-6.16-2.16","5e8efc69dc9b18027705fc4b","656d9e5e2de4f984cfed7d4d","656d9ef82335be29f7484144","null","
        <div style=""text-align: center; position: fixed; top: 5vh; left: 40vw;"">
            <div style=""margin:0 auto; width: 20vw; top: 8vh; font-size: 2vw""> 
            <font color=""green""> Bonus : $0.45 </font>
            </div>
        </div>
    ","null","","","","","","","",""
"","","","","","html-keyboard-response","138","190551","0.0-6.16-3.16","5e8efc69dc9b18027705fc4b","656d9e5e2de4f984cfed7d4d","656d9ef82335be29f7484144","403","./stimuli//pack_shapes_1/cat_1/diff_2/ex_1_2_1.png","arrowleft","response","ArrowLeft","1","1","2","test","true",""
"","","","","","html-keyboard-response","139","192052","0.0-6.16-4.16","5e8efc69dc9b18027705fc4b","656d9e5e2de4f984cfed7d4d","656d9ef82335be29f7484144","null","<p> <font color=""green"" size=""5vw""> Correct category! </font> <br> <br> <font color=""green"" size=""8vw""> + $0.05 </font> </p>","null","feedback","","","","","","","0.5"
"","","","","","html-keyboard-response","140","192459","0.0-6.17-0.17","5e8efc69dc9b18027705fc4b","656d9e5e2de4f984cfed7d4d","656d9ef82335be29f7484144","407","
            
        <div style=""text-align: center; position: fixed; top: 5vh; left: 40vw;"">
            <div style=""margin:0 auto; width: 20vw; top: 8vh; font-size: 2vw""> 
            <font color=""green""> Bonus : $0.5 </font>
            </div>
        </div>
    
            <div> Please press any key to continue to the next image.</div>
        ","arrowright","ITI","","","","","","",""
"","","","","","html-keyboard-response","141","193060","0.0-6.17-1.17","5e8efc69dc9b18027705fc4b","656d9e5e2de4f984cfed7d4d","656d9ef82335be29f7484144","null","
        
        <div style=""text-align: center; position: fixed; top: 5vh; left: 40vw;"">
            <div style=""margin:0 auto; width: 20vw; top: 8vh; font-size: 2vw""> 
            <font color=""green""> Bonus : $0.5 </font>
            </div>
        </div>
    
        <img class=""stim"" src=./stimuli//pack_shapes_1/cat_1/diff_2/ex_1_2_15.png></img>
    ","null","stimulus","","","","","","",""
"","","","","","html-keyboard-response","142","194061","0.0-6.17-2.17","5e8efc69dc9b18027705fc4b","656d9e5e2de4f984cfed7d4d","656d9ef82335be29f7484144","null","
        <div style=""text-align: center; position: fixed; top: 5vh; left: 40vw;"">
            <div style=""margin:0 auto; width: 20vw; top: 8vh; font-size: 2vw""> 
            <font color=""green""> Bonus : $0.5 </font>
            </div>
        </div>
    ","null","","","","","","","",""
"","","","","","html-keyboard-response","143","195641","0.0-6.17-3.17","5e8efc69dc9b18027705fc4b","656d9e5e2de4f984cfed7d4d","656d9ef82335be29f7484144","1580","./stimuli//pack_shapes_1/cat_1/diff_2/ex_1_2_15.png","arrowleft","response","ArrowLeft","15","1","2","test","true",""
"","","","","","html-keyboard-response","144","197143","0.0-6.17-4.17","5e8efc69dc9b18027705fc4b","656d9e5e2de4f984cfed7d4d","656d9ef82335be29f7484144","null","<p> <font color=""green"" size=""5vw""> Correct category! </font> <br> <br> <font color=""green"" size=""8vw""> + $0.05 </font> </p>","null","feedback","","","","","","","0.55"
"","","","","","html-keyboard-response","145","197603","0.0-6.18-0.18","5e8efc69dc9b18027705fc4b","656d9e5e2de4f984cfed7d4d","656d9ef82335be29f7484144","461","
            
        <div style=""text-align: center; position: fixed; top: 5vh; left: 40vw;"">
            <div style=""margin:0 auto; width: 20vw; top: 8vh; font-size: 2vw""> 
            <font color=""green""> Bonus : $0.55 </font>
            </div>
        </div>
    
            <div> Please press any key to continue to the next image.</div>
        ","arrowleft","ITI","","","","","","",""
"","","","","","html-keyboard-response","146","198204","0.0-6.18-1.18","5e8efc69dc9b18027705fc4b","656d9e5e2de4f984cfed7d4d","656d9ef82335be29f7484144","null","
        
        <div style=""text-align: center; position: fixed; top: 5vh; left: 40vw;"">
            <div style=""margin:0 auto; width: 20vw; top: 8vh; font-size: 2vw""> 
            <font color=""green""> Bonus : $0.55 </font>
            </div>
        </div>
    
        <img class=""stim"" src=./stimuli//pack_shapes_1/cat_2/diff_2/ex_2_2_2.png></img>
    ","null","stimulus","","","","","","",""
"","","","","","html-keyboard-response","147","199205","0.0-6.18-2.18","5e8efc69dc9b18027705fc4b","656d9e5e2de4f984cfed7d4d","656d9ef82335be29f7484144","null","
        <div style=""text-align: center; position: fixed; top: 5vh; left: 40vw;"">
            <div style=""margin:0 auto; width: 20vw; top: 8vh; font-size: 2vw""> 
            <font color=""green""> Bonus : $0.55 </font>
            </div>
        </div>
    ","null","","","","","","","",""
"","","","","","html-keyboard-response","148","199622","0.0-6.18-3.18","5e8efc69dc9b18027705fc4b","656d9e5e2de4f984cfed7d4d","656d9ef82335be29f7484144","417","./stimuli//pack_shapes_1/cat_2/diff_2/ex_2_2_2.png","arrowright","response","ArrowRight","2","2","2","test","true",""
"","","","","","html-keyboard-response","149","201124","0.0-6.18-4.18","5e8efc69dc9b18027705fc4b","656d9e5e2de4f984cfed7d4d","656d9ef82335be29f7484144","null","<p> <font color=""green"" size=""5vw""> Correct category! </font> <br> <br> <font color=""green"" size=""8vw""> + $0.05 </font> </p>","null","feedback","","","","","","","0.6"
"","","","","","html-keyboard-response","150","201612","0.0-6.19-0.19","5e8efc69dc9b18027705fc4b","656d9e5e2de4f984cfed7d4d","656d9ef82335be29f7484144","489","
            
        <div style=""text-align: center; position: fixed; top: 5vh; left: 40vw;"">
            <div style=""margin:0 auto; width: 20vw; top: 8vh; font-size: 2vw""> 
            <font color=""green""> Bonus : $0.6 </font>
            </div>
        </div>
    
            <div> Please press any key to continue to the next image.</div>
        ","arrowright","ITI","","","","","","",""
"","","","","","html-keyboard-response","151","202214","0.0-6.19-1.19","5e8efc69dc9b18027705fc4b","656d9e5e2de4f984cfed7d4d","656d9ef82335be29f7484144","null","
        
        <div style=""text-align: center; position: fixed; top: 5vh; left: 40vw;"">
            <div style=""margin:0 auto; width: 20vw; top: 8vh; font-size: 2vw""> 
            <font color=""green""> Bonus : $0.6 </font>
            </div>
        </div>
    
        <img class=""stim"" src=./stimuli//pack_shapes_1/cat_2/diff_2/ex_2_2_6.png></img>
    ","null","stimulus","","","","","","",""
"","","","","","html-keyboard-response","152","203215","0.0-6.19-2.19","5e8efc69dc9b18027705fc4b","656d9e5e2de4f984cfed7d4d","656d9ef82335be29f7484144","null","
        <div style=""text-align: center; position: fixed; top: 5vh; left: 40vw;"">
            <div style=""margin:0 auto; width: 20vw; top: 8vh; font-size: 2vw""> 
            <font color=""green""> Bonus : $0.6 </font>
            </div>
        </div>
    ","null","","","","","","","",""
"","","","","","html-keyboard-response","153","203610","0.0-6.19-3.19","5e8efc69dc9b18027705fc4b","656d9e5e2de4f984cfed7d4d","656d9ef82335be29f7484144","394","./stimuli//pack_shapes_1/cat_2/diff_2/ex_2_2_6.png","arrowright","response","ArrowRight","6","2","2","test","true",""
"","","","","","html-keyboard-response","154","205111","0.0-6.19-4.19","5e8efc69dc9b18027705fc4b","656d9e5e2de4f984cfed7d4d","656d9ef82335be29f7484144","null","<p> <font color=""green"" size=""5vw""> Correct category! </font> <br> <br> <font color=""green"" size=""8vw""> + $0.05 </font> </p>","null","feedback","","","","","","","0.65"
"","","","","","html-keyboard-response","155","205607","0.0-6.20-0.20","5e8efc69dc9b18027705fc4b","656d9e5e2de4f984cfed7d4d","656d9ef82335be29f7484144","496","
            
        <div style=""text-align: center; position: fixed; top: 5vh; left: 40vw;"">
            <div style=""margin:0 auto; width: 20vw; top: 8vh; font-size: 2vw""> 
            <font color=""green""> Bonus : $0.65 </font>
            </div>
        </div>
    
            <div> Please press any key to continue to the next image.</div>
        ","arrowright","ITI","","","","","","",""
"","","","","","html-keyboard-response","156","206208","0.0-6.20-1.20","5e8efc69dc9b18027705fc4b","656d9e5e2de4f984cfed7d4d","656d9ef82335be29f7484144","null","
        
        <div style=""text-align: center; position: fixed; top: 5vh; left: 40vw;"">
            <div style=""margin:0 auto; width: 20vw; top: 8vh; font-size: 2vw""> 
            <font color=""green""> Bonus : $0.65 </font>
            </div>
        </div>
    
        <img class=""stim"" src=./stimuli//pack_shapes_1/cat_1/diff_2/ex_1_2_3.png></img>
    ","null","stimulus","","","","","","",""
"","","","","","html-keyboard-response","157","207208","0.0-6.20-2.20","5e8efc69dc9b18027705fc4b","656d9e5e2de4f984cfed7d4d","656d9ef82335be29f7484144","null","
        <div style=""text-align: center; position: fixed; top: 5vh; left: 40vw;"">
            <div style=""margin:0 auto; width: 20vw; top: 8vh; font-size: 2vw""> 
            <font color=""green""> Bonus : $0.65 </font>
            </div>
        </div>
    ","null","","","","","","","",""
"","","","","","html-keyboard-response","158","207507","0.0-6.20-3.20","5e8efc69dc9b18027705fc4b","656d9e5e2de4f984cfed7d4d","656d9ef82335be29f7484144","299","./stimuli//pack_shapes_1/cat_1/diff_2/ex_1_2_3.png","arrowleft","response","ArrowLeft","3","1","2","test","true",""
"","","","","","html-keyboard-response","159","209008","0.0-6.20-4.20","5e8efc69dc9b18027705fc4b","656d9e5e2de4f984cfed7d4d","656d9ef82335be29f7484144","null","<p> <font color=""green"" size=""5vw""> Correct category! </font> <br> <br> <font color=""green"" size=""8vw""> + $0.05 </font> </p>","null","feedback","","","","","","","0.7"
"","","","","","html-keyboard-response","160","209372","0.0-6.21-0.21","5e8efc69dc9b18027705fc4b","656d9e5e2de4f984cfed7d4d","656d9ef82335be29f7484144","363","
            
        <div style=""text-align: center; position: fixed; top: 5vh; left: 40vw;"">
            <div style=""margin:0 auto; width: 20vw; top: 8vh; font-size: 2vw""> 
            <font color=""green""> Bonus : $0.7 </font>
            </div>
        </div>
    
            <div> Please press any key to continue to the next image.</div>
        ","arrowright","ITI","","","","","","",""
"","","","","","html-keyboard-response","161","209973","0.0-6.21-1.21","5e8efc69dc9b18027705fc4b","656d9e5e2de4f984cfed7d4d","656d9ef82335be29f7484144","null","
        
        <div style=""text-align: center; position: fixed; top: 5vh; left: 40vw;"">
            <div style=""margin:0 auto; width: 20vw; top: 8vh; font-size: 2vw""> 
            <font color=""green""> Bonus : $0.7 </font>
            </div>
        </div>
    
        <img class=""stim"" src=./stimuli//pack_shapes_1/cat_1/diff_3/ex_1_3_17.png></img>
    ","null","stimulus","","","","","","",""
"","","","","","html-keyboard-response","162","210974","0.0-6.21-2.21","5e8efc69dc9b18027705fc4b","656d9e5e2de4f984cfed7d4d","656d9ef82335be29f7484144","null","
        <div style=""text-align: center; position: fixed; top: 5vh; left: 40vw;"">
            <div style=""margin:0 auto; width: 20vw; top: 8vh; font-size: 2vw""> 
            <font color=""green""> Bonus : $0.7 </font>
            </div>
        </div>
    ","null","","","","","","","",""
"","","","","","html-keyboard-response","163","211292","0.0-6.21-3.21","5e8efc69dc9b18027705fc4b","656d9e5e2de4f984cfed7d4d","656d9ef82335be29f7484144","318","./stimuli//pack_shapes_1/cat_1/diff_3/ex_1_3_17.png","arrowleft","response","ArrowLeft","17","1","3","test","true",""
"","","","","","html-keyboard-response","164","212793","0.0-6.21-4.21","5e8efc69dc9b18027705fc4b","656d9e5e2de4f984cfed7d4d","656d9ef82335be29f7484144","null","<p> <font color=""green"" size=""5vw""> Correct category! </font> <br> <br> <font color=""green"" size=""8vw""> + $0.05 </font> </p>","null","feedback","","","","","","","0.75"
"","","","","","html-keyboard-response","165","213257","0.0-6.22-0.22","5e8efc69dc9b18027705fc4b","656d9e5e2de4f984cfed7d4d","656d9ef82335be29f7484144","464","
            
        <div style=""text-align: center; position: fixed; top: 5vh; left: 40vw;"">
            <div style=""margin:0 auto; width: 20vw; top: 8vh; font-size: 2vw""> 
            <font color=""green""> Bonus : $0.75 </font>
            </div>
        </div>
    
            <div> Please press any key to continue to the next image.</div>
        ","arrowleft","ITI","","","","","","",""
"","","","","","html-keyboard-response","166","213857","0.0-6.22-1.22","5e8efc69dc9b18027705fc4b","656d9e5e2de4f984cfed7d4d","656d9ef82335be29f7484144","null","
        
        <div style=""text-align: center; position: fixed; top: 5vh; left: 40vw;"">
            <div style=""margin:0 auto; width: 20vw; top: 8vh; font-size: 2vw""> 
            <font color=""green""> Bonus : $0.75 </font>
            </div>
        </div>
    
        <img class=""stim"" src=./stimuli//pack_shapes_1/cat_1/diff_3/ex_1_3_2.png></img>
    ","null","stimulus","","","","","","",""
"","","","","","html-keyboard-response","167","214858","0.0-6.22-2.22","5e8efc69dc9b18027705fc4b","656d9e5e2de4f984cfed7d4d","656d9ef82335be29f7484144","null","
        <div style=""text-align: center; position: fixed; top: 5vh; left: 40vw;"">
            <div style=""margin:0 auto; width: 20vw; top: 8vh; font-size: 2vw""> 
            <font color=""green""> Bonus : $0.75 </font>
            </div>
        </div>
    ","null","","","","","","","",""
"","","","","","html-keyboard-response","168","215163","0.0-6.22-3.22","5e8efc69dc9b18027705fc4b","656d9e5e2de4f984cfed7d4d","656d9ef82335be29f7484144","304","./stimuli//pack_shapes_1/cat_1/diff_3/ex_1_3_2.png","arrowleft","response","ArrowLeft","2","1","3","test","true",""
"","","","","","html-keyboard-response","169","216664","0.0-6.22-4.22","5e8efc69dc9b18027705fc4b","656d9e5e2de4f984cfed7d4d","656d9ef82335be29f7484144","null","<p> <font color=""green"" size=""5vw""> Correct category! </font> <br> <br> <font color=""green"" size=""8vw""> + $0.05 </font> </p>","null","feedback","","","","","","","0.8"
"","","","","","html-keyboard-response","170","217030","0.0-6.23-0.23","5e8efc69dc9b18027705fc4b","656d9e5e2de4f984cfed7d4d","656d9ef82335be29f7484144","365","
            
        <div style=""text-align: center; position: fixed; top: 5vh; left: 40vw;"">
            <div style=""margin:0 auto; width: 20vw; top: 8vh; font-size: 2vw""> 
            <font color=""green""> Bonus : $0.8 </font>
            </div>
        </div>
    
            <div> Please press any key to continue to the next image.</div>
        ","arrowleft","ITI","","","","","","",""
"","","","","","html-keyboard-response","171","217630","0.0-6.23-1.23","5e8efc69dc9b18027705fc4b","656d9e5e2de4f984cfed7d4d","656d9ef82335be29f7484144","null","
        
        <div style=""text-align: center; position: fixed; top: 5vh; left: 40vw;"">
            <div style=""margin:0 auto; width: 20vw; top: 8vh; font-size: 2vw""> 
            <font color=""green""> Bonus : $0.8 </font>
            </div>
        </div>
    
        <img class=""stim"" src=./stimuli//pack_shapes_1/cat_2/diff_3/ex_2_3_6.png></img>
    ","null","stimulus","","","","","","",""
"","","","","","html-keyboard-response","172","218631","0.0-6.23-2.23","5e8efc69dc9b18027705fc4b","656d9e5e2de4f984cfed7d4d","656d9ef82335be29f7484144","null","
        <div style=""text-align: center; position: fixed; top: 5vh; left: 40vw;"">
            <div style=""margin:0 auto; width: 20vw; top: 8vh; font-size: 2vw""> 
            <font color=""green""> Bonus : $0.8 </font>
            </div>
        </div>
    ","null","","","","","","","",""
"","","","","","html-keyboard-response","173","219009","0.0-6.23-3.23","5e8efc69dc9b18027705fc4b","656d9e5e2de4f984cfed7d4d","656d9ef82335be29f7484144","378","./stimuli//pack_shapes_1/cat_2/diff_3/ex_2_3_6.png","arrowleft","response","ArrowRight","6","2","3","test","false",""
"","","","","","html-keyboard-response","174","220511","0.0-6.23-4.23","5e8efc69dc9b18027705fc4b","656d9e5e2de4f984cfed7d4d","656d9ef82335be29f7484144","null","<p> <font color=""red"" size=""5vw""> Wrong category! </font> <br> <br> <font color=""red"" size=""8vw""> - $0.05 </font> </p>","null","feedback","","","","","","","0.75"
"","","","","","html-keyboard-response","175","220858","0.0-6.24-0.24","5e8efc69dc9b18027705fc4b","656d9e5e2de4f984cfed7d4d","656d9ef82335be29f7484144","347","
            
        <div style=""text-align: center; position: fixed; top: 5vh; left: 40vw;"">
            <div style=""margin:0 auto; width: 20vw; top: 8vh; font-size: 2vw""> 
            <font color=""green""> Bonus : $0.75 </font>
            </div>
        </div>
    
            <div> Please press any key to continue to the next image.</div>
        ","arrowleft","ITI","","","","","","",""
"","","","","","html-keyboard-response","176","221460","0.0-6.24-1.24","5e8efc69dc9b18027705fc4b","656d9e5e2de4f984cfed7d4d","656d9ef82335be29f7484144","null","
        
        <div style=""text-align: center; position: fixed; top: 5vh; left: 40vw;"">
            <div style=""margin:0 auto; width: 20vw; top: 8vh; font-size: 2vw""> 
            <font color=""green""> Bonus : $0.75 </font>
            </div>
        </div>
    
        <img class=""stim"" src=./stimuli//pack_shapes_1/cat_1/diff_3/ex_1_3_16.png></img>
    ","null","stimulus","","","","","","",""
"","","","","","html-keyboard-response","177","222461","0.0-6.24-2.24","5e8efc69dc9b18027705fc4b","656d9e5e2de4f984cfed7d4d","656d9ef82335be29f7484144","null","
        <div style=""text-align: center; position: fixed; top: 5vh; left: 40vw;"">
            <div style=""margin:0 auto; width: 20vw; top: 8vh; font-size: 2vw""> 
            <font color=""green""> Bonus : $0.75 </font>
            </div>
        </div>
    ","null","","","","","","","",""
"","","","","","html-keyboard-response","178","222786","0.0-6.24-3.24","5e8efc69dc9b18027705fc4b","656d9e5e2de4f984cfed7d4d","656d9ef82335be29f7484144","324","./stimuli//pack_shapes_1/cat_1/diff_3/ex_1_3_16.png","arrowleft","response","ArrowLeft","16","1","3","test","true",""
"","","","","","html-keyboard-response","179","224287","0.0-6.24-4.24","5e8efc69dc9b18027705fc4b","656d9e5e2de4f984cfed7d4d","656d9ef82335be29f7484144","null","<p> <font color=""green"" size=""5vw""> Correct category! </font> <br> <br> <font color=""green"" size=""8vw""> + $0.05 </font> </p>","null","feedback","","","","","","","0.8"
"","","","","","html-keyboard-response","180","224745","0.0-6.25-0.25","5e8efc69dc9b18027705fc4b","656d9e5e2de4f984cfed7d4d","656d9ef82335be29f7484144","458","
            
        <div style=""text-align: center; position: fixed; top: 5vh; left: 40vw;"">
            <div style=""margin:0 auto; width: 20vw; top: 8vh; font-size: 2vw""> 
            <font color=""green""> Bonus : $0.8 </font>
            </div>
        </div>
    
            <div> Please press any key to continue to the next image.</div>
        ","arrowright","ITI","","","","","","",""
"","","","","","html-keyboard-response","181","225347","0.0-6.25-1.25","5e8efc69dc9b18027705fc4b","656d9e5e2de4f984cfed7d4d","656d9ef82335be29f7484144","null","
        
        <div style=""text-align: center; position: fixed; top: 5vh; left: 40vw;"">
            <div style=""margin:0 auto; width: 20vw; top: 8vh; font-size: 2vw""> 
            <font color=""green""> Bonus : $0.8 </font>
            </div>
        </div>
    
        <img class=""stim"" src=./stimuli//pack_shapes_1/cat_2/diff_3/ex_2_3_15.png></img>
    ","null","stimulus","","","","","","",""
"","","","","","html-keyboard-response","182","226348","0.0-6.25-2.25","5e8efc69dc9b18027705fc4b","656d9e5e2de4f984cfed7d4d","656d9ef82335be29f7484144","null","
        <div style=""text-align: center; position: fixed; top: 5vh; left: 40vw;"">
            <div style=""margin:0 auto; width: 20vw; top: 8vh; font-size: 2vw""> 
            <font color=""green""> Bonus : $0.8 </font>
            </div>
        </div>
    ","null","","","","","","","",""
"","","","","","html-keyboard-response","183","226675","0.0-6.25-3.25","5e8efc69dc9b18027705fc4b","656d9e5e2de4f984cfed7d4d","656d9ef82335be29f7484144","327","./stimuli//pack_shapes_1/cat_2/diff_3/ex_2_3_15.png","arrowleft","response","ArrowRight","15","2","3","test","false",""
"","","","","","html-keyboard-response","184","228177","0.0-6.25-4.25","5e8efc69dc9b18027705fc4b","656d9e5e2de4f984cfed7d4d","656d9ef82335be29f7484144","null","<p> <font color=""red"" size=""5vw""> Wrong category! </font> <br> <br> <font color=""red"" size=""8vw""> - $0.05 </font> </p>","null","feedback","","","","","","","0.75"
"","","","","","html-keyboard-response","185","228523","0.0-6.26-0.26","5e8efc69dc9b18027705fc4b","656d9e5e2de4f984cfed7d4d","656d9ef82335be29f7484144","346","
            
        <div style=""text-align: center; position: fixed; top: 5vh; left: 40vw;"">
            <div style=""margin:0 auto; width: 20vw; top: 8vh; font-size: 2vw""> 
            <font color=""green""> Bonus : $0.75 </font>
            </div>
        </div>
    
            <div> Please press any key to continue to the next image.</div>
        ","arrowright","ITI","","","","","","",""
"","","","","","html-keyboard-response","186","229124","0.0-6.26-1.26","5e8efc69dc9b18027705fc4b","656d9e5e2de4f984cfed7d4d","656d9ef82335be29f7484144","null","
        
        <div style=""text-align: center; position: fixed; top: 5vh; left: 40vw;"">
            <div style=""margin:0 auto; width: 20vw; top: 8vh; font-size: 2vw""> 
            <font color=""green""> Bonus : $0.75 </font>
            </div>
        </div>
    
        <img class=""stim"" src=./stimuli//pack_shapes_1/cat_2/diff_2/ex_2_2_4.png></img>
    ","null","stimulus","","","","","","",""
"","","","","","html-keyboard-response","187","230126","0.0-6.26-2.26","5e8efc69dc9b18027705fc4b","656d9e5e2de4f984cfed7d4d","656d9ef82335be29f7484144","null","
        <div style=""text-align: center; position: fixed; top: 5vh; left: 40vw;"">
            <div style=""margin:0 auto; width: 20vw; top: 8vh; font-size: 2vw""> 
            <font color=""green""> Bonus : $0.75 </font>
            </div>
        </div>
    ","null","","","","","","","",""
"","","","","","html-keyboard-response","188","230419","0.0-6.26-3.26","5e8efc69dc9b18027705fc4b","656d9e5e2de4f984cfed7d4d","656d9ef82335be29f7484144","293","./stimuli//pack_shapes_1/cat_2/diff_2/ex_2_2_4.png","arrowright","response","ArrowRight","4","2","2","test","true",""
"","","","","","html-keyboard-response","189","231920","0.0-6.26-4.26","5e8efc69dc9b18027705fc4b","656d9e5e2de4f984cfed7d4d","656d9ef82335be29f7484144","null","<p> <font color=""green"" size=""5vw""> Correct category! </font> <br> <br> <font color=""green"" size=""8vw""> + $0.05 </font> </p>","null","feedback","","","","","","","0.8"
"","","","","","html-keyboard-response","190","232318","0.0-6.27-0.27","5e8efc69dc9b18027705fc4b","656d9e5e2de4f984cfed7d4d","656d9ef82335be29f7484144","397","
            
        <div style=""text-align: center; position: fixed; top: 5vh; left: 40vw;"">
            <div style=""margin:0 auto; width: 20vw; top: 8vh; font-size: 2vw""> 
            <font color=""green""> Bonus : $0.8 </font>
            </div>
        </div>
    
            <div> Please press any key to continue to the next image.</div>
        ","arrowright","ITI","","","","","","",""
"","","","","","html-keyboard-response","191","232919","0.0-6.27-1.27","5e8efc69dc9b18027705fc4b","656d9e5e2de4f984cfed7d4d","656d9ef82335be29f7484144","null","
        
        <div style=""text-align: center; position: fixed; top: 5vh; left: 40vw;"">
            <div style=""margin:0 auto; width: 20vw; top: 8vh; font-size: 2vw""> 
            <font color=""green""> Bonus : $0.8 </font>
            </div>
        </div>
    
        <img class=""stim"" src=./stimuli//pack_shapes_1/cat_1/diff_2/ex_1_2_6.png></img>
    ","null","stimulus","","","","","","",""
"","","","","","html-keyboard-response","192","233920","0.0-6.27-2.27","5e8efc69dc9b18027705fc4b","656d9e5e2de4f984cfed7d4d","656d9ef82335be29f7484144","null","
        <div style=""text-align: center; position: fixed; top: 5vh; left: 40vw;"">
            <div style=""margin:0 auto; width: 20vw; top: 8vh; font-size: 2vw""> 
            <font color=""green""> Bonus : $0.8 </font>
            </div>
        </div>
    ","null","","","","","","","",""
"","","","","","html-keyboard-response","193","234382","0.0-6.27-3.27","5e8efc69dc9b18027705fc4b","656d9e5e2de4f984cfed7d4d","656d9ef82335be29f7484144","462","./stimuli//pack_shapes_1/cat_1/diff_2/ex_1_2_6.png","arrowleft","response","ArrowLeft","6","1","2","test","true",""
"","","","","","html-keyboard-response","194","235883","0.0-6.27-4.27","5e8efc69dc9b18027705fc4b","656d9e5e2de4f984cfed7d4d","656d9ef82335be29f7484144","null","<p> <font color=""green"" size=""5vw""> Correct category! </font> <br> <br> <font color=""green"" size=""8vw""> + $0.05 </font> </p>","null","feedback","","","","","","","0.85"
"","","","","","html-keyboard-response","195","236306","0.0-6.28-0.28","5e8efc69dc9b18027705fc4b","656d9e5e2de4f984cfed7d4d","656d9ef82335be29f7484144","423","
            
        <div style=""text-align: center; position: fixed; top: 5vh; left: 40vw;"">
            <div style=""margin:0 auto; width: 20vw; top: 8vh; font-size: 2vw""> 
            <font color=""green""> Bonus : $0.85 </font>
            </div>
        </div>
    
            <div> Please press any key to continue to the next image.</div>
        ","arrowright","ITI","","","","","","",""
"","","","","","html-keyboard-response","196","236907","0.0-6.28-1.28","5e8efc69dc9b18027705fc4b","656d9e5e2de4f984cfed7d4d","656d9ef82335be29f7484144","null","
        
        <div style=""text-align: center; position: fixed; top: 5vh; left: 40vw;"">
            <div style=""margin:0 auto; width: 20vw; top: 8vh; font-size: 2vw""> 
            <font color=""green""> Bonus : $0.85 </font>
            </div>
        </div>
    
        <img class=""stim"" src=./stimuli//pack_shapes_1/cat_2/diff_2/ex_2_2_15.png></img>
    ","null","stimulus","","","","","","",""
"","","","","","html-keyboard-response","197","237908","0.0-6.28-2.28","5e8efc69dc9b18027705fc4b","656d9e5e2de4f984cfed7d4d","656d9ef82335be29f7484144","null","
        <div style=""text-align: center; position: fixed; top: 5vh; left: 40vw;"">
            <div style=""margin:0 auto; width: 20vw; top: 8vh; font-size: 2vw""> 
            <font color=""green""> Bonus : $0.85 </font>
            </div>
        </div>
    ","null","","","","","","","",""
"","","","","","html-keyboard-response","198","240532","0.0-6.28-3.28","5e8efc69dc9b18027705fc4b","656d9e5e2de4f984cfed7d4d","656d9ef82335be29f7484144","2624","./stimuli//pack_shapes_1/cat_2/diff_2/ex_2_2_15.png","arrowright","response","ArrowRight","15","2","2","test","true",""
"","","","","","html-keyboard-response","199","242033","0.0-6.28-4.28","5e8efc69dc9b18027705fc4b","656d9e5e2de4f984cfed7d4d","656d9ef82335be29f7484144","null","<p> <font color=""green"" size=""5vw""> Correct category! </font> <br> <br> <font color=""green"" size=""8vw""> + $0.05 </font> </p>","null","feedback","","","","","","","0.9"
"","","","","","html-keyboard-response","200","242496","0.0-6.29-0.29","5e8efc69dc9b18027705fc4b","656d9e5e2de4f984cfed7d4d","656d9ef82335be29f7484144","464","
            
        <div style=""text-align: center; position: fixed; top: 5vh; left: 40vw;"">
            <div style=""margin:0 auto; width: 20vw; top: 8vh; font-size: 2vw""> 
            <font color=""green""> Bonus : $0.9 </font>
            </div>
        </div>
    
            <div> Please press any key to continue to the next image.</div>
        ","arrowright","ITI","","","","","","",""
"","","","","","html-keyboard-response","201","243097","0.0-6.29-1.29","5e8efc69dc9b18027705fc4b","656d9e5e2de4f984cfed7d4d","656d9ef82335be29f7484144","null","
        
        <div style=""text-align: center; position: fixed; top: 5vh; left: 40vw;"">
            <div style=""margin:0 auto; width: 20vw; top: 8vh; font-size: 2vw""> 
            <font color=""green""> Bonus : $0.9 </font>
            </div>
        </div>
    
        <img class=""stim"" src=./stimuli//pack_shapes_1/cat_2/diff_2/ex_2_2_4.png></img>
    ","null","stimulus","","","","","","",""
"","","","","","html-keyboard-response","202","244098","0.0-6.29-2.29","5e8efc69dc9b18027705fc4b","656d9e5e2de4f984cfed7d4d","656d9ef82335be29f7484144","null","
        <div style=""text-align: center; position: fixed; top: 5vh; left: 40vw;"">
            <div style=""margin:0 auto; width: 20vw; top: 8vh; font-size: 2vw""> 
            <font color=""green""> Bonus : $0.9 </font>
            </div>
        </div>
    ","null","","","","","","","",""
"","","","","","html-keyboard-response","203","244557","0.0-6.29-3.29","5e8efc69dc9b18027705fc4b","656d9e5e2de4f984cfed7d4d","656d9ef82335be29f7484144","459","./stimuli//pack_shapes_1/cat_2/diff_2/ex_2_2_4.png","arrowright","response","ArrowRight","4","2","2","test","true",""
"","","","","","html-keyboard-response","204","246060","0.0-6.29-4.29","5e8efc69dc9b18027705fc4b","656d9e5e2de4f984cfed7d4d","656d9ef82335be29f7484144","null","<p> <font color=""green"" size=""5vw""> Correct category! </font> <br> <br> <font color=""green"" size=""8vw""> + $0.05 </font> </p>","null","feedback","","","","","","","0.95"
"","","","","","html-keyboard-response","205","246936","0.0-6.30-0.30","5e8efc69dc9b18027705fc4b","656d9e5e2de4f984cfed7d4d","656d9ef82335be29f7484144","877","
            
        <div style=""text-align: center; position: fixed; top: 5vh; left: 40vw;"">
            <div style=""margin:0 auto; width: 20vw; top: 8vh; font-size: 2vw""> 
            <font color=""green""> Bonus : $0.95 </font>
            </div>
        </div>
    
            <div> Please press any key to continue to the next image.</div>
        ","arrowright","ITI","","","","","","",""
"","","","","","html-keyboard-response","206","247538","0.0-6.30-1.30","5e8efc69dc9b18027705fc4b","656d9e5e2de4f984cfed7d4d","656d9ef82335be29f7484144","null","
        
        <div style=""text-align: center; position: fixed; top: 5vh; left: 40vw;"">
            <div style=""margin:0 auto; width: 20vw; top: 8vh; font-size: 2vw""> 
            <font color=""green""> Bonus : $0.95 </font>
            </div>
        </div>
    
        <img class=""stim"" src=./stimuli//pack_shapes_1/cat_2/diff_2/ex_2_2_5.png></img>
    ","null","stimulus","","","","","","",""
"","","","","","html-keyboard-response","207","248540","0.0-6.30-2.30","5e8efc69dc9b18027705fc4b","656d9e5e2de4f984cfed7d4d","656d9ef82335be29f7484144","null","
        <div style=""text-align: center; position: fixed; top: 5vh; left: 40vw;"">
            <div style=""margin:0 auto; width: 20vw; top: 8vh; font-size: 2vw""> 
            <font color=""green""> Bonus : $0.95 </font>
            </div>
        </div>
    ","null","","","","","","","",""
"","","","","","html-keyboard-response","208","248873","0.0-6.30-3.30","5e8efc69dc9b18027705fc4b","656d9e5e2de4f984cfed7d4d","656d9ef82335be29f7484144","333","./stimuli//pack_shapes_1/cat_2/diff_2/ex_2_2_5.png","arrowright","response","ArrowRight","5","2","2","test","true",""
"","","","","","html-keyboard-response","209","250374","0.0-6.30-4.30","5e8efc69dc9b18027705fc4b","656d9e5e2de4f984cfed7d4d","656d9ef82335be29f7484144","null","<p> <font color=""green"" size=""5vw""> Correct category! </font> <br> <br> <font color=""green"" size=""8vw""> + $0.05 </font> </p>","null","feedback","","","","","","","1"
"","","","","","html-keyboard-response","210","251252","0.0-6.31-0.31","5e8efc69dc9b18027705fc4b","656d9e5e2de4f984cfed7d4d","656d9ef82335be29f7484144","878","
            
        <div style=""text-align: center; position: fixed; top: 5vh; left: 40vw;"">
            <div style=""margin:0 auto; width: 20vw; top: 8vh; font-size: 2vw""> 
            <font color=""green""> Bonus : $1 </font>
            </div>
        </div>
    
            <div> Please press any key to continue to the next image.</div>
        ","arrowright","ITI","","","","","","",""
"","","","","","html-keyboard-response","211","251853","0.0-6.31-1.31","5e8efc69dc9b18027705fc4b","656d9e5e2de4f984cfed7d4d","656d9ef82335be29f7484144","null","
        
        <div style=""text-align: center; position: fixed; top: 5vh; left: 40vw;"">
            <div style=""margin:0 auto; width: 20vw; top: 8vh; font-size: 2vw""> 
            <font color=""green""> Bonus : $1 </font>
            </div>
        </div>
    
        <img class=""stim"" src=./stimuli//pack_shapes_1/cat_2/diff_3/ex_2_3_11.png></img>
    ","null","stimulus","","","","","","",""
"","","","","","html-keyboard-response","212","252854","0.0-6.31-2.31","5e8efc69dc9b18027705fc4b","656d9e5e2de4f984cfed7d4d","656d9ef82335be29f7484144","null","
        <div style=""text-align: center; position: fixed; top: 5vh; left: 40vw;"">
            <div style=""margin:0 auto; width: 20vw; top: 8vh; font-size: 2vw""> 
            <font color=""green""> Bonus : $1 </font>
            </div>
        </div>
    ","null","","","","","","","",""
"","","","","","html-keyboard-response","213","254117","0.0-6.31-3.31","5e8efc69dc9b18027705fc4b","656d9e5e2de4f984cfed7d4d","656d9ef82335be29f7484144","1262","./stimuli//pack_shapes_1/cat_2/diff_3/ex_2_3_11.png","arrowright","response","ArrowRight","11","2","3","test","true",""
"","","","","","html-keyboard-response","214","255618","0.0-6.31-4.31","5e8efc69dc9b18027705fc4b","656d9e5e2de4f984cfed7d4d","656d9ef82335be29f7484144","null","<p> <font color=""green"" size=""5vw""> Correct category! </font> <br> <br> <font color=""green"" size=""8vw""> + $0.05 </font> </p>","null","feedback","","","","","","","1.05"
"","","","","","html-keyboard-response","215","255996","0.0-6.32-0.32","5e8efc69dc9b18027705fc4b","656d9e5e2de4f984cfed7d4d","656d9ef82335be29f7484144","378","
            
        <div style=""text-align: center; position: fixed; top: 5vh; left: 40vw;"">
            <div style=""margin:0 auto; width: 20vw; top: 8vh; font-size: 2vw""> 
            <font color=""green""> Bonus : $1.05 </font>
            </div>
        </div>
    
            <div> Please press any key to continue to the next image.</div>
        ","arrowright","ITI","","","","","","",""
"","","","","","html-keyboard-response","216","256597","0.0-6.32-1.32","5e8efc69dc9b18027705fc4b","656d9e5e2de4f984cfed7d4d","656d9ef82335be29f7484144","null","
        
        <div style=""text-align: center; position: fixed; top: 5vh; left: 40vw;"">
            <div style=""margin:0 auto; width: 20vw; top: 8vh; font-size: 2vw""> 
            <font color=""green""> Bonus : $1.05 </font>
            </div>
        </div>
    
        <img class=""stim"" src=./stimuli//pack_shapes_1/cat_1/diff_3/ex_1_3_1.png></img>
    ","null","stimulus","","","","","","",""
"","","","","","html-keyboard-response","217","257598","0.0-6.32-2.32","5e8efc69dc9b18027705fc4b","656d9e5e2de4f984cfed7d4d","656d9ef82335be29f7484144","null","
        <div style=""text-align: center; position: fixed; top: 5vh; left: 40vw;"">
            <div style=""margin:0 auto; width: 20vw; top: 8vh; font-size: 2vw""> 
            <font color=""green""> Bonus : $1.05 </font>
            </div>
        </div>
    ","null","","","","","","","",""
"","","","","","html-keyboard-response","218","257943","0.0-6.32-3.32","5e8efc69dc9b18027705fc4b","656d9e5e2de4f984cfed7d4d","656d9ef82335be29f7484144","345","./stimuli//pack_shapes_1/cat_1/diff_3/ex_1_3_1.png","arrowleft","response","ArrowLeft","1","1","3","test","true",""
"","","","","","html-keyboard-response","219","259445","0.0-6.32-4.32","5e8efc69dc9b18027705fc4b","656d9e5e2de4f984cfed7d4d","656d9ef82335be29f7484144","null","<p> <font color=""green"" size=""5vw""> Correct category! </font> <br> <br> <font color=""green"" size=""8vw""> + $0.05 </font> </p>","null","feedback","","","","","","","1.1"
"","","","","","html-keyboard-response","220","259879","0.0-6.33-0.33","5e8efc69dc9b18027705fc4b","656d9e5e2de4f984cfed7d4d","656d9ef82335be29f7484144","434","
            
        <div style=""text-align: center; position: fixed; top: 5vh; left: 40vw;"">
            <div style=""margin:0 auto; width: 20vw; top: 8vh; font-size: 2vw""> 
            <font color=""green""> Bonus : $1.1 </font>
            </div>
        </div>
    
            <div> Please press any key to continue to the next image.</div>
        ","arrowright","ITI","","","","","","",""
"","","","","","html-keyboard-response","221","260480","0.0-6.33-1.33","5e8efc69dc9b18027705fc4b","656d9e5e2de4f984cfed7d4d","656d9ef82335be29f7484144","null","
        
        <div style=""text-align: center; position: fixed; top: 5vh; left: 40vw;"">
            <div style=""margin:0 auto; width: 20vw; top: 8vh; font-size: 2vw""> 
            <font color=""green""> Bonus : $1.1 </font>
            </div>
        </div>
    
        <img class=""stim"" src=./stimuli//pack_shapes_1/cat_2/diff_3/ex_2_3_6.png></img>
    ","null","stimulus","","","","","","",""
"","","","","","html-keyboard-response","222","261481","0.0-6.33-2.33","5e8efc69dc9b18027705fc4b","656d9e5e2de4f984cfed7d4d","656d9ef82335be29f7484144","null","
        <div style=""text-align: center; position: fixed; top: 5vh; left: 40vw;"">
            <div style=""margin:0 auto; width: 20vw; top: 8vh; font-size: 2vw""> 
            <font color=""green""> Bonus : $1.1 </font>
            </div>
        </div>
    ","null","","","","","","","",""
"","","","","","html-keyboard-response","223","261736","0.0-6.33-3.33","5e8efc69dc9b18027705fc4b","656d9e5e2de4f984cfed7d4d","656d9ef82335be29f7484144","254","./stimuli//pack_shapes_1/cat_2/diff_3/ex_2_3_6.png","arrowleft","response","ArrowRight","6","2","3","test","false",""
"","","","","","html-keyboard-response","224","263237","0.0-6.33-4.33","5e8efc69dc9b18027705fc4b","656d9e5e2de4f984cfed7d4d","656d9ef82335be29f7484144","null","<p> <font color=""red"" size=""5vw""> Wrong category! </font> <br> <br> <font color=""red"" size=""8vw""> - $0.05 </font> </p>","null","feedback","","","","","","","1.05"
"","","","","","html-keyboard-response","225","263580","0.0-6.34-0.34","5e8efc69dc9b18027705fc4b","656d9e5e2de4f984cfed7d4d","656d9ef82335be29f7484144","343","
            
        <div style=""text-align: center; position: fixed; top: 5vh; left: 40vw;"">
            <div style=""margin:0 auto; width: 20vw; top: 8vh; font-size: 2vw""> 
            <font color=""green""> Bonus : $1.05 </font>
            </div>
        </div>
    
            <div> Please press any key to continue to the next image.</div>
        ","arrowright","ITI","","","","","","",""
"","","","","","html-keyboard-response","226","264181","0.0-6.34-1.34","5e8efc69dc9b18027705fc4b","656d9e5e2de4f984cfed7d4d","656d9ef82335be29f7484144","null","
        
        <div style=""text-align: center; position: fixed; top: 5vh; left: 40vw;"">
            <div style=""margin:0 auto; width: 20vw; top: 8vh; font-size: 2vw""> 
            <font color=""green""> Bonus : $1.05 </font>
            </div>
        </div>
    
        <img class=""stim"" src=./stimuli//pack_shapes_1/cat_1/diff_3/ex_1_3_1.png></img>
    ","null","stimulus","","","","","","",""
"","","","","","html-keyboard-response","227","265183","0.0-6.34-2.34","5e8efc69dc9b18027705fc4b","656d9e5e2de4f984cfed7d4d","656d9ef82335be29f7484144","null","
        <div style=""text-align: center; position: fixed; top: 5vh; left: 40vw;"">
            <div style=""margin:0 auto; width: 20vw; top: 8vh; font-size: 2vw""> 
            <font color=""green""> Bonus : $1.05 </font>
            </div>
        </div>
    ","null","","","","","","","",""
"","","","","","html-keyboard-response","228","265451","0.0-6.34-3.34","5e8efc69dc9b18027705fc4b","656d9e5e2de4f984cfed7d4d","656d9ef82335be29f7484144","269","./stimuli//pack_shapes_1/cat_1/diff_3/ex_1_3_1.png","arrowleft","response","ArrowLeft","1","1","3","test","true",""
