"success","timeout","failed_images","failed_audio","failed_video","trial_type","trial_index","time_elapsed","internal_node_id","subject_id","study_id","session_id","rt","stimulus","response","task","correct_response","exemplar_ID","category","difficulty","phase","correct","bonus"
"true","false","[]","[]","[]","preload","0","3","0.0-0.0","65495813eb9207bdb273cbbb","656d9e5e2de4f984cfed7d4d","656d9eb36599eb729c0b0fcd","","","","","","","","","","",""
"","","","","","html-keyboard-response","1","2921","0.0-1.0","65495813eb9207bdb273cbbb","656d9e5e2de4f984cfed7d4d","656d9eb36599eb729c0b0fcd","2917","Welcome to the Category Learning experiment! Press any key to continue."," ","welcome","","","","","","",""
"","","","","","html-keyboard-response","2","25325","0.0-2.0","65495813eb9207bdb273cbbb","656d9e5e2de4f984cfed7d4d","656d9eb36599eb729c0b0fcd","22403","
            <p>You will be shown images of white shapes. Some are category A, some are category B.
            <br>You will not know in advance which category a specific shape belongs to.</p>
            <p>After you see an image, you will be asked to guess its category <b>(left arrow for category A, right arrow for category B)</b></p>
            <p>After you choose, the screen will show you whether you were correct or not.</p>
            <p><b>You will receive a bonus payment of $0.05 for each correct answer!</b></p>
            <p><b>You will lose $0.05 from your bonus payment for each incorrect answer! The bonus can not become less that $0.</b></p>
            <p>Press any key to continue.</p>
            ","arrowleft","introduction_1","","","","","","",""
"","","","","","html-keyboard-response","3","31013","0.0-3.0","65495813eb9207bdb273cbbb","656d9e5e2de4f984cfed7d4d","656d9eb36599eb729c0b0fcd","5687","
            <p> <b>The first 10 trials are a practice round that will not count towards your bonus payment.</b></p>
            <p> You will be notified when practice finishes and the test begins. </p>
            <p> Press any key to begin the practice round.</p>
            ","arrowleft","introduction_2","","","","","","",""
"","","","","","html-keyboard-response","4","33158","0.0-4.0-0.0","65495813eb9207bdb273cbbb","656d9e5e2de4f984cfed7d4d","656d9eb36599eb729c0b0fcd","2143","
            
        <div style=""text-align: center; position: fixed; top: 5vh; left: 40vw;"">
            <div style=""margin:0 auto; width: 20vw; top: 8vh; font-size: 2vw""> 
            <font color=""green""> Bonus : $0 </font>
            </div>
        </div>
    
            <div> Please press any key to continue to the next image.</div>
        ","arrowleft","ITI","","","","","","",""
"","","","","","html-keyboard-response","5","33758","0.0-4.0-1.0","65495813eb9207bdb273cbbb","656d9e5e2de4f984cfed7d4d","656d9eb36599eb729c0b0fcd","null","
        
        <div style=""text-align: center; position: fixed; top: 5vh; left: 40vw;"">
            <div style=""margin:0 auto; width: 20vw; top: 8vh; font-size: 2vw""> 
            <font color=""green""> Bonus : $0 </font>
            </div>
        </div>
    
        <img class=""stim"" src=./stimuli//pack_shapes_1/cat_2/diff_2/ex_2_2_14.png></img>
    ","null","stimulus","","","","","","",""
"","","","","","html-keyboard-response","6","34759","0.0-4.0-2.0","65495813eb9207bdb273cbbb","656d9e5e2de4f984cfed7d4d","656d9eb36599eb729c0b0fcd","null","
        <div style=""text-align: center; position: fixed; top: 5vh; left: 40vw;"">
            <div style=""margin:0 auto; width: 20vw; top: 8vh; font-size: 2vw""> 
            <font color=""green""> Bonus : $0 </font>
            </div>
        </div>
    ","null","","","","","","","",""
"","","","","","html-keyboard-response","7","35879","0.0-4.0-3.0","65495813eb9207bdb273cbbb","656d9e5e2de4f984cfed7d4d","656d9eb36599eb729c0b0fcd","1118","./stimuli//pack_shapes_1/cat_2/diff_2/ex_2_2_14.png","arrowright","response","ArrowRight","14","2","2","train","true",""
"","","","","","html-keyboard-response","8","37381","0.0-4.0-4.0","65495813eb9207bdb273cbbb","656d9e5e2de4f984cfed7d4d","656d9eb36599eb729c0b0fcd","null","<p><font color=""green"" size=""5vw""> Correct category! </font></p>","null","feedback","","","","","","","0"
"","","","","","html-keyboard-response","9","39399","0.0-4.0-0.1","65495813eb9207bdb273cbbb","656d9e5e2de4f984cfed7d4d","656d9eb36599eb729c0b0fcd","2017","
            
        <div style=""text-align: center; position: fixed; top: 5vh; left: 40vw;"">
            <div style=""margin:0 auto; width: 20vw; top: 8vh; font-size: 2vw""> 
            <font color=""green""> Bonus : $0 </font>
            </div>
        </div>
    
            <div> Please press any key to continue to the next image.</div>
        ","arrowright","ITI","","","","","","",""
"","","","","","html-keyboard-response","10","40000","0.0-4.0-1.1","65495813eb9207bdb273cbbb","656d9e5e2de4f984cfed7d4d","656d9eb36599eb729c0b0fcd","null","
        
        <div style=""text-align: center; position: fixed; top: 5vh; left: 40vw;"">
            <div style=""margin:0 auto; width: 20vw; top: 8vh; font-size: 2vw""> 
            <font color=""green""> Bonus : $0 </font>
            </div>
        </div>
    
        <img class=""stim"" src=./stimuli//pack_shapes_1/cat_2/diff_1/ex_2_1_4.png></img>
    ","null","stimulus","","","","","","",""
"","","","","","html-keyboard-response","11","41001","0.0-4.0-2.1","65495813eb9207bdb273cbbb","656d9e5e2de4f984cfed7d4d","656d9eb36599eb729c0b0fcd","null","
        <div style=""text-align: center; position: fixed; top: 5vh; left: 40vw;"">
            <div style=""margin:0 auto; width: 20vw; top: 8vh; font-size: 2vw""> 
            <font color=""green""> Bonus : $0 </font>
            </div>
        </div>
    ","null","","","","","","","",""
"","","","","","html-keyboard-response","12","41399","0.0-4.0-3.1","65495813eb9207bdb273cbbb","656d9e5e2de4f984cfed7d4d","656d9eb36599eb729c0b0fcd","397","./stimuli//pack_shapes_1/cat_2/diff_1/ex_2_1_4.png","arrowleft","response","ArrowRight","4","2","1","train","false",""
"","","","","","html-keyboard-response","13","42901","0.0-4.0-4.1","65495813eb9207bdb273cbbb","656d9e5e2de4f984cfed7d4d","656d9eb36599eb729c0b0fcd","null","<p> <font color=""red"" size=""5vw""> Wrong category! </font> </p>","null","feedback","","","","","","","0"
"","","","","","html-keyboard-response","14","43436","0.0-4.0-0.2","65495813eb9207bdb273cbbb","656d9e5e2de4f984cfed7d4d","656d9eb36599eb729c0b0fcd","534","
            
        <div style=""text-align: center; position: fixed; top: 5vh; left: 40vw;"">
            <div style=""margin:0 auto; width: 20vw; top: 8vh; font-size: 2vw""> 
            <font color=""green""> Bonus : $0 </font>
            </div>
        </div>
    
            <div> Please press any key to continue to the next image.</div>
        ","arrowup","ITI","","","","","","",""
"","","","","","html-keyboard-response","15","44037","0.0-4.0-1.2","65495813eb9207bdb273cbbb","656d9e5e2de4f984cfed7d4d","656d9eb36599eb729c0b0fcd","null","
        
        <div style=""text-align: center; position: fixed; top: 5vh; left: 40vw;"">
            <div style=""margin:0 auto; width: 20vw; top: 8vh; font-size: 2vw""> 
            <font color=""green""> Bonus : $0 </font>
            </div>
        </div>
    
        <img class=""stim"" src=./stimuli//pack_shapes_1/cat_2/diff_1/ex_2_1_11.png></img>
    ","null","stimulus","","","","","","",""
"","","","","","html-keyboard-response","16","45038","0.0-4.0-2.2","65495813eb9207bdb273cbbb","656d9e5e2de4f984cfed7d4d","656d9eb36599eb729c0b0fcd","null","
        <div style=""text-align: center; position: fixed; top: 5vh; left: 40vw;"">
            <div style=""margin:0 auto; width: 20vw; top: 8vh; font-size: 2vw""> 
            <font color=""green""> Bonus : $0 </font>
            </div>
        </div>
    ","null","","","","","","","",""
"","","","","","html-keyboard-response","17","45329","0.0-4.0-3.2","65495813eb9207bdb273cbbb","656d9e5e2de4f984cfed7d4d","656d9eb36599eb729c0b0fcd","290","./stimuli//pack_shapes_1/cat_2/diff_1/ex_2_1_11.png","arrowright","response","ArrowRight","11","2","1","train","true",""
"","","","","","html-keyboard-response","18","46830","0.0-4.0-4.2","65495813eb9207bdb273cbbb","656d9e5e2de4f984cfed7d4d","656d9eb36599eb729c0b0fcd","null","<p><font color=""green"" size=""5vw""> Correct category! </font></p>","null","feedback","","","","","","","0"
"","","","","","html-keyboard-response","19","47258","0.0-4.0-0.3","65495813eb9207bdb273cbbb","656d9e5e2de4f984cfed7d4d","656d9eb36599eb729c0b0fcd","427","
            
        <div style=""text-align: center; position: fixed; top: 5vh; left: 40vw;"">
            <div style=""margin:0 auto; width: 20vw; top: 8vh; font-size: 2vw""> 
            <font color=""green""> Bonus : $0 </font>
            </div>
        </div>
    
            <div> Please press any key to continue to the next image.</div>
        ","arrowup","ITI","","","","","","",""
"","","","","","html-keyboard-response","20","47859","0.0-4.0-1.3","65495813eb9207bdb273cbbb","656d9e5e2de4f984cfed7d4d","656d9eb36599eb729c0b0fcd","null","
        
        <div style=""text-align: center; position: fixed; top: 5vh; left: 40vw;"">
            <div style=""margin:0 auto; width: 20vw; top: 8vh; font-size: 2vw""> 
            <font color=""green""> Bonus : $0 </font>
            </div>
        </div>
    
        <img class=""stim"" src=./stimuli//pack_shapes_1/cat_1/diff_1/ex_1_1_10.png></img>
    ","null","stimulus","","","","","","",""
"","","","","","html-keyboard-response","21","48859","0.0-4.0-2.3","65495813eb9207bdb273cbbb","656d9e5e2de4f984cfed7d4d","656d9eb36599eb729c0b0fcd","null","
        <div style=""text-align: center; position: fixed; top: 5vh; left: 40vw;"">
            <div style=""margin:0 auto; width: 20vw; top: 8vh; font-size: 2vw""> 
            <font color=""green""> Bonus : $0 </font>
            </div>
        </div>
    ","null","","","","","","","",""
"","","","","","html-keyboard-response","22","49205","0.0-4.0-3.3","65495813eb9207bdb273cbbb","656d9e5e2de4f984cfed7d4d","656d9eb36599eb729c0b0fcd","345","./stimuli//pack_shapes_1/cat_1/diff_1/ex_1_1_10.png","arrowleft","response","ArrowLeft","10","1","1","train","true",""
"","","","","","html-keyboard-response","23","50705","0.0-4.0-4.3","65495813eb9207bdb273cbbb","656d9e5e2de4f984cfed7d4d","656d9eb36599eb729c0b0fcd","null","<p><font color=""green"" size=""5vw""> Correct category! </font></p>","null","feedback","","","","","","","0"
"","","","","","html-keyboard-response","24","51167","0.0-4.0-0.4","65495813eb9207bdb273cbbb","656d9e5e2de4f984cfed7d4d","656d9eb36599eb729c0b0fcd","461","
            
        <div style=""text-align: center; position: fixed; top: 5vh; left: 40vw;"">
            <div style=""margin:0 auto; width: 20vw; top: 8vh; font-size: 2vw""> 
            <font color=""green""> Bonus : $0 </font>
            </div>
        </div>
    
            <div> Please press any key to continue to the next image.</div>
        ","arrowup","ITI","","","","","","",""
"","","","","","html-keyboard-response","25","51768","0.0-4.0-1.4","65495813eb9207bdb273cbbb","656d9e5e2de4f984cfed7d4d","656d9eb36599eb729c0b0fcd","null","
        
        <div style=""text-align: center; position: fixed; top: 5vh; left: 40vw;"">
            <div style=""margin:0 auto; width: 20vw; top: 8vh; font-size: 2vw""> 
            <font color=""green""> Bonus : $0 </font>
            </div>
        </div>
    
        <img class=""stim"" src=./stimuli//pack_shapes_1/cat_1/diff_1/ex_1_1_13.png></img>
    ","null","stimulus","","","","","","",""
"","","","","","html-keyboard-response","26","52768","0.0-4.0-2.4","65495813eb9207bdb273cbbb","656d9e5e2de4f984cfed7d4d","656d9eb36599eb729c0b0fcd","null","
        <div style=""text-align: center; position: fixed; top: 5vh; left: 40vw;"">
            <div style=""margin:0 auto; width: 20vw; top: 8vh; font-size: 2vw""> 
            <font color=""green""> Bonus : $0 </font>
            </div>
        </div>
    ","null","","","","","","","",""
"","","","","","html-keyboard-response","27","53155","0.0-4.0-3.4","65495813eb9207bdb273cbbb","656d9e5e2de4f984cfed7d4d","656d9eb36599eb729c0b0fcd","386","./stimuli//pack_shapes_1/cat_1/diff_1/ex_1_1_13.png","arrowleft","response","ArrowLeft","13","1","1","train","true",""
"","","","","","html-keyboard-response","28","54656","0.0-4.0-4.4","65495813eb9207bdb273cbbb","656d9e5e2de4f984cfed7d4d","656d9eb36599eb729c0b0fcd","null","<p><font color=""green"" size=""5vw""> Correct category! </font></p>","null","feedback","","","","","","","0"
"","","","","","html-keyboard-response","29","55202","0.0-4.0-0.5","65495813eb9207bdb273cbbb","656d9e5e2de4f984cfed7d4d","656d9eb36599eb729c0b0fcd","546","
            
        <div style=""text-align: center; position: fixed; top: 5vh; left: 40vw;"">
            <div style=""margin:0 auto; width: 20vw; top: 8vh; font-size: 2vw""> 
            <font color=""green""> Bonus : $0 </font>
            </div>
        </div>
    
            <div> Please press any key to continue to the next image.</div>
        ","arrowup","ITI","","","","","","",""
"","","","","","html-keyboard-response","30","55803","0.0-4.0-1.5","65495813eb9207bdb273cbbb","656d9e5e2de4f984cfed7d4d","656d9eb36599eb729c0b0fcd","null","
        
        <div style=""text-align: center; position: fixed; top: 5vh; left: 40vw;"">
            <div style=""margin:0 auto; width: 20vw; top: 8vh; font-size: 2vw""> 
            <font color=""green""> Bonus : $0 </font>
            </div>
        </div>
    
        <img class=""stim"" src=./stimuli//pack_shapes_1/cat_2/diff_1/ex_2_1_6.png></img>
    ","null","stimulus","","","","","","",""
"","","","","","html-keyboard-response","31","56804","0.0-4.0-2.5","65495813eb9207bdb273cbbb","656d9e5e2de4f984cfed7d4d","656d9eb36599eb729c0b0fcd","null","
        <div style=""text-align: center; position: fixed; top: 5vh; left: 40vw;"">
            <div style=""margin:0 auto; width: 20vw; top: 8vh; font-size: 2vw""> 
            <font color=""green""> Bonus : $0 </font>
            </div>
        </div>
    ","null","","","","","","","",""
"","","","","","html-keyboard-response","32","57079","0.0-4.0-3.5","65495813eb9207bdb273cbbb","656d9e5e2de4f984cfed7d4d","656d9eb36599eb729c0b0fcd","274","./stimuli//pack_shapes_1/cat_2/diff_1/ex_2_1_6.png","arrowright","response","ArrowRight","6","2","1","train","true",""
"","","","","","html-keyboard-response","33","58580","0.0-4.0-4.5","65495813eb9207bdb273cbbb","656d9e5e2de4f984cfed7d4d","656d9eb36599eb729c0b0fcd","null","<p><font color=""green"" size=""5vw""> Correct category! </font></p>","null","feedback","","","","","","","0"
"","","","","","html-keyboard-response","34","59264","0.0-4.0-0.6","65495813eb9207bdb273cbbb","656d9e5e2de4f984cfed7d4d","656d9eb36599eb729c0b0fcd","683","
            
        <div style=""text-align: center; position: fixed; top: 5vh; left: 40vw;"">
            <div style=""margin:0 auto; width: 20vw; top: 8vh; font-size: 2vw""> 
            <font color=""green""> Bonus : $0 </font>
            </div>
        </div>
    
            <div> Please press any key to continue to the next image.</div>
        ","arrowup","ITI","","","","","","",""
"","","","","","html-keyboard-response","35","59865","0.0-4.0-1.6","65495813eb9207bdb273cbbb","656d9e5e2de4f984cfed7d4d","656d9eb36599eb729c0b0fcd","null","
        
        <div style=""text-align: center; position: fixed; top: 5vh; left: 40vw;"">
            <div style=""margin:0 auto; width: 20vw; top: 8vh; font-size: 2vw""> 
            <font color=""green""> Bonus : $0 </font>
            </div>
        </div>
    
        <img class=""stim"" src=./stimuli//pack_shapes_1/cat_2/diff_2/ex_2_2_15.png></img>
    ","null","stimulus","","","","","","",""
"","","","","","html-keyboard-response","36","60866","0.0-4.0-2.6","65495813eb9207bdb273cbbb","656d9e5e2de4f984cfed7d4d","656d9eb36599eb729c0b0fcd","null","
        <div style=""text-align: center; position: fixed; top: 5vh; left: 40vw;"">
            <div style=""margin:0 auto; width: 20vw; top: 8vh; font-size: 2vw""> 
            <font color=""green""> Bonus : $0 </font>
            </div>
        </div>
    ","null","","","","","","","",""
"","","","","","html-keyboard-response","37","61165","0.0-4.0-3.6","65495813eb9207bdb273cbbb","656d9e5e2de4f984cfed7d4d","656d9eb36599eb729c0b0fcd","299","./stimuli//pack_shapes_1/cat_2/diff_2/ex_2_2_15.png","arrowright","response","ArrowRight","15","2","2","train","true",""
"","","","","","html-keyboard-response","38","62666","0.0-4.0-4.6","65495813eb9207bdb273cbbb","656d9e5e2de4f984cfed7d4d","656d9eb36599eb729c0b0fcd","null","<p><font color=""green"" size=""5vw""> Correct category! </font></p>","null","feedback","","","","","","","0"
"","","","","","html-keyboard-response","39","63156","0.0-4.0-0.7","65495813eb9207bdb273cbbb","656d9e5e2de4f984cfed7d4d","656d9eb36599eb729c0b0fcd","490","
            
        <div style=""text-align: center; position: fixed; top: 5vh; left: 40vw;"">
            <div style=""margin:0 auto; width: 20vw; top: 8vh; font-size: 2vw""> 
            <font color=""green""> Bonus : $0 </font>
            </div>
        </div>
    
            <div> Please press any key to continue to the next image.</div>
        ","arrowup","ITI","","","","","","",""
"","","","","","html-keyboard-response","40","63757","0.0-4.0-1.7","65495813eb9207bdb273cbbb","656d9e5e2de4f984cfed7d4d","656d9eb36599eb729c0b0fcd","null","
        
        <div style=""text-align: center; position: fixed; top: 5vh; left: 40vw;"">
            <div style=""margin:0 auto; width: 20vw; top: 8vh; font-size: 2vw""> 
            <font color=""green""> Bonus : $0 </font>
            </div>
        </div>
    
        <img class=""stim"" src=./stimuli//pack_shapes_1/cat_1/diff_2/ex_1_2_3.png></img>
    ","null","stimulus","","","","","","",""
"","","","","","html-keyboard-response","41","64758","0.0-4.0-2.7","65495813eb9207bdb273cbbb","656d9e5e2de4f984cfed7d4d","656d9eb36599eb729c0b0fcd","null","
        <div style=""text-align: center; position: fixed; top: 5vh; left: 40vw;"">
            <div style=""margin:0 auto; width: 20vw; top: 8vh; font-size: 2vw""> 
            <font color=""green""> Bonus : $0 </font>
            </div>
        </div>
    ","null","","","","","","","",""
"","","","","","html-keyboard-response","42","65048","0.0-4.0-3.7","65495813eb9207bdb273cbbb","656d9e5e2de4f984cfed7d4d","656d9eb36599eb729c0b0fcd","289","./stimuli//pack_shapes_1/cat_1/diff_2/ex_1_2_3.png","arrowleft","response","ArrowLeft","3","1","2","train","true",""
"","","","","","html-keyboard-response","43","66549","0.0-4.0-4.7","65495813eb9207bdb273cbbb","656d9e5e2de4f984cfed7d4d","656d9eb36599eb729c0b0fcd","null","<p><font color=""green"" size=""5vw""> Correct category! </font></p>","null","feedback","","","","","","","0"
"","","","","","html-keyboard-response","44","66970","0.0-4.0-0.8","65495813eb9207bdb273cbbb","656d9e5e2de4f984cfed7d4d","656d9eb36599eb729c0b0fcd","420","
            
        <div style=""text-align: center; position: fixed; top: 5vh; left: 40vw;"">
            <div style=""margin:0 auto; width: 20vw; top: 8vh; font-size: 2vw""> 
            <font color=""green""> Bonus : $0 </font>
            </div>
        </div>
    
            <div> Please press any key to continue to the next image.</div>
        ","arrowup","ITI","","","","","","",""
"","","","","","html-keyboard-response","45","67571","0.0-4.0-1.8","65495813eb9207bdb273cbbb","656d9e5e2de4f984cfed7d4d","656d9eb36599eb729c0b0fcd","null","
        
        <div style=""text-align: center; position: fixed; top: 5vh; left: 40vw;"">
            <div style=""margin:0 auto; width: 20vw; top: 8vh; font-size: 2vw""> 
            <font color=""green""> Bonus : $0 </font>
            </div>
        </div>
    
        <img class=""stim"" src=./stimuli//pack_shapes_1/cat_1/diff_2/ex_1_2_16.png></img>
    ","null","stimulus","","","","","","",""
"","","","","","html-keyboard-response","46","68572","0.0-4.0-2.8","65495813eb9207bdb273cbbb","656d9e5e2de4f984cfed7d4d","656d9eb36599eb729c0b0fcd","null","
        <div style=""text-align: center; position: fixed; top: 5vh; left: 40vw;"">
            <div style=""margin:0 auto; width: 20vw; top: 8vh; font-size: 2vw""> 
            <font color=""green""> Bonus : $0 </font>
            </div>
        </div>
    ","null","","","","","","","",""
"","","","","","html-keyboard-response","47","68858","0.0-4.0-3.8","65495813eb9207bdb273cbbb","656d9e5e2de4f984cfed7d4d","656d9eb36599eb729c0b0fcd","286","./stimuli//pack_shapes_1/cat_1/diff_2/ex_1_2_16.png","arrowleft","response","ArrowLeft","16","1","2","train","true",""
"","","","","","html-keyboard-response","48","70359","0.0-4.0-4.8","65495813eb9207bdb273cbbb","656d9e5e2de4f984cfed7d4d","656d9eb36599eb729c0b0fcd","null","<p><font color=""green"" size=""5vw""> Correct category! </font></p>","null","feedback","","","","","","","0"
"","","","","","html-keyboard-response","49","70717","0.0-4.0-0.9","65495813eb9207bdb273cbbb","656d9e5e2de4f984cfed7d4d","656d9eb36599eb729c0b0fcd","358","
            
        <div style=""text-align: center; position: fixed; top: 5vh; left: 40vw;"">
            <div style=""margin:0 auto; width: 20vw; top: 8vh; font-size: 2vw""> 
            <font color=""green""> Bonus : $0 </font>
            </div>
        </div>
    
            <div> Please press any key to continue to the next image.</div>
        ","arrowup","ITI","","","","","","",""
"","","","","","html-keyboard-response","50","71318","0.0-4.0-1.9","65495813eb9207bdb273cbbb","656d9e5e2de4f984cfed7d4d","656d9eb36599eb729c0b0fcd","null","
        
        <div style=""text-align: center; position: fixed; top: 5vh; left: 40vw;"">
            <div style=""margin:0 auto; width: 20vw; top: 8vh; font-size: 2vw""> 
            <font color=""green""> Bonus : $0 </font>
            </div>
        </div>
    
        <img class=""stim"" src=./stimuli//pack_shapes_1/cat_1/diff_1/ex_1_1_11.png></img>
    ","null","stimulus","","","","","","",""
"","","","","","html-keyboard-response","51","72319","0.0-4.0-2.9","65495813eb9207bdb273cbbb","656d9e5e2de4f984cfed7d4d","656d9eb36599eb729c0b0fcd","null","
        <div style=""text-align: center; position: fixed; top: 5vh; left: 40vw;"">
            <div style=""margin:0 auto; width: 20vw; top: 8vh; font-size: 2vw""> 
            <font color=""green""> Bonus : $0 </font>
            </div>
        </div>
    ","null","","","","","","","",""
"","","","","","html-keyboard-response","52","72584","0.0-4.0-3.9","65495813eb9207bdb273cbbb","656d9e5e2de4f984cfed7d4d","656d9eb36599eb729c0b0fcd","264","./stimuli//pack_shapes_1/cat_1/diff_1/ex_1_1_11.png","arrowleft","response","ArrowLeft","11","1","1","train","true",""
"","","","","","html-keyboard-response","53","74085","0.0-4.0-4.9","65495813eb9207bdb273cbbb","656d9e5e2de4f984cfed7d4d","656d9eb36599eb729c0b0fcd","null","<p><font color=""green"" size=""5vw""> Correct category! </font></p>","null","feedback","","","","","","","0"
"","","","","","html-keyboard-response","54","77884","0.0-5.0","65495813eb9207bdb273cbbb","656d9e5e2de4f984cfed7d4d","656d9eb36599eb729c0b0fcd","3799","
            <b> <p> The practice round has finished.</p>
            <p> For the rest of the experiment you will receive a $0.05 bonus for each correct answer and lose $0.05 from your bonus for each incorrect answer!</p>
            <p> The bonus can not become less than $0. </b>
            <p> Press any key to begin the test. </p>
            ","arrowup","intermission","","","","","","",""
"","","","","","html-keyboard-response","55","78893","0.0-6.0-0.0","65495813eb9207bdb273cbbb","656d9e5e2de4f984cfed7d4d","656d9eb36599eb729c0b0fcd","1007","
            
        <div style=""text-align: center; position: fixed; top: 5vh; left: 40vw;"">
            <div style=""margin:0 auto; width: 20vw; top: 8vh; font-size: 2vw""> 
            <font color=""green""> Bonus : $0 </font>
            </div>
        </div>
    
            <div> Please press any key to continue to the next image.</div>
        ","arrowup","ITI","","","","","","",""
"","","","","","html-keyboard-response","56","79494","0.0-6.0-1.0","65495813eb9207bdb273cbbb","656d9e5e2de4f984cfed7d4d","656d9eb36599eb729c0b0fcd","null","
        
        <div style=""text-align: center; position: fixed; top: 5vh; left: 40vw;"">
            <div style=""margin:0 auto; width: 20vw; top: 8vh; font-size: 2vw""> 
            <font color=""green""> Bonus : $0 </font>
            </div>
        </div>
    
        <img class=""stim"" src=./stimuli//pack_shapes_1/cat_2/diff_1/ex_2_1_13.png></img>
    ","null","stimulus","","","","","","",""
"","","","","","html-keyboard-response","57","80494","0.0-6.0-2.0","65495813eb9207bdb273cbbb","656d9e5e2de4f984cfed7d4d","656d9eb36599eb729c0b0fcd","null","
        <div style=""text-align: center; position: fixed; top: 5vh; left: 40vw;"">
            <div style=""margin:0 auto; width: 20vw; top: 8vh; font-size: 2vw""> 
            <font color=""green""> Bonus : $0 </font>
            </div>
        </div>
    ","null","","","","","","","",""
"","","","","","html-keyboard-response","58","80782","0.0-6.0-3.0","65495813eb9207bdb273cbbb","656d9e5e2de4f984cfed7d4d","656d9eb36599eb729c0b0fcd","288","./stimuli//pack_shapes_1/cat_2/diff_1/ex_2_1_13.png","arrowright","response","ArrowRight","13","2","1","test","true",""
"","","","","","html-keyboard-response","59","82283","0.0-6.0-4.0","65495813eb9207bdb273cbbb","656d9e5e2de4f984cfed7d4d","656d9eb36599eb729c0b0fcd","null","<p> <font color=""green"" size=""5vw""> Correct category! </font> <br> <br> <font color=""green"" size=""8vw""> + $0.05 </font> </p>","null","feedback","","","","","","","0.05"
"","","","","","html-keyboard-response","60","82686","0.0-6.1-0.1","65495813eb9207bdb273cbbb","656d9e5e2de4f984cfed7d4d","656d9eb36599eb729c0b0fcd","401","
            
        <div style=""text-align: center; position: fixed; top: 5vh; left: 40vw;"">
            <div style=""margin:0 auto; width: 20vw; top: 8vh; font-size: 2vw""> 
            <font color=""green""> Bonus : $0.05 </font>
            </div>
        </div>
    
            <div> Please press any key to continue to the next image.</div>
        ","arrowup","ITI","","","","","","",""
"","","","","","html-keyboard-response","61","83291","0.0-6.1-1.1","65495813eb9207bdb273cbbb","656d9e5e2de4f984cfed7d4d","656d9eb36599eb729c0b0fcd","null","
        
        <div style=""text-align: center; position: fixed; top: 5vh; left: 40vw;"">
            <div style=""margin:0 auto; width: 20vw; top: 8vh; font-size: 2vw""> 
            <font color=""green""> Bonus : $0.05 </font>
            </div>
        </div>
    
        <img class=""stim"" src=./stimuli//pack_shapes_1/cat_1/diff_1/ex_1_1_2.png></img>
    ","null","stimulus","","","","","","",""
"","","","","","html-keyboard-response","62","84291","0.0-6.1-2.1","65495813eb9207bdb273cbbb","656d9e5e2de4f984cfed7d4d","656d9eb36599eb729c0b0fcd","null","
        <div style=""text-align: center; position: fixed; top: 5vh; left: 40vw;"">
            <div style=""margin:0 auto; width: 20vw; top: 8vh; font-size: 2vw""> 
            <font color=""green""> Bonus : $0.05 </font>
            </div>
        </div>
    ","null","","","","","","","",""
"","","","","","html-keyboard-response","63","84571","0.0-6.1-3.1","65495813eb9207bdb273cbbb","656d9e5e2de4f984cfed7d4d","656d9eb36599eb729c0b0fcd","278","./stimuli//pack_shapes_1/cat_1/diff_1/ex_1_1_2.png","arrowleft","response","ArrowLeft","2","1","1","test","true",""
"","","","","","html-keyboard-response","64","86071","0.0-6.1-4.1","65495813eb9207bdb273cbbb","656d9e5e2de4f984cfed7d4d","656d9eb36599eb729c0b0fcd","null","<p> <font color=""green"" size=""5vw""> Correct category! </font> <br> <br> <font color=""green"" size=""8vw""> + $0.05 </font> </p>","null","feedback","","","","","","","0.1"
"","","","","","html-keyboard-response","65","86461","0.0-6.2-0.2","65495813eb9207bdb273cbbb","656d9e5e2de4f984cfed7d4d","656d9eb36599eb729c0b0fcd","389","
            
        <div style=""text-align: center; position: fixed; top: 5vh; left: 40vw;"">
            <div style=""margin:0 auto; width: 20vw; top: 8vh; font-size: 2vw""> 
            <font color=""green""> Bonus : $0.1 </font>
            </div>
        </div>
    
            <div> Please press any key to continue to the next image.</div>
        ","arrowup","ITI","","","","","","",""
"","","","","","html-keyboard-response","66","87062","0.0-6.2-1.2","65495813eb9207bdb273cbbb","656d9e5e2de4f984cfed7d4d","656d9eb36599eb729c0b0fcd","null","
        
        <div style=""text-align: center; position: fixed; top: 5vh; left: 40vw;"">
            <div style=""margin:0 auto; width: 20vw; top: 8vh; font-size: 2vw""> 
            <font color=""green""> Bonus : $0.1 </font>
            </div>
        </div>
    
        <img class=""stim"" src=./stimuli//pack_shapes_1/cat_1/diff_1/ex_1_1_15.png></img>
    ","null","stimulus","","","","","","",""
"","","","","","html-keyboard-response","67","88063","0.0-6.2-2.2","65495813eb9207bdb273cbbb","656d9e5e2de4f984cfed7d4d","656d9eb36599eb729c0b0fcd","null","
        <div style=""text-align: center; position: fixed; top: 5vh; left: 40vw;"">
            <div style=""margin:0 auto; width: 20vw; top: 8vh; font-size: 2vw""> 
            <font color=""green""> Bonus : $0.1 </font>
            </div>
        </div>
    ","null","","","","","","","",""
"","","","","","html-keyboard-response","68","88356","0.0-6.2-3.2","65495813eb9207bdb273cbbb","656d9e5e2de4f984cfed7d4d","656d9eb36599eb729c0b0fcd","292","./stimuli//pack_shapes_1/cat_1/diff_1/ex_1_1_15.png","arrowleft","response","ArrowLeft","15","1","1","test","true",""
"","","","","","html-keyboard-response","69","89858","0.0-6.2-4.2","65495813eb9207bdb273cbbb","656d9e5e2de4f984cfed7d4d","656d9eb36599eb729c0b0fcd","null","<p> <font color=""green"" size=""5vw""> Correct category! </font> <br> <br> <font color=""green"" size=""8vw""> + $0.05 </font> </p>","null","feedback","","","","","","","0.15"
"","","","","","html-keyboard-response","70","90343","0.0-6.3-0.3","65495813eb9207bdb273cbbb","656d9e5e2de4f984cfed7d4d","656d9eb36599eb729c0b0fcd","484","
            
        <div style=""text-align: center; position: fixed; top: 5vh; left: 40vw;"">
            <div style=""margin:0 auto; width: 20vw; top: 8vh; font-size: 2vw""> 
            <font color=""green""> Bonus : $0.15 </font>
            </div>
        </div>
    
            <div> Please press any key to continue to the next image.</div>
        ","arrowup","ITI","","","","","","",""
"","","","","","html-keyboard-response","71","90945","0.0-6.3-1.3","65495813eb9207bdb273cbbb","656d9e5e2de4f984cfed7d4d","656d9eb36599eb729c0b0fcd","null","
        
        <div style=""text-align: center; position: fixed; top: 5vh; left: 40vw;"">
            <div style=""margin:0 auto; width: 20vw; top: 8vh; font-size: 2vw""> 
            <font color=""green""> Bonus : $0.15 </font>
            </div>
        </div>
    
        <img class=""stim"" src=./stimuli//pack_shapes_1/cat_2/diff_1/ex_2_1_1.png></img>
    ","null","stimulus","","","","","","",""
"","","","","","html-keyboard-response","72","91946","0.0-6.3-2.3","65495813eb9207bdb273cbbb","656d9e5e2de4f984cfed7d4d","656d9eb36599eb729c0b0fcd","null","
        <div style=""text-align: center; position: fixed; top: 5vh; left: 40vw;"">
            <div style=""margin:0 auto; width: 20vw; top: 8vh; font-size: 2vw""> 
            <font color=""green""> Bonus : $0.15 </font>
            </div>
        </div>
    ","null","","","","","","","",""
"","","","","","html-keyboard-response","73","92235","0.0-6.3-3.3","65495813eb9207bdb273cbbb","656d9e5e2de4f984cfed7d4d","656d9eb36599eb729c0b0fcd","289","./stimuli//pack_shapes_1/cat_2/diff_1/ex_2_1_1.png","arrowright","response","ArrowRight","1","2","1","test","true",""
"","","","","","html-keyboard-response","74","93736","0.0-6.3-4.3","65495813eb9207bdb273cbbb","656d9e5e2de4f984cfed7d4d","656d9eb36599eb729c0b0fcd","null","<p> <font color=""green"" size=""5vw""> Correct category! </font> <br> <br> <font color=""green"" size=""8vw""> + $0.05 </font> </p>","null","feedback","","","","","","","0.2"
"","","","","","html-keyboard-response","75","94087","0.0-6.4-0.4","65495813eb9207bdb273cbbb","656d9e5e2de4f984cfed7d4d","656d9eb36599eb729c0b0fcd","350","
            
        <div style=""text-align: center; position: fixed; top: 5vh; left: 40vw;"">
            <div style=""margin:0 auto; width: 20vw; top: 8vh; font-size: 2vw""> 
            <font color=""green""> Bonus : $0.2 </font>
            </div>
        </div>
    
            <div> Please press any key to continue to the next image.</div>
        ","arrowup","ITI","","","","","","",""
"","","","","","html-keyboard-response","76","94688","0.0-6.4-1.4","65495813eb9207bdb273cbbb","656d9e5e2de4f984cfed7d4d","656d9eb36599eb729c0b0fcd","null","
        
        <div style=""text-align: center; position: fixed; top: 5vh; left: 40vw;"">
            <div style=""margin:0 auto; width: 20vw; top: 8vh; font-size: 2vw""> 
            <font color=""green""> Bonus : $0.2 </font>
            </div>
        </div>
    
        <img class=""stim"" src=./stimuli//pack_shapes_1/cat_1/diff_1/ex_1_1_14.png></img>
    ","null","stimulus","","","","","","",""
"","","","","","html-keyboard-response","77","95689","0.0-6.4-2.4","65495813eb9207bdb273cbbb","656d9e5e2de4f984cfed7d4d","656d9eb36599eb729c0b0fcd","null","
        <div style=""text-align: center; position: fixed; top: 5vh; left: 40vw;"">
            <div style=""margin:0 auto; width: 20vw; top: 8vh; font-size: 2vw""> 
            <font color=""green""> Bonus : $0.2 </font>
            </div>
        </div>
    ","null","","","","","","","",""
"","","","","","html-keyboard-response","78","96016","0.0-6.4-3.4","65495813eb9207bdb273cbbb","656d9e5e2de4f984cfed7d4d","656d9eb36599eb729c0b0fcd","326","./stimuli//pack_shapes_1/cat_1/diff_1/ex_1_1_14.png","arrowleft","response","ArrowLeft","14","1","1","test","true",""
"","","","","","html-keyboard-response","79","97517","0.0-6.4-4.4","65495813eb9207bdb273cbbb","656d9e5e2de4f984cfed7d4d","656d9eb36599eb729c0b0fcd","null","<p> <font color=""green"" size=""5vw""> Correct category! </font> <br> <br> <font color=""green"" size=""8vw""> + $0.05 </font> </p>","null","feedback","","","","","","","0.25"
"","","","","","html-keyboard-response","80","97879","0.0-6.5-0.5","65495813eb9207bdb273cbbb","656d9e5e2de4f984cfed7d4d","656d9eb36599eb729c0b0fcd","361","
            
        <div style=""text-align: center; position: fixed; top: 5vh; left: 40vw;"">
            <div style=""margin:0 auto; width: 20vw; top: 8vh; font-size: 2vw""> 
            <font color=""green""> Bonus : $0.25 </font>
            </div>
        </div>
    
            <div> Please press any key to continue to the next image.</div>
        ","arrowup","ITI","","","","","","",""
"","","","","","html-keyboard-response","81","98481","0.0-6.5-1.5","65495813eb9207bdb273cbbb","656d9e5e2de4f984cfed7d4d","656d9eb36599eb729c0b0fcd","null","
        
        <div style=""text-align: center; position: fixed; top: 5vh; left: 40vw;"">
            <div style=""margin:0 auto; width: 20vw; top: 8vh; font-size: 2vw""> 
            <font color=""green""> Bonus : $0.25 </font>
            </div>
        </div>
    
        <img class=""stim"" src=./stimuli//pack_shapes_1/cat_2/diff_2/ex_2_2_8.png></img>
    ","null","stimulus","","","","","","",""
"","","","","","html-keyboard-response","82","99481","0.0-6.5-2.5","65495813eb9207bdb273cbbb","656d9e5e2de4f984cfed7d4d","656d9eb36599eb729c0b0fcd","null","
        <div style=""text-align: center; position: fixed; top: 5vh; left: 40vw;"">
            <div style=""margin:0 auto; width: 20vw; top: 8vh; font-size: 2vw""> 
            <font color=""green""> Bonus : $0.25 </font>
            </div>
        </div>
    ","null","","","","","","","",""
"","","","","","html-keyboard-response","83","99752","0.0-6.5-3.5","65495813eb9207bdb273cbbb","656d9e5e2de4f984cfed7d4d","656d9eb36599eb729c0b0fcd","271","./stimuli//pack_shapes_1/cat_2/diff_2/ex_2_2_8.png","arrowright","response","ArrowRight","8","2","2","test","true",""
"","","","","","html-keyboard-response","84","101253","0.0-6.5-4.5","65495813eb9207bdb273cbbb","656d9e5e2de4f984cfed7d4d","656d9eb36599eb729c0b0fcd","null","<p> <font color=""green"" size=""5vw""> Correct category! </font> <br> <br> <font color=""green"" size=""8vw""> + $0.05 </font> </p>","null","feedback","","","","","","","0.3"
"","","","","","html-keyboard-response","85","101609","0.0-6.6-0.6","65495813eb9207bdb273cbbb","656d9e5e2de4f984cfed7d4d","656d9eb36599eb729c0b0fcd","356","
            
        <div style=""text-align: center; position: fixed; top: 5vh; left: 40vw;"">
            <div style=""margin:0 auto; width: 20vw; top: 8vh; font-size: 2vw""> 
            <font color=""green""> Bonus : $0.3 </font>
            </div>
        </div>
    
            <div> Please press any key to continue to the next image.</div>
        ","arrowup","ITI","","","","","","",""
"","","","","","html-keyboard-response","86","102212","0.0-6.6-1.6","65495813eb9207bdb273cbbb","656d9e5e2de4f984cfed7d4d","656d9eb36599eb729c0b0fcd","null","
        
        <div style=""text-align: center; position: fixed; top: 5vh; left: 40vw;"">
            <div style=""margin:0 auto; width: 20vw; top: 8vh; font-size: 2vw""> 
            <font color=""green""> Bonus : $0.3 </font>
            </div>
        </div>
    
        <img class=""stim"" src=./stimuli//pack_shapes_1/cat_1/diff_2/ex_1_2_14.png></img>
    ","null","stimulus","","","","","","",""
"","","","","","html-keyboard-response","87","103213","0.0-6.6-2.6","65495813eb9207bdb273cbbb","656d9e5e2de4f984cfed7d4d","656d9eb36599eb729c0b0fcd","null","
        <div style=""text-align: center; position: fixed; top: 5vh; left: 40vw;"">
            <div style=""margin:0 auto; width: 20vw; top: 8vh; font-size: 2vw""> 
            <font color=""green""> Bonus : $0.3 </font>
            </div>
        </div>
    ","null","","","","","","","",""
"","","","","","html-keyboard-response","88","103491","0.0-6.6-3.6","65495813eb9207bdb273cbbb","656d9e5e2de4f984cfed7d4d","656d9eb36599eb729c0b0fcd","277","./stimuli//pack_shapes_1/cat_1/diff_2/ex_1_2_14.png","arrowleft","response","ArrowLeft","14","1","2","test","true",""
"","","","","","html-keyboard-response","89","104992","0.0-6.6-4.6","65495813eb9207bdb273cbbb","656d9e5e2de4f984cfed7d4d","656d9eb36599eb729c0b0fcd","null","<p> <font color=""green"" size=""5vw""> Correct category! </font> <br> <br> <font color=""green"" size=""8vw""> + $0.05 </font> </p>","null","feedback","","","","","","","0.35"
"","","","","","html-keyboard-response","90","105317","0.0-6.7-0.7","65495813eb9207bdb273cbbb","656d9e5e2de4f984cfed7d4d","656d9eb36599eb729c0b0fcd","325","
            
        <div style=""text-align: center; position: fixed; top: 5vh; left: 40vw;"">
            <div style=""margin:0 auto; width: 20vw; top: 8vh; font-size: 2vw""> 
            <font color=""green""> Bonus : $0.35 </font>
            </div>
        </div>
    
            <div> Please press any key to continue to the next image.</div>
        ","arrowup","ITI","","","","","","",""
"","","","","","html-keyboard-response","91","105918","0.0-6.7-1.7","65495813eb9207bdb273cbbb","656d9e5e2de4f984cfed7d4d","656d9eb36599eb729c0b0fcd","null","
        
        <div style=""text-align: center; position: fixed; top: 5vh; left: 40vw;"">
            <div style=""margin:0 auto; width: 20vw; top: 8vh; font-size: 2vw""> 
            <font color=""green""> Bonus : $0.35 </font>
            </div>
        </div>
    
        <img class=""stim"" src=./stimuli//pack_shapes_1/cat_1/diff_2/ex_1_2_2.png></img>
    ","null","stimulus","","","","","","",""
"","","","","","html-keyboard-response","92","106919","0.0-6.7-2.7","65495813eb9207bdb273cbbb","656d9e5e2de4f984cfed7d4d","656d9eb36599eb729c0b0fcd","null","
        <div style=""text-align: center; position: fixed; top: 5vh; left: 40vw;"">
            <div style=""margin:0 auto; width: 20vw; top: 8vh; font-size: 2vw""> 
            <font color=""green""> Bonus : $0.35 </font>
            </div>
        </div>
    ","null","","","","","","","",""
"","","","","","html-keyboard-response","93","107198","0.0-6.7-3.7","65495813eb9207bdb273cbbb","656d9e5e2de4f984cfed7d4d","656d9eb36599eb729c0b0fcd","278","./stimuli//pack_shapes_1/cat_1/diff_2/ex_1_2_2.png","arrowleft","response","ArrowLeft","2","1","2","test","true",""
"","","","","","html-keyboard-response","94","108699","0.0-6.7-4.7","65495813eb9207bdb273cbbb","656d9e5e2de4f984cfed7d4d","656d9eb36599eb729c0b0fcd","null","<p> <font color=""green"" size=""5vw""> Correct category! </font> <br> <br> <font color=""green"" size=""8vw""> + $0.05 </font> </p>","null","feedback","","","","","","","0.4"
"","","","","","html-keyboard-response","95","109028","0.0-6.8-0.8","65495813eb9207bdb273cbbb","656d9e5e2de4f984cfed7d4d","656d9eb36599eb729c0b0fcd","328","
            
        <div style=""text-align: center; position: fixed; top: 5vh; left: 40vw;"">
            <div style=""margin:0 auto; width: 20vw; top: 8vh; font-size: 2vw""> 
            <font color=""green""> Bonus : $0.4 </font>
            </div>
        </div>
    
            <div> Please press any key to continue to the next image.</div>
        ","arrowup","ITI","","","","","","",""
"","","","","","html-keyboard-response","96","109629","0.0-6.8-1.8","65495813eb9207bdb273cbbb","656d9e5e2de4f984cfed7d4d","656d9eb36599eb729c0b0fcd","null","
        
        <div style=""text-align: center; position: fixed; top: 5vh; left: 40vw;"">
            <div style=""margin:0 auto; width: 20vw; top: 8vh; font-size: 2vw""> 
            <font color=""green""> Bonus : $0.4 </font>
            </div>
        </div>
    
        <img class=""stim"" src=./stimuli//pack_shapes_1/cat_2/diff_2/ex_2_2_10.png></img>
    ","null","stimulus","","","","","","",""
"","","","","","html-keyboard-response","97","110629","0.0-6.8-2.8","65495813eb9207bdb273cbbb","656d9e5e2de4f984cfed7d4d","656d9eb36599eb729c0b0fcd","null","
        <div style=""text-align: center; position: fixed; top: 5vh; left: 40vw;"">
            <div style=""margin:0 auto; width: 20vw; top: 8vh; font-size: 2vw""> 
            <font color=""green""> Bonus : $0.4 </font>
            </div>
        </div>
    ","null","","","","","","","",""
"","","","","","html-keyboard-response","98","110895","0.0-6.8-3.8","65495813eb9207bdb273cbbb","656d9e5e2de4f984cfed7d4d","656d9eb36599eb729c0b0fcd","266","./stimuli//pack_shapes_1/cat_2/diff_2/ex_2_2_10.png","arrowright","response","ArrowRight","10","2","2","test","true",""
"","","","","","html-keyboard-response","99","112396","0.0-6.8-4.8","65495813eb9207bdb273cbbb","656d9e5e2de4f984cfed7d4d","656d9eb36599eb729c0b0fcd","null","<p> <font color=""green"" size=""5vw""> Correct category! </font> <br> <br> <font color=""green"" size=""8vw""> + $0.05 </font> </p>","null","feedback","","","","","","","0.45"
"","","","","","html-keyboard-response","100","112754","0.0-6.9-0.9","65495813eb9207bdb273cbbb","656d9e5e2de4f984cfed7d4d","656d9eb36599eb729c0b0fcd","358","
            
        <div style=""text-align: center; position: fixed; top: 5vh; left: 40vw;"">
            <div style=""margin:0 auto; width: 20vw; top: 8vh; font-size: 2vw""> 
            <font color=""green""> Bonus : $0.45 </font>
            </div>
        </div>
    
            <div> Please press any key to continue to the next image.</div>
        ","arrowup","ITI","","","","","","",""
"","","","","","html-keyboard-response","101","113356","0.0-6.9-1.9","65495813eb9207bdb273cbbb","656d9e5e2de4f984cfed7d4d","656d9eb36599eb729c0b0fcd","null","
        
        <div style=""text-align: center; position: fixed; top: 5vh; left: 40vw;"">
            <div style=""margin:0 auto; width: 20vw; top: 8vh; font-size: 2vw""> 
            <font color=""green""> Bonus : $0.45 </font>
            </div>
        </div>
    
        <img class=""stim"" src=./stimuli//pack_shapes_1/cat_1/diff_2/ex_1_2_9.png></img>
    ","null","stimulus","","","","","","",""
"","","","","","html-keyboard-response","102","114357","0.0-6.9-2.9","65495813eb9207bdb273cbbb","656d9e5e2de4f984cfed7d4d","656d9eb36599eb729c0b0fcd","null","
        <div style=""text-align: center; position: fixed; top: 5vh; left: 40vw;"">
            <div style=""margin:0 auto; width: 20vw; top: 8vh; font-size: 2vw""> 
            <font color=""green""> Bonus : $0.45 </font>
            </div>
        </div>
    ","null","","","","","","","",""
"","","","","","html-keyboard-response","103","114626","0.0-6.9-3.9","65495813eb9207bdb273cbbb","656d9e5e2de4f984cfed7d4d","656d9eb36599eb729c0b0fcd","267","./stimuli//pack_shapes_1/cat_1/diff_2/ex_1_2_9.png","arrowleft","response","ArrowLeft","9","1","2","test","true",""
"","","","","","html-keyboard-response","104","116127","0.0-6.9-4.9","65495813eb9207bdb273cbbb","656d9e5e2de4f984cfed7d4d","656d9eb36599eb729c0b0fcd","null","<p> <font color=""green"" size=""5vw""> Correct category! </font> <br> <br> <font color=""green"" size=""8vw""> + $0.05 </font> </p>","null","feedback","","","","","","","0.5"
"","","","","","html-keyboard-response","105","116432","0.0-6.10-0.10","65495813eb9207bdb273cbbb","656d9e5e2de4f984cfed7d4d","656d9eb36599eb729c0b0fcd","304","
            
        <div style=""text-align: center; position: fixed; top: 5vh; left: 40vw;"">
            <div style=""margin:0 auto; width: 20vw; top: 8vh; font-size: 2vw""> 
            <font color=""green""> Bonus : $0.5 </font>
            </div>
        </div>
    
            <div> Please press any key to continue to the next image.</div>
        ","arrowup","ITI","","","","","","",""
"","","","","","html-keyboard-response","106","117034","0.0-6.10-1.10","65495813eb9207bdb273cbbb","656d9e5e2de4f984cfed7d4d","656d9eb36599eb729c0b0fcd","null","
        
        <div style=""text-align: center; position: fixed; top: 5vh; left: 40vw;"">
            <div style=""margin:0 auto; width: 20vw; top: 8vh; font-size: 2vw""> 
            <font color=""green""> Bonus : $0.5 </font>
            </div>
        </div>
    
        <img class=""stim"" src=./stimuli//pack_shapes_1/cat_1/diff_3/ex_1_3_10.png></img>
    ","null","stimulus","","","","","","",""
"","","","","","html-keyboard-response","107","118035","0.0-6.10-2.10","65495813eb9207bdb273cbbb","656d9e5e2de4f984cfed7d4d","656d9eb36599eb729c0b0fcd","null","
        <div style=""text-align: center; position: fixed; top: 5vh; left: 40vw;"">
            <div style=""margin:0 auto; width: 20vw; top: 8vh; font-size: 2vw""> 
            <font color=""green""> Bonus : $0.5 </font>
            </div>
        </div>
    ","null","","","","","","","",""
"","","","","","html-keyboard-response","108","118339","0.0-6.10-3.10","65495813eb9207bdb273cbbb","656d9e5e2de4f984cfed7d4d","656d9eb36599eb729c0b0fcd","303","./stimuli//pack_shapes_1/cat_1/diff_3/ex_1_3_10.png","arrowleft","response","ArrowLeft","10","1","3","test","true",""
"","","","","","html-keyboard-response","109","119840","0.0-6.10-4.10","65495813eb9207bdb273cbbb","656d9e5e2de4f984cfed7d4d","656d9eb36599eb729c0b0fcd","null","<p> <font color=""green"" size=""5vw""> Correct category! </font> <br> <br> <font color=""green"" size=""8vw""> + $0.05 </font> </p>","null","feedback","","","","","","","0.55"
"","","","","","html-keyboard-response","110","120199","0.0-6.11-0.11","65495813eb9207bdb273cbbb","656d9e5e2de4f984cfed7d4d","656d9eb36599eb729c0b0fcd","359","
            
        <div style=""text-align: center; position: fixed; top: 5vh; left: 40vw;"">
            <div style=""margin:0 auto; width: 20vw; top: 8vh; font-size: 2vw""> 
            <font color=""green""> Bonus : $0.55 </font>
            </div>
        </div>
    
            <div> Please press any key to continue to the next image.</div>
        ","arrowup","ITI","","","","","","",""
"","","","","","html-keyboard-response","111","120800","0.0-6.11-1.11","65495813eb9207bdb273cbbb","656d9e5e2de4f984cfed7d4d","656d9eb36599eb729c0b0fcd","null","
        
        <div style=""text-align: center; position: fixed; top: 5vh; left: 40vw;"">
            <div style=""margin:0 auto; width: 20vw; top: 8vh; font-size: 2vw""> 
            <font color=""green""> Bonus : $0.55 </font>
            </div>
        </div>
    
        <img class=""stim"" src=./stimuli//pack_shapes_1/cat_1/diff_3/ex_1_3_4.png></img>
    ","null","stimulus","","","","","","",""
"","","","","","html-keyboard-response","112","121801","0.0-6.11-2.11","65495813eb9207bdb273cbbb","656d9e5e2de4f984cfed7d4d","656d9eb36599eb729c0b0fcd","null","
        <div style=""text-align: center; position: fixed; top: 5vh; left: 40vw;"">
            <div style=""margin:0 auto; width: 20vw; top: 8vh; font-size: 2vw""> 
            <font color=""green""> Bonus : $0.55 </font>
            </div>
        </div>
    ","null","","","","","","","",""
"","","","","","html-keyboard-response","113","122032","0.0-6.11-3.11","65495813eb9207bdb273cbbb","656d9e5e2de4f984cfed7d4d","656d9eb36599eb729c0b0fcd","230","./stimuli//pack_shapes_1/cat_1/diff_3/ex_1_3_4.png","arrowleft","response","ArrowLeft","4","1","3","test","true",""
"","","","","","html-keyboard-response","114","123533","0.0-6.11-4.11","65495813eb9207bdb273cbbb","656d9e5e2de4f984cfed7d4d","656d9eb36599eb729c0b0fcd","null","<p> <font color=""green"" size=""5vw""> Correct category! </font> <br> <br> <font color=""green"" size=""8vw""> + $0.05 </font> </p>","null","feedback","","","","","","","0.6"
"","","","","","html-keyboard-response","115","123813","0.0-6.12-0.12","65495813eb9207bdb273cbbb","656d9e5e2de4f984cfed7d4d","656d9eb36599eb729c0b0fcd","279","
            
        <div style=""text-align: center; position: fixed; top: 5vh; left: 40vw;"">
            <div style=""margin:0 auto; width: 20vw; top: 8vh; font-size: 2vw""> 
            <font color=""green""> Bonus : $0.6 </font>
            </div>
        </div>
    
            <div> Please press any key to continue to the next image.</div>
        ","arrowup","ITI","","","","","","",""
"","","","","","html-keyboard-response","116","124414","0.0-6.12-1.12","65495813eb9207bdb273cbbb","656d9e5e2de4f984cfed7d4d","656d9eb36599eb729c0b0fcd","null","
        
        <div style=""text-align: center; position: fixed; top: 5vh; left: 40vw;"">
            <div style=""margin:0 auto; width: 20vw; top: 8vh; font-size: 2vw""> 
            <font color=""green""> Bonus : $0.6 </font>
            </div>
        </div>
    
        <img class=""stim"" src=./stimuli//pack_shapes_1/cat_1/diff_3/ex_1_3_8.png></img>
    ","null","stimulus","","","","","","",""
"","","","","","html-keyboard-response","117","125415","0.0-6.12-2.12","65495813eb9207bdb273cbbb","656d9e5e2de4f984cfed7d4d","656d9eb36599eb729c0b0fcd","null","
        <div style=""text-align: center; position: fixed; top: 5vh; left: 40vw;"">
            <div style=""margin:0 auto; width: 20vw; top: 8vh; font-size: 2vw""> 
            <font color=""green""> Bonus : $0.6 </font>
            </div>
        </div>
    ","null","","","","","","","",""
"","","","","","html-keyboard-response","118","125655","0.0-6.12-3.12","65495813eb9207bdb273cbbb","656d9e5e2de4f984cfed7d4d","656d9eb36599eb729c0b0fcd","239","./stimuli//pack_shapes_1/cat_1/diff_3/ex_1_3_8.png","arrowleft","response","ArrowLeft","8","1","3","test","true",""
"","","","","","html-keyboard-response","119","127156","0.0-6.12-4.12","65495813eb9207bdb273cbbb","656d9e5e2de4f984cfed7d4d","656d9eb36599eb729c0b0fcd","null","<p> <font color=""green"" size=""5vw""> Correct category! </font> <br> <br> <font color=""green"" size=""8vw""> + $0.05 </font> </p>","null","feedback","","","","","","","0.65"
"","","","","","html-keyboard-response","120","127473","0.0-6.13-0.13","65495813eb9207bdb273cbbb","656d9e5e2de4f984cfed7d4d","656d9eb36599eb729c0b0fcd","316","
            
        <div style=""text-align: center; position: fixed; top: 5vh; left: 40vw;"">
            <div style=""margin:0 auto; width: 20vw; top: 8vh; font-size: 2vw""> 
            <font color=""green""> Bonus : $0.65 </font>
            </div>
        </div>
    
            <div> Please press any key to continue to the next image.</div>
        ","arrowup","ITI","","","","","","",""
"","","","","","html-keyboard-response","121","128074","0.0-6.13-1.13","65495813eb9207bdb273cbbb","656d9e5e2de4f984cfed7d4d","656d9eb36599eb729c0b0fcd","null","
        
        <div style=""text-align: center; position: fixed; top: 5vh; left: 40vw;"">
            <div style=""margin:0 auto; width: 20vw; top: 8vh; font-size: 2vw""> 
            <font color=""green""> Bonus : $0.65 </font>
            </div>
        </div>
    
        <img class=""stim"" src=./stimuli//pack_shapes_1/cat_2/diff_3/ex_2_3_16.png></img>
    ","null","stimulus","","","","","","",""
"","","","","","html-keyboard-response","122","129076","0.0-6.13-2.13","65495813eb9207bdb273cbbb","656d9e5e2de4f984cfed7d4d","656d9eb36599eb729c0b0fcd","null","
        <div style=""text-align: center; position: fixed; top: 5vh; left: 40vw;"">
            <div style=""margin:0 auto; width: 20vw; top: 8vh; font-size: 2vw""> 
            <font color=""green""> Bonus : $0.65 </font>
            </div>
        </div>
    ","null","","","","","","","",""
"","","","","","html-keyboard-response","123","129359","0.0-6.13-3.13","65495813eb9207bdb273cbbb","656d9e5e2de4f984cfed7d4d","656d9eb36599eb729c0b0fcd","282","./stimuli//pack_shapes_1/cat_2/diff_3/ex_2_3_16.png","arrowright","response","ArrowRight","16","2","3","test","true",""
"","","","","","html-keyboard-response","124","130860","0.0-6.13-4.13","65495813eb9207bdb273cbbb","656d9e5e2de4f984cfed7d4d","656d9eb36599eb729c0b0fcd","null","<p> <font color=""green"" size=""5vw""> Correct category! </font> <br> <br> <font color=""green"" size=""8vw""> + $0.05 </font> </p>","null","feedback","","","","","","","0.7"
"","","","","","html-keyboard-response","125","131170","0.0-6.14-0.14","65495813eb9207bdb273cbbb","656d9e5e2de4f984cfed7d4d","656d9eb36599eb729c0b0fcd","308","
            
        <div style=""text-align: center; position: fixed; top: 5vh; left: 40vw;"">
            <div style=""margin:0 auto; width: 20vw; top: 8vh; font-size: 2vw""> 
            <font color=""green""> Bonus : $0.7 </font>
            </div>
        </div>
    
            <div> Please press any key to continue to the next image.</div>
        ","arrowup","ITI","","","","","","",""
"","","","","","html-keyboard-response","126","131771","0.0-6.14-1.14","65495813eb9207bdb273cbbb","656d9e5e2de4f984cfed7d4d","656d9eb36599eb729c0b0fcd","null","
        
        <div style=""text-align: center; position: fixed; top: 5vh; left: 40vw;"">
            <div style=""margin:0 auto; width: 20vw; top: 8vh; font-size: 2vw""> 
            <font color=""green""> Bonus : $0.7 </font>
            </div>
        </div>
    
        <img class=""stim"" src=./stimuli//pack_shapes_1/cat_2/diff_3/ex_2_3_14.png></img>
    ","null","stimulus","","","","","","",""
"","","","","","html-keyboard-response","127","132772","0.0-6.14-2.14","65495813eb9207bdb273cbbb","656d9e5e2de4f984cfed7d4d","656d9eb36599eb729c0b0fcd","null","
        <div style=""text-align: center; position: fixed; top: 5vh; left: 40vw;"">
            <div style=""margin:0 auto; width: 20vw; top: 8vh; font-size: 2vw""> 
            <font color=""green""> Bonus : $0.7 </font>
            </div>
        </div>
    ","null","","","","","","","",""
"","","","","","html-keyboard-response","128","133065","0.0-6.14-3.14","65495813eb9207bdb273cbbb","656d9e5e2de4f984cfed7d4d","656d9eb36599eb729c0b0fcd","292","./stimuli//pack_shapes_1/cat_2/diff_3/ex_2_3_14.png","arrowright","response","ArrowRight","14","2","3","test","true",""
"","","","","","html-keyboard-response","129","134565","0.0-6.14-4.14","65495813eb9207bdb273cbbb","656d9e5e2de4f984cfed7d4d","656d9eb36599eb729c0b0fcd","null","<p> <font color=""green"" size=""5vw""> Correct category! </font> <br> <br> <font color=""green"" size=""8vw""> + $0.05 </font> </p>","null","feedback","","","","","","","0.75"
"","","","","","html-keyboard-response","130","134894","0.0-6.15-0.15","65495813eb9207bdb273cbbb","656d9e5e2de4f984cfed7d4d","656d9eb36599eb729c0b0fcd","328","
            
        <div style=""text-align: center; position: fixed; top: 5vh; left: 40vw;"">
            <div style=""margin:0 auto; width: 20vw; top: 8vh; font-size: 2vw""> 
            <font color=""green""> Bonus : $0.75 </font>
            </div>
        </div>
    
            <div> Please press any key to continue to the next image.</div>
        ","arrowup","ITI","","","","","","",""
"","","","","","html-keyboard-response","131","135495","0.0-6.15-1.15","65495813eb9207bdb273cbbb","656d9e5e2de4f984cfed7d4d","656d9eb36599eb729c0b0fcd","null","
        
        <div style=""text-align: center; position: fixed; top: 5vh; left: 40vw;"">
            <div style=""margin:0 auto; width: 20vw; top: 8vh; font-size: 2vw""> 
            <font color=""green""> Bonus : $0.75 </font>
            </div>
        </div>
    
        <img class=""stim"" src=./stimuli//pack_shapes_1/cat_1/diff_4/ex_1_4_9.png></img>
    ","null","stimulus","","","","","","",""
"","","","","","html-keyboard-response","132","136497","0.0-6.15-2.15","65495813eb9207bdb273cbbb","656d9e5e2de4f984cfed7d4d","656d9eb36599eb729c0b0fcd","null","
        <div style=""text-align: center; position: fixed; top: 5vh; left: 40vw;"">
            <div style=""margin:0 auto; width: 20vw; top: 8vh; font-size: 2vw""> 
            <font color=""green""> Bonus : $0.75 </font>
            </div>
        </div>
    ","null","","","","","","","",""
"","","","","","html-keyboard-response","133","136799","0.0-6.15-3.15","65495813eb9207bdb273cbbb","656d9e5e2de4f984cfed7d4d","656d9eb36599eb729c0b0fcd","302","./stimuli//pack_shapes_1/cat_1/diff_4/ex_1_4_9.png","arrowleft","response","ArrowLeft","9","1","4","test","true",""
"","","","","","html-keyboard-response","134","138300","0.0-6.15-4.15","65495813eb9207bdb273cbbb","656d9e5e2de4f984cfed7d4d","656d9eb36599eb729c0b0fcd","null","<p> <font color=""green"" size=""5vw""> Correct category! </font> <br> <br> <font color=""green"" size=""8vw""> + $0.05 </font> </p>","null","feedback","","","","","","","0.8"
"","","","","","html-keyboard-response","135","138610","0.0-6.16-0.16","65495813eb9207bdb273cbbb","656d9e5e2de4f984cfed7d4d","656d9eb36599eb729c0b0fcd","309","
            
        <div style=""text-align: center; position: fixed; top: 5vh; left: 40vw;"">
            <div style=""margin:0 auto; width: 20vw; top: 8vh; font-size: 2vw""> 
            <font color=""green""> Bonus : $0.8 </font>
            </div>
        </div>
    
            <div> Please press any key to continue to the next image.</div>
        ","arrowup","ITI","","","","","","",""
"","","","","","html-keyboard-response","136","139211","0.0-6.16-1.16","65495813eb9207bdb273cbbb","656d9e5e2de4f984cfed7d4d","656d9eb36599eb729c0b0fcd","null","
        
        <div style=""text-align: center; position: fixed; top: 5vh; left: 40vw;"">
            <div style=""margin:0 auto; width: 20vw; top: 8vh; font-size: 2vw""> 
            <font color=""green""> Bonus : $0.8 </font>
            </div>
        </div>
    
        <img class=""stim"" src=./stimuli//pack_shapes_1/cat_2/diff_4/ex_2_4_13.png></img>
    ","null","stimulus","","","","","","",""
"","","","","","html-keyboard-response","137","140212","0.0-6.16-2.16","65495813eb9207bdb273cbbb","656d9e5e2de4f984cfed7d4d","656d9eb36599eb729c0b0fcd","null","
        <div style=""text-align: center; position: fixed; top: 5vh; left: 40vw;"">
            <div style=""margin:0 auto; width: 20vw; top: 8vh; font-size: 2vw""> 
            <font color=""green""> Bonus : $0.8 </font>
            </div>
        </div>
    ","null","","","","","","","",""
"","","","","","html-keyboard-response","138","140491","0.0-6.16-3.16","65495813eb9207bdb273cbbb","656d9e5e2de4f984cfed7d4d","656d9eb36599eb729c0b0fcd","278","./stimuli//pack_shapes_1/cat_2/diff_4/ex_2_4_13.png","arrowright","response","ArrowRight","13","2","4","test","true",""
"","","","","","html-keyboard-response","139","141992","0.0-6.16-4.16","65495813eb9207bdb273cbbb","656d9e5e2de4f984cfed7d4d","656d9eb36599eb729c0b0fcd","null","<p> <font color=""green"" size=""5vw""> Correct category! </font> <br> <br> <font color=""green"" size=""8vw""> + $0.05 </font> </p>","null","feedback","","","","","","","0.85"
"","","","","","html-keyboard-response","140","142360","0.0-6.17-0.17","65495813eb9207bdb273cbbb","656d9e5e2de4f984cfed7d4d","656d9eb36599eb729c0b0fcd","366","
            
        <div style=""text-align: center; position: fixed; top: 5vh; left: 40vw;"">
            <div style=""margin:0 auto; width: 20vw; top: 8vh; font-size: 2vw""> 
            <font color=""green""> Bonus : $0.85 </font>
            </div>
        </div>
    
            <div> Please press any key to continue to the next image.</div>
        ","arrowup","ITI","","","","","","",""
"","","","","","html-keyboard-response","141","142960","0.0-6.17-1.17","65495813eb9207bdb273cbbb","656d9e5e2de4f984cfed7d4d","656d9eb36599eb729c0b0fcd","null","
        
        <div style=""text-align: center; position: fixed; top: 5vh; left: 40vw;"">
            <div style=""margin:0 auto; width: 20vw; top: 8vh; font-size: 2vw""> 
            <font color=""green""> Bonus : $0.85 </font>
            </div>
        </div>
    
        <img class=""stim"" src=./stimuli//pack_shapes_1/cat_1/diff_4/ex_1_4_15.png></img>
    ","null","stimulus","","","","","","",""
"","","","","","html-keyboard-response","142","143961","0.0-6.17-2.17","65495813eb9207bdb273cbbb","656d9e5e2de4f984cfed7d4d","656d9eb36599eb729c0b0fcd","null","
        <div style=""text-align: center; position: fixed; top: 5vh; left: 40vw;"">
            <div style=""margin:0 auto; width: 20vw; top: 8vh; font-size: 2vw""> 
            <font color=""green""> Bonus : $0.85 </font>
            </div>
        </div>
    ","null","","","","","","","",""
"","","","","","html-keyboard-response","143","144194","0.0-6.17-3.17","65495813eb9207bdb273cbbb","656d9e5e2de4f984cfed7d4d","656d9eb36599eb729c0b0fcd","233","./stimuli//pack_shapes_1/cat_1/diff_4/ex_1_4_15.png","arrowleft","response","ArrowLeft","15","1","4","test","true",""
"","","","","","html-keyboard-response","144","145695","0.0-6.17-4.17","65495813eb9207bdb273cbbb","656d9e5e2de4f984cfed7d4d","656d9eb36599eb729c0b0fcd","null","<p> <font color=""green"" size=""5vw""> Correct category! </font> <br> <br> <font color=""green"" size=""8vw""> + $0.05 </font> </p>","null","feedback","","","","","","","0.9"
"","","","","","html-keyboard-response","145","146020","0.0-6.18-0.18","65495813eb9207bdb273cbbb","656d9e5e2de4f984cfed7d4d","656d9eb36599eb729c0b0fcd","325","
            
        <div style=""text-align: center; position: fixed; top: 5vh; left: 40vw;"">
            <div style=""margin:0 auto; width: 20vw; top: 8vh; font-size: 2vw""> 
            <font color=""green""> Bonus : $0.9 </font>
            </div>
        </div>
    
            <div> Please press any key to continue to the next image.</div>
        ","arrowup","ITI","","","","","","",""
"","","","","","html-keyboard-response","146","146622","0.0-6.18-1.18","65495813eb9207bdb273cbbb","656d9e5e2de4f984cfed7d4d","656d9eb36599eb729c0b0fcd","null","
        
        <div style=""text-align: center; position: fixed; top: 5vh; left: 40vw;"">
            <div style=""margin:0 auto; width: 20vw; top: 8vh; font-size: 2vw""> 
            <font color=""green""> Bonus : $0.9 </font>
            </div>
        </div>
    
        <img class=""stim"" src=./stimuli//pack_shapes_1/cat_1/diff_4/ex_1_4_3.png></img>
    ","null","stimulus","","","","","","",""
"","","","","","html-keyboard-response","147","147623","0.0-6.18-2.18","65495813eb9207bdb273cbbb","656d9e5e2de4f984cfed7d4d","656d9eb36599eb729c0b0fcd","null","
        <div style=""text-align: center; position: fixed; top: 5vh; left: 40vw;"">
            <div style=""margin:0 auto; width: 20vw; top: 8vh; font-size: 2vw""> 
            <font color=""green""> Bonus : $0.9 </font>
            </div>
        </div>
    ","null","","","","","","","",""
"","","","","","html-keyboard-response","148","147863","0.0-6.18-3.18","65495813eb9207bdb273cbbb","656d9e5e2de4f984cfed7d4d","656d9eb36599eb729c0b0fcd","239","./stimuli//pack_shapes_1/cat_1/diff_4/ex_1_4_3.png","arrowleft","response","ArrowLeft","3","1","4","test","true",""
"","","","","","html-keyboard-response","149","149364","0.0-6.18-4.18","65495813eb9207bdb273cbbb","656d9e5e2de4f984cfed7d4d","656d9eb36599eb729c0b0fcd","null","<p> <font color=""green"" size=""5vw""> Correct category! </font> <br> <br> <font color=""green"" size=""8vw""> + $0.05 </font> </p>","null","feedback","","","","","","","0.95"
"","","","","","html-keyboard-response","150","149662","0.0-6.19-0.19","65495813eb9207bdb273cbbb","656d9e5e2de4f984cfed7d4d","656d9eb36599eb729c0b0fcd","297","
            
        <div style=""text-align: center; position: fixed; top: 5vh; left: 40vw;"">
            <div style=""margin:0 auto; width: 20vw; top: 8vh; font-size: 2vw""> 
            <font color=""green""> Bonus : $0.95 </font>
            </div>
        </div>
    
            <div> Please press any key to continue to the next image.</div>
        ","arrowup","ITI","","","","","","",""
"","","","","","html-keyboard-response","151","150264","0.0-6.19-1.19","65495813eb9207bdb273cbbb","656d9e5e2de4f984cfed7d4d","656d9eb36599eb729c0b0fcd","null","
        
        <div style=""text-align: center; position: fixed; top: 5vh; left: 40vw;"">
            <div style=""margin:0 auto; width: 20vw; top: 8vh; font-size: 2vw""> 
            <font color=""green""> Bonus : $0.95 </font>
            </div>
        </div>
    
        <img class=""stim"" src=./stimuli//pack_shapes_1/cat_2/diff_4/ex_2_4_14.png></img>
    ","null","stimulus","","","","","","",""
"","","","","","html-keyboard-response","152","151265","0.0-6.19-2.19","65495813eb9207bdb273cbbb","656d9e5e2de4f984cfed7d4d","656d9eb36599eb729c0b0fcd","null","
        <div style=""text-align: center; position: fixed; top: 5vh; left: 40vw;"">
            <div style=""margin:0 auto; width: 20vw; top: 8vh; font-size: 2vw""> 
            <font color=""green""> Bonus : $0.95 </font>
            </div>
        </div>
    ","null","","","","","","","",""
"","","","","","html-keyboard-response","153","151532","0.0-6.19-3.19","65495813eb9207bdb273cbbb","656d9e5e2de4f984cfed7d4d","656d9eb36599eb729c0b0fcd","266","./stimuli//pack_shapes_1/cat_2/diff_4/ex_2_4_14.png","arrowright","response","ArrowRight","14","2","4","test","true",""
"","","","","","html-keyboard-response","154","153033","0.0-6.19-4.19","65495813eb9207bdb273cbbb","656d9e5e2de4f984cfed7d4d","656d9eb36599eb729c0b0fcd","null","<p> <font color=""green"" size=""5vw""> Correct category! </font> <br> <br> <font color=""green"" size=""8vw""> + $0.05 </font> </p>","null","feedback","","","","","","","1"
"","","","","","html-keyboard-response","155","153392","0.0-6.20-0.20","65495813eb9207bdb273cbbb","656d9e5e2de4f984cfed7d4d","656d9eb36599eb729c0b0fcd","359","
            
        <div style=""text-align: center; position: fixed; top: 5vh; left: 40vw;"">
            <div style=""margin:0 auto; width: 20vw; top: 8vh; font-size: 2vw""> 
            <font color=""green""> Bonus : $1 </font>
            </div>
        </div>
    
            <div> Please press any key to continue to the next image.</div>
        ","arrowup","ITI","","","","","","",""
"","","","","","html-keyboard-response","156","153993","0.0-6.20-1.20","65495813eb9207bdb273cbbb","656d9e5e2de4f984cfed7d4d","656d9eb36599eb729c0b0fcd","null","
        
        <div style=""text-align: center; position: fixed; top: 5vh; left: 40vw;"">
            <div style=""margin:0 auto; width: 20vw; top: 8vh; font-size: 2vw""> 
            <font color=""green""> Bonus : $1 </font>
            </div>
        </div>
    
        <img class=""stim"" src=./stimuli//pack_shapes_1/cat_1/diff_5/ex_1_5_3.png></img>
    ","null","stimulus","","","","","","",""
"","","","","","html-keyboard-response","157","154994","0.0-6.20-2.20","65495813eb9207bdb273cbbb","656d9e5e2de4f984cfed7d4d","656d9eb36599eb729c0b0fcd","null","
        <div style=""text-align: center; position: fixed; top: 5vh; left: 40vw;"">
            <div style=""margin:0 auto; width: 20vw; top: 8vh; font-size: 2vw""> 
            <font color=""green""> Bonus : $1 </font>
            </div>
        </div>
    ","null","","","","","","","",""
"","","","","","html-keyboard-response","158","155218","0.0-6.20-3.20","65495813eb9207bdb273cbbb","656d9e5e2de4f984cfed7d4d","656d9eb36599eb729c0b0fcd","223","./stimuli//pack_shapes_1/cat_1/diff_5/ex_1_5_3.png","arrowleft","response","ArrowLeft","3","1","5","test","true",""
"","","","","","html-keyboard-response","159","156719","0.0-6.20-4.20","65495813eb9207bdb273cbbb","656d9e5e2de4f984cfed7d4d","656d9eb36599eb729c0b0fcd","null","<p> <font color=""green"" size=""5vw""> Correct category! </font> <br> <br> <font color=""green"" size=""8vw""> + $0.05 </font> </p>","null","feedback","","","","","","","1.05"
"","","","","","html-keyboard-response","160","157026","0.0-6.21-0.21","65495813eb9207bdb273cbbb","656d9e5e2de4f984cfed7d4d","656d9eb36599eb729c0b0fcd","306","
            
        <div style=""text-align: center; position: fixed; top: 5vh; left: 40vw;"">
            <div style=""margin:0 auto; width: 20vw; top: 8vh; font-size: 2vw""> 
            <font color=""green""> Bonus : $1.05 </font>
            </div>
        </div>
    
            <div> Please press any key to continue to the next image.</div>
        ","arrowup","ITI","","","","","","",""
"","","","","","html-keyboard-response","161","157627","0.0-6.21-1.21","65495813eb9207bdb273cbbb","656d9e5e2de4f984cfed7d4d","656d9eb36599eb729c0b0fcd","null","
        
        <div style=""text-align: center; position: fixed; top: 5vh; left: 40vw;"">
            <div style=""margin:0 auto; width: 20vw; top: 8vh; font-size: 2vw""> 
            <font color=""green""> Bonus : $1.05 </font>
            </div>
        </div>
    
        <img class=""stim"" src=./stimuli//pack_shapes_1/cat_1/diff_5/ex_1_5_1.png></img>
    ","null","stimulus","","","","","","",""
"","","","","","html-keyboard-response","162","158629","0.0-6.21-2.21","65495813eb9207bdb273cbbb","656d9e5e2de4f984cfed7d4d","656d9eb36599eb729c0b0fcd","null","
        <div style=""text-align: center; position: fixed; top: 5vh; left: 40vw;"">
            <div style=""margin:0 auto; width: 20vw; top: 8vh; font-size: 2vw""> 
            <font color=""green""> Bonus : $1.05 </font>
            </div>
        </div>
    ","null","","","","","","","",""
"","","","","","html-keyboard-response","163","158857","0.0-6.21-3.21","65495813eb9207bdb273cbbb","656d9e5e2de4f984cfed7d4d","656d9eb36599eb729c0b0fcd","228","./stimuli//pack_shapes_1/cat_1/diff_5/ex_1_5_1.png","arrowleft","response","ArrowLeft","1","1","5","test","true",""
"","","","","","html-keyboard-response","164","160358","0.0-6.21-4.21","65495813eb9207bdb273cbbb","656d9e5e2de4f984cfed7d4d","656d9eb36599eb729c0b0fcd","null","<p> <font color=""green"" size=""5vw""> Correct category! </font> <br> <br> <font color=""green"" size=""8vw""> + $0.05 </font> </p>","null","feedback","","","","","","","1.1"
"","","","","","html-keyboard-response","165","160667","0.0-6.22-0.22","65495813eb9207bdb273cbbb","656d9e5e2de4f984cfed7d4d","656d9eb36599eb729c0b0fcd","309","
            
        <div style=""text-align: center; position: fixed; top: 5vh; left: 40vw;"">
            <div style=""margin:0 auto; width: 20vw; top: 8vh; font-size: 2vw""> 
            <font color=""green""> Bonus : $1.1 </font>
            </div>
        </div>
    
            <div> Please press any key to continue to the next image.</div>
        ","arrowup","ITI","","","","","","",""
"","","","","","html-keyboard-response","166","161268","0.0-6.22-1.22","65495813eb9207bdb273cbbb","656d9e5e2de4f984cfed7d4d","656d9eb36599eb729c0b0fcd","null","
        
        <div style=""text-align: center; position: fixed; top: 5vh; left: 40vw;"">
            <div style=""margin:0 auto; width: 20vw; top: 8vh; font-size: 2vw""> 
            <font color=""green""> Bonus : $1.1 </font>
            </div>
        </div>
    
        <img class=""stim"" src=./stimuli//pack_shapes_1/cat_2/diff_5/ex_2_5_14.png></img>
    ","null","stimulus","","","","","","",""
"","","","","","html-keyboard-response","167","162268","0.0-6.22-2.22","65495813eb9207bdb273cbbb","656d9e5e2de4f984cfed7d4d","656d9eb36599eb729c0b0fcd","null","
        <div style=""text-align: center; position: fixed; top: 5vh; left: 40vw;"">
            <div style=""margin:0 auto; width: 20vw; top: 8vh; font-size: 2vw""> 
            <font color=""green""> Bonus : $1.1 </font>
            </div>
        </div>
    ","null","","","","","","","",""
"","","","","","html-keyboard-response","168","162834","0.0-6.22-3.22","65495813eb9207bdb273cbbb","656d9e5e2de4f984cfed7d4d","656d9eb36599eb729c0b0fcd","565","./stimuli//pack_shapes_1/cat_2/diff_5/ex_2_5_14.png","arrowright","response","ArrowRight","14","2","5","test","true",""
"","","","","","html-keyboard-response","169","164335","0.0-6.22-4.22","65495813eb9207bdb273cbbb","656d9e5e2de4f984cfed7d4d","656d9eb36599eb729c0b0fcd","null","<p> <font color=""green"" size=""5vw""> Correct category! </font> <br> <br> <font color=""green"" size=""8vw""> + $0.05 </font> </p>","null","feedback","","","","","","","1.15"
"","","","","","html-keyboard-response","170","164637","0.0-6.23-0.23","65495813eb9207bdb273cbbb","656d9e5e2de4f984cfed7d4d","656d9eb36599eb729c0b0fcd","301","
            
        <div style=""text-align: center; position: fixed; top: 5vh; left: 40vw;"">
            <div style=""margin:0 auto; width: 20vw; top: 8vh; font-size: 2vw""> 
            <font color=""green""> Bonus : $1.15 </font>
            </div>
        </div>
    
            <div> Please press any key to continue to the next image.</div>
        ","arrowup","ITI","","","","","","",""
"","","","","","html-keyboard-response","171","165240","0.0-6.23-1.23","65495813eb9207bdb273cbbb","656d9e5e2de4f984cfed7d4d","656d9eb36599eb729c0b0fcd","null","
        
        <div style=""text-align: center; position: fixed; top: 5vh; left: 40vw;"">
            <div style=""margin:0 auto; width: 20vw; top: 8vh; font-size: 2vw""> 
            <font color=""green""> Bonus : $1.15 </font>
            </div>
        </div>
    
        <img class=""stim"" src=./stimuli//pack_shapes_1/cat_1/diff_5/ex_1_5_1.png></img>
    ","null","stimulus","","","","","","",""
"","","","","","html-keyboard-response","172","166241","0.0-6.23-2.23","65495813eb9207bdb273cbbb","656d9e5e2de4f984cfed7d4d","656d9eb36599eb729c0b0fcd","null","
        <div style=""text-align: center; position: fixed; top: 5vh; left: 40vw;"">
            <div style=""margin:0 auto; width: 20vw; top: 8vh; font-size: 2vw""> 
            <font color=""green""> Bonus : $1.15 </font>
            </div>
        </div>
    ","null","","","","","","","",""
"","","","","","html-keyboard-response","173","166593","0.0-6.23-3.23","65495813eb9207bdb273cbbb","656d9e5e2de4f984cfed7d4d","656d9eb36599eb729c0b0fcd","350","./stimuli//pack_shapes_1/cat_1/diff_5/ex_1_5_1.png","arrowleft","response","ArrowLeft","1","1","5","test","true",""
"","","","","","html-keyboard-response","174","168094","0.0-6.23-4.23","65495813eb9207bdb273cbbb","656d9e5e2de4f984cfed7d4d","656d9eb36599eb729c0b0fcd","null","<p> <font color=""green"" size=""5vw""> Correct category! </font> <br> <br> <font color=""green"" size=""8vw""> + $0.05 </font> </p>","null","feedback","","","","","","","1.2"
"","","","","","html-keyboard-response","175","168437","0.0-6.24-0.24","65495813eb9207bdb273cbbb","656d9e5e2de4f984cfed7d4d","656d9eb36599eb729c0b0fcd","341","
            
        <div style=""text-align: center; position: fixed; top: 5vh; left: 40vw;"">
            <div style=""margin:0 auto; width: 20vw; top: 8vh; font-size: 2vw""> 
            <font color=""green""> Bonus : $1.2 </font>
            </div>
        </div>
    
            <div> Please press any key to continue to the next image.</div>
        ","arrowup","ITI","","","","","","",""
"","","","","","html-keyboard-response","176","169038","0.0-6.24-1.24","65495813eb9207bdb273cbbb","656d9e5e2de4f984cfed7d4d","656d9eb36599eb729c0b0fcd","null","
        
        <div style=""text-align: center; position: fixed; top: 5vh; left: 40vw;"">
            <div style=""margin:0 auto; width: 20vw; top: 8vh; font-size: 2vw""> 
            <font color=""green""> Bonus : $1.2 </font>
            </div>
        </div>
    
        <img class=""stim"" src=./stimuli//pack_shapes_1/cat_1/diff_5/ex_1_5_2.png></img>
    ","null","stimulus","","","","","","",""
"","","","","","html-keyboard-response","177","170039","0.0-6.24-2.24","65495813eb9207bdb273cbbb","656d9e5e2de4f984cfed7d4d","656d9eb36599eb729c0b0fcd","null","
        <div style=""text-align: center; position: fixed; top: 5vh; left: 40vw;"">
            <div style=""margin:0 auto; width: 20vw; top: 8vh; font-size: 2vw""> 
            <font color=""green""> Bonus : $1.2 </font>
            </div>
        </div>
    ","null","","","","","","","",""
"","","","","","html-keyboard-response","178","170251","0.0-6.24-3.24","65495813eb9207bdb273cbbb","656d9e5e2de4f984cfed7d4d","656d9eb36599eb729c0b0fcd","212","./stimuli//pack_shapes_1/cat_1/diff_5/ex_1_5_2.png","arrowleft","response","ArrowLeft","2","1","5","test","true",""
"","","","","","html-keyboard-response","179","171752","0.0-6.24-4.24","65495813eb9207bdb273cbbb","656d9e5e2de4f984cfed7d4d","656d9eb36599eb729c0b0fcd","null","<p> <font color=""green"" size=""5vw""> Correct category! </font> <br> <br> <font color=""green"" size=""8vw""> + $0.05 </font> </p>","null","feedback","","","","","","","1.25"
"","","","","","html-keyboard-response","180","172045","0.0-6.25-0.25","65495813eb9207bdb273cbbb","656d9e5e2de4f984cfed7d4d","656d9eb36599eb729c0b0fcd","293","
            
        <div style=""text-align: center; position: fixed; top: 5vh; left: 40vw;"">
            <div style=""margin:0 auto; width: 20vw; top: 8vh; font-size: 2vw""> 
            <font color=""green""> Bonus : $1.25 </font>
            </div>
        </div>
    
            <div> Please press any key to continue to the next image.</div>
        ","arrowup","ITI","","","","","","",""
"","","","","","html-keyboard-response","181","172647","0.0-6.25-1.25","65495813eb9207bdb273cbbb","656d9e5e2de4f984cfed7d4d","656d9eb36599eb729c0b0fcd","null","
        
        <div style=""text-align: center; position: fixed; top: 5vh; left: 40vw;"">
            <div style=""margin:0 auto; width: 20vw; top: 8vh; font-size: 2vw""> 
            <font color=""green""> Bonus : $1.25 </font>
            </div>
        </div>
    
        <img class=""stim"" src=./stimuli//pack_shapes_1/cat_2/diff_5/ex_2_5_7.png></img>
    ","null","stimulus","","","","","","",""
"","","","","","html-keyboard-response","182","173648","0.0-6.25-2.25","65495813eb9207bdb273cbbb","656d9e5e2de4f984cfed7d4d","656d9eb36599eb729c0b0fcd","null","
        <div style=""text-align: center; position: fixed; top: 5vh; left: 40vw;"">
            <div style=""margin:0 auto; width: 20vw; top: 8vh; font-size: 2vw""> 
            <font color=""green""> Bonus : $1.25 </font>
            </div>
        </div>
    ","null","","","","","","","",""
"","","","","","html-keyboard-response","183","173957","0.0-6.25-3.25","65495813eb9207bdb273cbbb","656d9e5e2de4f984cfed7d4d","656d9eb36599eb729c0b0fcd","309","./stimuli//pack_shapes_1/cat_2/diff_5/ex_2_5_7.png","arrowright","response","ArrowRight","7","2","5","test","true",""
"","","","","","html-keyboard-response","184","175458","0.0-6.25-4.25","65495813eb9207bdb273cbbb","656d9e5e2de4f984cfed7d4d","656d9eb36599eb729c0b0fcd","null","<p> <font color=""green"" size=""5vw""> Correct category! </font> <br> <br> <font color=""green"" size=""8vw""> + $0.05 </font> </p>","null","feedback","","","","","","","1.3"
"","","","","","html-keyboard-response","185","175744","0.0-6.26-0.26","65495813eb9207bdb273cbbb","656d9e5e2de4f984cfed7d4d","656d9eb36599eb729c0b0fcd","286","
            
        <div style=""text-align: center; position: fixed; top: 5vh; left: 40vw;"">
            <div style=""margin:0 auto; width: 20vw; top: 8vh; font-size: 2vw""> 
            <font color=""green""> Bonus : $1.3 </font>
            </div>
        </div>
    
            <div> Please press any key to continue to the next image.</div>
        ","arrowup","ITI","","","","","","",""
"","","","","","html-keyboard-response","186","176345","0.0-6.26-1.26","65495813eb9207bdb273cbbb","656d9e5e2de4f984cfed7d4d","656d9eb36599eb729c0b0fcd","null","
        
        <div style=""text-align: center; position: fixed; top: 5vh; left: 40vw;"">
            <div style=""margin:0 auto; width: 20vw; top: 8vh; font-size: 2vw""> 
            <font color=""green""> Bonus : $1.3 </font>
            </div>
        </div>
    
        <img class=""stim"" src=./stimuli//pack_shapes_1/cat_2/diff_5/ex_2_5_6.png></img>
    ","null","stimulus","","","","","","",""
"","","","","","html-keyboard-response","187","177346","0.0-6.26-2.26","65495813eb9207bdb273cbbb","656d9e5e2de4f984cfed7d4d","656d9eb36599eb729c0b0fcd","null","
        <div style=""text-align: center; position: fixed; top: 5vh; left: 40vw;"">
            <div style=""margin:0 auto; width: 20vw; top: 8vh; font-size: 2vw""> 
            <font color=""green""> Bonus : $1.3 </font>
            </div>
        </div>
    ","null","","","","","","","",""
"","","","","","html-keyboard-response","188","177602","0.0-6.26-3.26","65495813eb9207bdb273cbbb","656d9e5e2de4f984cfed7d4d","656d9eb36599eb729c0b0fcd","256","./stimuli//pack_shapes_1/cat_2/diff_5/ex_2_5_6.png","arrowright","response","ArrowRight","6","2","5","test","true",""
"","","","","","html-keyboard-response","189","179103","0.0-6.26-4.26","65495813eb9207bdb273cbbb","656d9e5e2de4f984cfed7d4d","656d9eb36599eb729c0b0fcd","null","<p> <font color=""green"" size=""5vw""> Correct category! </font> <br> <br> <font color=""green"" size=""8vw""> + $0.05 </font> </p>","null","feedback","","","","","","","1.35"
"","","","","","html-keyboard-response","190","179444","0.0-6.27-0.27","65495813eb9207bdb273cbbb","656d9e5e2de4f984cfed7d4d","656d9eb36599eb729c0b0fcd","340","
            
        <div style=""text-align: center; position: fixed; top: 5vh; left: 40vw;"">
            <div style=""margin:0 auto; width: 20vw; top: 8vh; font-size: 2vw""> 
            <font color=""green""> Bonus : $1.35 </font>
            </div>
        </div>
    
            <div> Please press any key to continue to the next image.</div>
        ","arrowup","ITI","","","","","","",""
"","","","","","html-keyboard-response","191","180045","0.0-6.27-1.27","65495813eb9207bdb273cbbb","656d9e5e2de4f984cfed7d4d","656d9eb36599eb729c0b0fcd","null","
        
        <div style=""text-align: center; position: fixed; top: 5vh; left: 40vw;"">
            <div style=""margin:0 auto; width: 20vw; top: 8vh; font-size: 2vw""> 
            <font color=""green""> Bonus : $1.35 </font>
            </div>
        </div>
    
        <img class=""stim"" src=./stimuli//pack_shapes_1/cat_2/diff_5/ex_2_5_15.png></img>
    ","null","stimulus","","","","","","",""
"","","","","","html-keyboard-response","192","181046","0.0-6.27-2.27","65495813eb9207bdb273cbbb","656d9e5e2de4f984cfed7d4d","656d9eb36599eb729c0b0fcd","null","
        <div style=""text-align: center; position: fixed; top: 5vh; left: 40vw;"">
            <div style=""margin:0 auto; width: 20vw; top: 8vh; font-size: 2vw""> 
            <font color=""green""> Bonus : $1.35 </font>
            </div>
        </div>
    ","null","","","","","","","",""
"","","","","","html-keyboard-response","193","181303","0.0-6.27-3.27","65495813eb9207bdb273cbbb","656d9e5e2de4f984cfed7d4d","656d9eb36599eb729c0b0fcd","255","./stimuli//pack_shapes_1/cat_2/diff_5/ex_2_5_15.png","arrowleft","response","ArrowRight","15","2","5","test","false",""
"","","","","","html-keyboard-response","194","182804","0.0-6.27-4.27","65495813eb9207bdb273cbbb","656d9e5e2de4f984cfed7d4d","656d9eb36599eb729c0b0fcd","null","<p> <font color=""red"" size=""5vw""> Wrong category! </font> <br> <br> <font color=""red"" size=""8vw""> - $0.05 </font> </p>","null","feedback","","","","","","","1.3"
"","","","","","html-keyboard-response","195","183137","0.0-6.28-0.28","65495813eb9207bdb273cbbb","656d9e5e2de4f984cfed7d4d","656d9eb36599eb729c0b0fcd","332","
            
        <div style=""text-align: center; position: fixed; top: 5vh; left: 40vw;"">
            <div style=""margin:0 auto; width: 20vw; top: 8vh; font-size: 2vw""> 
            <font color=""green""> Bonus : $1.3 </font>
            </div>
        </div>
    
            <div> Please press any key to continue to the next image.</div>
        ","arrowup","ITI","","","","","","",""
"","","","","","html-keyboard-response","196","183738","0.0-6.28-1.28","65495813eb9207bdb273cbbb","656d9e5e2de4f984cfed7d4d","656d9eb36599eb729c0b0fcd","null","
        
        <div style=""text-align: center; position: fixed; top: 5vh; left: 40vw;"">
            <div style=""margin:0 auto; width: 20vw; top: 8vh; font-size: 2vw""> 
            <font color=""green""> Bonus : $1.3 </font>
            </div>
        </div>
    
        <img class=""stim"" src=./stimuli//pack_shapes_1/cat_2/diff_5/ex_2_5_5.png></img>
    ","null","stimulus","","","","","","",""
"","","","","","html-keyboard-response","197","184739","0.0-6.28-2.28","65495813eb9207bdb273cbbb","656d9e5e2de4f984cfed7d4d","656d9eb36599eb729c0b0fcd","null","
        <div style=""text-align: center; position: fixed; top: 5vh; left: 40vw;"">
            <div style=""margin:0 auto; width: 20vw; top: 8vh; font-size: 2vw""> 
            <font color=""green""> Bonus : $1.3 </font>
            </div>
        </div>
    ","null","","","","","","","",""
"","","","","","html-keyboard-response","198","185009","0.0-6.28-3.28","65495813eb9207bdb273cbbb","656d9e5e2de4f984cfed7d4d","656d9eb36599eb729c0b0fcd","269","./stimuli//pack_shapes_1/cat_2/diff_5/ex_2_5_5.png","arrowright","response","ArrowRight","5","2","5","test","true",""
"","","","","","html-keyboard-response","199","186509","0.0-6.28-4.28","65495813eb9207bdb273cbbb","656d9e5e2de4f984cfed7d4d","656d9eb36599eb729c0b0fcd","null","<p> <font color=""green"" size=""5vw""> Correct category! </font> <br> <br> <font color=""green"" size=""8vw""> + $0.05 </font> </p>","null","feedback","","","","","","","1.35"
"","","","","","html-keyboard-response","200","186832","0.0-6.29-0.29","65495813eb9207bdb273cbbb","656d9e5e2de4f984cfed7d4d","656d9eb36599eb729c0b0fcd","322","
            
        <div style=""text-align: center; position: fixed; top: 5vh; left: 40vw;"">
            <div style=""margin:0 auto; width: 20vw; top: 8vh; font-size: 2vw""> 
            <font color=""green""> Bonus : $1.35 </font>
            </div>
        </div>
    
            <div> Please press any key to continue to the next image.</div>
        ","arrowup","ITI","","","","","","",""
"","","","","","html-keyboard-response","201","187433","0.0-6.29-1.29","65495813eb9207bdb273cbbb","656d9e5e2de4f984cfed7d4d","656d9eb36599eb729c0b0fcd","null","
        
        <div style=""text-align: center; position: fixed; top: 5vh; left: 40vw;"">
            <div style=""margin:0 auto; width: 20vw; top: 8vh; font-size: 2vw""> 
            <font color=""green""> Bonus : $1.35 </font>
            </div>
        </div>
    
        <img class=""stim"" src=./stimuli//pack_shapes_1/cat_1/diff_5/ex_1_5_9.png></img>
    ","null","stimulus","","","","","","",""
"","","","","","html-keyboard-response","202","188434","0.0-6.29-2.29","65495813eb9207bdb273cbbb","656d9e5e2de4f984cfed7d4d","656d9eb36599eb729c0b0fcd","null","
        <div style=""text-align: center; position: fixed; top: 5vh; left: 40vw;"">
            <div style=""margin:0 auto; width: 20vw; top: 8vh; font-size: 2vw""> 
            <font color=""green""> Bonus : $1.35 </font>
            </div>
        </div>
    ","null","","","","","","","",""
"","","","","","html-keyboard-response","203","188450","0.0-6.29-3.29","65495813eb9207bdb273cbbb","656d9e5e2de4f984cfed7d4d","656d9eb36599eb729c0b0fcd","15","./stimuli//pack_shapes_1/cat_1/diff_5/ex_1_5_9.png","arrowleft","response","ArrowLeft","9","1","5","test","true",""
"","","","","","html-keyboard-response","204","189951","0.0-6.29-4.29","65495813eb9207bdb273cbbb","656d9e5e2de4f984cfed7d4d","656d9eb36599eb729c0b0fcd","null","<p> <font color=""green"" size=""5vw""> Correct category! </font> <br> <br> <font color=""green"" size=""8vw""> + $0.05 </font> </p>","null","feedback","","","","","","","1.4"
"","","","","","html-keyboard-response","205","190317","0.0-6.30-0.30","65495813eb9207bdb273cbbb","656d9e5e2de4f984cfed7d4d","656d9eb36599eb729c0b0fcd","365","
            
        <div style=""text-align: center; position: fixed; top: 5vh; left: 40vw;"">
            <div style=""margin:0 auto; width: 20vw; top: 8vh; font-size: 2vw""> 
            <font color=""green""> Bonus : $1.4 </font>
            </div>
        </div>
    
            <div> Please press any key to continue to the next image.</div>
        ","arrowup","ITI","","","","","","",""
"","","","","","html-keyboard-response","206","190918","0.0-6.30-1.30","65495813eb9207bdb273cbbb","656d9e5e2de4f984cfed7d4d","656d9eb36599eb729c0b0fcd","null","
        
        <div style=""text-align: center; position: fixed; top: 5vh; left: 40vw;"">
            <div style=""margin:0 auto; width: 20vw; top: 8vh; font-size: 2vw""> 
            <font color=""green""> Bonus : $1.4 </font>
            </div>
        </div>
    
        <img class=""stim"" src=./stimuli//pack_shapes_1/cat_2/diff_5/ex_2_5_1.png></img>
    ","null","stimulus","","","","","","",""
"","","","","","html-keyboard-response","207","191920","0.0-6.30-2.30","65495813eb9207bdb273cbbb","656d9e5e2de4f984cfed7d4d","656d9eb36599eb729c0b0fcd","null","
        <div style=""text-align: center; position: fixed; top: 5vh; left: 40vw;"">
            <div style=""margin:0 auto; width: 20vw; top: 8vh; font-size: 2vw""> 
            <font color=""green""> Bonus : $1.4 </font>
            </div>
        </div>
    ","null","","","","","","","",""
"","","","","","html-keyboard-response","208","192198","0.0-6.30-3.30","65495813eb9207bdb273cbbb","656d9e5e2de4f984cfed7d4d","656d9eb36599eb729c0b0fcd","277","./stimuli//pack_shapes_1/cat_2/diff_5/ex_2_5_1.png","arrowright","response","ArrowRight","1","2","5","test","true",""
"","","","","","html-keyboard-response","209","193699","0.0-6.30-4.30","65495813eb9207bdb273cbbb","656d9e5e2de4f984cfed7d4d","656d9eb36599eb729c0b0fcd","null","<p> <font color=""green"" size=""5vw""> Correct category! </font> <br> <br> <font color=""green"" size=""8vw""> + $0.05 </font> </p>","null","feedback","","","","","","","1.45"
"","","","","","html-keyboard-response","210","194045","0.0-6.31-0.31","65495813eb9207bdb273cbbb","656d9e5e2de4f984cfed7d4d","656d9eb36599eb729c0b0fcd","346","
            
        <div style=""text-align: center; position: fixed; top: 5vh; left: 40vw;"">
            <div style=""margin:0 auto; width: 20vw; top: 8vh; font-size: 2vw""> 
            <font color=""green""> Bonus : $1.45 </font>
            </div>
        </div>
    
            <div> Please press any key to continue to the next image.</div>
        ","arrowup","ITI","","","","","","",""
"","","","","","html-keyboard-response","211","194646","0.0-6.31-1.31","65495813eb9207bdb273cbbb","656d9e5e2de4f984cfed7d4d","656d9eb36599eb729c0b0fcd","null","
        
        <div style=""text-align: center; position: fixed; top: 5vh; left: 40vw;"">
            <div style=""margin:0 auto; width: 20vw; top: 8vh; font-size: 2vw""> 
            <font color=""green""> Bonus : $1.45 </font>
            </div>
        </div>
    
        <img class=""stim"" src=./stimuli//pack_shapes_1/cat_2/diff_5/ex_2_5_9.png></img>
    ","null","stimulus","","","","","","",""
"","","","","","html-keyboard-response","212","195648","0.0-6.31-2.31","65495813eb9207bdb273cbbb","656d9e5e2de4f984cfed7d4d","656d9eb36599eb729c0b0fcd","null","
        <div style=""text-align: center; position: fixed; top: 5vh; left: 40vw;"">
            <div style=""margin:0 auto; width: 20vw; top: 8vh; font-size: 2vw""> 
            <font color=""green""> Bonus : $1.45 </font>
            </div>
        </div>
    ","null","","","","","","","",""
"","","","","","html-keyboard-response","213","195938","0.0-6.31-3.31","65495813eb9207bdb273cbbb","656d9e5e2de4f984cfed7d4d","656d9eb36599eb729c0b0fcd","289","./stimuli//pack_shapes_1/cat_2/diff_5/ex_2_5_9.png","arrowright","response","ArrowRight","9","2","5","test","true",""
"","","","","","html-keyboard-response","214","197438","0.0-6.31-4.31","65495813eb9207bdb273cbbb","656d9e5e2de4f984cfed7d4d","656d9eb36599eb729c0b0fcd","null","<p> <font color=""green"" size=""5vw""> Correct category! </font> <br> <br> <font color=""green"" size=""8vw""> + $0.05 </font> </p>","null","feedback","","","","","","","1.5"
"","","","","","html-keyboard-response","215","197874","0.0-6.32-0.32","65495813eb9207bdb273cbbb","656d9e5e2de4f984cfed7d4d","656d9eb36599eb729c0b0fcd","435","
            
        <div style=""text-align: center; position: fixed; top: 5vh; left: 40vw;"">
            <div style=""margin:0 auto; width: 20vw; top: 8vh; font-size: 2vw""> 
            <font color=""green""> Bonus : $1.5 </font>
            </div>
        </div>
    
            <div> Please press any key to continue to the next image.</div>
        ","arrowup","ITI","","","","","","",""
"","","","","","html-keyboard-response","216","198475","0.0-6.32-1.32","65495813eb9207bdb273cbbb","656d9e5e2de4f984cfed7d4d","656d9eb36599eb729c0b0fcd","null","
        
        <div style=""text-align: center; position: fixed; top: 5vh; left: 40vw;"">
            <div style=""margin:0 auto; width: 20vw; top: 8vh; font-size: 2vw""> 
            <font color=""green""> Bonus : $1.5 </font>
            </div>
        </div>
    
        <img class=""stim"" src=./stimuli//pack_shapes_1/cat_2/diff_5/ex_2_5_5.png></img>
    ","null","stimulus","","","","","","",""
"","","","","","html-keyboard-response","217","199476","0.0-6.32-2.32","65495813eb9207bdb273cbbb","656d9e5e2de4f984cfed7d4d","656d9eb36599eb729c0b0fcd","null","
        <div style=""text-align: center; position: fixed; top: 5vh; left: 40vw;"">
            <div style=""margin:0 auto; width: 20vw; top: 8vh; font-size: 2vw""> 
            <font color=""green""> Bonus : $1.5 </font>
            </div>
        </div>
    ","null","","","","","","","",""
"","","","","","html-keyboard-response","218","199760","0.0-6.32-3.32","65495813eb9207bdb273cbbb","656d9e5e2de4f984cfed7d4d","656d9eb36599eb729c0b0fcd","283","./stimuli//pack_shapes_1/cat_2/diff_5/ex_2_5_5.png","arrowright","response","ArrowRight","5","2","5","test","true",""
"","","","","","html-keyboard-response","219","201261","0.0-6.32-4.32","65495813eb9207bdb273cbbb","656d9e5e2de4f984cfed7d4d","656d9eb36599eb729c0b0fcd","null","<p> <font color=""green"" size=""5vw""> Correct category! </font> <br> <br> <font color=""green"" size=""8vw""> + $0.05 </font> </p>","null","feedback","","","","","","","1.55"
"","","","","","html-keyboard-response","220","201574","0.0-6.33-0.33","65495813eb9207bdb273cbbb","656d9e5e2de4f984cfed7d4d","656d9eb36599eb729c0b0fcd","312","
            
        <div style=""text-align: center; position: fixed; top: 5vh; left: 40vw;"">
            <div style=""margin:0 auto; width: 20vw; top: 8vh; font-size: 2vw""> 
            <font color=""green""> Bonus : $1.55 </font>
            </div>
        </div>
    
            <div> Please press any key to continue to the next image.</div>
        ","arrowup","ITI","","","","","","",""
"","","","","","html-keyboard-response","221","202176","0.0-6.33-1.33","65495813eb9207bdb273cbbb","656d9e5e2de4f984cfed7d4d","656d9eb36599eb729c0b0fcd","null","
        
        <div style=""text-align: center; position: fixed; top: 5vh; left: 40vw;"">
            <div style=""margin:0 auto; width: 20vw; top: 8vh; font-size: 2vw""> 
            <font color=""green""> Bonus : $1.55 </font>
            </div>
        </div>
    
        <img class=""stim"" src=./stimuli//pack_shapes_1/cat_1/diff_5/ex_1_5_1.png></img>
    ","null","stimulus","","","","","","",""
"","","","","","html-keyboard-response","222","203177","0.0-6.33-2.33","65495813eb9207bdb273cbbb","656d9e5e2de4f984cfed7d4d","656d9eb36599eb729c0b0fcd","null","
        <div style=""text-align: center; position: fixed; top: 5vh; left: 40vw;"">
            <div style=""margin:0 auto; width: 20vw; top: 8vh; font-size: 2vw""> 
            <font color=""green""> Bonus : $1.55 </font>
            </div>
        </div>
    ","null","","","","","","","",""
"","","","","","html-keyboard-response","223","203437","0.0-6.33-3.33","65495813eb9207bdb273cbbb","656d9e5e2de4f984cfed7d4d","656d9eb36599eb729c0b0fcd","260","./stimuli//pack_shapes_1/cat_1/diff_5/ex_1_5_1.png","arrowright","response","ArrowLeft","1","1","5","test","false",""
"","","","","","html-keyboard-response","224","204938","0.0-6.33-4.33","65495813eb9207bdb273cbbb","656d9e5e2de4f984cfed7d4d","656d9eb36599eb729c0b0fcd","null","<p> <font color=""red"" size=""5vw""> Wrong category! </font> <br> <br> <font color=""red"" size=""8vw""> - $0.05 </font> </p>","null","feedback","","","","","","","1.5"
"","","","","","html-keyboard-response","225","205278","0.0-6.34-0.34","65495813eb9207bdb273cbbb","656d9e5e2de4f984cfed7d4d","656d9eb36599eb729c0b0fcd","337","
            
        <div style=""text-align: center; position: fixed; top: 5vh; left: 40vw;"">
            <div style=""margin:0 auto; width: 20vw; top: 8vh; font-size: 2vw""> 
            <font color=""green""> Bonus : $1.5 </font>
            </div>
        </div>
    
            <div> Please press any key to continue to the next image.</div>
        ","arrowup","ITI","","","","","","",""
"","","","","","html-keyboard-response","226","205879","0.0-6.34-1.34","65495813eb9207bdb273cbbb","656d9e5e2de4f984cfed7d4d","656d9eb36599eb729c0b0fcd","null","
        
        <div style=""text-align: center; position: fixed; top: 5vh; left: 40vw;"">
            <div style=""margin:0 auto; width: 20vw; top: 8vh; font-size: 2vw""> 
            <font color=""green""> Bonus : $1.5 </font>
            </div>
        </div>
    
        <img class=""stim"" src=./stimuli//pack_shapes_1/cat_1/diff_5/ex_1_5_5.png></img>
    ","null","stimulus","","","","","","",""
"","","","","","html-keyboard-response","227","206880","0.0-6.34-2.34","65495813eb9207bdb273cbbb","656d9e5e2de4f984cfed7d4d","656d9eb36599eb729c0b0fcd","null","
        <div style=""text-align: center; position: fixed; top: 5vh; left: 40vw;"">
            <div style=""margin:0 auto; width: 20vw; top: 8vh; font-size: 2vw""> 
            <font color=""green""> Bonus : $1.5 </font>
            </div>
        </div>
    ","null","","","","","","","",""
"","","","","","html-keyboard-response","228","207151","0.0-6.34-3.34","65495813eb9207bdb273cbbb","656d9e5e2de4f984cfed7d4d","656d9eb36599eb729c0b0fcd","270","./stimuli//pack_shapes_1/cat_1/diff_5/ex_1_5_5.png","arrowleft","response","ArrowLeft","5","1","5","test","true",""
