"success","timeout","failed_images","failed_audio","failed_video","trial_type","trial_index","time_elapsed","internal_node_id","subject_id","study_id","session_id","rt","stimulus","response","task","correct_response","exemplar_ID","category","difficulty","phase","correct","bonus"
"true","false","[]","[]","[]","preload","0","5","0.0-0.0","5fc2bbfa60e49e4eecc5d50b","6579d0c5e56c6e1626038f86","6579d135e56c6e1626038fa2","","","","","","","","","","",""
"","","","","","html-keyboard-response","1","1695","0.0-1.0","5fc2bbfa60e49e4eecc5d50b","6579d0c5e56c6e1626038f86","6579d135e56c6e1626038fa2","1687","Welcome to the Category Learning experiment! Press any key to continue."," ","welcome","","","","","","",""
"","","","","","html-keyboard-response","2","20256","0.0-2.0","5fc2bbfa60e49e4eecc5d50b","6579d0c5e56c6e1626038f86","6579d135e56c6e1626038fa2","18559","
            <p>You will be shown movies. Each movie contains a shape that initially is hidden and is gradually revealed. 
            <br> Some shapes are category A, some are category B.
            <br> You will not know in advance which category each shape belongs to.</p>
            <p> While you watch a movie, you have to guess the category that the shape you see belongs to <b>(left arrow for category A, right arrow for category B)</b></p>
            <p> After you choose, the screen will show you whether you were correct or not.</p>
            <p>Press any key to continue.</p>
            "," ","introduction_1","","","","","","",""
"","","","","","html-keyboard-response","3","34650","0.0-3.0","5fc2bbfa60e49e4eecc5d50b","6579d0c5e56c6e1626038f86","6579d135e56c6e1626038fa2","14393","
              <p><b>You will receive a bonus payment for each correct answer! The faster you answer the higher the bonus will be!</b></p>
              <p> So you can increase your bonus by guessing as quickly and accurately as possible.</p>
              <p><b>You will lose $0.05 from your bonus payment for each incorrect answer! The bonus can not become less than $0.</b> </p>
              <p>Press any key to continue.</p>
              "," ","introduction_2","","","","","","",""
"","","","","","html-keyboard-response","4","40619","0.0-4.0","5fc2bbfa60e49e4eecc5d50b","6579d0c5e56c6e1626038f86","6579d135e56c6e1626038fa2","5967","
            <p> <b>The first 10 movies are a practice round that will not count towards your bonus payment.</b></p>
            <p> You will be notified when practice finishes and the test begins. </p>
            <p> Press any key to begin the practice round.</p>
            "," ","introduction_3","","","","","","",""
"","","","","","html-keyboard-response","5","42218","0.0-5.0-0.0","5fc2bbfa60e49e4eecc5d50b","6579d0c5e56c6e1626038f86","6579d135e56c6e1626038fa2","1596","
            
        <div style=""text-align: center; position: fixed; top: 5vh; left: 40vw;"">
            <div style=""margin:0 auto; width: 20vw; top: 8vh; font-size: 2vw""> 
            <font color=""green""> Bonus : $0 </font>
            </div>
        </div>
    
            <div> Please press any key to continue to the next movie.</div>
        "," ","ITI","","","","","","",""
"","","","","","html-keyboard-response","6","47137","0.0-5.0-1.0","5fc2bbfa60e49e4eecc5d50b","6579d0c5e56c6e1626038f86","6579d135e56c6e1626038fa2","4913","./stimuli//pack_morph_shapes_1/cat_1/diff_1/ex_1_1_16.mp4","arrowleft","response","ArrowLeft","16","1","1","train","true",""
"","","","","","html-keyboard-response","7","48652","0.0-5.0-2.0","5fc2bbfa60e49e4eecc5d50b","6579d0c5e56c6e1626038f86","6579d135e56c6e1626038fa2","null","<p> <font color=""green"" size=""5vw""> Correct category! </font> </p>","null","feedback","","","","","","","0"
"","","","","","html-keyboard-response","8","49851","0.0-5.0-0.1","5fc2bbfa60e49e4eecc5d50b","6579d0c5e56c6e1626038f86","6579d135e56c6e1626038fa2","1197","
            
        <div style=""text-align: center; position: fixed; top: 5vh; left: 40vw;"">
            <div style=""margin:0 auto; width: 20vw; top: 8vh; font-size: 2vw""> 
            <font color=""green""> Bonus : $0 </font>
            </div>
        </div>
    
            <div> Please press any key to continue to the next movie.</div>
        ","arrowup","ITI","","","","","","",""
"","","","","","html-keyboard-response","9","53999","0.0-5.0-1.1","5fc2bbfa60e49e4eecc5d50b","6579d0c5e56c6e1626038f86","6579d135e56c6e1626038fa2","4144","./stimuli//pack_morph_shapes_1/cat_2/diff_2/ex_2_2_16.mp4","arrowleft","response","ArrowRight","16","2","2","train","false",""
"","","","","","html-keyboard-response","10","55509","0.0-5.0-2.1","5fc2bbfa60e49e4eecc5d50b","6579d0c5e56c6e1626038f86","6579d135e56c6e1626038fa2","null","<p> <font color=""red"" size=""5vw""> Wrong category! </font> </p>","null","feedback","","","","","","","0"
"","","","","","html-keyboard-response","11","56270","0.0-5.0-0.2","5fc2bbfa60e49e4eecc5d50b","6579d0c5e56c6e1626038f86","6579d135e56c6e1626038fa2","759","
            
        <div style=""text-align: center; position: fixed; top: 5vh; left: 40vw;"">
            <div style=""margin:0 auto; width: 20vw; top: 8vh; font-size: 2vw""> 
            <font color=""green""> Bonus : $0 </font>
            </div>
        </div>
    
            <div> Please press any key to continue to the next movie.</div>
        ","arrowleft","ITI","","","","","","",""
"","","","","","html-keyboard-response","12","60100","0.0-5.0-1.2","5fc2bbfa60e49e4eecc5d50b","6579d0c5e56c6e1626038f86","6579d135e56c6e1626038fa2","3827","./stimuli//pack_morph_shapes_1/cat_2/diff_2/ex_2_2_7.mp4","arrowleft","response","ArrowRight","7","2","2","train","false",""
"","","","","","html-keyboard-response","13","61605","0.0-5.0-2.2","5fc2bbfa60e49e4eecc5d50b","6579d0c5e56c6e1626038f86","6579d135e56c6e1626038fa2","null","<p> <font color=""red"" size=""5vw""> Wrong category! </font> </p>","null","feedback","","","","","","","0"
"","","","","","html-keyboard-response","14","62635","0.0-5.0-0.3","5fc2bbfa60e49e4eecc5d50b","6579d0c5e56c6e1626038f86","6579d135e56c6e1626038fa2","1029","
            
        <div style=""text-align: center; position: fixed; top: 5vh; left: 40vw;"">
            <div style=""margin:0 auto; width: 20vw; top: 8vh; font-size: 2vw""> 
            <font color=""green""> Bonus : $0 </font>
            </div>
        </div>
    
            <div> Please press any key to continue to the next movie.</div>
        "," ","ITI","","","","","","",""
"","","","","","html-keyboard-response","15","65496","0.0-5.0-1.3","5fc2bbfa60e49e4eecc5d50b","6579d0c5e56c6e1626038f86","6579d135e56c6e1626038fa2","2857","./stimuli//pack_morph_shapes_1/cat_1/diff_2/ex_1_2_6.mp4","arrowleft","response","ArrowLeft","6","1","2","train","true",""
"","","","","","html-keyboard-response","16","67001","0.0-5.0-2.3","5fc2bbfa60e49e4eecc5d50b","6579d0c5e56c6e1626038f86","6579d135e56c6e1626038fa2","null","<p> <font color=""green"" size=""5vw""> Correct category! </font> </p>","null","feedback","","","","","","","0"
"","","","","","html-keyboard-response","17","67099","0.0-5.0-0.4","5fc2bbfa60e49e4eecc5d50b","6579d0c5e56c6e1626038f86","6579d135e56c6e1626038fa2","98","
            
        <div style=""text-align: center; position: fixed; top: 5vh; left: 40vw;"">
            <div style=""margin:0 auto; width: 20vw; top: 8vh; font-size: 2vw""> 
            <font color=""green""> Bonus : $0 </font>
            </div>
        </div>
    
            <div> Please press any key to continue to the next movie.</div>
        ","arrowup","ITI","","","","","","",""
"","","","","","html-keyboard-response","18","67714","0.0-5.0-1.4","5fc2bbfa60e49e4eecc5d50b","6579d0c5e56c6e1626038f86","6579d135e56c6e1626038fa2","612","./stimuli//pack_morph_shapes_1/cat_1/diff_1/ex_1_1_7.mp4","arrowright","response","ArrowLeft","7","1","1","train","false",""
"","","","","","html-keyboard-response","19","69224","0.0-5.0-2.4","5fc2bbfa60e49e4eecc5d50b","6579d0c5e56c6e1626038f86","6579d135e56c6e1626038fa2","null","<p> <font color=""red"" size=""5vw""> Wrong category! </font> </p>","null","feedback","","","","","","","0"
"","","","","","html-keyboard-response","20","69507","0.0-5.0-0.5","5fc2bbfa60e49e4eecc5d50b","6579d0c5e56c6e1626038f86","6579d135e56c6e1626038fa2","281","
            
        <div style=""text-align: center; position: fixed; top: 5vh; left: 40vw;"">
            <div style=""margin:0 auto; width: 20vw; top: 8vh; font-size: 2vw""> 
            <font color=""green""> Bonus : $0 </font>
            </div>
        </div>
    
            <div> Please press any key to continue to the next movie.</div>
        ","arrowup","ITI","","","","","","",""
"","","","","","html-keyboard-response","21","69821","0.0-5.0-1.5","5fc2bbfa60e49e4eecc5d50b","6579d0c5e56c6e1626038f86","6579d135e56c6e1626038fa2","311","./stimuli//pack_morph_shapes_1/cat_2/diff_1/ex_2_1_9.mp4","arrowleft","response","ArrowRight","9","2","1","train","false",""
"","","","","","html-keyboard-response","22","71328","0.0-5.0-2.5","5fc2bbfa60e49e4eecc5d50b","6579d0c5e56c6e1626038f86","6579d135e56c6e1626038fa2","null","<p> <font color=""red"" size=""5vw""> Wrong category! </font> </p>","null","feedback","","","","","","","0"
"","","","","","html-keyboard-response","23","71698","0.0-5.0-0.6","5fc2bbfa60e49e4eecc5d50b","6579d0c5e56c6e1626038f86","6579d135e56c6e1626038fa2","369","
            
        <div style=""text-align: center; position: fixed; top: 5vh; left: 40vw;"">
            <div style=""margin:0 auto; width: 20vw; top: 8vh; font-size: 2vw""> 
            <font color=""green""> Bonus : $0 </font>
            </div>
        </div>
    
            <div> Please press any key to continue to the next movie.</div>
        ","arrowup","ITI","","","","","","",""
"","","","","","html-keyboard-response","24","72068","0.0-5.0-1.6","5fc2bbfa60e49e4eecc5d50b","6579d0c5e56c6e1626038f86","6579d135e56c6e1626038fa2","367","./stimuli//pack_morph_shapes_1/cat_1/diff_1/ex_1_1_9.mp4","arrowleft","response","ArrowLeft","9","1","1","train","true",""
"","","","","","html-keyboard-response","25","73582","0.0-5.0-2.6","5fc2bbfa60e49e4eecc5d50b","6579d0c5e56c6e1626038f86","6579d135e56c6e1626038fa2","null","<p> <font color=""green"" size=""5vw""> Correct category! </font> </p>","null","feedback","","","","","","","0"
"","","","","","html-keyboard-response","26","73912","0.0-5.0-0.7","5fc2bbfa60e49e4eecc5d50b","6579d0c5e56c6e1626038f86","6579d135e56c6e1626038fa2","329","
            
        <div style=""text-align: center; position: fixed; top: 5vh; left: 40vw;"">
            <div style=""margin:0 auto; width: 20vw; top: 8vh; font-size: 2vw""> 
            <font color=""green""> Bonus : $0 </font>
            </div>
        </div>
    
            <div> Please press any key to continue to the next movie.</div>
        ","arrowup","ITI","","","","","","",""
"","","","","","html-keyboard-response","27","74232","0.0-5.0-1.7","5fc2bbfa60e49e4eecc5d50b","6579d0c5e56c6e1626038f86","6579d135e56c6e1626038fa2","316","./stimuli//pack_morph_shapes_1/cat_1/diff_2/ex_1_2_13.mp4","arrowright","response","ArrowLeft","13","1","2","train","false",""
"","","","","","html-keyboard-response","28","75738","0.0-5.0-2.7","5fc2bbfa60e49e4eecc5d50b","6579d0c5e56c6e1626038f86","6579d135e56c6e1626038fa2","null","<p> <font color=""red"" size=""5vw""> Wrong category! </font> </p>","null","feedback","","","","","","","0"
"","","","","","html-keyboard-response","29","76037","0.0-5.0-0.8","5fc2bbfa60e49e4eecc5d50b","6579d0c5e56c6e1626038f86","6579d135e56c6e1626038fa2","298","
            
        <div style=""text-align: center; position: fixed; top: 5vh; left: 40vw;"">
            <div style=""margin:0 auto; width: 20vw; top: 8vh; font-size: 2vw""> 
            <font color=""green""> Bonus : $0 </font>
            </div>
        </div>
    
            <div> Please press any key to continue to the next movie.</div>
        ","arrowup","ITI","","","","","","",""
"","","","","","html-keyboard-response","30","76326","0.0-5.0-1.8","5fc2bbfa60e49e4eecc5d50b","6579d0c5e56c6e1626038f86","6579d135e56c6e1626038fa2","286","./stimuli//pack_morph_shapes_1/cat_2/diff_1/ex_2_1_7.mp4","arrowleft","response","ArrowRight","7","2","1","train","false",""
"","","","","","html-keyboard-response","31","77836","0.0-5.0-2.8","5fc2bbfa60e49e4eecc5d50b","6579d0c5e56c6e1626038f86","6579d135e56c6e1626038fa2","null","<p> <font color=""red"" size=""5vw""> Wrong category! </font> </p>","null","feedback","","","","","","","0"
"","","","","","html-keyboard-response","32","78091","0.0-5.0-0.9","5fc2bbfa60e49e4eecc5d50b","6579d0c5e56c6e1626038f86","6579d135e56c6e1626038fa2","254","
            
        <div style=""text-align: center; position: fixed; top: 5vh; left: 40vw;"">
            <div style=""margin:0 auto; width: 20vw; top: 8vh; font-size: 2vw""> 
            <font color=""green""> Bonus : $0 </font>
            </div>
        </div>
    
            <div> Please press any key to continue to the next movie.</div>
        ","arrowup","ITI","","","","","","",""
"","","","","","html-keyboard-response","33","78315","0.0-5.0-1.9","5fc2bbfa60e49e4eecc5d50b","6579d0c5e56c6e1626038f86","6579d135e56c6e1626038fa2","220","./stimuli//pack_morph_shapes_1/cat_2/diff_1/ex_2_1_2.mp4","arrowleft","response","ArrowRight","2","2","1","train","false",""
"","","","","","html-keyboard-response","34","79823","0.0-5.0-2.9","5fc2bbfa60e49e4eecc5d50b","6579d0c5e56c6e1626038f86","6579d135e56c6e1626038fa2","null","<p> <font color=""red"" size=""5vw""> Wrong category! </font> </p>","null","feedback","","","","","","","0"
"","","","","","html-keyboard-response","35","80119","0.0-6.0","5fc2bbfa60e49e4eecc5d50b","6579d0c5e56c6e1626038f86","6579d135e56c6e1626038fa2","295","
            <b> <p> The practice round has finished.</p>
            <b> <p> For the rest of the experiment you will receive a bonus payment for each correct answer, which will be higher the faster you answer!</b></p>
            <b> <p> Also you will lose $0.05 from your bonus payment for each incorrect answer!</p>
            <p> Press any key to begin the test. </p>
            ","arrowup","intermission","","","","","","",""
"","","","","","html-keyboard-response","36","80918","0.0-7.0-0.0","5fc2bbfa60e49e4eecc5d50b","6579d0c5e56c6e1626038f86","6579d135e56c6e1626038fa2","798","
            
        <div style=""text-align: center; position: fixed; top: 5vh; left: 40vw;"">
            <div style=""margin:0 auto; width: 20vw; top: 8vh; font-size: 2vw""> 
            <font color=""green""> Bonus : $0 </font>
            </div>
        </div>
    
            <div> Please press any key to continue to the next movie.</div>
        ","arrowleft","ITI","","","","","","",""
"","","","","","html-keyboard-response","37","81596","0.0-7.0-1.0","5fc2bbfa60e49e4eecc5d50b","6579d0c5e56c6e1626038f86","6579d135e56c6e1626038fa2","672","./stimuli//pack_morph_shapes_1/cat_2/diff_1/ex_2_1_15.mp4","arrowleft","response","ArrowRight","15","2","1","test","false",""
"","","","","","html-keyboard-response","38","83104","0.0-7.0-2.0","5fc2bbfa60e49e4eecc5d50b","6579d0c5e56c6e1626038f86","6579d135e56c6e1626038fa2","null","<p> <font color=""red"" size=""5vw""> Wrong category! </font> </p>","null","feedback","","","","","","","0"
"","","","","","html-keyboard-response","39","83526","0.0-7.1-0.1","5fc2bbfa60e49e4eecc5d50b","6579d0c5e56c6e1626038f86","6579d135e56c6e1626038fa2","420","
            
        <div style=""text-align: center; position: fixed; top: 5vh; left: 40vw;"">
            <div style=""margin:0 auto; width: 20vw; top: 8vh; font-size: 2vw""> 
            <font color=""green""> Bonus : $0 </font>
            </div>
        </div>
    
            <div> Please press any key to continue to the next movie.</div>
        ","arrowup","ITI","","","","","","",""
"","","","","","html-keyboard-response","40","83700","0.0-7.1-1.1","5fc2bbfa60e49e4eecc5d50b","6579d0c5e56c6e1626038f86","6579d135e56c6e1626038fa2","170","./stimuli//pack_morph_shapes_1/cat_1/diff_1/ex_1_1_11.mp4","arrowleft","response","ArrowLeft","11","1","1","test","true",""
"","","","","","html-keyboard-response","41","85215","0.0-7.1-2.1","5fc2bbfa60e49e4eecc5d50b","6579d0c5e56c6e1626038f86","6579d135e56c6e1626038fa2","null","<p> <font color=""green"" size=""5vw""> Correct category! </font> <br> <br> <font color=""green"" size=""8vw""> + $0.1 </font> </p>","null","feedback","","","","","","","0.1"
"","","","","","html-keyboard-response","42","85534","0.0-7.2-0.2","5fc2bbfa60e49e4eecc5d50b","6579d0c5e56c6e1626038f86","6579d135e56c6e1626038fa2","318","
            
        <div style=""text-align: center; position: fixed; top: 5vh; left: 40vw;"">
            <div style=""margin:0 auto; width: 20vw; top: 8vh; font-size: 2vw""> 
            <font color=""green""> Bonus : $0.1 </font>
            </div>
        </div>
    
            <div> Please press any key to continue to the next movie.</div>
        ","arrowup","ITI","","","","","","",""
"","","","","","html-keyboard-response","43","85772","0.0-7.2-1.2","5fc2bbfa60e49e4eecc5d50b","6579d0c5e56c6e1626038f86","6579d135e56c6e1626038fa2","234","./stimuli//pack_morph_shapes_1/cat_2/diff_1/ex_2_1_8.mp4","arrowleft","response","ArrowRight","8","2","1","test","false",""
"","","","","","html-keyboard-response","44","87281","0.0-7.2-2.2","5fc2bbfa60e49e4eecc5d50b","6579d0c5e56c6e1626038f86","6579d135e56c6e1626038fa2","null","<p> <font color=""red"" size=""5vw""> Wrong category! </font> <br> <br> <font color=""red"" size=""8vw""> - $0.05 </font> </p>","null","feedback","","","","","","","0.05"
"","","","","","html-keyboard-response","45","87561","0.0-7.3-0.3","5fc2bbfa60e49e4eecc5d50b","6579d0c5e56c6e1626038f86","6579d135e56c6e1626038fa2","279","
            
        <div style=""text-align: center; position: fixed; top: 5vh; left: 40vw;"">
            <div style=""margin:0 auto; width: 20vw; top: 8vh; font-size: 2vw""> 
            <font color=""green""> Bonus : $0.05 </font>
            </div>
        </div>
    
            <div> Please press any key to continue to the next movie.</div>
        ","arrowup","ITI","","","","","","",""
"","","","","","html-keyboard-response","46","87789","0.0-7.3-1.3","5fc2bbfa60e49e4eecc5d50b","6579d0c5e56c6e1626038f86","6579d135e56c6e1626038fa2","224","./stimuli//pack_morph_shapes_1/cat_1/diff_1/ex_1_1_3.mp4","arrowleft","response","ArrowLeft","3","1","1","test","true",""
"","","","","","html-keyboard-response","47","89296","0.0-7.3-2.3","5fc2bbfa60e49e4eecc5d50b","6579d0c5e56c6e1626038f86","6579d135e56c6e1626038fa2","null","<p> <font color=""green"" size=""5vw""> Correct category! </font> <br> <br> <font color=""green"" size=""8vw""> + $0.1 </font> </p>","null","feedback","","","","","","","0.15"
"","","","","","html-keyboard-response","48","89562","0.0-7.4-0.4","5fc2bbfa60e49e4eecc5d50b","6579d0c5e56c6e1626038f86","6579d135e56c6e1626038fa2","264","
            
        <div style=""text-align: center; position: fixed; top: 5vh; left: 40vw;"">
            <div style=""margin:0 auto; width: 20vw; top: 8vh; font-size: 2vw""> 
            <font color=""green""> Bonus : $0.15 </font>
            </div>
        </div>
    
            <div> Please press any key to continue to the next movie.</div>
        ","arrowup","ITI","","","","","","",""
"","","","","","html-keyboard-response","49","89761","0.0-7.4-1.4","5fc2bbfa60e49e4eecc5d50b","6579d0c5e56c6e1626038f86","6579d135e56c6e1626038fa2","195","./stimuli//pack_morph_shapes_1/cat_1/diff_1/ex_1_1_11.mp4","arrowleft","response","ArrowLeft","11","1","1","test","true",""
"","","","","","html-keyboard-response","50","91269","0.0-7.4-2.4","5fc2bbfa60e49e4eecc5d50b","6579d0c5e56c6e1626038f86","6579d135e56c6e1626038fa2","null","<p> <font color=""green"" size=""5vw""> Correct category! </font> <br> <br> <font color=""green"" size=""8vw""> + $0.1 </font> </p>","null","feedback","","","","","","","0.25"
"","","","","","html-keyboard-response","51","91591","0.0-7.5-0.5","5fc2bbfa60e49e4eecc5d50b","6579d0c5e56c6e1626038f86","6579d135e56c6e1626038fa2","322","
            
        <div style=""text-align: center; position: fixed; top: 5vh; left: 40vw;"">
            <div style=""margin:0 auto; width: 20vw; top: 8vh; font-size: 2vw""> 
            <font color=""green""> Bonus : $0.25 </font>
            </div>
        </div>
    
            <div> Please press any key to continue to the next movie.</div>
        ","arrowup","ITI","","","","","","",""
"","","","","","html-keyboard-response","52","91755","0.0-7.5-1.5","5fc2bbfa60e49e4eecc5d50b","6579d0c5e56c6e1626038f86","6579d135e56c6e1626038fa2","158","./stimuli//pack_morph_shapes_1/cat_2/diff_1/ex_2_1_13.mp4","arrowright","response","ArrowRight","13","2","1","test","true",""
"","","","","","html-keyboard-response","53","93262","0.0-7.5-2.5","5fc2bbfa60e49e4eecc5d50b","6579d0c5e56c6e1626038f86","6579d135e56c6e1626038fa2","null","<p> <font color=""green"" size=""5vw""> Correct category! </font> <br> <br> <font color=""green"" size=""8vw""> + $0.1 </font> </p>","null","feedback","","","","","","","0.35"
"","","","","","html-keyboard-response","54","93559","0.0-7.6-0.6","5fc2bbfa60e49e4eecc5d50b","6579d0c5e56c6e1626038f86","6579d135e56c6e1626038fa2","296","
            
        <div style=""text-align: center; position: fixed; top: 5vh; left: 40vw;"">
            <div style=""margin:0 auto; width: 20vw; top: 8vh; font-size: 2vw""> 
            <font color=""green""> Bonus : $0.35 </font>
            </div>
        </div>
    
            <div> Please press any key to continue to the next movie.</div>
        ","arrowup","ITI","","","","","","",""
"","","","","","html-keyboard-response","55","93732","0.0-7.6-1.6","5fc2bbfa60e49e4eecc5d50b","6579d0c5e56c6e1626038f86","6579d135e56c6e1626038fa2","172","./stimuli//pack_morph_shapes_1/cat_2/diff_2/ex_2_2_5.mp4","arrowleft","response","ArrowRight","5","2","2","test","false",""
"","","","","","html-keyboard-response","56","95239","0.0-7.6-2.6","5fc2bbfa60e49e4eecc5d50b","6579d0c5e56c6e1626038f86","6579d135e56c6e1626038fa2","null","<p> <font color=""red"" size=""5vw""> Wrong category! </font> <br> <br> <font color=""red"" size=""8vw""> - $0.05 </font> </p>","null","feedback","","","","","","","0.3"
"","","","","","html-keyboard-response","57","95527","0.0-7.7-0.7","5fc2bbfa60e49e4eecc5d50b","6579d0c5e56c6e1626038f86","6579d135e56c6e1626038fa2","287","
            
        <div style=""text-align: center; position: fixed; top: 5vh; left: 40vw;"">
            <div style=""margin:0 auto; width: 20vw; top: 8vh; font-size: 2vw""> 
            <font color=""green""> Bonus : $0.3 </font>
            </div>
        </div>
    
            <div> Please press any key to continue to the next movie.</div>
        ","arrowup","ITI","","","","","","",""
"","","","","","html-keyboard-response","58","95700","0.0-7.7-1.7","5fc2bbfa60e49e4eecc5d50b","6579d0c5e56c6e1626038f86","6579d135e56c6e1626038fa2","168","./stimuli//pack_morph_shapes_1/cat_1/diff_2/ex_1_2_14.mp4","arrowleft","response","ArrowLeft","14","1","2","test","true",""
"","","","","","html-keyboard-response","59","97204","0.0-7.7-2.7","5fc2bbfa60e49e4eecc5d50b","6579d0c5e56c6e1626038f86","6579d135e56c6e1626038fa2","null","<p> <font color=""green"" size=""5vw""> Correct category! </font> <br> <br> <font color=""green"" size=""8vw""> + $0.1 </font> </p>","null","feedback","","","","","","","0.4"
"","","","","","html-keyboard-response","60","97576","0.0-7.8-0.8","5fc2bbfa60e49e4eecc5d50b","6579d0c5e56c6e1626038f86","6579d135e56c6e1626038fa2","371","
            
        <div style=""text-align: center; position: fixed; top: 5vh; left: 40vw;"">
            <div style=""margin:0 auto; width: 20vw; top: 8vh; font-size: 2vw""> 
            <font color=""green""> Bonus : $0.4 </font>
            </div>
        </div>
    
            <div> Please press any key to continue to the next movie.</div>
        ","arrowup","ITI","","","","","","",""
"","","","","","html-keyboard-response","61","97879","0.0-7.8-1.8","5fc2bbfa60e49e4eecc5d50b","6579d0c5e56c6e1626038f86","6579d135e56c6e1626038fa2","298","./stimuli//pack_morph_shapes_1/cat_1/diff_2/ex_1_2_17.mp4","arrowleft","response","ArrowLeft","17","1","2","test","true",""
"","","","","","html-keyboard-response","62","99386","0.0-7.8-2.8","5fc2bbfa60e49e4eecc5d50b","6579d0c5e56c6e1626038f86","6579d135e56c6e1626038fa2","null","<p> <font color=""green"" size=""5vw""> Correct category! </font> <br> <br> <font color=""green"" size=""8vw""> + $0.09 </font> </p>","null","feedback","","","","","","","0.49"
"","","","","","html-keyboard-response","63","99894","0.0-7.9-0.9","5fc2bbfa60e49e4eecc5d50b","6579d0c5e56c6e1626038f86","6579d135e56c6e1626038fa2","507","
            
        <div style=""text-align: center; position: fixed; top: 5vh; left: 40vw;"">
            <div style=""margin:0 auto; width: 20vw; top: 8vh; font-size: 2vw""> 
            <font color=""green""> Bonus : $0.49 </font>
            </div>
        </div>
    
            <div> Please press any key to continue to the next movie.</div>
        ","arrowup","ITI","","","","","","",""
"","","","","","html-keyboard-response","64","100073","0.0-7.9-1.9","5fc2bbfa60e49e4eecc5d50b","6579d0c5e56c6e1626038f86","6579d135e56c6e1626038fa2","176","./stimuli//pack_morph_shapes_1/cat_2/diff_2/ex_2_2_14.mp4","arrowleft","response","ArrowRight","14","2","2","test","false",""
"","","","","","html-keyboard-response","65","101574","0.0-7.9-2.9","5fc2bbfa60e49e4eecc5d50b","6579d0c5e56c6e1626038f86","6579d135e56c6e1626038fa2","null","<p> <font color=""red"" size=""5vw""> Wrong category! </font> <br> <br> <font color=""red"" size=""8vw""> - $0.05 </font> </p>","null","feedback","","","","","","","0.44"
"","","","","","html-keyboard-response","66","101745","0.0-7.10-0.10","5fc2bbfa60e49e4eecc5d50b","6579d0c5e56c6e1626038f86","6579d135e56c6e1626038fa2","170","
            
        <div style=""text-align: center; position: fixed; top: 5vh; left: 40vw;"">
            <div style=""margin:0 auto; width: 20vw; top: 8vh; font-size: 2vw""> 
            <font color=""green""> Bonus : $0.44 </font>
            </div>
        </div>
    
            <div> Please press any key to continue to the next movie.</div>
        ","arrowup","ITI","","","","","","",""
"","","","","","html-keyboard-response","67","101936","0.0-7.10-1.10","5fc2bbfa60e49e4eecc5d50b","6579d0c5e56c6e1626038f86","6579d135e56c6e1626038fa2","187","./stimuli//pack_morph_shapes_1/cat_1/diff_2/ex_1_2_7.mp4","arrowleft","response","ArrowLeft","7","1","2","test","true",""
"","","","","","html-keyboard-response","68","103444","0.0-7.10-2.10","5fc2bbfa60e49e4eecc5d50b","6579d0c5e56c6e1626038f86","6579d135e56c6e1626038fa2","null","<p> <font color=""green"" size=""5vw""> Correct category! </font> <br> <br> <font color=""green"" size=""8vw""> + $0.1 </font> </p>","null","feedback","","","","","","","0.54"
"","","","","","html-keyboard-response","69","103704","0.0-7.11-0.11","5fc2bbfa60e49e4eecc5d50b","6579d0c5e56c6e1626038f86","6579d135e56c6e1626038fa2","258","
            
        <div style=""text-align: center; position: fixed; top: 5vh; left: 40vw;"">
            <div style=""margin:0 auto; width: 20vw; top: 8vh; font-size: 2vw""> 
            <font color=""green""> Bonus : $0.54 </font>
            </div>
        </div>
    
            <div> Please press any key to continue to the next movie.</div>
        ","arrowup","ITI","","","","","","",""
"","","","","","html-keyboard-response","70","103879","0.0-7.11-1.11","5fc2bbfa60e49e4eecc5d50b","6579d0c5e56c6e1626038f86","6579d135e56c6e1626038fa2","172","./stimuli//pack_morph_shapes_1/cat_1/diff_1/ex_1_1_3.mp4","arrowleft","response","ArrowLeft","3","1","1","test","true",""
"","","","","","html-keyboard-response","71","105386","0.0-7.11-2.11","5fc2bbfa60e49e4eecc5d50b","6579d0c5e56c6e1626038f86","6579d135e56c6e1626038fa2","null","<p> <font color=""green"" size=""5vw""> Correct category! </font> <br> <br> <font color=""green"" size=""8vw""> + $0.1 </font> </p>","null","feedback","","","","","","","0.64"
"","","","","","html-keyboard-response","72","105684","0.0-7.12-0.12","5fc2bbfa60e49e4eecc5d50b","6579d0c5e56c6e1626038f86","6579d135e56c6e1626038fa2","297","
            
        <div style=""text-align: center; position: fixed; top: 5vh; left: 40vw;"">
            <div style=""margin:0 auto; width: 20vw; top: 8vh; font-size: 2vw""> 
            <font color=""green""> Bonus : $0.64 </font>
            </div>
        </div>
    
            <div> Please press any key to continue to the next movie.</div>
        ","arrowup","ITI","","","","","","",""
"","","","","","html-keyboard-response","73","105920","0.0-7.12-1.12","5fc2bbfa60e49e4eecc5d50b","6579d0c5e56c6e1626038f86","6579d135e56c6e1626038fa2","233","./stimuli//pack_morph_shapes_1/cat_1/diff_1/ex_1_1_11.mp4","arrowleft","response","ArrowLeft","11","1","1","test","true",""
"","","","","","html-keyboard-response","74","107434","0.0-7.12-2.12","5fc2bbfa60e49e4eecc5d50b","6579d0c5e56c6e1626038f86","6579d135e56c6e1626038fa2","null","<p> <font color=""green"" size=""5vw""> Correct category! </font> <br> <br> <font color=""green"" size=""8vw""> + $0.1 </font> </p>","null","feedback","","","","","","","0.74"
"","","","","","html-keyboard-response","75","107726","0.0-7.13-0.13","5fc2bbfa60e49e4eecc5d50b","6579d0c5e56c6e1626038f86","6579d135e56c6e1626038fa2","292","
            
        <div style=""text-align: center; position: fixed; top: 5vh; left: 40vw;"">
            <div style=""margin:0 auto; width: 20vw; top: 8vh; font-size: 2vw""> 
            <font color=""green""> Bonus : $0.74 </font>
            </div>
        </div>
    
            <div> Please press any key to continue to the next movie.</div>
        ","arrowup","ITI","","","","","","",""
"","","","","","html-keyboard-response","76","107887","0.0-7.13-1.13","5fc2bbfa60e49e4eecc5d50b","6579d0c5e56c6e1626038f86","6579d135e56c6e1626038fa2","157","./stimuli//pack_morph_shapes_1/cat_1/diff_1/ex_1_1_14.mp4","arrowright","response","ArrowLeft","14","1","1","test","false",""
"","","","","","html-keyboard-response","77","109399","0.0-7.13-2.13","5fc2bbfa60e49e4eecc5d50b","6579d0c5e56c6e1626038f86","6579d135e56c6e1626038fa2","null","<p> <font color=""red"" size=""5vw""> Wrong category! </font> <br> <br> <font color=""red"" size=""8vw""> - $0.05 </font> </p>","null","feedback","","","","","","","0.69"
"","","","","","html-keyboard-response","78","109469","0.0-7.14-0.14","5fc2bbfa60e49e4eecc5d50b","6579d0c5e56c6e1626038f86","6579d135e56c6e1626038fa2","69","
            
        <div style=""text-align: center; position: fixed; top: 5vh; left: 40vw;"">
            <div style=""margin:0 auto; width: 20vw; top: 8vh; font-size: 2vw""> 
            <font color=""green""> Bonus : $0.69 </font>
            </div>
        </div>
    
            <div> Please press any key to continue to the next movie.</div>
        ","arrowup","ITI","","","","","","",""
"","","","","","html-keyboard-response","79","109974","0.0-7.14-1.14","5fc2bbfa60e49e4eecc5d50b","6579d0c5e56c6e1626038f86","6579d135e56c6e1626038fa2","501","./stimuli//pack_morph_shapes_1/cat_2/diff_1/ex_2_1_6.mp4","arrowleft","response","ArrowRight","6","2","1","test","false",""
"","","","","","html-keyboard-response","80","111477","0.0-7.14-2.14","5fc2bbfa60e49e4eecc5d50b","6579d0c5e56c6e1626038f86","6579d135e56c6e1626038fa2","null","<p> <font color=""red"" size=""5vw""> Wrong category! </font> <br> <br> <font color=""red"" size=""8vw""> - $0.05 </font> </p>","null","feedback","","","","","","","0.64"
"","","","","","html-keyboard-response","81","111569","0.0-7.15-0.15","5fc2bbfa60e49e4eecc5d50b","6579d0c5e56c6e1626038f86","6579d135e56c6e1626038fa2","91","
            
        <div style=""text-align: center; position: fixed; top: 5vh; left: 40vw;"">
            <div style=""margin:0 auto; width: 20vw; top: 8vh; font-size: 2vw""> 
            <font color=""green""> Bonus : $0.64 </font>
            </div>
        </div>
    
            <div> Please press any key to continue to the next movie.</div>
        ","arrowup","ITI","","","","","","",""
"","","","","","html-keyboard-response","82","111824","0.0-7.15-1.15","5fc2bbfa60e49e4eecc5d50b","6579d0c5e56c6e1626038f86","6579d135e56c6e1626038fa2","252","./stimuli//pack_morph_shapes_1/cat_1/diff_1/ex_1_1_12.mp4","arrowleft","response","ArrowLeft","12","1","1","test","true",""
"","","","","","html-keyboard-response","83","113336","0.0-7.15-2.15","5fc2bbfa60e49e4eecc5d50b","6579d0c5e56c6e1626038f86","6579d135e56c6e1626038fa2","null","<p> <font color=""green"" size=""5vw""> Correct category! </font> <br> <br> <font color=""green"" size=""8vw""> + $0.1 </font> </p>","null","feedback","","","","","","","0.74"
"","","","","","html-keyboard-response","84","113555","0.0-7.16-0.16","5fc2bbfa60e49e4eecc5d50b","6579d0c5e56c6e1626038f86","6579d135e56c6e1626038fa2","218","
            
        <div style=""text-align: center; position: fixed; top: 5vh; left: 40vw;"">
            <div style=""margin:0 auto; width: 20vw; top: 8vh; font-size: 2vw""> 
            <font color=""green""> Bonus : $0.74 </font>
            </div>
        </div>
    
            <div> Please press any key to continue to the next movie.</div>
        ","arrowup","ITI","","","","","","",""
"","","","","","html-keyboard-response","85","113749","0.0-7.16-1.16","5fc2bbfa60e49e4eecc5d50b","6579d0c5e56c6e1626038f86","6579d135e56c6e1626038fa2","190","./stimuli//pack_morph_shapes_1/cat_2/diff_1/ex_2_1_3.mp4","arrowleft","response","ArrowRight","3","2","1","test","false",""
"","","","","","html-keyboard-response","86","115250","0.0-7.16-2.16","5fc2bbfa60e49e4eecc5d50b","6579d0c5e56c6e1626038f86","6579d135e56c6e1626038fa2","null","<p> <font color=""red"" size=""5vw""> Wrong category! </font> <br> <br> <font color=""red"" size=""8vw""> - $0.05 </font> </p>","null","feedback","","","","","","","0.69"
"","","","","","html-keyboard-response","87","115484","0.0-7.17-0.17","5fc2bbfa60e49e4eecc5d50b","6579d0c5e56c6e1626038f86","6579d135e56c6e1626038fa2","233","
            
        <div style=""text-align: center; position: fixed; top: 5vh; left: 40vw;"">
            <div style=""margin:0 auto; width: 20vw; top: 8vh; font-size: 2vw""> 
            <font color=""green""> Bonus : $0.69 </font>
            </div>
        </div>
    
            <div> Please press any key to continue to the next movie.</div>
        ","arrowup","ITI","","","","","","",""
"","","","","","html-keyboard-response","88","115654","0.0-7.17-1.17","5fc2bbfa60e49e4eecc5d50b","6579d0c5e56c6e1626038f86","6579d135e56c6e1626038fa2","166","./stimuli//pack_morph_shapes_1/cat_1/diff_1/ex_1_1_12.mp4","arrowleft","response","ArrowLeft","12","1","1","test","true",""
"","","","","","html-keyboard-response","89","117156","0.0-7.17-2.17","5fc2bbfa60e49e4eecc5d50b","6579d0c5e56c6e1626038f86","6579d135e56c6e1626038fa2","null","<p> <font color=""green"" size=""5vw""> Correct category! </font> <br> <br> <font color=""green"" size=""8vw""> + $0.1 </font> </p>","null","feedback","","","","","","","0.79"
"","","","","","html-keyboard-response","90","117437","0.0-7.18-0.18","5fc2bbfa60e49e4eecc5d50b","6579d0c5e56c6e1626038f86","6579d135e56c6e1626038fa2","279","
            
        <div style=""text-align: center; position: fixed; top: 5vh; left: 40vw;"">
            <div style=""margin:0 auto; width: 20vw; top: 8vh; font-size: 2vw""> 
            <font color=""green""> Bonus : $0.79 </font>
            </div>
        </div>
    
            <div> Please press any key to continue to the next movie.</div>
        ","arrowup","ITI","","","","","","",""
"","","","","","html-keyboard-response","91","117585","0.0-7.18-1.18","5fc2bbfa60e49e4eecc5d50b","6579d0c5e56c6e1626038f86","6579d135e56c6e1626038fa2","144","./stimuli//pack_morph_shapes_1/cat_2/diff_1/ex_2_1_10.mp4","arrowleft","response","ArrowRight","10","2","1","test","false",""
"","","","","","html-keyboard-response","92","119086","0.0-7.18-2.18","5fc2bbfa60e49e4eecc5d50b","6579d0c5e56c6e1626038f86","6579d135e56c6e1626038fa2","null","<p> <font color=""red"" size=""5vw""> Wrong category! </font> <br> <br> <font color=""red"" size=""8vw""> - $0.05 </font> </p>","null","feedback","","","","","","","0.74"
"","","","","","html-keyboard-response","93","119322","0.0-7.19-0.19","5fc2bbfa60e49e4eecc5d50b","6579d0c5e56c6e1626038f86","6579d135e56c6e1626038fa2","235","
            
        <div style=""text-align: center; position: fixed; top: 5vh; left: 40vw;"">
            <div style=""margin:0 auto; width: 20vw; top: 8vh; font-size: 2vw""> 
            <font color=""green""> Bonus : $0.74 </font>
            </div>
        </div>
    
            <div> Please press any key to continue to the next movie.</div>
        ","arrowup","ITI","","","","","","",""
"","","","","","html-keyboard-response","94","119459","0.0-7.19-1.19","5fc2bbfa60e49e4eecc5d50b","6579d0c5e56c6e1626038f86","6579d135e56c6e1626038fa2","134","./stimuli//pack_morph_shapes_1/cat_1/diff_1/ex_1_1_13.mp4","arrowleft","response","ArrowLeft","13","1","1","test","true",""
"","","","","","html-keyboard-response","95","120965","0.0-7.19-2.19","5fc2bbfa60e49e4eecc5d50b","6579d0c5e56c6e1626038f86","6579d135e56c6e1626038fa2","null","<p> <font color=""green"" size=""5vw""> Correct category! </font> <br> <br> <font color=""green"" size=""8vw""> + $0.1 </font> </p>","null","feedback","","","","","","","0.84"
"","","","","","html-keyboard-response","96","121046","0.0-7.20-0.20","5fc2bbfa60e49e4eecc5d50b","6579d0c5e56c6e1626038f86","6579d135e56c6e1626038fa2","80","
            
        <div style=""text-align: center; position: fixed; top: 5vh; left: 40vw;"">
            <div style=""margin:0 auto; width: 20vw; top: 8vh; font-size: 2vw""> 
            <font color=""green""> Bonus : $0.84 </font>
            </div>
        </div>
    
            <div> Please press any key to continue to the next movie.</div>
        ","arrowup","ITI","","","","","","",""
"","","","","","html-keyboard-response","97","121250","0.0-7.20-1.20","5fc2bbfa60e49e4eecc5d50b","6579d0c5e56c6e1626038f86","6579d135e56c6e1626038fa2","201","./stimuli//pack_morph_shapes_1/cat_2/diff_1/ex_2_1_6.mp4","arrowleft","response","ArrowRight","6","2","1","test","false",""
"","","","","","html-keyboard-response","98","122753","0.0-7.20-2.20","5fc2bbfa60e49e4eecc5d50b","6579d0c5e56c6e1626038f86","6579d135e56c6e1626038fa2","null","<p> <font color=""red"" size=""5vw""> Wrong category! </font> <br> <br> <font color=""red"" size=""8vw""> - $0.05 </font> </p>","null","feedback","","","","","","","0.79"
"","","","","","html-keyboard-response","99","122934","0.0-7.21-0.21","5fc2bbfa60e49e4eecc5d50b","6579d0c5e56c6e1626038f86","6579d135e56c6e1626038fa2","181","
            
        <div style=""text-align: center; position: fixed; top: 5vh; left: 40vw;"">
            <div style=""margin:0 auto; width: 20vw; top: 8vh; font-size: 2vw""> 
            <font color=""green""> Bonus : $0.79 </font>
            </div>
        </div>
    
            <div> Please press any key to continue to the next movie.</div>
        ","arrowup","ITI","","","","","","",""
"","","","","","html-keyboard-response","100","123098","0.0-7.21-1.21","5fc2bbfa60e49e4eecc5d50b","6579d0c5e56c6e1626038f86","6579d135e56c6e1626038fa2","160","./stimuli//pack_morph_shapes_1/cat_1/diff_1/ex_1_1_6.mp4","arrowleft","response","ArrowLeft","6","1","1","test","true",""
"","","","","","html-keyboard-response","101","124607","0.0-7.21-2.21","5fc2bbfa60e49e4eecc5d50b","6579d0c5e56c6e1626038f86","6579d135e56c6e1626038fa2","null","<p> <font color=""green"" size=""5vw""> Correct category! </font> <br> <br> <font color=""green"" size=""8vw""> + $0.1 </font> </p>","null","feedback","","","","","","","0.89"
"","","","","","html-keyboard-response","102","124733","0.0-7.22-0.22","5fc2bbfa60e49e4eecc5d50b","6579d0c5e56c6e1626038f86","6579d135e56c6e1626038fa2","125","
            
        <div style=""text-align: center; position: fixed; top: 5vh; left: 40vw;"">
            <div style=""margin:0 auto; width: 20vw; top: 8vh; font-size: 2vw""> 
            <font color=""green""> Bonus : $0.89 </font>
            </div>
        </div>
    
            <div> Please press any key to continue to the next movie.</div>
        ","arrowup","ITI","","","","","","",""
"","","","","","html-keyboard-response","103","124922","0.0-7.22-1.22","5fc2bbfa60e49e4eecc5d50b","6579d0c5e56c6e1626038f86","6579d135e56c6e1626038fa2","185","./stimuli//pack_morph_shapes_1/cat_1/diff_1/ex_1_1_4.mp4","arrowleft","response","ArrowLeft","4","1","1","test","true",""
"","","","","","html-keyboard-response","104","126437","0.0-7.22-2.22","5fc2bbfa60e49e4eecc5d50b","6579d0c5e56c6e1626038f86","6579d135e56c6e1626038fa2","null","<p> <font color=""green"" size=""5vw""> Correct category! </font> <br> <br> <font color=""green"" size=""8vw""> + $0.1 </font> </p>","null","feedback","","","","","","","0.99"
"","","","","","html-keyboard-response","105","126681","0.0-7.23-0.23","5fc2bbfa60e49e4eecc5d50b","6579d0c5e56c6e1626038f86","6579d135e56c6e1626038fa2","242","
            
        <div style=""text-align: center; position: fixed; top: 5vh; left: 40vw;"">
            <div style=""margin:0 auto; width: 20vw; top: 8vh; font-size: 2vw""> 
            <font color=""green""> Bonus : $0.99 </font>
            </div>
        </div>
    
            <div> Please press any key to continue to the next movie.</div>
        ","arrowup","ITI","","","","","","",""
"","","","","","html-keyboard-response","106","126847","0.0-7.23-1.23","5fc2bbfa60e49e4eecc5d50b","6579d0c5e56c6e1626038f86","6579d135e56c6e1626038fa2","163","./stimuli//pack_morph_shapes_1/cat_1/diff_1/ex_1_1_15.mp4","arrowleft","response","ArrowLeft","15","1","1","test","true",""
"","","","","","html-keyboard-response","107","128350","0.0-7.23-2.23","5fc2bbfa60e49e4eecc5d50b","6579d0c5e56c6e1626038f86","6579d135e56c6e1626038fa2","null","<p> <font color=""green"" size=""5vw""> Correct category! </font> <br> <br> <font color=""green"" size=""8vw""> + $0.1 </font> </p>","null","feedback","","","","","","","1.09"
"","","","","","html-keyboard-response","108","128388","0.0-7.24-0.24","5fc2bbfa60e49e4eecc5d50b","6579d0c5e56c6e1626038f86","6579d135e56c6e1626038fa2","37","
            
        <div style=""text-align: center; position: fixed; top: 5vh; left: 40vw;"">
            <div style=""margin:0 auto; width: 20vw; top: 8vh; font-size: 2vw""> 
            <font color=""green""> Bonus : $1.09 </font>
            </div>
        </div>
    
            <div> Please press any key to continue to the next movie.</div>
        ","arrowup","ITI","","","","","","",""
"","","","","","html-keyboard-response","109","128850","0.0-7.24-1.24","5fc2bbfa60e49e4eecc5d50b","6579d0c5e56c6e1626038f86","6579d135e56c6e1626038fa2","458","./stimuli//pack_morph_shapes_1/cat_2/diff_2/ex_2_2_12.mp4","arrowleft","response","ArrowRight","12","2","2","test","false",""
"","","","","","html-keyboard-response","110","130356","0.0-7.24-2.24","5fc2bbfa60e49e4eecc5d50b","6579d0c5e56c6e1626038f86","6579d135e56c6e1626038fa2","null","<p> <font color=""red"" size=""5vw""> Wrong category! </font> <br> <br> <font color=""red"" size=""8vw""> - $0.05 </font> </p>","null","feedback","","","","","","","1.04"
"","","","","","html-keyboard-response","111","130435","0.0-7.25-0.25","5fc2bbfa60e49e4eecc5d50b","6579d0c5e56c6e1626038f86","6579d135e56c6e1626038fa2","78","
            
        <div style=""text-align: center; position: fixed; top: 5vh; left: 40vw;"">
            <div style=""margin:0 auto; width: 20vw; top: 8vh; font-size: 2vw""> 
            <font color=""green""> Bonus : $1.04 </font>
            </div>
        </div>
    
            <div> Please press any key to continue to the next movie.</div>
        ","arrowup","ITI","","","","","","",""
"","","","","","html-keyboard-response","112","130558","0.0-7.25-1.25","5fc2bbfa60e49e4eecc5d50b","6579d0c5e56c6e1626038f86","6579d135e56c6e1626038fa2","119","./stimuli//pack_morph_shapes_1/cat_2/diff_2/ex_2_2_2.mp4","arrowleft","response","ArrowRight","2","2","2","test","false",""
"","","","","","html-keyboard-response","113","132064","0.0-7.25-2.25","5fc2bbfa60e49e4eecc5d50b","6579d0c5e56c6e1626038f86","6579d135e56c6e1626038fa2","null","<p> <font color=""red"" size=""5vw""> Wrong category! </font> <br> <br> <font color=""red"" size=""8vw""> - $0.05 </font> </p>","null","feedback","","","","","","","0.99"
"","","","","","html-keyboard-response","114","132354","0.0-7.26-0.26","5fc2bbfa60e49e4eecc5d50b","6579d0c5e56c6e1626038f86","6579d135e56c6e1626038fa2","289","
            
        <div style=""text-align: center; position: fixed; top: 5vh; left: 40vw;"">
            <div style=""margin:0 auto; width: 20vw; top: 8vh; font-size: 2vw""> 
            <font color=""green""> Bonus : $0.99 </font>
            </div>
        </div>
    
            <div> Please press any key to continue to the next movie.</div>
        ","arrowup","ITI","","","","","","",""
"","","","","","html-keyboard-response","115","132479","0.0-7.26-1.26","5fc2bbfa60e49e4eecc5d50b","6579d0c5e56c6e1626038f86","6579d135e56c6e1626038fa2","122","./stimuli//pack_morph_shapes_1/cat_2/diff_2/ex_2_2_3.mp4","arrowleft","response","ArrowRight","3","2","2","test","false",""
"","","","","","html-keyboard-response","116","133986","0.0-7.26-2.26","5fc2bbfa60e49e4eecc5d50b","6579d0c5e56c6e1626038f86","6579d135e56c6e1626038fa2","null","<p> <font color=""red"" size=""5vw""> Wrong category! </font> <br> <br> <font color=""red"" size=""8vw""> - $0.05 </font> </p>","null","feedback","","","","","","","0.94"
"","","","","","html-keyboard-response","117","134141","0.0-7.27-0.27","5fc2bbfa60e49e4eecc5d50b","6579d0c5e56c6e1626038f86","6579d135e56c6e1626038fa2","153","
            
        <div style=""text-align: center; position: fixed; top: 5vh; left: 40vw;"">
            <div style=""margin:0 auto; width: 20vw; top: 8vh; font-size: 2vw""> 
            <font color=""green""> Bonus : $0.94 </font>
            </div>
        </div>
    
            <div> Please press any key to continue to the next movie.</div>
        ","arrowup","ITI","","","","","","",""
"","","","","","html-keyboard-response","118","134201","0.0-7.27-1.27","5fc2bbfa60e49e4eecc5d50b","6579d0c5e56c6e1626038f86","6579d135e56c6e1626038fa2","56","./stimuli//pack_morph_shapes_1/cat_2/diff_2/ex_2_2_10.mp4","arrowleft","response","ArrowRight","10","2","2","test","false",""
"","","","","","html-keyboard-response","119","135715","0.0-7.27-2.27","5fc2bbfa60e49e4eecc5d50b","6579d0c5e56c6e1626038f86","6579d135e56c6e1626038fa2","null","<p> <font color=""red"" size=""5vw""> Wrong category! </font> <br> <br> <font color=""red"" size=""8vw""> - $0.05 </font> </p>","null","feedback","","","","","","","0.89"
"","","","","","html-keyboard-response","120","135908","0.0-7.28-0.28","5fc2bbfa60e49e4eecc5d50b","6579d0c5e56c6e1626038f86","6579d135e56c6e1626038fa2","192","
            
        <div style=""text-align: center; position: fixed; top: 5vh; left: 40vw;"">
            <div style=""margin:0 auto; width: 20vw; top: 8vh; font-size: 2vw""> 
            <font color=""green""> Bonus : $0.89 </font>
            </div>
        </div>
    
            <div> Please press any key to continue to the next movie.</div>
        ","arrowup","ITI","","","","","","",""
"","","","","","html-keyboard-response","121","135979","0.0-7.28-1.28","5fc2bbfa60e49e4eecc5d50b","6579d0c5e56c6e1626038f86","6579d135e56c6e1626038fa2","67","./stimuli//pack_morph_shapes_1/cat_2/diff_2/ex_2_2_15.mp4","arrowleft","response","ArrowRight","15","2","2","test","false",""
"","","","","","html-keyboard-response","122","137480","0.0-7.28-2.28","5fc2bbfa60e49e4eecc5d50b","6579d0c5e56c6e1626038f86","6579d135e56c6e1626038fa2","null","<p> <font color=""red"" size=""5vw""> Wrong category! </font> <br> <br> <font color=""red"" size=""8vw""> - $0.05 </font> </p>","null","feedback","","","","","","","0.84"
"","","","","","html-keyboard-response","123","137569","0.0-7.29-0.29","5fc2bbfa60e49e4eecc5d50b","6579d0c5e56c6e1626038f86","6579d135e56c6e1626038fa2","88","
            
        <div style=""text-align: center; position: fixed; top: 5vh; left: 40vw;"">
            <div style=""margin:0 auto; width: 20vw; top: 8vh; font-size: 2vw""> 
            <font color=""green""> Bonus : $0.84 </font>
            </div>
        </div>
    
            <div> Please press any key to continue to the next movie.</div>
        ","arrowleft","ITI","","","","","","",""
"","","","","","html-keyboard-response","124","138711","0.0-7.29-1.29","5fc2bbfa60e49e4eecc5d50b","6579d0c5e56c6e1626038f86","6579d135e56c6e1626038fa2","1140","./stimuli//pack_morph_shapes_1/cat_2/diff_1/ex_2_1_13.mp4","arrowleft","response","ArrowRight","13","2","1","test","false",""
"","","","","","html-keyboard-response","125","140214","0.0-7.29-2.29","5fc2bbfa60e49e4eecc5d50b","6579d0c5e56c6e1626038f86","6579d135e56c6e1626038fa2","null","<p> <font color=""red"" size=""5vw""> Wrong category! </font> <br> <br> <font color=""red"" size=""8vw""> - $0.05 </font> </p>","null","feedback","","","","","","","0.79"
"","","","","","html-keyboard-response","126","140461","0.0-7.30-0.30","5fc2bbfa60e49e4eecc5d50b","6579d0c5e56c6e1626038f86","6579d135e56c6e1626038fa2","246","
            
        <div style=""text-align: center; position: fixed; top: 5vh; left: 40vw;"">
            <div style=""margin:0 auto; width: 20vw; top: 8vh; font-size: 2vw""> 
            <font color=""green""> Bonus : $0.79 </font>
            </div>
        </div>
    
            <div> Please press any key to continue to the next movie.</div>
        ","arrowup","ITI","","","","","","",""
"","","","","","html-keyboard-response","127","140601","0.0-7.30-1.30","5fc2bbfa60e49e4eecc5d50b","6579d0c5e56c6e1626038f86","6579d135e56c6e1626038fa2","137","./stimuli//pack_morph_shapes_1/cat_2/diff_1/ex_2_1_8.mp4","arrowleft","response","ArrowRight","8","2","1","test","false",""
"","","","","","html-keyboard-response","128","142116","0.0-7.30-2.30","5fc2bbfa60e49e4eecc5d50b","6579d0c5e56c6e1626038f86","6579d135e56c6e1626038fa2","null","<p> <font color=""red"" size=""5vw""> Wrong category! </font> <br> <br> <font color=""red"" size=""8vw""> - $0.05 </font> </p>","null","feedback","","","","","","","0.74"
"","","","","","html-keyboard-response","129","142412","0.0-7.31-0.31","5fc2bbfa60e49e4eecc5d50b","6579d0c5e56c6e1626038f86","6579d135e56c6e1626038fa2","295","
            
        <div style=""text-align: center; position: fixed; top: 5vh; left: 40vw;"">
            <div style=""margin:0 auto; width: 20vw; top: 8vh; font-size: 2vw""> 
            <font color=""green""> Bonus : $0.74 </font>
            </div>
        </div>
    
            <div> Please press any key to continue to the next movie.</div>
        ","arrowup","ITI","","","","","","",""
"","","","","","html-keyboard-response","130","142546","0.0-7.31-1.31","5fc2bbfa60e49e4eecc5d50b","6579d0c5e56c6e1626038f86","6579d135e56c6e1626038fa2","131","./stimuli//pack_morph_shapes_1/cat_2/diff_1/ex_2_1_10.mp4","arrowleft","response","ArrowRight","10","2","1","test","false",""
"","","","","","html-keyboard-response","131","144052","0.0-7.31-2.31","5fc2bbfa60e49e4eecc5d50b","6579d0c5e56c6e1626038f86","6579d135e56c6e1626038fa2","null","<p> <font color=""red"" size=""5vw""> Wrong category! </font> <br> <br> <font color=""red"" size=""8vw""> - $0.05 </font> </p>","null","feedback","","","","","","","0.69"
"","","","","","html-keyboard-response","132","144191","0.0-7.32-0.32","5fc2bbfa60e49e4eecc5d50b","6579d0c5e56c6e1626038f86","6579d135e56c6e1626038fa2","136","
            
        <div style=""text-align: center; position: fixed; top: 5vh; left: 40vw;"">
            <div style=""margin:0 auto; width: 20vw; top: 8vh; font-size: 2vw""> 
            <font color=""green""> Bonus : $0.69 </font>
            </div>
        </div>
    
            <div> Please press any key to continue to the next movie.</div>
        ","arrowup","ITI","","","","","","",""
"","","","","","html-keyboard-response","133","144403","0.0-7.32-1.32","5fc2bbfa60e49e4eecc5d50b","6579d0c5e56c6e1626038f86","6579d135e56c6e1626038fa2","209","./stimuli//pack_morph_shapes_1/cat_2/diff_1/ex_2_1_5.mp4","arrowright","response","ArrowRight","5","2","1","test","true",""
"","","","","","html-keyboard-response","134","145906","0.0-7.32-2.32","5fc2bbfa60e49e4eecc5d50b","6579d0c5e56c6e1626038f86","6579d135e56c6e1626038fa2","null","<p> <font color=""green"" size=""5vw""> Correct category! </font> <br> <br> <font color=""green"" size=""8vw""> + $0.1 </font> </p>","null","feedback","","","","","","","0.79"
"","","","","","html-keyboard-response","135","146269","0.0-7.33-0.33","5fc2bbfa60e49e4eecc5d50b","6579d0c5e56c6e1626038f86","6579d135e56c6e1626038fa2","361","
            
        <div style=""text-align: center; position: fixed; top: 5vh; left: 40vw;"">
            <div style=""margin:0 auto; width: 20vw; top: 8vh; font-size: 2vw""> 
            <font color=""green""> Bonus : $0.79 </font>
            </div>
        </div>
    
            <div> Please press any key to continue to the next movie.</div>
        ","arrowup","ITI","","","","","","",""
"","","","","","html-keyboard-response","136","146435","0.0-7.33-1.33","5fc2bbfa60e49e4eecc5d50b","6579d0c5e56c6e1626038f86","6579d135e56c6e1626038fa2","162","./stimuli//pack_morph_shapes_1/cat_2/diff_1/ex_2_1_4.mp4","arrowright","response","ArrowRight","4","2","1","test","true",""
"","","","","","html-keyboard-response","137","147936","0.0-7.33-2.33","5fc2bbfa60e49e4eecc5d50b","6579d0c5e56c6e1626038f86","6579d135e56c6e1626038fa2","null","<p> <font color=""green"" size=""5vw""> Correct category! </font> <br> <br> <font color=""green"" size=""8vw""> + $0.1 </font> </p>","null","feedback","","","","","","","0.89"
"","","","","","html-keyboard-response","138","148249","0.0-7.34-0.34","5fc2bbfa60e49e4eecc5d50b","6579d0c5e56c6e1626038f86","6579d135e56c6e1626038fa2","311","
            
        <div style=""text-align: center; position: fixed; top: 5vh; left: 40vw;"">
            <div style=""margin:0 auto; width: 20vw; top: 8vh; font-size: 2vw""> 
            <font color=""green""> Bonus : $0.89 </font>
            </div>
        </div>
    
            <div> Please press any key to continue to the next movie.</div>
        ","arrowup","ITI","","","","","","",""
"","","","","","html-keyboard-response","139","148398","0.0-7.34-1.34","5fc2bbfa60e49e4eecc5d50b","6579d0c5e56c6e1626038f86","6579d135e56c6e1626038fa2","147","./stimuli//pack_morph_shapes_1/cat_2/diff_1/ex_2_1_5.mp4","arrowright","response","ArrowRight","5","2","1","test","true",""
"","","","","","html-keyboard-response","140","149903","0.0-7.34-2.34","5fc2bbfa60e49e4eecc5d50b","6579d0c5e56c6e1626038f86","6579d135e56c6e1626038fa2","null","<p> <font color=""green"" size=""5vw""> Correct category! </font> <br> <br> <font color=""green"" size=""8vw""> + $0.1 </font> </p>","null","feedback","","","","","","","0.99"
"","","","","","html-keyboard-response","141","150304","0.0-7.35-0.35","5fc2bbfa60e49e4eecc5d50b","6579d0c5e56c6e1626038f86","6579d135e56c6e1626038fa2","398","
            
        <div style=""text-align: center; position: fixed; top: 5vh; left: 40vw;"">
            <div style=""margin:0 auto; width: 20vw; top: 8vh; font-size: 2vw""> 
            <font color=""green""> Bonus : $0.99 </font>
            </div>
        </div>
    
            <div> Please press any key to continue to the next movie.</div>
        ","arrowup","ITI","","","","","","",""
"","","","","","html-keyboard-response","142","150492","0.0-7.35-1.35","5fc2bbfa60e49e4eecc5d50b","6579d0c5e56c6e1626038f86","6579d135e56c6e1626038fa2","185","./stimuli//pack_morph_shapes_1/cat_2/diff_1/ex_2_1_6.mp4","arrowleft","response","ArrowRight","6","2","1","test","false",""
"","","","","","html-keyboard-response","143","151996","0.0-7.35-2.35","5fc2bbfa60e49e4eecc5d50b","6579d0c5e56c6e1626038f86","6579d135e56c6e1626038fa2","null","<p> <font color=""red"" size=""5vw""> Wrong category! </font> <br> <br> <font color=""red"" size=""8vw""> - $0.05 </font> </p>","null","feedback","","","","","","","0.94"
"","","","","","html-keyboard-response","144","152266","0.0-7.36-0.36","5fc2bbfa60e49e4eecc5d50b","6579d0c5e56c6e1626038f86","6579d135e56c6e1626038fa2","269","
            
        <div style=""text-align: center; position: fixed; top: 5vh; left: 40vw;"">
            <div style=""margin:0 auto; width: 20vw; top: 8vh; font-size: 2vw""> 
            <font color=""green""> Bonus : $0.94 </font>
            </div>
        </div>
    
            <div> Please press any key to continue to the next movie.</div>
        ","arrowup","ITI","","","","","","",""
"","","","","","html-keyboard-response","145","152491","0.0-7.36-1.36","5fc2bbfa60e49e4eecc5d50b","6579d0c5e56c6e1626038f86","6579d135e56c6e1626038fa2","221","./stimuli//pack_morph_shapes_1/cat_2/diff_1/ex_2_1_3.mp4","arrowright","response","ArrowRight","3","2","1","test","true",""
"","","","","","html-keyboard-response","146","153995","0.0-7.36-2.36","5fc2bbfa60e49e4eecc5d50b","6579d0c5e56c6e1626038f86","6579d135e56c6e1626038fa2","null","<p> <font color=""green"" size=""5vw""> Correct category! </font> <br> <br> <font color=""green"" size=""8vw""> + $0.1 </font> </p>","null","feedback","","","","","","","1.04"
"","","","","","html-keyboard-response","147","154158","0.0-7.37-0.37","5fc2bbfa60e49e4eecc5d50b","6579d0c5e56c6e1626038f86","6579d135e56c6e1626038fa2","162","
            
        <div style=""text-align: center; position: fixed; top: 5vh; left: 40vw;"">
            <div style=""margin:0 auto; width: 20vw; top: 8vh; font-size: 2vw""> 
            <font color=""green""> Bonus : $1.04 </font>
            </div>
        </div>
    
            <div> Please press any key to continue to the next movie.</div>
        ","arrowup","ITI","","","","","","",""
"","","","","","html-keyboard-response","148","154359","0.0-7.37-1.37","5fc2bbfa60e49e4eecc5d50b","6579d0c5e56c6e1626038f86","6579d135e56c6e1626038fa2","197","./stimuli//pack_morph_shapes_1/cat_2/diff_2/ex_2_2_1.mp4","arrowright","response","ArrowRight","1","2","2","test","true",""
"","","","","","html-keyboard-response","149","155860","0.0-7.37-2.37","5fc2bbfa60e49e4eecc5d50b","6579d0c5e56c6e1626038f86","6579d135e56c6e1626038fa2","null","<p> <font color=""green"" size=""5vw""> Correct category! </font> <br> <br> <font color=""green"" size=""8vw""> + $0.1 </font> </p>","null","feedback","","","","","","","1.14"
"","","","","","html-keyboard-response","150","156114","0.0-7.38-0.38","5fc2bbfa60e49e4eecc5d50b","6579d0c5e56c6e1626038f86","6579d135e56c6e1626038fa2","253","
            
        <div style=""text-align: center; position: fixed; top: 5vh; left: 40vw;"">
            <div style=""margin:0 auto; width: 20vw; top: 8vh; font-size: 2vw""> 
            <font color=""green""> Bonus : $1.14 </font>
            </div>
        </div>
    
            <div> Please press any key to continue to the next movie.</div>
        ","arrowup","ITI","","","","","","",""
"","","","","","html-keyboard-response","151","156281","0.0-7.38-1.38","5fc2bbfa60e49e4eecc5d50b","6579d0c5e56c6e1626038f86","6579d135e56c6e1626038fa2","163","./stimuli//pack_morph_shapes_1/cat_1/diff_2/ex_1_2_7.mp4","arrowright","response","ArrowLeft","7","1","2","test","false",""
"","","","","","html-keyboard-response","152","157789","0.0-7.38-2.38","5fc2bbfa60e49e4eecc5d50b","6579d0c5e56c6e1626038f86","6579d135e56c6e1626038fa2","null","<p> <font color=""red"" size=""5vw""> Wrong category! </font> <br> <br> <font color=""red"" size=""8vw""> - $0.05 </font> </p>","null","feedback","","","","","","","1.09"
"","","","","","html-keyboard-response","153","157832","0.0-7.39-0.39","5fc2bbfa60e49e4eecc5d50b","6579d0c5e56c6e1626038f86","6579d135e56c6e1626038fa2","42","
            
        <div style=""text-align: center; position: fixed; top: 5vh; left: 40vw;"">
            <div style=""margin:0 auto; width: 20vw; top: 8vh; font-size: 2vw""> 
            <font color=""green""> Bonus : $1.09 </font>
            </div>
        </div>
    
            <div> Please press any key to continue to the next movie.</div>
        ","arrowup","ITI","","","","","","",""
"","","","","","html-keyboard-response","154","158062","0.0-7.39-1.39","5fc2bbfa60e49e4eecc5d50b","6579d0c5e56c6e1626038f86","6579d135e56c6e1626038fa2","228","./stimuli//pack_morph_shapes_1/cat_1/diff_2/ex_1_2_4.mp4","arrowleft","response","ArrowLeft","4","1","2","test","true",""
"","","","","","html-keyboard-response","155","159569","0.0-7.39-2.39","5fc2bbfa60e49e4eecc5d50b","6579d0c5e56c6e1626038f86","6579d135e56c6e1626038fa2","null","<p> <font color=""green"" size=""5vw""> Correct category! </font> <br> <br> <font color=""green"" size=""8vw""> + $0.1 </font> </p>","null","feedback","","","","","","","1.19"
"","","","","","html-keyboard-response","156","159869","0.0-7.40-0.40","5fc2bbfa60e49e4eecc5d50b","6579d0c5e56c6e1626038f86","6579d135e56c6e1626038fa2","299","
            
        <div style=""text-align: center; position: fixed; top: 5vh; left: 40vw;"">
            <div style=""margin:0 auto; width: 20vw; top: 8vh; font-size: 2vw""> 
            <font color=""green""> Bonus : $1.19 </font>
            </div>
        </div>
    
            <div> Please press any key to continue to the next movie.</div>
        ","arrowup","ITI","","","","","","",""
"","","","","","html-keyboard-response","157","160015","0.0-7.40-1.40","5fc2bbfa60e49e4eecc5d50b","6579d0c5e56c6e1626038f86","6579d135e56c6e1626038fa2","143","./stimuli//pack_morph_shapes_1/cat_2/diff_2/ex_2_2_12.mp4","arrowleft","response","ArrowRight","12","2","2","test","false",""
"","","","","","html-keyboard-response","158","161522","0.0-7.40-2.40","5fc2bbfa60e49e4eecc5d50b","6579d0c5e56c6e1626038f86","6579d135e56c6e1626038fa2","null","<p> <font color=""red"" size=""5vw""> Wrong category! </font> <br> <br> <font color=""red"" size=""8vw""> - $0.05 </font> </p>","null","feedback","","","","","","","1.14"
"","","","","","html-keyboard-response","159","161772","0.0-7.41-0.41","5fc2bbfa60e49e4eecc5d50b","6579d0c5e56c6e1626038f86","6579d135e56c6e1626038fa2","249","
            
        <div style=""text-align: center; position: fixed; top: 5vh; left: 40vw;"">
            <div style=""margin:0 auto; width: 20vw; top: 8vh; font-size: 2vw""> 
            <font color=""green""> Bonus : $1.14 </font>
            </div>
        </div>
    
            <div> Please press any key to continue to the next movie.</div>
        ","arrowup","ITI","","","","","","",""
"","","","","","html-keyboard-response","160","161956","0.0-7.41-1.41","5fc2bbfa60e49e4eecc5d50b","6579d0c5e56c6e1626038f86","6579d135e56c6e1626038fa2","181","./stimuli//pack_morph_shapes_1/cat_1/diff_2/ex_1_2_14.mp4","arrowright","response","ArrowLeft","14","1","2","test","false",""
"","","","","","html-keyboard-response","161","163458","0.0-7.41-2.41","5fc2bbfa60e49e4eecc5d50b","6579d0c5e56c6e1626038f86","6579d135e56c6e1626038fa2","null","<p> <font color=""red"" size=""5vw""> Wrong category! </font> <br> <br> <font color=""red"" size=""8vw""> - $0.05 </font> </p>","null","feedback","","","","","","","1.09"
"","","","","","html-keyboard-response","162","163770","0.0-7.42-0.42","5fc2bbfa60e49e4eecc5d50b","6579d0c5e56c6e1626038f86","6579d135e56c6e1626038fa2","311","
            
        <div style=""text-align: center; position: fixed; top: 5vh; left: 40vw;"">
            <div style=""margin:0 auto; width: 20vw; top: 8vh; font-size: 2vw""> 
            <font color=""green""> Bonus : $1.09 </font>
            </div>
        </div>
    
            <div> Please press any key to continue to the next movie.</div>
        ","arrowleft","ITI","","","","","","",""
"","","","","","html-keyboard-response","163","164340","0.0-7.42-1.42","5fc2bbfa60e49e4eecc5d50b","6579d0c5e56c6e1626038f86","6579d135e56c6e1626038fa2","566","./stimuli//pack_morph_shapes_1/cat_1/diff_1/ex_1_1_11.mp4","arrowleft","response","ArrowLeft","11","1","1","test","true",""
"","","","","","html-keyboard-response","164","165845","0.0-7.42-2.42","5fc2bbfa60e49e4eecc5d50b","6579d0c5e56c6e1626038f86","6579d135e56c6e1626038fa2","null","<p> <font color=""green"" size=""5vw""> Correct category! </font> <br> <br> <font color=""green"" size=""8vw""> + $0.09 </font> </p>","null","feedback","","","","","","","1.18"
"","","","","","html-keyboard-response","165","166102","0.0-7.43-0.43","5fc2bbfa60e49e4eecc5d50b","6579d0c5e56c6e1626038f86","6579d135e56c6e1626038fa2","255","
            
        <div style=""text-align: center; position: fixed; top: 5vh; left: 40vw;"">
            <div style=""margin:0 auto; width: 20vw; top: 8vh; font-size: 2vw""> 
            <font color=""green""> Bonus : $1.18 </font>
            </div>
        </div>
    
            <div> Please press any key to continue to the next movie.</div>
        ","arrowup","ITI","","","","","","",""
"","","","","","html-keyboard-response","166","166226","0.0-7.43-1.43","5fc2bbfa60e49e4eecc5d50b","6579d0c5e56c6e1626038f86","6579d135e56c6e1626038fa2","121","./stimuli//pack_morph_shapes_1/cat_2/diff_1/ex_2_1_4.mp4","arrowleft","response","ArrowRight","4","2","1","test","false",""
"","","","","","html-keyboard-response","167","167729","0.0-7.43-2.43","5fc2bbfa60e49e4eecc5d50b","6579d0c5e56c6e1626038f86","6579d135e56c6e1626038fa2","null","<p> <font color=""red"" size=""5vw""> Wrong category! </font> <br> <br> <font color=""red"" size=""8vw""> - $0.05 </font> </p>","null","feedback","","","","","","","1.13"
"","","","","","html-keyboard-response","168","167806","0.0-7.44-0.44","5fc2bbfa60e49e4eecc5d50b","6579d0c5e56c6e1626038f86","6579d135e56c6e1626038fa2","75","
            
        <div style=""text-align: center; position: fixed; top: 5vh; left: 40vw;"">
            <div style=""margin:0 auto; width: 20vw; top: 8vh; font-size: 2vw""> 
            <font color=""green""> Bonus : $1.13 </font>
            </div>
        </div>
    
            <div> Please press any key to continue to the next movie.</div>
        ","arrowup","ITI","","","","","","",""
"","","","","","html-keyboard-response","169","167984","0.0-7.44-1.44","5fc2bbfa60e49e4eecc5d50b","6579d0c5e56c6e1626038f86","6579d135e56c6e1626038fa2","174","./stimuli//pack_morph_shapes_1/cat_2/diff_1/ex_2_1_16.mp4","arrowleft","response","ArrowRight","16","2","1","test","false",""
"","","","","","html-keyboard-response","170","169494","0.0-7.44-2.44","5fc2bbfa60e49e4eecc5d50b","6579d0c5e56c6e1626038f86","6579d135e56c6e1626038fa2","null","<p> <font color=""red"" size=""5vw""> Wrong category! </font> <br> <br> <font color=""red"" size=""8vw""> - $0.05 </font> </p>","null","feedback","","","","","","","1.08"
"","","","","","html-keyboard-response","171","169716","0.0-7.45-0.45","5fc2bbfa60e49e4eecc5d50b","6579d0c5e56c6e1626038f86","6579d135e56c6e1626038fa2","221","
            
        <div style=""text-align: center; position: fixed; top: 5vh; left: 40vw;"">
            <div style=""margin:0 auto; width: 20vw; top: 8vh; font-size: 2vw""> 
            <font color=""green""> Bonus : $1.08 </font>
            </div>
        </div>
    
            <div> Please press any key to continue to the next movie.</div>
        ","arrowleft","ITI","","","","","","",""
"","","","","","html-keyboard-response","172","170450","0.0-7.45-1.45","5fc2bbfa60e49e4eecc5d50b","6579d0c5e56c6e1626038f86","6579d135e56c6e1626038fa2","729","./stimuli//pack_morph_shapes_1/cat_1/diff_1/ex_1_1_2.mp4","arrowleft","response","ArrowLeft","2","1","1","test","true",""
"","","","","","html-keyboard-response","173","171963","0.0-7.45-2.45","5fc2bbfa60e49e4eecc5d50b","6579d0c5e56c6e1626038f86","6579d135e56c6e1626038fa2","null","<p> <font color=""green"" size=""5vw""> Correct category! </font> <br> <br> <font color=""green"" size=""8vw""> + $0.09 </font> </p>","null","feedback","","","","","","","1.17"
"","","","","","html-keyboard-response","174","172289","0.0-7.46-0.46","5fc2bbfa60e49e4eecc5d50b","6579d0c5e56c6e1626038f86","6579d135e56c6e1626038fa2","324","
            
        <div style=""text-align: center; position: fixed; top: 5vh; left: 40vw;"">
            <div style=""margin:0 auto; width: 20vw; top: 8vh; font-size: 2vw""> 
            <font color=""green""> Bonus : $1.17 </font>
            </div>
        </div>
    
            <div> Please press any key to continue to the next movie.</div>
        ","arrowup","ITI","","","","","","",""
"","","","","","html-keyboard-response","175","172433","0.0-7.46-1.46","5fc2bbfa60e49e4eecc5d50b","6579d0c5e56c6e1626038f86","6579d135e56c6e1626038fa2","141","./stimuli//pack_morph_shapes_1/cat_1/diff_1/ex_1_1_13.mp4","arrowleft","response","ArrowLeft","13","1","1","test","true",""
"","","","","","html-keyboard-response","176","173939","0.0-7.46-2.46","5fc2bbfa60e49e4eecc5d50b","6579d0c5e56c6e1626038f86","6579d135e56c6e1626038fa2","null","<p> <font color=""green"" size=""5vw""> Correct category! </font> <br> <br> <font color=""green"" size=""8vw""> + $0.1 </font> </p>","null","feedback","","","","","","","1.27"
"","","","","","html-keyboard-response","177","174291","0.0-7.47-0.47","5fc2bbfa60e49e4eecc5d50b","6579d0c5e56c6e1626038f86","6579d135e56c6e1626038fa2","351","
            
        <div style=""text-align: center; position: fixed; top: 5vh; left: 40vw;"">
            <div style=""margin:0 auto; width: 20vw; top: 8vh; font-size: 2vw""> 
            <font color=""green""> Bonus : $1.27 </font>
            </div>
        </div>
    
            <div> Please press any key to continue to the next movie.</div>
        ","arrowup","ITI","","","","","","",""
"","","","","","html-keyboard-response","178","174415","0.0-7.47-1.47","5fc2bbfa60e49e4eecc5d50b","6579d0c5e56c6e1626038f86","6579d135e56c6e1626038fa2","121","./stimuli//pack_morph_shapes_1/cat_1/diff_1/ex_1_1_3.mp4","arrowleft","response","ArrowLeft","3","1","1","test","true",""
"","","","","","html-keyboard-response","179","175926","0.0-7.47-2.47","5fc2bbfa60e49e4eecc5d50b","6579d0c5e56c6e1626038f86","6579d135e56c6e1626038fa2","null","<p> <font color=""green"" size=""5vw""> Correct category! </font> <br> <br> <font color=""green"" size=""8vw""> + $0.1 </font> </p>","null","feedback","","","","","","","1.37"
"","","","","","html-keyboard-response","180","176239","0.0-7.48-0.48","5fc2bbfa60e49e4eecc5d50b","6579d0c5e56c6e1626038f86","6579d135e56c6e1626038fa2","311","
            
        <div style=""text-align: center; position: fixed; top: 5vh; left: 40vw;"">
            <div style=""margin:0 auto; width: 20vw; top: 8vh; font-size: 2vw""> 
            <font color=""green""> Bonus : $1.37 </font>
            </div>
        </div>
    
            <div> Please press any key to continue to the next movie.</div>
        ","arrowup","ITI","","","","","","",""
"","","","","","html-keyboard-response","181","176394","0.0-7.48-1.48","5fc2bbfa60e49e4eecc5d50b","6579d0c5e56c6e1626038f86","6579d135e56c6e1626038fa2","151","./stimuli//pack_morph_shapes_1/cat_2/diff_1/ex_2_1_14.mp4","arrowleft","response","ArrowRight","14","2","1","test","false",""
"","","","","","html-keyboard-response","182","177900","0.0-7.48-2.48","5fc2bbfa60e49e4eecc5d50b","6579d0c5e56c6e1626038f86","6579d135e56c6e1626038fa2","null","<p> <font color=""red"" size=""5vw""> Wrong category! </font> <br> <br> <font color=""red"" size=""8vw""> - $0.05 </font> </p>","null","feedback","","","","","","","1.32"
"","","","","","html-keyboard-response","183","178085","0.0-7.49-0.49","5fc2bbfa60e49e4eecc5d50b","6579d0c5e56c6e1626038f86","6579d135e56c6e1626038fa2","183","
            
        <div style=""text-align: center; position: fixed; top: 5vh; left: 40vw;"">
            <div style=""margin:0 auto; width: 20vw; top: 8vh; font-size: 2vw""> 
            <font color=""green""> Bonus : $1.32 </font>
            </div>
        </div>
    
            <div> Please press any key to continue to the next movie.</div>
        ","arrowup","ITI","","","","","","",""
"","","","","","html-keyboard-response","184","178231","0.0-7.49-1.49","5fc2bbfa60e49e4eecc5d50b","6579d0c5e56c6e1626038f86","6579d135e56c6e1626038fa2","143","./stimuli//pack_morph_shapes_1/cat_1/diff_1/ex_1_1_13.mp4","arrowleft","response","ArrowLeft","13","1","1","test","true",""
"","","","","","html-keyboard-response","185","179733","0.0-7.49-2.49","5fc2bbfa60e49e4eecc5d50b","6579d0c5e56c6e1626038f86","6579d135e56c6e1626038fa2","null","<p> <font color=""green"" size=""5vw""> Correct category! </font> <br> <br> <font color=""green"" size=""8vw""> + $0.1 </font> </p>","null","feedback","","","","","","","1.42"
"","","","","","html-keyboard-response","186","179947","0.0-7.50-0.50","5fc2bbfa60e49e4eecc5d50b","6579d0c5e56c6e1626038f86","6579d135e56c6e1626038fa2","210","
            
        <div style=""text-align: center; position: fixed; top: 5vh; left: 40vw;"">
            <div style=""margin:0 auto; width: 20vw; top: 8vh; font-size: 2vw""> 
            <font color=""green""> Bonus : $1.42 </font>
            </div>
        </div>
    
            <div> Please press any key to continue to the next movie.</div>
        ","arrowup","ITI","","","","","","",""
"","","","","","html-keyboard-response","187","180087","0.0-7.50-1.50","5fc2bbfa60e49e4eecc5d50b","6579d0c5e56c6e1626038f86","6579d135e56c6e1626038fa2","135","./stimuli//pack_morph_shapes_1/cat_1/diff_2/ex_1_2_4.mp4","arrowleft","response","ArrowLeft","4","1","2","test","true",""
"","","","","","html-keyboard-response","188","181589","0.0-7.50-2.50","5fc2bbfa60e49e4eecc5d50b","6579d0c5e56c6e1626038f86","6579d135e56c6e1626038fa2","null","<p> <font color=""green"" size=""5vw""> Correct category! </font> <br> <br> <font color=""green"" size=""8vw""> + $0.1 </font> </p>","null","feedback","","","","","","","1.52"
"","","","","","html-keyboard-response","189","181825","0.0-7.51-0.51","5fc2bbfa60e49e4eecc5d50b","6579d0c5e56c6e1626038f86","6579d135e56c6e1626038fa2","235","
            
        <div style=""text-align: center; position: fixed; top: 5vh; left: 40vw;"">
            <div style=""margin:0 auto; width: 20vw; top: 8vh; font-size: 2vw""> 
            <font color=""green""> Bonus : $1.52 </font>
            </div>
        </div>
    
            <div> Please press any key to continue to the next movie.</div>
        ","arrowup","ITI","","","","","","",""
"","","","","","html-keyboard-response","190","181926","0.0-7.51-1.51","5fc2bbfa60e49e4eecc5d50b","6579d0c5e56c6e1626038f86","6579d135e56c6e1626038fa2","98","./stimuli//pack_morph_shapes_1/cat_2/diff_2/ex_2_2_12.mp4","arrowleft","response","ArrowRight","12","2","2","test","false",""
"","","","","","html-keyboard-response","191","183436","0.0-7.51-2.51","5fc2bbfa60e49e4eecc5d50b","6579d0c5e56c6e1626038f86","6579d135e56c6e1626038fa2","null","<p> <font color=""red"" size=""5vw""> Wrong category! </font> <br> <br> <font color=""red"" size=""8vw""> - $0.05 </font> </p>","null","feedback","","","","","","","1.47"
"","","","","","html-keyboard-response","192","183667","0.0-7.52-0.52","5fc2bbfa60e49e4eecc5d50b","6579d0c5e56c6e1626038f86","6579d135e56c6e1626038fa2","230","
            
        <div style=""text-align: center; position: fixed; top: 5vh; left: 40vw;"">
            <div style=""margin:0 auto; width: 20vw; top: 8vh; font-size: 2vw""> 
            <font color=""green""> Bonus : $1.47 </font>
            </div>
        </div>
    
            <div> Please press any key to continue to the next movie.</div>
        ","arrowup","ITI","","","","","","",""
"","","","","","html-keyboard-response","193","183782","0.0-7.52-1.52","5fc2bbfa60e49e4eecc5d50b","6579d0c5e56c6e1626038f86","6579d135e56c6e1626038fa2","112","./stimuli//pack_morph_shapes_1/cat_1/diff_2/ex_1_2_16.mp4","arrowleft","response","ArrowLeft","16","1","2","test","true",""
"","","","","","html-keyboard-response","194","185284","0.0-7.52-2.52","5fc2bbfa60e49e4eecc5d50b","6579d0c5e56c6e1626038f86","6579d135e56c6e1626038fa2","null","<p> <font color=""green"" size=""5vw""> Correct category! </font> <br> <br> <font color=""green"" size=""8vw""> + $0.1 </font> </p>","null","feedback","","","","","","","1.57"
"","","","","","html-keyboard-response","195","185386","0.0-7.53-0.53","5fc2bbfa60e49e4eecc5d50b","6579d0c5e56c6e1626038f86","6579d135e56c6e1626038fa2","101","
            
        <div style=""text-align: center; position: fixed; top: 5vh; left: 40vw;"">
            <div style=""margin:0 auto; width: 20vw; top: 8vh; font-size: 2vw""> 
            <font color=""green""> Bonus : $1.57 </font>
            </div>
        </div>
    
            <div> Please press any key to continue to the next movie.</div>
        ","arrowup","ITI","","","","","","",""
"","","","","","html-keyboard-response","196","185534","0.0-7.53-1.53","5fc2bbfa60e49e4eecc5d50b","6579d0c5e56c6e1626038f86","6579d135e56c6e1626038fa2","145","./stimuli//pack_morph_shapes_1/cat_2/diff_2/ex_2_2_17.mp4","arrowleft","response","ArrowRight","17","2","2","test","false",""
"","","","","","html-keyboard-response","197","187042","0.0-7.53-2.53","5fc2bbfa60e49e4eecc5d50b","6579d0c5e56c6e1626038f86","6579d135e56c6e1626038fa2","null","<p> <font color=""red"" size=""5vw""> Wrong category! </font> <br> <br> <font color=""red"" size=""8vw""> - $0.05 </font> </p>","null","feedback","","","","","","","1.52"
"","","","","","html-keyboard-response","198","187097","0.0-7.54-0.54","5fc2bbfa60e49e4eecc5d50b","6579d0c5e56c6e1626038f86","6579d135e56c6e1626038fa2","54","
            
        <div style=""text-align: center; position: fixed; top: 5vh; left: 40vw;"">
            <div style=""margin:0 auto; width: 20vw; top: 8vh; font-size: 2vw""> 
            <font color=""green""> Bonus : $1.52 </font>
            </div>
        </div>
    
            <div> Please press any key to continue to the next movie.</div>
        ","arrowup","ITI","","","","","","",""
"","","","","","html-keyboard-response","199","187258","0.0-7.54-1.54","5fc2bbfa60e49e4eecc5d50b","6579d0c5e56c6e1626038f86","6579d135e56c6e1626038fa2","157","./stimuli//pack_morph_shapes_1/cat_1/diff_2/ex_1_2_2.mp4","arrowleft","response","ArrowLeft","2","1","2","test","true",""
"","","","","","html-keyboard-response","200","188766","0.0-7.54-2.54","5fc2bbfa60e49e4eecc5d50b","6579d0c5e56c6e1626038f86","6579d135e56c6e1626038fa2","null","<p> <font color=""green"" size=""5vw""> Correct category! </font> <br> <br> <font color=""green"" size=""8vw""> + $0.1 </font> </p>","null","feedback","","","","","","","1.62"
"","","","","","html-keyboard-response","201","188994","0.0-7.55-0.55","5fc2bbfa60e49e4eecc5d50b","6579d0c5e56c6e1626038f86","6579d135e56c6e1626038fa2","227","
            
        <div style=""text-align: center; position: fixed; top: 5vh; left: 40vw;"">
            <div style=""margin:0 auto; width: 20vw; top: 8vh; font-size: 2vw""> 
            <font color=""green""> Bonus : $1.62 </font>
            </div>
        </div>
    
            <div> Please press any key to continue to the next movie.</div>
        ","arrowup","ITI","","","","","","",""
"","","","","","html-keyboard-response","202","189082","0.0-7.55-1.55","5fc2bbfa60e49e4eecc5d50b","6579d0c5e56c6e1626038f86","6579d135e56c6e1626038fa2","85","./stimuli//pack_morph_shapes_1/cat_2/diff_1/ex_2_1_8.mp4","arrowleft","response","ArrowRight","8","2","1","test","false",""
"","","","","","html-keyboard-response","203","190594","0.0-7.55-2.55","5fc2bbfa60e49e4eecc5d50b","6579d0c5e56c6e1626038f86","6579d135e56c6e1626038fa2","null","<p> <font color=""red"" size=""5vw""> Wrong category! </font> <br> <br> <font color=""red"" size=""8vw""> - $0.05 </font> </p>","null","feedback","","","","","","","1.57"
"","","","","","html-keyboard-response","204","190696","0.0-7.56-0.56","5fc2bbfa60e49e4eecc5d50b","6579d0c5e56c6e1626038f86","6579d135e56c6e1626038fa2","100","
            
        <div style=""text-align: center; position: fixed; top: 5vh; left: 40vw;"">
            <div style=""margin:0 auto; width: 20vw; top: 8vh; font-size: 2vw""> 
            <font color=""green""> Bonus : $1.57 </font>
            </div>
        </div>
    
            <div> Please press any key to continue to the next movie.</div>
        ","arrowup","ITI","","","","","","",""
"","","","","","html-keyboard-response","205","190821","0.0-7.56-1.56","5fc2bbfa60e49e4eecc5d50b","6579d0c5e56c6e1626038f86","6579d135e56c6e1626038fa2","122","./stimuli//pack_morph_shapes_1/cat_1/diff_1/ex_1_1_1.mp4","arrowleft","response","ArrowLeft","1","1","1","test","true",""
"","","","","","html-keyboard-response","206","192322","0.0-7.56-2.56","5fc2bbfa60e49e4eecc5d50b","6579d0c5e56c6e1626038f86","6579d135e56c6e1626038fa2","null","<p> <font color=""green"" size=""5vw""> Correct category! </font> <br> <br> <font color=""green"" size=""8vw""> + $0.1 </font> </p>","null","feedback","","","","","","","1.67"
"","","","","","html-keyboard-response","207","192576","0.0-7.57-0.57","5fc2bbfa60e49e4eecc5d50b","6579d0c5e56c6e1626038f86","6579d135e56c6e1626038fa2","253","
            
        <div style=""text-align: center; position: fixed; top: 5vh; left: 40vw;"">
            <div style=""margin:0 auto; width: 20vw; top: 8vh; font-size: 2vw""> 
            <font color=""green""> Bonus : $1.67 </font>
            </div>
        </div>
    
            <div> Please press any key to continue to the next movie.</div>
        ","arrowup","ITI","","","","","","",""
"","","","","","html-keyboard-response","208","192659","0.0-7.57-1.57","5fc2bbfa60e49e4eecc5d50b","6579d0c5e56c6e1626038f86","6579d135e56c6e1626038fa2","80","./stimuli//pack_morph_shapes_1/cat_2/diff_1/ex_2_1_13.mp4","arrowleft","response","ArrowRight","13","2","1","test","false",""
"","","","","","html-keyboard-response","209","194164","0.0-7.57-2.57","5fc2bbfa60e49e4eecc5d50b","6579d0c5e56c6e1626038f86","6579d135e56c6e1626038fa2","null","<p> <font color=""red"" size=""5vw""> Wrong category! </font> <br> <br> <font color=""red"" size=""8vw""> - $0.05 </font> </p>","null","feedback","","","","","","","1.62"
"","","","","","html-keyboard-response","210","194240","0.0-7.58-0.58","5fc2bbfa60e49e4eecc5d50b","6579d0c5e56c6e1626038f86","6579d135e56c6e1626038fa2","74","
            
        <div style=""text-align: center; position: fixed; top: 5vh; left: 40vw;"">
            <div style=""margin:0 auto; width: 20vw; top: 8vh; font-size: 2vw""> 
            <font color=""green""> Bonus : $1.62 </font>
            </div>
        </div>
    
            <div> Please press any key to continue to the next movie.</div>
        ","arrowup","ITI","","","","","","",""
"","","","","","html-keyboard-response","211","194358","0.0-7.58-1.58","5fc2bbfa60e49e4eecc5d50b","6579d0c5e56c6e1626038f86","6579d135e56c6e1626038fa2","115","./stimuli//pack_morph_shapes_1/cat_2/diff_1/ex_2_1_1.mp4","arrowleft","response","ArrowRight","1","2","1","test","false",""
"","","","","","html-keyboard-response","212","195861","0.0-7.58-2.58","5fc2bbfa60e49e4eecc5d50b","6579d0c5e56c6e1626038f86","6579d135e56c6e1626038fa2","null","<p> <font color=""red"" size=""5vw""> Wrong category! </font> <br> <br> <font color=""red"" size=""8vw""> - $0.05 </font> </p>","null","feedback","","","","","","","1.57"
"","","","","","html-keyboard-response","213","195877","0.0-7.59-0.59","5fc2bbfa60e49e4eecc5d50b","6579d0c5e56c6e1626038f86","6579d135e56c6e1626038fa2","15","
            
        <div style=""text-align: center; position: fixed; top: 5vh; left: 40vw;"">
            <div style=""margin:0 auto; width: 20vw; top: 8vh; font-size: 2vw""> 
            <font color=""green""> Bonus : $1.57 </font>
            </div>
        </div>
    
            <div> Please press any key to continue to the next movie.</div>
        ","arrowup","ITI","","","","","","",""
"","","","","","html-keyboard-response","214","195924","0.0-7.59-1.59","5fc2bbfa60e49e4eecc5d50b","6579d0c5e56c6e1626038f86","6579d135e56c6e1626038fa2","44","./stimuli//pack_morph_shapes_1/cat_2/diff_1/ex_2_1_10.mp4","arrowleft","response","ArrowRight","10","2","1","test","false",""
"","","","","","html-keyboard-response","215","197431","0.0-7.59-2.59","5fc2bbfa60e49e4eecc5d50b","6579d0c5e56c6e1626038f86","6579d135e56c6e1626038fa2","null","<p> <font color=""red"" size=""5vw""> Wrong category! </font> <br> <br> <font color=""red"" size=""8vw""> - $0.05 </font> </p>","null","feedback","","","","","","","1.52"
"","","","","","html-keyboard-response","216","197546","0.0-7.60-0.60","5fc2bbfa60e49e4eecc5d50b","6579d0c5e56c6e1626038f86","6579d135e56c6e1626038fa2","114","
            
        <div style=""text-align: center; position: fixed; top: 5vh; left: 40vw;"">
            <div style=""margin:0 auto; width: 20vw; top: 8vh; font-size: 2vw""> 
            <font color=""green""> Bonus : $1.52 </font>
            </div>
        </div>
    
            <div> Please press any key to continue to the next movie.</div>
        ","arrowup","ITI","","","","","","",""
"","","","","","html-keyboard-response","217","197662","0.0-7.60-1.60","5fc2bbfa60e49e4eecc5d50b","6579d0c5e56c6e1626038f86","6579d135e56c6e1626038fa2","112","./stimuli//pack_morph_shapes_1/cat_1/diff_1/ex_1_1_12.mp4","arrowleft","response","ArrowLeft","12","1","1","test","true",""
"","","","","","html-keyboard-response","218","199165","0.0-7.60-2.60","5fc2bbfa60e49e4eecc5d50b","6579d0c5e56c6e1626038f86","6579d135e56c6e1626038fa2","null","<p> <font color=""green"" size=""5vw""> Correct category! </font> <br> <br> <font color=""green"" size=""8vw""> + $0.1 </font> </p>","null","feedback","","","","","","","1.62"
"","","","","","html-keyboard-response","219","199305","0.0-7.61-0.61","5fc2bbfa60e49e4eecc5d50b","6579d0c5e56c6e1626038f86","6579d135e56c6e1626038fa2","139","
            
        <div style=""text-align: center; position: fixed; top: 5vh; left: 40vw;"">
            <div style=""margin:0 auto; width: 20vw; top: 8vh; font-size: 2vw""> 
            <font color=""green""> Bonus : $1.62 </font>
            </div>
        </div>
    
            <div> Please press any key to continue to the next movie.</div>
        ","arrowleft","ITI","","","","","","",""
"","","","","","html-keyboard-response","220","200453","0.0-7.61-1.61","5fc2bbfa60e49e4eecc5d50b","6579d0c5e56c6e1626038f86","6579d135e56c6e1626038fa2","1145","./stimuli//pack_morph_shapes_1/cat_1/diff_1/ex_1_1_11.mp4","arrowleft","response","ArrowLeft","11","1","1","test","true",""
"","","","","","html-keyboard-response","221","201965","0.0-7.61-2.61","5fc2bbfa60e49e4eecc5d50b","6579d0c5e56c6e1626038f86","6579d135e56c6e1626038fa2","null","<p> <font color=""green"" size=""5vw""> Correct category! </font> <br> <br> <font color=""green"" size=""8vw""> + $0.08 </font> </p>","null","feedback","","","","","","","1.7"
"","","","","","html-keyboard-response","222","202003","0.0-7.62-0.62","5fc2bbfa60e49e4eecc5d50b","6579d0c5e56c6e1626038f86","6579d135e56c6e1626038fa2","36","
            
        <div style=""text-align: center; position: fixed; top: 5vh; left: 40vw;"">
            <div style=""margin:0 auto; width: 20vw; top: 8vh; font-size: 2vw""> 
            <font color=""green""> Bonus : $1.7 </font>
            </div>
        </div>
    
            <div> Please press any key to continue to the next movie.</div>
        ","arrowleft","ITI","","","","","","",""
"","","","","","html-keyboard-response","223","203004","0.0-7.62-1.62","5fc2bbfa60e49e4eecc5d50b","6579d0c5e56c6e1626038f86","6579d135e56c6e1626038fa2","998","./stimuli//pack_morph_shapes_1/cat_1/diff_1/ex_1_1_10.mp4","arrowleft","response","ArrowLeft","10","1","1","test","true",""
"","","","","","html-keyboard-response","224","204512","0.0-7.62-2.62","5fc2bbfa60e49e4eecc5d50b","6579d0c5e56c6e1626038f86","6579d135e56c6e1626038fa2","null","<p> <font color=""green"" size=""5vw""> Correct category! </font> <br> <br> <font color=""green"" size=""8vw""> + $0.08 </font> </p>","null","feedback","","","","","","","1.78"
"","","","","","html-keyboard-response","225","204631","0.0-7.63-0.63","5fc2bbfa60e49e4eecc5d50b","6579d0c5e56c6e1626038f86","6579d135e56c6e1626038fa2","117","
            
        <div style=""text-align: center; position: fixed; top: 5vh; left: 40vw;"">
            <div style=""margin:0 auto; width: 20vw; top: 8vh; font-size: 2vw""> 
            <font color=""green""> Bonus : $1.78 </font>
            </div>
        </div>
    
            <div> Please press any key to continue to the next movie.</div>
        ","arrowleft","ITI","","","","","","",""
"","","","","","html-keyboard-response","226","205618","0.0-7.63-1.63","5fc2bbfa60e49e4eecc5d50b","6579d0c5e56c6e1626038f86","6579d135e56c6e1626038fa2","983","./stimuli//pack_morph_shapes_1/cat_2/diff_1/ex_2_1_17.mp4","arrowleft","response","ArrowRight","17","2","1","test","false",""
"","","","","","html-keyboard-response","227","207123","0.0-7.63-2.63","5fc2bbfa60e49e4eecc5d50b","6579d0c5e56c6e1626038f86","6579d135e56c6e1626038fa2","null","<p> <font color=""red"" size=""5vw""> Wrong category! </font> <br> <br> <font color=""red"" size=""8vw""> - $0.05 </font> </p>","null","feedback","","","","","","","1.73"
"","","","","","html-keyboard-response","228","207606","0.0-7.64-0.64","5fc2bbfa60e49e4eecc5d50b","6579d0c5e56c6e1626038f86","6579d135e56c6e1626038fa2","482","
            
        <div style=""text-align: center; position: fixed; top: 5vh; left: 40vw;"">
            <div style=""margin:0 auto; width: 20vw; top: 8vh; font-size: 2vw""> 
            <font color=""green""> Bonus : $1.73 </font>
            </div>
        </div>
    
            <div> Please press any key to continue to the next movie.</div>
        ","arrowleft","ITI","","","","","","",""
"","","","","","html-keyboard-response","229","207892","0.0-7.64-1.64","5fc2bbfa60e49e4eecc5d50b","6579d0c5e56c6e1626038f86","6579d135e56c6e1626038fa2","282","./stimuli//pack_morph_shapes_1/cat_2/diff_1/ex_2_1_13.mp4","arrowleft","response","ArrowRight","13","2","1","test","false",""
"","","","","","html-keyboard-response","230","209394","0.0-7.64-2.64","5fc2bbfa60e49e4eecc5d50b","6579d0c5e56c6e1626038f86","6579d135e56c6e1626038fa2","null","<p> <font color=""red"" size=""5vw""> Wrong category! </font> <br> <br> <font color=""red"" size=""8vw""> - $0.05 </font> </p>","null","feedback","","","","","","","1.68"
"","","","","","html-keyboard-response","231","209771","0.0-7.65-0.65","5fc2bbfa60e49e4eecc5d50b","6579d0c5e56c6e1626038f86","6579d135e56c6e1626038fa2","376","
            
        <div style=""text-align: center; position: fixed; top: 5vh; left: 40vw;"">
            <div style=""margin:0 auto; width: 20vw; top: 8vh; font-size: 2vw""> 
            <font color=""green""> Bonus : $1.68 </font>
            </div>
        </div>
    
            <div> Please press any key to continue to the next movie.</div>
        ","arrowleft","ITI","","","","","","",""
"","","","","","html-keyboard-response","232","209956","0.0-7.65-1.65","5fc2bbfa60e49e4eecc5d50b","6579d0c5e56c6e1626038f86","6579d135e56c6e1626038fa2","181","./stimuli//pack_morph_shapes_1/cat_1/diff_1/ex_1_1_14.mp4","arrowleft","response","ArrowLeft","14","1","1","test","true",""
"","","","","","html-keyboard-response","233","211464","0.0-7.65-2.65","5fc2bbfa60e49e4eecc5d50b","6579d0c5e56c6e1626038f86","6579d135e56c6e1626038fa2","null","<p> <font color=""green"" size=""5vw""> Correct category! </font> <br> <br> <font color=""green"" size=""8vw""> + $0.1 </font> </p>","null","feedback","","","","","","","1.78"
"","","","","","html-keyboard-response","234","211562","0.0-7.66-0.66","5fc2bbfa60e49e4eecc5d50b","6579d0c5e56c6e1626038f86","6579d135e56c6e1626038fa2","96","
            
        <div style=""text-align: center; position: fixed; top: 5vh; left: 40vw;"">
            <div style=""margin:0 auto; width: 20vw; top: 8vh; font-size: 2vw""> 
            <font color=""green""> Bonus : $1.78 </font>
            </div>
        </div>
    
            <div> Please press any key to continue to the next movie.</div>
        ","arrowleft","ITI","","","","","","",""
"","","","","","html-keyboard-response","235","211709","0.0-7.66-1.66","5fc2bbfa60e49e4eecc5d50b","6579d0c5e56c6e1626038f86","6579d135e56c6e1626038fa2","144","./stimuli//pack_morph_shapes_1/cat_2/diff_1/ex_2_1_16.mp4","arrowleft","response","ArrowRight","16","2","1","test","false",""
"","","","","","html-keyboard-response","236","213212","0.0-7.66-2.66","5fc2bbfa60e49e4eecc5d50b","6579d0c5e56c6e1626038f86","6579d135e56c6e1626038fa2","null","<p> <font color=""red"" size=""5vw""> Wrong category! </font> <br> <br> <font color=""red"" size=""8vw""> - $0.05 </font> </p>","null","feedback","","","","","","","1.73"
"","","","","","html-keyboard-response","237","213476","0.0-7.67-0.67","5fc2bbfa60e49e4eecc5d50b","6579d0c5e56c6e1626038f86","6579d135e56c6e1626038fa2","262","
            
        <div style=""text-align: center; position: fixed; top: 5vh; left: 40vw;"">
            <div style=""margin:0 auto; width: 20vw; top: 8vh; font-size: 2vw""> 
            <font color=""green""> Bonus : $1.73 </font>
            </div>
        </div>
    
            <div> Please press any key to continue to the next movie.</div>
        ","arrowleft","ITI","","","","","","",""
"","","","","","html-keyboard-response","238","213691","0.0-7.67-1.67","5fc2bbfa60e49e4eecc5d50b","6579d0c5e56c6e1626038f86","6579d135e56c6e1626038fa2","213","./stimuli//pack_morph_shapes_1/cat_2/diff_1/ex_2_1_6.mp4","arrowleft","response","ArrowRight","6","2","1","test","false",""
"","","","","","html-keyboard-response","239","215204","0.0-7.67-2.67","5fc2bbfa60e49e4eecc5d50b","6579d0c5e56c6e1626038f86","6579d135e56c6e1626038fa2","null","<p> <font color=""red"" size=""5vw""> Wrong category! </font> <br> <br> <font color=""red"" size=""8vw""> - $0.05 </font> </p>","null","feedback","","","","","","","1.68"
"","","","","","html-keyboard-response","240","215374","0.0-7.68-0.68","5fc2bbfa60e49e4eecc5d50b","6579d0c5e56c6e1626038f86","6579d135e56c6e1626038fa2","168","
            
        <div style=""text-align: center; position: fixed; top: 5vh; left: 40vw;"">
            <div style=""margin:0 auto; width: 20vw; top: 8vh; font-size: 2vw""> 
            <font color=""green""> Bonus : $1.68 </font>
            </div>
        </div>
    
            <div> Please press any key to continue to the next movie.</div>
        ","arrowleft","ITI","","","","","","",""
"","","","","","html-keyboard-response","241","215570","0.0-7.68-1.68","5fc2bbfa60e49e4eecc5d50b","6579d0c5e56c6e1626038f86","6579d135e56c6e1626038fa2","193","./stimuli//pack_morph_shapes_1/cat_1/diff_1/ex_1_1_3.mp4","arrowleft","response","ArrowLeft","3","1","1","test","true",""
"","","","","","html-keyboard-response","242","217072","0.0-7.68-2.68","5fc2bbfa60e49e4eecc5d50b","6579d0c5e56c6e1626038f86","6579d135e56c6e1626038fa2","null","<p> <font color=""green"" size=""5vw""> Correct category! </font> <br> <br> <font color=""green"" size=""8vw""> + $0.1 </font> </p>","null","feedback","","","","","","","1.78"
"","","","","","html-keyboard-response","243","217104","0.0-7.69-0.69","5fc2bbfa60e49e4eecc5d50b","6579d0c5e56c6e1626038f86","6579d135e56c6e1626038fa2","31","
            
        <div style=""text-align: center; position: fixed; top: 5vh; left: 40vw;"">
            <div style=""margin:0 auto; width: 20vw; top: 8vh; font-size: 2vw""> 
            <font color=""green""> Bonus : $1.78 </font>
            </div>
        </div>
    
            <div> Please press any key to continue to the next movie.</div>
        ","arrowleft","ITI","","","","","","",""
"","","","","","html-keyboard-response","244","217282","0.0-7.69-1.69","5fc2bbfa60e49e4eecc5d50b","6579d0c5e56c6e1626038f86","6579d135e56c6e1626038fa2","175","./stimuli//pack_morph_shapes_1/cat_1/diff_1/ex_1_1_10.mp4","arrowleft","response","ArrowLeft","10","1","1","test","true",""
"","","","","","html-keyboard-response","245","218789","0.0-7.69-2.69","5fc2bbfa60e49e4eecc5d50b","6579d0c5e56c6e1626038f86","6579d135e56c6e1626038fa2","null","<p> <font color=""green"" size=""5vw""> Correct category! </font> <br> <br> <font color=""green"" size=""8vw""> + $0.1 </font> </p>","null","feedback","","","","","","","1.88"
"","","","","","html-keyboard-response","246","218824","0.0-7.70-0.70","5fc2bbfa60e49e4eecc5d50b","6579d0c5e56c6e1626038f86","6579d135e56c6e1626038fa2","34","
            
        <div style=""text-align: center; position: fixed; top: 5vh; left: 40vw;"">
            <div style=""margin:0 auto; width: 20vw; top: 8vh; font-size: 2vw""> 
            <font color=""green""> Bonus : $1.88 </font>
            </div>
        </div>
    
            <div> Please press any key to continue to the next movie.</div>
        ","arrowleft","ITI","","","","","","",""
"","","","","","html-keyboard-response","247","219203","0.0-7.70-1.70","5fc2bbfa60e49e4eecc5d50b","6579d0c5e56c6e1626038f86","6579d135e56c6e1626038fa2","377","./stimuli//pack_morph_shapes_1/cat_2/diff_1/ex_2_1_8.mp4","arrowleft","response","ArrowRight","8","2","1","test","false",""
"","","","","","html-keyboard-response","248","220709","0.0-7.70-2.70","5fc2bbfa60e49e4eecc5d50b","6579d0c5e56c6e1626038f86","6579d135e56c6e1626038fa2","null","<p> <font color=""red"" size=""5vw""> Wrong category! </font> <br> <br> <font color=""red"" size=""8vw""> - $0.05 </font> </p>","null","feedback","","","","","","","1.83"
"","","","","","html-keyboard-response","249","220836","0.0-7.71-0.71","5fc2bbfa60e49e4eecc5d50b","6579d0c5e56c6e1626038f86","6579d135e56c6e1626038fa2","126","
            
        <div style=""text-align: center; position: fixed; top: 5vh; left: 40vw;"">
            <div style=""margin:0 auto; width: 20vw; top: 8vh; font-size: 2vw""> 
            <font color=""green""> Bonus : $1.83 </font>
            </div>
        </div>
    
            <div> Please press any key to continue to the next movie.</div>
        ","arrowleft","ITI","","","","","","",""
"","","","","","html-keyboard-response","250","221030","0.0-7.71-1.71","5fc2bbfa60e49e4eecc5d50b","6579d0c5e56c6e1626038f86","6579d135e56c6e1626038fa2","190","./stimuli//pack_morph_shapes_1/cat_2/diff_1/ex_2_1_12.mp4","arrowleft","response","ArrowRight","12","2","1","test","false",""
"","","","","","html-keyboard-response","251","222544","0.0-7.71-2.71","5fc2bbfa60e49e4eecc5d50b","6579d0c5e56c6e1626038f86","6579d135e56c6e1626038fa2","null","<p> <font color=""red"" size=""5vw""> Wrong category! </font> <br> <br> <font color=""red"" size=""8vw""> - $0.05 </font> </p>","null","feedback","","","","","","","1.78"
"","","","","","html-keyboard-response","252","222674","0.0-7.72-0.72","5fc2bbfa60e49e4eecc5d50b","6579d0c5e56c6e1626038f86","6579d135e56c6e1626038fa2","129","
            
        <div style=""text-align: center; position: fixed; top: 5vh; left: 40vw;"">
            <div style=""margin:0 auto; width: 20vw; top: 8vh; font-size: 2vw""> 
            <font color=""green""> Bonus : $1.78 </font>
            </div>
        </div>
    
            <div> Please press any key to continue to the next movie.</div>
        ","arrowleft","ITI","","","","","","",""
"","","","","","html-keyboard-response","253","223043","0.0-7.72-1.72","5fc2bbfa60e49e4eecc5d50b","6579d0c5e56c6e1626038f86","6579d135e56c6e1626038fa2","366","./stimuli//pack_morph_shapes_1/cat_2/diff_1/ex_2_1_5.mp4","arrowleft","response","ArrowRight","5","2","1","test","false",""
"","","","","","html-keyboard-response","254","224544","0.0-7.72-2.72","5fc2bbfa60e49e4eecc5d50b","6579d0c5e56c6e1626038f86","6579d135e56c6e1626038fa2","null","<p> <font color=""red"" size=""5vw""> Wrong category! </font> <br> <br> <font color=""red"" size=""8vw""> - $0.05 </font> </p>","null","feedback","","","","","","","1.73"
"","","","","","html-keyboard-response","255","224796","0.0-7.73-0.73","5fc2bbfa60e49e4eecc5d50b","6579d0c5e56c6e1626038f86","6579d135e56c6e1626038fa2","250","
            
        <div style=""text-align: center; position: fixed; top: 5vh; left: 40vw;"">
            <div style=""margin:0 auto; width: 20vw; top: 8vh; font-size: 2vw""> 
