"success","timeout","failed_images","failed_audio","failed_video","trial_type","trial_index","time_elapsed","internal_node_id","subject_id","study_id","session_id","rt","stimulus","response","task","correct_response","exemplar_ID","category","difficulty","phase","correct","bonus"
"true","false","[]","[]","[]","preload","0","2","0.0-0.0","656a080b54dcaea76f48f4e9","6579d0c5e56c6e1626038f86","6579d0fa0164dbb1754cf98d","","","","","","","","","","",""
"","","","","","html-keyboard-response","1","1824","0.0-1.0","656a080b54dcaea76f48f4e9","6579d0c5e56c6e1626038f86","6579d0fa0164dbb1754cf98d","1822","Welcome to the Category Learning experiment! Press any key to continue."," ","welcome","","","","","","",""
"","","","","","html-keyboard-response","2","6472","0.0-2.0","656a080b54dcaea76f48f4e9","6579d0c5e56c6e1626038f86","6579d0fa0164dbb1754cf98d","4647","
            <p>You will be shown movies. Each movie contains a shape that initially is hidden and is gradually revealed. 
            <br> Some shapes are category A, some are category B.
            <br> You will not know in advance which category each shape belongs to.</p>
            <p> While you watch a movie, you have to guess the category that the shape you see belongs to <b>(left arrow for category A, right arrow for category B)</b></p>
            <p> After you choose, the screen will show you whether you were correct or not.</p>
            <p>Press any key to continue.</p>
            "," ","introduction_1","","","","","","",""
"","","","","","html-keyboard-response","3","9880","0.0-3.0","656a080b54dcaea76f48f4e9","6579d0c5e56c6e1626038f86","6579d0fa0164dbb1754cf98d","3408","
              <p><b>You will receive a bonus payment for each correct answer! The faster you answer the higher the bonus will be!</b></p>
              <p> So you can increase your bonus by guessing as quickly and accurately as possible.</p>
              <p><b>You will lose $0.05 from your bonus payment for each incorrect answer! The bonus can not become less than $0.</b> </p>
              <p>Press any key to continue.</p>
              "," ","introduction_2","","","","","","",""
"","","","","","html-keyboard-response","4","11624","0.0-4.0","656a080b54dcaea76f48f4e9","6579d0c5e56c6e1626038f86","6579d0fa0164dbb1754cf98d","1744","
            <p> <b>The first 10 movies are a practice round that will not count towards your bonus payment.</b></p>
            <p> You will be notified when practice finishes and the test begins. </p>
            <p> Press any key to begin the practice round.</p>
            "," ","introduction_3","","","","","","",""
"","","","","","html-keyboard-response","5","13784","0.0-5.0-0.0","656a080b54dcaea76f48f4e9","6579d0c5e56c6e1626038f86","6579d0fa0164dbb1754cf98d","2159","
            
        <div style=""text-align: center; position: fixed; top: 5vh; left: 40vw;"">
            <div style=""margin:0 auto; width: 20vw; top: 8vh; font-size: 2vw""> 
            <font color=""green""> Bonus : $0 </font>
            </div>
        </div>
    
            <div> Please press any key to continue to the next movie.</div>
        "," ","ITI","","","","","","",""
"","","","","","html-keyboard-response","6","18786","0.0-5.0-1.0","656a080b54dcaea76f48f4e9","6579d0c5e56c6e1626038f86","6579d0fa0164dbb1754cf98d","null","./stimuli//pack_morph_shapes_1/cat_2/diff_1/ex_2_1_13.mp4","null","response","ArrowRight","13","2","1","train","false",""
"","","","","","html-keyboard-response","7","20287","0.0-5.0-2.0","656a080b54dcaea76f48f4e9","6579d0c5e56c6e1626038f86","6579d0fa0164dbb1754cf98d","null","<p> <font color=""red"" size=""5vw""> Time out! </font> <br> Please try to respond as quickly as possible. </p>","null","feedback","","","","","","","0"
"","","","","","html-keyboard-response","8","20463","0.0-5.0-0.1","656a080b54dcaea76f48f4e9","6579d0c5e56c6e1626038f86","6579d0fa0164dbb1754cf98d","176","
            
        <div style=""text-align: center; position: fixed; top: 5vh; left: 40vw;"">
            <div style=""margin:0 auto; width: 20vw; top: 8vh; font-size: 2vw""> 
            <font color=""green""> Bonus : $0 </font>
            </div>
        </div>
    
            <div> Please press any key to continue to the next movie.</div>
        "," ","ITI","","","","","","",""
"","","","","","html-keyboard-response","9","22247","0.0-5.0-1.1","656a080b54dcaea76f48f4e9","6579d0c5e56c6e1626038f86","6579d0fa0164dbb1754cf98d","1783","./stimuli//pack_morph_shapes_1/cat_2/diff_2/ex_2_2_15.mp4","arrowright","response","ArrowRight","15","2","2","train","true",""
"","","","","","html-keyboard-response","10","23748","0.0-5.0-2.1","656a080b54dcaea76f48f4e9","6579d0c5e56c6e1626038f86","6579d0fa0164dbb1754cf98d","null","<p> <font color=""green"" size=""5vw""> Correct category! </font> </p>","null","feedback","","","","","","","0"
"","","","","","html-keyboard-response","11","24295","0.0-5.0-0.2","656a080b54dcaea76f48f4e9","6579d0c5e56c6e1626038f86","6579d0fa0164dbb1754cf98d","546","
            
        <div style=""text-align: center; position: fixed; top: 5vh; left: 40vw;"">
            <div style=""margin:0 auto; width: 20vw; top: 8vh; font-size: 2vw""> 
            <font color=""green""> Bonus : $0 </font>
            </div>
        </div>
    
            <div> Please press any key to continue to the next movie.</div>
        ","arrowright","ITI","","","","","","",""
"","","","","","html-keyboard-response","12","25927","0.0-5.0-1.2","656a080b54dcaea76f48f4e9","6579d0c5e56c6e1626038f86","6579d0fa0164dbb1754cf98d","1631","./stimuli//pack_morph_shapes_1/cat_2/diff_2/ex_2_2_10.mp4","arrowleft","response","ArrowRight","10","2","2","train","false",""
"","","","","","html-keyboard-response","13","27428","0.0-5.0-2.2","656a080b54dcaea76f48f4e9","6579d0c5e56c6e1626038f86","6579d0fa0164dbb1754cf98d","null","<p> <font color=""red"" size=""5vw""> Wrong category! </font> </p>","null","feedback","","","","","","","0"
"","","","","","html-keyboard-response","14","27967","0.0-5.0-0.3","656a080b54dcaea76f48f4e9","6579d0c5e56c6e1626038f86","6579d0fa0164dbb1754cf98d","539","
            
        <div style=""text-align: center; position: fixed; top: 5vh; left: 40vw;"">
            <div style=""margin:0 auto; width: 20vw; top: 8vh; font-size: 2vw""> 
            <font color=""green""> Bonus : $0 </font>
            </div>
        </div>
    
            <div> Please press any key to continue to the next movie.</div>
        ","arrowright","ITI","","","","","","",""
"","","","","","html-keyboard-response","15","31151","0.0-5.0-1.3","656a080b54dcaea76f48f4e9","6579d0c5e56c6e1626038f86","6579d0fa0164dbb1754cf98d","3183","./stimuli//pack_morph_shapes_1/cat_1/diff_2/ex_1_2_16.mp4","arrowright","response","ArrowLeft","16","1","2","train","false",""
"","","","","","html-keyboard-response","16","32653","0.0-5.0-2.3","656a080b54dcaea76f48f4e9","6579d0c5e56c6e1626038f86","6579d0fa0164dbb1754cf98d","null","<p> <font color=""red"" size=""5vw""> Wrong category! </font> </p>","null","feedback","","","","","","","0"
"","","","","","html-keyboard-response","17","32752","0.0-5.0-0.4","656a080b54dcaea76f48f4e9","6579d0c5e56c6e1626038f86","6579d0fa0164dbb1754cf98d","98","
            
        <div style=""text-align: center; position: fixed; top: 5vh; left: 40vw;"">
            <div style=""margin:0 auto; width: 20vw; top: 8vh; font-size: 2vw""> 
            <font color=""green""> Bonus : $0 </font>
            </div>
        </div>
    
            <div> Please press any key to continue to the next movie.</div>
        ","arrowright","ITI","","","","","","",""
"","","","","","html-keyboard-response","18","36087","0.0-5.0-1.4","656a080b54dcaea76f48f4e9","6579d0c5e56c6e1626038f86","6579d0fa0164dbb1754cf98d","3335","./stimuli//pack_morph_shapes_1/cat_1/diff_1/ex_1_1_14.mp4","arrowleft","response","ArrowLeft","14","1","1","train","true",""
"","","","","","html-keyboard-response","19","37588","0.0-5.0-2.4","656a080b54dcaea76f48f4e9","6579d0c5e56c6e1626038f86","6579d0fa0164dbb1754cf98d","null","<p> <font color=""green"" size=""5vw""> Correct category! </font> </p>","null","feedback","","","","","","","0"
"","","","","","html-keyboard-response","20","38055","0.0-5.0-0.5","656a080b54dcaea76f48f4e9","6579d0c5e56c6e1626038f86","6579d0fa0164dbb1754cf98d","467","
            
        <div style=""text-align: center; position: fixed; top: 5vh; left: 40vw;"">
            <div style=""margin:0 auto; width: 20vw; top: 8vh; font-size: 2vw""> 
            <font color=""green""> Bonus : $0 </font>
            </div>
        </div>
    
            <div> Please press any key to continue to the next movie.</div>
        ","arrowleft","ITI","","","","","","",""
"","","","","","html-keyboard-response","21","40248","0.0-5.0-1.5","656a080b54dcaea76f48f4e9","6579d0c5e56c6e1626038f86","6579d0fa0164dbb1754cf98d","2192","./stimuli//pack_morph_shapes_1/cat_1/diff_1/ex_1_1_3.mp4","arrowleft","response","ArrowLeft","3","1","1","train","true",""
"","","","","","html-keyboard-response","22","41750","0.0-5.0-2.5","656a080b54dcaea76f48f4e9","6579d0c5e56c6e1626038f86","6579d0fa0164dbb1754cf98d","null","<p> <font color=""green"" size=""5vw""> Correct category! </font> </p>","null","feedback","","","","","","","0"
"","","","","","html-keyboard-response","23","42224","0.0-5.0-0.6","656a080b54dcaea76f48f4e9","6579d0c5e56c6e1626038f86","6579d0fa0164dbb1754cf98d","473","
            
        <div style=""text-align: center; position: fixed; top: 5vh; left: 40vw;"">
            <div style=""margin:0 auto; width: 20vw; top: 8vh; font-size: 2vw""> 
            <font color=""green""> Bonus : $0 </font>
            </div>
        </div>
    
            <div> Please press any key to continue to the next movie.</div>
        ","arrowleft","ITI","","","","","","",""
"","","","","","html-keyboard-response","24","43303","0.0-5.0-1.6","656a080b54dcaea76f48f4e9","6579d0c5e56c6e1626038f86","6579d0fa0164dbb1754cf98d","1079","./stimuli//pack_morph_shapes_1/cat_1/diff_2/ex_1_2_6.mp4","arrowleft","response","ArrowLeft","6","1","2","train","true",""
"","","","","","html-keyboard-response","25","44804","0.0-5.0-2.6","656a080b54dcaea76f48f4e9","6579d0c5e56c6e1626038f86","6579d0fa0164dbb1754cf98d","null","<p> <font color=""green"" size=""5vw""> Correct category! </font> </p>","null","feedback","","","","","","","0"
"","","","","","html-keyboard-response","26","44879","0.0-5.0-0.7","656a080b54dcaea76f48f4e9","6579d0c5e56c6e1626038f86","6579d0fa0164dbb1754cf98d","75","
            
        <div style=""text-align: center; position: fixed; top: 5vh; left: 40vw;"">
            <div style=""margin:0 auto; width: 20vw; top: 8vh; font-size: 2vw""> 
            <font color=""green""> Bonus : $0 </font>
            </div>
        </div>
    
            <div> Please press any key to continue to the next movie.</div>
        ","arrowleft","ITI","","","","","","",""
"","","","","","html-keyboard-response","27","46055","0.0-5.0-1.7","656a080b54dcaea76f48f4e9","6579d0c5e56c6e1626038f86","6579d0fa0164dbb1754cf98d","1175","./stimuli//pack_morph_shapes_1/cat_2/diff_1/ex_2_1_5.mp4","arrowright","response","ArrowRight","5","2","1","train","true",""
"","","","","","html-keyboard-response","28","47557","0.0-5.0-2.7","656a080b54dcaea76f48f4e9","6579d0c5e56c6e1626038f86","6579d0fa0164dbb1754cf98d","null","<p> <font color=""green"" size=""5vw""> Correct category! </font> </p>","null","feedback","","","","","","","0"
"","","","","","html-keyboard-response","29","47991","0.0-5.0-0.8","656a080b54dcaea76f48f4e9","6579d0c5e56c6e1626038f86","6579d0fa0164dbb1754cf98d","434","
            
        <div style=""text-align: center; position: fixed; top: 5vh; left: 40vw;"">
            <div style=""margin:0 auto; width: 20vw; top: 8vh; font-size: 2vw""> 
            <font color=""green""> Bonus : $0 </font>
            </div>
        </div>
    
            <div> Please press any key to continue to the next movie.</div>
        ","arrowright","ITI","","","","","","",""
"","","","","","html-keyboard-response","30","51304","0.0-5.0-1.8","656a080b54dcaea76f48f4e9","6579d0c5e56c6e1626038f86","6579d0fa0164dbb1754cf98d","3311","./stimuli//pack_morph_shapes_1/cat_1/diff_1/ex_1_1_16.mp4","arrowleft","response","ArrowLeft","16","1","1","train","true",""
"","","","","","html-keyboard-response","31","52805","0.0-5.0-2.8","656a080b54dcaea76f48f4e9","6579d0c5e56c6e1626038f86","6579d0fa0164dbb1754cf98d","null","<p> <font color=""green"" size=""5vw""> Correct category! </font> </p>","null","feedback","","","","","","","0"
"","","","","","html-keyboard-response","32","53623","0.0-5.0-0.9","656a080b54dcaea76f48f4e9","6579d0c5e56c6e1626038f86","6579d0fa0164dbb1754cf98d","819","
            
        <div style=""text-align: center; position: fixed; top: 5vh; left: 40vw;"">
            <div style=""margin:0 auto; width: 20vw; top: 8vh; font-size: 2vw""> 
            <font color=""green""> Bonus : $0 </font>
            </div>
        </div>
    
            <div> Please press any key to continue to the next movie.</div>
        ","arrowleft","ITI","","","","","","",""
"","","","","","html-keyboard-response","33","56751","0.0-5.0-1.9","656a080b54dcaea76f48f4e9","6579d0c5e56c6e1626038f86","6579d0fa0164dbb1754cf98d","3127","./stimuli//pack_morph_shapes_1/cat_2/diff_1/ex_2_1_8.mp4","arrowright","response","ArrowRight","8","2","1","train","true",""
"","","","","","html-keyboard-response","34","58253","0.0-5.0-2.9","656a080b54dcaea76f48f4e9","6579d0c5e56c6e1626038f86","6579d0fa0164dbb1754cf98d","null","<p> <font color=""green"" size=""5vw""> Correct category! </font> </p>","null","feedback","","","","","","","0"
"","","","","","html-keyboard-response","35","64630","0.0-6.0","656a080b54dcaea76f48f4e9","6579d0c5e56c6e1626038f86","6579d0fa0164dbb1754cf98d","6378","
            <b> <p> The practice round has finished.</p>
            <b> <p> For the rest of the experiment you will receive a bonus payment for each correct answer, which will be higher the faster you answer!</b></p>
            <b> <p> Also you will lose $0.05 from your bonus payment for each incorrect answer!</p>
            <p> Press any key to begin the test. </p>
            ","arrowright","intermission","","","","","","",""
"","","","","","html-keyboard-response","36","65366","0.0-7.0-0.0","656a080b54dcaea76f48f4e9","6579d0c5e56c6e1626038f86","6579d0fa0164dbb1754cf98d","735","
            
        <div style=""text-align: center; position: fixed; top: 5vh; left: 40vw;"">
            <div style=""margin:0 auto; width: 20vw; top: 8vh; font-size: 2vw""> 
            <font color=""green""> Bonus : $0 </font>
            </div>
        </div>
    
            <div> Please press any key to continue to the next movie.</div>
        ","arrowright","ITI","","","","","","",""
"","","","","","html-keyboard-response","37","67775","0.0-7.0-1.0","656a080b54dcaea76f48f4e9","6579d0c5e56c6e1626038f86","6579d0fa0164dbb1754cf98d","2407","./stimuli//pack_morph_shapes_1/cat_2/diff_1/ex_2_1_17.mp4","arrowright","response","ArrowRight","17","2","1","test","true",""
"","","","","","html-keyboard-response","38","69276","0.0-7.0-2.0","656a080b54dcaea76f48f4e9","6579d0c5e56c6e1626038f86","6579d0fa0164dbb1754cf98d","null","<p> <font color=""green"" size=""5vw""> Correct category! </font> <br> <br> <font color=""green"" size=""8vw""> + $0.06 </font> </p>","null","feedback","","","","","","","0.06"
"","","","","","html-keyboard-response","39","69678","0.0-7.1-0.1","656a080b54dcaea76f48f4e9","6579d0c5e56c6e1626038f86","6579d0fa0164dbb1754cf98d","402","
            
        <div style=""text-align: center; position: fixed; top: 5vh; left: 40vw;"">
            <div style=""margin:0 auto; width: 20vw; top: 8vh; font-size: 2vw""> 
            <font color=""green""> Bonus : $0.06 </font>
            </div>
        </div>
    
            <div> Please press any key to continue to the next movie.</div>
        ","arrowright","ITI","","","","","","",""
"","","","","","html-keyboard-response","40","72318","0.0-7.1-1.1","656a080b54dcaea76f48f4e9","6579d0c5e56c6e1626038f86","6579d0fa0164dbb1754cf98d","2639","./stimuli//pack_morph_shapes_1/cat_2/diff_1/ex_2_1_12.mp4","arrowright","response","ArrowRight","12","2","1","test","true",""
"","","","","","html-keyboard-response","41","73820","0.0-7.1-2.1","656a080b54dcaea76f48f4e9","6579d0c5e56c6e1626038f86","6579d0fa0164dbb1754cf98d","null","<p> <font color=""green"" size=""5vw""> Correct category! </font> <br> <br> <font color=""green"" size=""8vw""> + $0.06 </font> </p>","null","feedback","","","","","","","0.12"
"","","","","","html-keyboard-response","42","74575","0.0-7.2-0.2","656a080b54dcaea76f48f4e9","6579d0c5e56c6e1626038f86","6579d0fa0164dbb1754cf98d","755","
            
        <div style=""text-align: center; position: fixed; top: 5vh; left: 40vw;"">
            <div style=""margin:0 auto; width: 20vw; top: 8vh; font-size: 2vw""> 
            <font color=""green""> Bonus : $0.12 </font>
            </div>
        </div>
    
            <div> Please press any key to continue to the next movie.</div>
        ","arrowright","ITI","","","","","","",""
"","","","","","html-keyboard-response","43","77326","0.0-7.2-1.2","656a080b54dcaea76f48f4e9","6579d0c5e56c6e1626038f86","6579d0fa0164dbb1754cf98d","2750","./stimuli//pack_morph_shapes_1/cat_2/diff_1/ex_2_1_14.mp4","arrowright","response","ArrowRight","14","2","1","test","true",""
"","","","","","html-keyboard-response","44","78828","0.0-7.2-2.2","656a080b54dcaea76f48f4e9","6579d0c5e56c6e1626038f86","6579d0fa0164dbb1754cf98d","null","<p> <font color=""green"" size=""5vw""> Correct category! </font> <br> <br> <font color=""green"" size=""8vw""> + $0.06 </font> </p>","null","feedback","","","","","","","0.18"
"","","","","","html-keyboard-response","45","79198","0.0-7.3-0.3","656a080b54dcaea76f48f4e9","6579d0c5e56c6e1626038f86","6579d0fa0164dbb1754cf98d","370","
            
        <div style=""text-align: center; position: fixed; top: 5vh; left: 40vw;"">
            <div style=""margin:0 auto; width: 20vw; top: 8vh; font-size: 2vw""> 
            <font color=""green""> Bonus : $0.18 </font>
            </div>
        </div>
    
            <div> Please press any key to continue to the next movie.</div>
        ","arrowright","ITI","","","","","","",""
"","","","","","html-keyboard-response","46","81998","0.0-7.3-1.3","656a080b54dcaea76f48f4e9","6579d0c5e56c6e1626038f86","6579d0fa0164dbb1754cf98d","2799","./stimuli//pack_morph_shapes_1/cat_1/diff_1/ex_1_1_10.mp4","arrowleft","response","ArrowLeft","10","1","1","test","true",""
"","","","","","html-keyboard-response","47","83500","0.0-7.3-2.3","656a080b54dcaea76f48f4e9","6579d0c5e56c6e1626038f86","6579d0fa0164dbb1754cf98d","null","<p> <font color=""green"" size=""5vw""> Correct category! </font> <br> <br> <font color=""green"" size=""8vw""> + $0.06 </font> </p>","null","feedback","","","","","","","0.24"
"","","","","","html-keyboard-response","48","83638","0.0-7.4-0.4","656a080b54dcaea76f48f4e9","6579d0c5e56c6e1626038f86","6579d0fa0164dbb1754cf98d","138","
            
        <div style=""text-align: center; position: fixed; top: 5vh; left: 40vw;"">
            <div style=""margin:0 auto; width: 20vw; top: 8vh; font-size: 2vw""> 
            <font color=""green""> Bonus : $0.24 </font>
            </div>
        </div>
    
            <div> Please press any key to continue to the next movie.</div>
        ","arrowright","ITI","","","","","","",""
"","","","","","html-keyboard-response","49","85910","0.0-7.4-1.4","656a080b54dcaea76f48f4e9","6579d0c5e56c6e1626038f86","6579d0fa0164dbb1754cf98d","2271","./stimuli//pack_morph_shapes_1/cat_1/diff_1/ex_1_1_10.mp4","arrowleft","response","ArrowLeft","10","1","1","test","true",""
"","","","","","html-keyboard-response","50","87412","0.0-7.4-2.4","656a080b54dcaea76f48f4e9","6579d0c5e56c6e1626038f86","6579d0fa0164dbb1754cf98d","null","<p> <font color=""green"" size=""5vw""> Correct category! </font> <br> <br> <font color=""green"" size=""8vw""> + $0.06 </font> </p>","null","feedback","","","","","","","0.3"
"","","","","","html-keyboard-response","51","87735","0.0-7.5-0.5","656a080b54dcaea76f48f4e9","6579d0c5e56c6e1626038f86","6579d0fa0164dbb1754cf98d","323","
            
        <div style=""text-align: center; position: fixed; top: 5vh; left: 40vw;"">
            <div style=""margin:0 auto; width: 20vw; top: 8vh; font-size: 2vw""> 
            <font color=""green""> Bonus : $0.3 </font>
            </div>
        </div>
    
            <div> Please press any key to continue to the next movie.</div>
        ","arrowleft","ITI","","","","","","",""
"","","","","","html-keyboard-response","52","90646","0.0-7.5-1.5","656a080b54dcaea76f48f4e9","6579d0c5e56c6e1626038f86","6579d0fa0164dbb1754cf98d","2910","./stimuli//pack_morph_shapes_1/cat_2/diff_2/ex_2_2_12.mp4","arrowleft","response","ArrowRight","12","2","2","test","false",""
"","","","","","html-keyboard-response","53","92147","0.0-7.5-2.5","656a080b54dcaea76f48f4e9","6579d0c5e56c6e1626038f86","6579d0fa0164dbb1754cf98d","null","<p> <font color=""red"" size=""5vw""> Wrong category! </font> <br> <br> <font color=""red"" size=""8vw""> - $0.05 </font> </p>","null","feedback","","","","","","","0.25"
"","","","","","html-keyboard-response","54","92679","0.0-7.6-0.6","656a080b54dcaea76f48f4e9","6579d0c5e56c6e1626038f86","6579d0fa0164dbb1754cf98d","531","
            
        <div style=""text-align: center; position: fixed; top: 5vh; left: 40vw;"">
            <div style=""margin:0 auto; width: 20vw; top: 8vh; font-size: 2vw""> 
            <font color=""green""> Bonus : $0.25 </font>
            </div>
        </div>
    
            <div> Please press any key to continue to the next movie.</div>
        ","arrowright","ITI","","","","","","",""
"","","","","","html-keyboard-response","55","95582","0.0-7.6-1.6","656a080b54dcaea76f48f4e9","6579d0c5e56c6e1626038f86","6579d0fa0164dbb1754cf98d","2903","./stimuli//pack_morph_shapes_1/cat_2/diff_2/ex_2_2_4.mp4","arrowright","response","ArrowRight","4","2","2","test","true",""
"","","","","","html-keyboard-response","56","97084","0.0-7.6-2.6","656a080b54dcaea76f48f4e9","6579d0c5e56c6e1626038f86","6579d0fa0164dbb1754cf98d","null","<p> <font color=""green"" size=""5vw""> Correct category! </font> <br> <br> <font color=""green"" size=""8vw""> + $0.06 </font> </p>","null","feedback","","","","","","","0.31"
"","","","","","html-keyboard-response","57","97142","0.0-7.7-0.7","656a080b54dcaea76f48f4e9","6579d0c5e56c6e1626038f86","6579d0fa0164dbb1754cf98d","58","
            
        <div style=""text-align: center; position: fixed; top: 5vh; left: 40vw;"">
            <div style=""margin:0 auto; width: 20vw; top: 8vh; font-size: 2vw""> 
            <font color=""green""> Bonus : $0.31 </font>
            </div>
        </div>
    
            <div> Please press any key to continue to the next movie.</div>
        ","arrowright","ITI","","","","","","",""
"","","","","","html-keyboard-response","58","100111","0.0-7.7-1.7","656a080b54dcaea76f48f4e9","6579d0c5e56c6e1626038f86","6579d0fa0164dbb1754cf98d","2968","./stimuli//pack_morph_shapes_1/cat_2/diff_2/ex_2_2_11.mp4","arrowright","response","ArrowRight","11","2","2","test","true",""
"","","","","","html-keyboard-response","59","101612","0.0-7.7-2.7","656a080b54dcaea76f48f4e9","6579d0c5e56c6e1626038f86","6579d0fa0164dbb1754cf98d","null","<p> <font color=""green"" size=""5vw""> Correct category! </font> <br> <br> <font color=""green"" size=""8vw""> + $0.06 </font> </p>","null","feedback","","","","","","","0.37"
"","","","","","html-keyboard-response","60","101639","0.0-7.8-0.8","656a080b54dcaea76f48f4e9","6579d0c5e56c6e1626038f86","6579d0fa0164dbb1754cf98d","26","
            
        <div style=""text-align: center; position: fixed; top: 5vh; left: 40vw;"">
            <div style=""margin:0 auto; width: 20vw; top: 8vh; font-size: 2vw""> 
            <font color=""green""> Bonus : $0.37 </font>
            </div>
        </div>
    
            <div> Please press any key to continue to the next movie.</div>
        ","arrowright","ITI","","","","","","",""
"","","","","","html-keyboard-response","61","104359","0.0-7.8-1.8","656a080b54dcaea76f48f4e9","6579d0c5e56c6e1626038f86","6579d0fa0164dbb1754cf98d","2719","./stimuli//pack_morph_shapes_1/cat_2/diff_2/ex_2_2_12.mp4","arrowright","response","ArrowRight","12","2","2","test","true",""
"","","","","","html-keyboard-response","62","105860","0.0-7.8-2.8","656a080b54dcaea76f48f4e9","6579d0c5e56c6e1626038f86","6579d0fa0164dbb1754cf98d","null","<p> <font color=""green"" size=""5vw""> Correct category! </font> <br> <br> <font color=""green"" size=""8vw""> + $0.06 </font> </p>","null","feedback","","","","","","","0.43"
"","","","","","html-keyboard-response","63","106383","0.0-7.9-0.9","656a080b54dcaea76f48f4e9","6579d0c5e56c6e1626038f86","6579d0fa0164dbb1754cf98d","522","
            
        <div style=""text-align: center; position: fixed; top: 5vh; left: 40vw;"">
            <div style=""margin:0 auto; width: 20vw; top: 8vh; font-size: 2vw""> 
            <font color=""green""> Bonus : $0.43 </font>
            </div>
        </div>
    
            <div> Please press any key to continue to the next movie.</div>
        ","arrowright","ITI","","","","","","",""
"","","","","","html-keyboard-response","64","109095","0.0-7.9-1.9","656a080b54dcaea76f48f4e9","6579d0c5e56c6e1626038f86","6579d0fa0164dbb1754cf98d","2708","./stimuli//pack_morph_shapes_1/cat_2/diff_2/ex_2_2_2.mp4","arrowright","response","ArrowRight","2","2","2","test","true",""
"","","","","","html-keyboard-response","65","110596","0.0-7.9-2.9","656a080b54dcaea76f48f4e9","6579d0c5e56c6e1626038f86","6579d0fa0164dbb1754cf98d","null","<p> <font color=""green"" size=""5vw""> Correct category! </font> <br> <br> <font color=""green"" size=""8vw""> + $0.06 </font> </p>","null","feedback","","","","","","","0.49"
"","","","","","html-keyboard-response","66","111063","0.0-7.10-0.10","656a080b54dcaea76f48f4e9","6579d0c5e56c6e1626038f86","6579d0fa0164dbb1754cf98d","466","
            
        <div style=""text-align: center; position: fixed; top: 5vh; left: 40vw;"">
            <div style=""margin:0 auto; width: 20vw; top: 8vh; font-size: 2vw""> 
            <font color=""green""> Bonus : $0.49 </font>
            </div>
        </div>
    
            <div> Please press any key to continue to the next movie.</div>
        ","arrowright","ITI","","","","","","",""
"","","","","","html-keyboard-response","67","114030","0.0-7.10-1.10","656a080b54dcaea76f48f4e9","6579d0c5e56c6e1626038f86","6579d0fa0164dbb1754cf98d","2967","./stimuli//pack_morph_shapes_1/cat_1/diff_3/ex_1_3_2.mp4","arrowleft","response","ArrowLeft","2","1","3","test","true",""
"","","","","","html-keyboard-response","68","115531","0.0-7.10-2.10","656a080b54dcaea76f48f4e9","6579d0c5e56c6e1626038f86","6579d0fa0164dbb1754cf98d","null","<p> <font color=""green"" size=""5vw""> Correct category! </font> <br> <br> <font color=""green"" size=""8vw""> + $0.06 </font> </p>","null","feedback","","","","","","","0.55"
"","","","","","html-keyboard-response","69","115934","0.0-7.11-0.11","656a080b54dcaea76f48f4e9","6579d0c5e56c6e1626038f86","6579d0fa0164dbb1754cf98d","403","
            
        <div style=""text-align: center; position: fixed; top: 5vh; left: 40vw;"">
            <div style=""margin:0 auto; width: 20vw; top: 8vh; font-size: 2vw""> 
            <font color=""green""> Bonus : $0.55 </font>
            </div>
        </div>
    
            <div> Please press any key to continue to the next movie.</div>
        ","arrowleft","ITI","","","","","","",""
"","","","","","html-keyboard-response","70","119007","0.0-7.11-1.11","656a080b54dcaea76f48f4e9","6579d0c5e56c6e1626038f86","6579d0fa0164dbb1754cf98d","3072","./stimuli//pack_morph_shapes_1/cat_2/diff_3/ex_2_3_8.mp4","arrowright","response","ArrowRight","8","2","3","test","true",""
"","","","","","html-keyboard-response","71","120509","0.0-7.11-2.11","656a080b54dcaea76f48f4e9","6579d0c5e56c6e1626038f86","6579d0fa0164dbb1754cf98d","null","<p> <font color=""green"" size=""5vw""> Correct category! </font> <br> <br> <font color=""green"" size=""8vw""> + $0.05 </font> </p>","null","feedback","","","","","","","0.6"
"","","","","","html-keyboard-response","72","122615","0.0-7.12-0.12","656a080b54dcaea76f48f4e9","6579d0c5e56c6e1626038f86","6579d0fa0164dbb1754cf98d","2106","
            
        <div style=""text-align: center; position: fixed; top: 5vh; left: 40vw;"">
            <div style=""margin:0 auto; width: 20vw; top: 8vh; font-size: 2vw""> 
            <font color=""green""> Bonus : $0.6 </font>
            </div>
        </div>
    
            <div> Please press any key to continue to the next movie.</div>
        ","arrowright","ITI","","","","","","",""
"","","","","","html-keyboard-response","73","125423","0.0-7.12-1.12","656a080b54dcaea76f48f4e9","6579d0c5e56c6e1626038f86","6579d0fa0164dbb1754cf98d","2807","./stimuli//pack_morph_shapes_1/cat_2/diff_3/ex_2_3_7.mp4","arrowright","response","ArrowRight","7","2","3","test","true",""
"","","","","","html-keyboard-response","74","126925","0.0-7.12-2.12","656a080b54dcaea76f48f4e9","6579d0c5e56c6e1626038f86","6579d0fa0164dbb1754cf98d","null","<p> <font color=""green"" size=""5vw""> Correct category! </font> <br> <br> <font color=""green"" size=""8vw""> + $0.06 </font> </p>","null","feedback","","","","","","","0.66"
"","","","","","html-keyboard-response","75","127511","0.0-7.13-0.13","656a080b54dcaea76f48f4e9","6579d0c5e56c6e1626038f86","6579d0fa0164dbb1754cf98d","586","
            
        <div style=""text-align: center; position: fixed; top: 5vh; left: 40vw;"">
            <div style=""margin:0 auto; width: 20vw; top: 8vh; font-size: 2vw""> 
            <font color=""green""> Bonus : $0.66 </font>
            </div>
        </div>
    
            <div> Please press any key to continue to the next movie.</div>
        ","arrowright","ITI","","","","","","",""
"","","","","","html-keyboard-response","76","130568","0.0-7.13-1.13","656a080b54dcaea76f48f4e9","6579d0c5e56c6e1626038f86","6579d0fa0164dbb1754cf98d","3056","./stimuli//pack_morph_shapes_1/cat_2/diff_3/ex_2_3_11.mp4","arrowright","response","ArrowRight","11","2","3","test","true",""
"","","","","","html-keyboard-response","77","132069","0.0-7.13-2.13","656a080b54dcaea76f48f4e9","6579d0c5e56c6e1626038f86","6579d0fa0164dbb1754cf98d","null","<p> <font color=""green"" size=""5vw""> Correct category! </font> <br> <br> <font color=""green"" size=""8vw""> + $0.05 </font> </p>","null","feedback","","","","","","","0.71"
"","","","","","html-keyboard-response","78","132455","0.0-7.14-0.14","656a080b54dcaea76f48f4e9","6579d0c5e56c6e1626038f86","6579d0fa0164dbb1754cf98d","386","
            
        <div style=""text-align: center; position: fixed; top: 5vh; left: 40vw;"">
            <div style=""margin:0 auto; width: 20vw; top: 8vh; font-size: 2vw""> 
            <font color=""green""> Bonus : $0.71 </font>
            </div>
        </div>
    
            <div> Please press any key to continue to the next movie.</div>
        ","arrowright","ITI","","","","","","",""
"","","","","","html-keyboard-response","79","135568","0.0-7.14-1.14","656a080b54dcaea76f48f4e9","6579d0c5e56c6e1626038f86","6579d0fa0164dbb1754cf98d","3112","./stimuli//pack_morph_shapes_1/cat_2/diff_3/ex_2_3_9.mp4","arrowright","response","ArrowRight","9","2","3","test","true",""
"","","","","","html-keyboard-response","80","137069","0.0-7.14-2.14","656a080b54dcaea76f48f4e9","6579d0c5e56c6e1626038f86","6579d0fa0164dbb1754cf98d","null","<p> <font color=""green"" size=""5vw""> Correct category! </font> <br> <br> <font color=""green"" size=""8vw""> + $0.05 </font> </p>","null","feedback","","","","","","","0.76"
"","","","","","html-keyboard-response","81","137328","0.0-7.15-0.15","656a080b54dcaea76f48f4e9","6579d0c5e56c6e1626038f86","6579d0fa0164dbb1754cf98d","259","
            
        <div style=""text-align: center; position: fixed; top: 5vh; left: 40vw;"">
            <div style=""margin:0 auto; width: 20vw; top: 8vh; font-size: 2vw""> 
            <font color=""green""> Bonus : $0.76 </font>
            </div>
        </div>
    
            <div> Please press any key to continue to the next movie.</div>
        ","arrowright","ITI","","","","","","",""
"","","","","","html-keyboard-response","82","140272","0.0-7.15-1.15","656a080b54dcaea76f48f4e9","6579d0c5e56c6e1626038f86","6579d0fa0164dbb1754cf98d","2943","./stimuli//pack_morph_shapes_1/cat_2/diff_4/ex_2_4_11.mp4","arrowright","response","ArrowRight","11","2","4","test","true",""
"","","","","","html-keyboard-response","83","141773","0.0-7.15-2.15","656a080b54dcaea76f48f4e9","6579d0c5e56c6e1626038f86","6579d0fa0164dbb1754cf98d","null","<p> <font color=""green"" size=""5vw""> Correct category! </font> <br> <br> <font color=""green"" size=""8vw""> + $0.06 </font> </p>","null","feedback","","","","","","","0.82"
"","","","","","html-keyboard-response","84","142439","0.0-7.16-0.16","656a080b54dcaea76f48f4e9","6579d0c5e56c6e1626038f86","6579d0fa0164dbb1754cf98d","667","
            
        <div style=""text-align: center; position: fixed; top: 5vh; left: 40vw;"">
            <div style=""margin:0 auto; width: 20vw; top: 8vh; font-size: 2vw""> 
            <font color=""green""> Bonus : $0.82 </font>
            </div>
        </div>
    
            <div> Please press any key to continue to the next movie.</div>
        ","arrowright","ITI","","","","","","",""
"","","","","","html-keyboard-response","85","145472","0.0-7.16-1.16","656a080b54dcaea76f48f4e9","6579d0c5e56c6e1626038f86","6579d0fa0164dbb1754cf98d","3032","./stimuli//pack_morph_shapes_1/cat_1/diff_4/ex_1_4_12.mp4","arrowleft","response","ArrowLeft","12","1","4","test","true",""
"","","","","","html-keyboard-response","86","146973","0.0-7.16-2.16","656a080b54dcaea76f48f4e9","6579d0c5e56c6e1626038f86","6579d0fa0164dbb1754cf98d","null","<p> <font color=""green"" size=""5vw""> Correct category! </font> <br> <br> <font color=""green"" size=""8vw""> + $0.05 </font> </p>","null","feedback","","","","","","","0.87"
"","","","","","html-keyboard-response","87","147232","0.0-7.17-0.17","656a080b54dcaea76f48f4e9","6579d0c5e56c6e1626038f86","6579d0fa0164dbb1754cf98d","259","
            
        <div style=""text-align: center; position: fixed; top: 5vh; left: 40vw;"">
            <div style=""margin:0 auto; width: 20vw; top: 8vh; font-size: 2vw""> 
            <font color=""green""> Bonus : $0.87 </font>
            </div>
        </div>
    
            <div> Please press any key to continue to the next movie.</div>
        ","arrowleft","ITI","","","","","","",""
"","","","","","html-keyboard-response","88","150192","0.0-7.17-1.17","656a080b54dcaea76f48f4e9","6579d0c5e56c6e1626038f86","6579d0fa0164dbb1754cf98d","2959","./stimuli//pack_morph_shapes_1/cat_2/diff_4/ex_2_4_15.mp4","arrowleft","response","ArrowRight","15","2","4","test","false",""
"","","","","","html-keyboard-response","89","151692","0.0-7.17-2.17","656a080b54dcaea76f48f4e9","6579d0c5e56c6e1626038f86","6579d0fa0164dbb1754cf98d","null","<p> <font color=""red"" size=""5vw""> Wrong category! </font> <br> <br> <font color=""red"" size=""8vw""> - $0.05 </font> </p>","null","feedback","","","","","","","0.82"
"","","","","","html-keyboard-response","90","152047","0.0-7.18-0.18","656a080b54dcaea76f48f4e9","6579d0c5e56c6e1626038f86","6579d0fa0164dbb1754cf98d","355","
            
        <div style=""text-align: center; position: fixed; top: 5vh; left: 40vw;"">
            <div style=""margin:0 auto; width: 20vw; top: 8vh; font-size: 2vw""> 
            <font color=""green""> Bonus : $0.82 </font>
            </div>
        </div>
    
            <div> Please press any key to continue to the next movie.</div>
        ","arrowright","ITI","","","","","","",""
"","","","","","html-keyboard-response","91","155104","0.0-7.18-1.18","656a080b54dcaea76f48f4e9","6579d0c5e56c6e1626038f86","6579d0fa0164dbb1754cf98d","3055","./stimuli//pack_morph_shapes_1/cat_1/diff_4/ex_1_4_1.mp4","arrowright","response","ArrowLeft","1","1","4","test","false",""
"","","","","","html-keyboard-response","92","156605","0.0-7.18-2.18","656a080b54dcaea76f48f4e9","6579d0c5e56c6e1626038f86","6579d0fa0164dbb1754cf98d","null","<p> <font color=""red"" size=""5vw""> Wrong category! </font> <br> <br> <font color=""red"" size=""8vw""> - $0.05 </font> </p>","null","feedback","","","","","","","0.77"
"","","","","","html-keyboard-response","93","156984","0.0-7.19-0.19","656a080b54dcaea76f48f4e9","6579d0c5e56c6e1626038f86","6579d0fa0164dbb1754cf98d","379","
            
        <div style=""text-align: center; position: fixed; top: 5vh; left: 40vw;"">
            <div style=""margin:0 auto; width: 20vw; top: 8vh; font-size: 2vw""> 
            <font color=""green""> Bonus : $0.77 </font>
            </div>
        </div>
    
            <div> Please press any key to continue to the next movie.</div>
        ","arrowright","ITI","","","","","","",""
"","","","","","html-keyboard-response","94","160039","0.0-7.19-1.19","656a080b54dcaea76f48f4e9","6579d0c5e56c6e1626038f86","6579d0fa0164dbb1754cf98d","3055","./stimuli//pack_morph_shapes_1/cat_2/diff_4/ex_2_4_3.mp4","arrowright","response","ArrowRight","3","2","4","test","true",""
"","","","","","html-keyboard-response","95","161540","0.0-7.19-2.19","656a080b54dcaea76f48f4e9","6579d0c5e56c6e1626038f86","6579d0fa0164dbb1754cf98d","null","<p> <font color=""green"" size=""5vw""> Correct category! </font> <br> <br> <font color=""green"" size=""8vw""> + $0.05 </font> </p>","null","feedback","","","","","","","0.82"
"","","","","","html-keyboard-response","96","161887","0.0-7.20-0.20","656a080b54dcaea76f48f4e9","6579d0c5e56c6e1626038f86","6579d0fa0164dbb1754cf98d","347","
            
        <div style=""text-align: center; position: fixed; top: 5vh; left: 40vw;"">
            <div style=""margin:0 auto; width: 20vw; top: 8vh; font-size: 2vw""> 
            <font color=""green""> Bonus : $0.82 </font>
            </div>
        </div>
    
            <div> Please press any key to continue to the next movie.</div>
        ","arrowright","ITI","","","","","","",""
"","","","","","html-keyboard-response","97","165104","0.0-7.20-1.20","656a080b54dcaea76f48f4e9","6579d0c5e56c6e1626038f86","6579d0fa0164dbb1754cf98d","3216","./stimuli//pack_morph_shapes_1/cat_2/diff_3/ex_2_3_16.mp4","arrowright","response","ArrowRight","16","2","3","test","true",""
"","","","","","html-keyboard-response","98","166606","0.0-7.20-2.20","656a080b54dcaea76f48f4e9","6579d0c5e56c6e1626038f86","6579d0fa0164dbb1754cf98d","null","<p> <font color=""green"" size=""5vw""> Correct category! </font> <br> <br> <font color=""green"" size=""8vw""> + $0.05 </font> </p>","null","feedback","","","","","","","0.87"
"","","","","","html-keyboard-response","99","166711","0.0-7.21-0.21","656a080b54dcaea76f48f4e9","6579d0c5e56c6e1626038f86","6579d0fa0164dbb1754cf98d","105","
            
        <div style=""text-align: center; position: fixed; top: 5vh; left: 40vw;"">
            <div style=""margin:0 auto; width: 20vw; top: 8vh; font-size: 2vw""> 
            <font color=""green""> Bonus : $0.87 </font>
            </div>
        </div>
    
            <div> Please press any key to continue to the next movie.</div>
        ","arrowright","ITI","","","","","","",""
"","","","","","html-keyboard-response","100","167055","0.0-7.21-1.21","656a080b54dcaea76f48f4e9","6579d0c5e56c6e1626038f86","6579d0fa0164dbb1754cf98d","343","./stimuli//pack_morph_shapes_1/cat_1/diff_3/ex_1_3_9.mp4","arrowright","response","ArrowLeft","9","1","3","test","false",""
"","","","","","html-keyboard-response","101","168556","0.0-7.21-2.21","656a080b54dcaea76f48f4e9","6579d0c5e56c6e1626038f86","6579d0fa0164dbb1754cf98d","null","<p> <font color=""red"" size=""5vw""> Wrong category! </font> <br> <br> <font color=""red"" size=""8vw""> - $0.05 </font> </p>","null","feedback","","","","","","","0.82"
"","","","","","html-keyboard-response","102","168968","0.0-7.22-0.22","656a080b54dcaea76f48f4e9","6579d0c5e56c6e1626038f86","6579d0fa0164dbb1754cf98d","411","
            
        <div style=""text-align: center; position: fixed; top: 5vh; left: 40vw;"">
            <div style=""margin:0 auto; width: 20vw; top: 8vh; font-size: 2vw""> 
            <font color=""green""> Bonus : $0.82 </font>
            </div>
        </div>
    
            <div> Please press any key to continue to the next movie.</div>
        ","arrowright","ITI","","","","","","",""
"","","","","","html-keyboard-response","103","171896","0.0-7.22-1.22","656a080b54dcaea76f48f4e9","6579d0c5e56c6e1626038f86","6579d0fa0164dbb1754cf98d","2927","./stimuli//pack_morph_shapes_1/cat_1/diff_3/ex_1_3_6.mp4","arrowleft","response","ArrowLeft","6","1","3","test","true",""
"","","","","","html-keyboard-response","104","173398","0.0-7.22-2.22","656a080b54dcaea76f48f4e9","6579d0c5e56c6e1626038f86","6579d0fa0164dbb1754cf98d","null","<p> <font color=""green"" size=""5vw""> Correct category! </font> <br> <br> <font color=""green"" size=""8vw""> + $0.06 </font> </p>","null","feedback","","","","","","","0.88"
"","","","","","html-keyboard-response","105","173711","0.0-7.23-0.23","656a080b54dcaea76f48f4e9","6579d0c5e56c6e1626038f86","6579d0fa0164dbb1754cf98d","313","
            
        <div style=""text-align: center; position: fixed; top: 5vh; left: 40vw;"">
            <div style=""margin:0 auto; width: 20vw; top: 8vh; font-size: 2vw""> 
            <font color=""green""> Bonus : $0.88 </font>
            </div>
        </div>
    
            <div> Please press any key to continue to the next movie.</div>
        ","arrowleft","ITI","","","","","","",""
"","","","","","html-keyboard-response","106","178713","0.0-7.23-1.23","656a080b54dcaea76f48f4e9","6579d0c5e56c6e1626038f86","6579d0fa0164dbb1754cf98d","null","./stimuli//pack_morph_shapes_1/cat_1/diff_3/ex_1_3_17.mp4","null","response","ArrowLeft","17","1","3","test","false",""
"","","","","","html-keyboard-response","107","180214","0.0-7.23-2.23","656a080b54dcaea76f48f4e9","6579d0c5e56c6e1626038f86","6579d0fa0164dbb1754cf98d","null","<p> <font color=""red"" size=""5vw""> Time out! </font> <br> <br> <font color=""red"" size=""8vw""> - $0.05 </font> <br> <br> Please try to respond as quickly as possible. </p>","null","feedback","","","","","","","0.83"
"","","","","","html-keyboard-response","108","180303","0.0-7.24-0.24","656a080b54dcaea76f48f4e9","6579d0c5e56c6e1626038f86","6579d0fa0164dbb1754cf98d","89","
            
        <div style=""text-align: center; position: fixed; top: 5vh; left: 40vw;"">
            <div style=""margin:0 auto; width: 20vw; top: 8vh; font-size: 2vw""> 
            <font color=""green""> Bonus : $0.83 </font>
            </div>
        </div>
    
            <div> Please press any key to continue to the next movie.</div>
        ","arrowright","ITI","","","","","","",""
"","","","","","html-keyboard-response","109","182719","0.0-7.24-1.24","656a080b54dcaea76f48f4e9","6579d0c5e56c6e1626038f86","6579d0fa0164dbb1754cf98d","2415","./stimuli//pack_morph_shapes_1/cat_1/diff_3/ex_1_3_5.mp4","arrowright","response","ArrowLeft","5","1","3","test","false",""
"","","","","","html-keyboard-response","110","184220","0.0-7.24-2.24","656a080b54dcaea76f48f4e9","6579d0c5e56c6e1626038f86","6579d0fa0164dbb1754cf98d","null","<p> <font color=""red"" size=""5vw""> Wrong category! </font> <br> <br> <font color=""red"" size=""8vw""> - $0.05 </font> </p>","null","feedback","","","","","","","0.78"
"","","","","","html-keyboard-response","111","184607","0.0-7.25-0.25","656a080b54dcaea76f48f4e9","6579d0c5e56c6e1626038f86","6579d0fa0164dbb1754cf98d","387","
            
        <div style=""text-align: center; position: fixed; top: 5vh; left: 40vw;"">
            <div style=""margin:0 auto; width: 20vw; top: 8vh; font-size: 2vw""> 
            <font color=""green""> Bonus : $0.78 </font>
            </div>
        </div>
    
            <div> Please press any key to continue to the next movie.</div>
        ","arrowright","ITI","","","","","","",""
"","","","","","html-keyboard-response","112","187383","0.0-7.25-1.25","656a080b54dcaea76f48f4e9","6579d0c5e56c6e1626038f86","6579d0fa0164dbb1754cf98d","2776","./stimuli//pack_morph_shapes_1/cat_2/diff_2/ex_2_2_12.mp4","arrowright","response","ArrowRight","12","2","2","test","true",""
"","","","","","html-keyboard-response","113","188885","0.0-7.25-2.25","656a080b54dcaea76f48f4e9","6579d0c5e56c6e1626038f86","6579d0fa0164dbb1754cf98d","null","<p> <font color=""green"" size=""5vw""> Correct category! </font> <br> <br> <font color=""green"" size=""8vw""> + $0.06 </font> </p>","null","feedback","","","","","","","0.84"
"","","","","","html-keyboard-response","114","189359","0.0-7.26-0.26","656a080b54dcaea76f48f4e9","6579d0c5e56c6e1626038f86","6579d0fa0164dbb1754cf98d","474","
            
        <div style=""text-align: center; position: fixed; top: 5vh; left: 40vw;"">
            <div style=""margin:0 auto; width: 20vw; top: 8vh; font-size: 2vw""> 
            <font color=""green""> Bonus : $0.84 </font>
            </div>
        </div>
    
            <div> Please press any key to continue to the next movie.</div>
        ","arrowright","ITI","","","","","","",""
"","","","","","html-keyboard-response","115","192863","0.0-7.26-1.26","656a080b54dcaea76f48f4e9","6579d0c5e56c6e1626038f86","6579d0fa0164dbb1754cf98d","3503","./stimuli//pack_morph_shapes_1/cat_1/diff_2/ex_1_2_4.mp4","arrowleft","response","ArrowLeft","4","1","2","test","true",""
"","","","","","html-keyboard-response","116","194364","0.0-7.26-2.26","656a080b54dcaea76f48f4e9","6579d0c5e56c6e1626038f86","6579d0fa0164dbb1754cf98d","null","<p> <font color=""green"" size=""5vw""> Correct category! </font> <br> <br> <font color=""green"" size=""8vw""> + $0.05 </font> </p>","null","feedback","","","","","","","0.89"
"","","","","","html-keyboard-response","117","194559","0.0-7.27-0.27","656a080b54dcaea76f48f4e9","6579d0c5e56c6e1626038f86","6579d0fa0164dbb1754cf98d","194","
            
        <div style=""text-align: center; position: fixed; top: 5vh; left: 40vw;"">
            <div style=""margin:0 auto; width: 20vw; top: 8vh; font-size: 2vw""> 
            <font color=""green""> Bonus : $0.89 </font>
            </div>
        </div>
    
            <div> Please press any key to continue to the next movie.</div>
        ","arrowleft","ITI","","","","","","",""
"","","","","","html-keyboard-response","118","196463","0.0-7.27-1.27","656a080b54dcaea76f48f4e9","6579d0c5e56c6e1626038f86","6579d0fa0164dbb1754cf98d","1903","./stimuli//pack_morph_shapes_1/cat_2/diff_2/ex_2_2_2.mp4","arrowleft","response","ArrowRight","2","2","2","test","false",""
"","","","","","html-keyboard-response","119","197964","0.0-7.27-2.27","656a080b54dcaea76f48f4e9","6579d0c5e56c6e1626038f86","6579d0fa0164dbb1754cf98d","null","<p> <font color=""red"" size=""5vw""> Wrong category! </font> <br> <br> <font color=""red"" size=""8vw""> - $0.05 </font> </p>","null","feedback","","","","","","","0.84"
"","","","","","html-keyboard-response","120","198431","0.0-7.28-0.28","656a080b54dcaea76f48f4e9","6579d0c5e56c6e1626038f86","6579d0fa0164dbb1754cf98d","467","
            
        <div style=""text-align: center; position: fixed; top: 5vh; left: 40vw;"">
            <div style=""margin:0 auto; width: 20vw; top: 8vh; font-size: 2vw""> 
            <font color=""green""> Bonus : $0.84 </font>
            </div>
        </div>
    
            <div> Please press any key to continue to the next movie.</div>
        ","arrowleft","ITI","","","","","","",""
"","","","","","html-keyboard-response","121","199998","0.0-7.28-1.28","656a080b54dcaea76f48f4e9","6579d0c5e56c6e1626038f86","6579d0fa0164dbb1754cf98d","1566","./stimuli//pack_morph_shapes_1/cat_2/diff_2/ex_2_2_6.mp4","arrowleft","response","ArrowRight","6","2","2","test","false",""
"","","","","","html-keyboard-response","122","201500","0.0-7.28-2.28","656a080b54dcaea76f48f4e9","6579d0c5e56c6e1626038f86","6579d0fa0164dbb1754cf98d","null","<p> <font color=""red"" size=""5vw""> Wrong category! </font> <br> <br> <font color=""red"" size=""8vw""> - $0.05 </font> </p>","null","feedback","","","","","","","0.79"
"","","","","","html-keyboard-response","123","201967","0.0-7.29-0.29","656a080b54dcaea76f48f4e9","6579d0c5e56c6e1626038f86","6579d0fa0164dbb1754cf98d","467","
            
        <div style=""text-align: center; position: fixed; top: 5vh; left: 40vw;"">
            <div style=""margin:0 auto; width: 20vw; top: 8vh; font-size: 2vw""> 
            <font color=""green""> Bonus : $0.79 </font>
            </div>
        </div>
    
            <div> Please press any key to continue to the next movie.</div>
        ","arrowright","ITI","","","","","","",""
"","","","","","html-keyboard-response","124","202799","0.0-7.29-1.29","656a080b54dcaea76f48f4e9","6579d0c5e56c6e1626038f86","6579d0fa0164dbb1754cf98d","832","./stimuli//pack_morph_shapes_1/cat_2/diff_2/ex_2_2_7.mp4","arrowright","response","ArrowRight","7","2","2","test","true",""
"","","","","","html-keyboard-response","125","204300","0.0-7.29-2.29","656a080b54dcaea76f48f4e9","6579d0c5e56c6e1626038f86","6579d0fa0164dbb1754cf98d","null","<p> <font color=""green"" size=""5vw""> Correct category! </font> <br> <br> <font color=""green"" size=""8vw""> + $0.08 </font> </p>","null","feedback","","","","","","","0.87"
"","","","","","html-keyboard-response","126","204615","0.0-7.30-0.30","656a080b54dcaea76f48f4e9","6579d0c5e56c6e1626038f86","6579d0fa0164dbb1754cf98d","315","
            
        <div style=""text-align: center; position: fixed; top: 5vh; left: 40vw;"">
            <div style=""margin:0 auto; width: 20vw; top: 8vh; font-size: 2vw""> 
            <font color=""green""> Bonus : $0.87 </font>
            </div>
        </div>
    
            <div> Please press any key to continue to the next movie.</div>
        ","arrowright","ITI","","","","","","",""
"","","","","","html-keyboard-response","127","204967","0.0-7.30-1.30","656a080b54dcaea76f48f4e9","6579d0c5e56c6e1626038f86","6579d0fa0164dbb1754cf98d","352","./stimuli//pack_morph_shapes_1/cat_1/diff_1/ex_1_1_8.mp4","arrowright","response","ArrowLeft","8","1","1","test","false",""
"","","","","","html-keyboard-response","128","206469","0.0-7.30-2.30","656a080b54dcaea76f48f4e9","6579d0c5e56c6e1626038f86","6579d0fa0164dbb1754cf98d","null","<p> <font color=""red"" size=""5vw""> Wrong category! </font> <br> <br> <font color=""red"" size=""8vw""> - $0.05 </font> </p>","null","feedback","","","","","","","0.82"
"","","","","","html-keyboard-response","129","206535","0.0-7.31-0.31","656a080b54dcaea76f48f4e9","6579d0c5e56c6e1626038f86","6579d0fa0164dbb1754cf98d","66","
            
        <div style=""text-align: center; position: fixed; top: 5vh; left: 40vw;"">
            <div style=""margin:0 auto; width: 20vw; top: 8vh; font-size: 2vw""> 
            <font color=""green""> Bonus : $0.82 </font>
            </div>
        </div>
    
            <div> Please press any key to continue to the next movie.</div>
        ","arrowright","ITI","","","","","","",""
"","","","","","html-keyboard-response","130","206727","0.0-7.31-1.31","656a080b54dcaea76f48f4e9","6579d0c5e56c6e1626038f86","6579d0fa0164dbb1754cf98d","192","./stimuli//pack_morph_shapes_1/cat_2/diff_1/ex_2_1_2.mp4","arrowright","response","ArrowRight","2","2","1","test","true",""
"","","","","","html-keyboard-response","131","208229","0.0-7.31-2.31","656a080b54dcaea76f48f4e9","6579d0c5e56c6e1626038f86","6579d0fa0164dbb1754cf98d","null","<p> <font color=""green"" size=""5vw""> Correct category! </font> <br> <br> <font color=""green"" size=""8vw""> + $0.1 </font> </p>","null","feedback","","","","","","","0.92"
"","","","","","html-keyboard-response","132","208367","0.0-7.32-0.32","656a080b54dcaea76f48f4e9","6579d0c5e56c6e1626038f86","6579d0fa0164dbb1754cf98d","138","
            
        <div style=""text-align: center; position: fixed; top: 5vh; left: 40vw;"">
            <div style=""margin:0 auto; width: 20vw; top: 8vh; font-size: 2vw""> 
            <font color=""green""> Bonus : $0.92 </font>
            </div>
        </div>
    
            <div> Please press any key to continue to the next movie.</div>
        ","arrowright","ITI","","","","","","",""
"","","","","","html-keyboard-response","133","208527","0.0-7.32-1.32","656a080b54dcaea76f48f4e9","6579d0c5e56c6e1626038f86","6579d0fa0164dbb1754cf98d","160","./stimuli//pack_morph_shapes_1/cat_2/diff_1/ex_2_1_2.mp4","arrowright","response","ArrowRight","2","2","1","test","true",""
"","","","","","html-keyboard-response","134","210028","0.0-7.32-2.32","656a080b54dcaea76f48f4e9","6579d0c5e56c6e1626038f86","6579d0fa0164dbb1754cf98d","null","<p> <font color=""green"" size=""5vw""> Correct category! </font> <br> <br> <font color=""green"" size=""8vw""> + $0.1 </font> </p>","null","feedback","","","","","","","1.02"
"","","","","","html-keyboard-response","135","210039","0.0-7.33-0.33","656a080b54dcaea76f48f4e9","6579d0c5e56c6e1626038f86","6579d0fa0164dbb1754cf98d","11","
            
        <div style=""text-align: center; position: fixed; top: 5vh; left: 40vw;"">
            <div style=""margin:0 auto; width: 20vw; top: 8vh; font-size: 2vw""> 
            <font color=""green""> Bonus : $1.02 </font>
            </div>
        </div>
    
            <div> Please press any key to continue to the next movie.</div>
        ","arrowright","ITI","","","","","","",""
"","","","","","html-keyboard-response","136","210326","0.0-7.33-1.33","656a080b54dcaea76f48f4e9","6579d0c5e56c6e1626038f86","6579d0fa0164dbb1754cf98d","287","./stimuli//pack_morph_shapes_1/cat_2/diff_1/ex_2_1_4.mp4","arrowright","response","ArrowRight","4","2","1","test","true",""
"","","","","","html-keyboard-response","137","211828","0.0-7.33-2.33","656a080b54dcaea76f48f4e9","6579d0c5e56c6e1626038f86","6579d0fa0164dbb1754cf98d","null","<p> <font color=""green"" size=""5vw""> Correct category! </font> <br> <br> <font color=""green"" size=""8vw""> + $0.09 </font> </p>","null","feedback","","","","","","","1.11"
"","","","","","html-keyboard-response","138","211951","0.0-7.34-0.34","656a080b54dcaea76f48f4e9","6579d0c5e56c6e1626038f86","6579d0fa0164dbb1754cf98d","123","
            
        <div style=""text-align: center; position: fixed; top: 5vh; left: 40vw;"">
            <div style=""margin:0 auto; width: 20vw; top: 8vh; font-size: 2vw""> 
            <font color=""green""> Bonus : $1.11 </font>
            </div>
        </div>
    
            <div> Please press any key to continue to the next movie.</div>
        ","arrowright","ITI","","","","","","",""
"","","","","","html-keyboard-response","139","212095","0.0-7.34-1.34","656a080b54dcaea76f48f4e9","6579d0c5e56c6e1626038f86","6579d0fa0164dbb1754cf98d","144","./stimuli//pack_morph_shapes_1/cat_2/diff_1/ex_2_1_17.mp4","arrowright","response","ArrowRight","17","2","1","test","true",""
"","","","","","html-keyboard-response","140","213596","0.0-7.34-2.34","656a080b54dcaea76f48f4e9","6579d0c5e56c6e1626038f86","6579d0fa0164dbb1754cf98d","null","<p> <font color=""green"" size=""5vw""> Correct category! </font> <br> <br> <font color=""green"" size=""8vw""> + $0.1 </font> </p>","null","feedback","","","","","","","1.21"
"","","","","","html-keyboard-response","141","213622","0.0-7.35-0.35","656a080b54dcaea76f48f4e9","6579d0c5e56c6e1626038f86","6579d0fa0164dbb1754cf98d","26","
            
        <div style=""text-align: center; position: fixed; top: 5vh; left: 40vw;"">
            <div style=""margin:0 auto; width: 20vw; top: 8vh; font-size: 2vw""> 
            <font color=""green""> Bonus : $1.21 </font>
            </div>
        </div>
    
            <div> Please press any key to continue to the next movie.</div>
        ","arrowright","ITI","","","","","","",""
"","","","","","html-keyboard-response","142","213767","0.0-7.35-1.35","656a080b54dcaea76f48f4e9","6579d0c5e56c6e1626038f86","6579d0fa0164dbb1754cf98d","144","./stimuli//pack_morph_shapes_1/cat_2/diff_2/ex_2_2_8.mp4","arrowright","response","ArrowRight","8","2","2","test","true",""
"","","","","","html-keyboard-response","143","215269","0.0-7.35-2.35","656a080b54dcaea76f48f4e9","6579d0c5e56c6e1626038f86","6579d0fa0164dbb1754cf98d","null","<p> <font color=""green"" size=""5vw""> Correct category! </font> <br> <br> <font color=""green"" size=""8vw""> + $0.1 </font> </p>","null","feedback","","","","","","","1.31"
"","","","","","html-keyboard-response","144","215335","0.0-7.36-0.36","656a080b54dcaea76f48f4e9","6579d0c5e56c6e1626038f86","6579d0fa0164dbb1754cf98d","66","
            
        <div style=""text-align: center; position: fixed; top: 5vh; left: 40vw;"">
            <div style=""margin:0 auto; width: 20vw; top: 8vh; font-size: 2vw""> 
            <font color=""green""> Bonus : $1.31 </font>
            </div>
        </div>
    
            <div> Please press any key to continue to the next movie.</div>
        ","arrowright","ITI","","","","","","",""
"","","","","","html-keyboard-response","145","215478","0.0-7.36-1.36","656a080b54dcaea76f48f4e9","6579d0c5e56c6e1626038f86","6579d0fa0164dbb1754cf98d","143","./stimuli//pack_morph_shapes_1/cat_2/diff_2/ex_2_2_1.mp4","arrowright","response","ArrowRight","1","2","2","test","true",""
"","","","","","html-keyboard-response","146","216980","0.0-7.36-2.36","656a080b54dcaea76f48f4e9","6579d0c5e56c6e1626038f86","6579d0fa0164dbb1754cf98d","null","<p> <font color=""green"" size=""5vw""> Correct category! </font> <br> <br> <font color=""green"" size=""8vw""> + $0.1 </font> </p>","null","feedback","","","","","","","1.41"
"","","","","","html-keyboard-response","147","217015","0.0-7.37-0.37","656a080b54dcaea76f48f4e9","6579d0c5e56c6e1626038f86","6579d0fa0164dbb1754cf98d","34","
            
        <div style=""text-align: center; position: fixed; top: 5vh; left: 40vw;"">
            <div style=""margin:0 auto; width: 20vw; top: 8vh; font-size: 2vw""> 
            <font color=""green""> Bonus : $1.41 </font>
            </div>
        </div>
    
            <div> Please press any key to continue to the next movie.</div>
        ","arrowright","ITI","","","","","","",""
"","","","","","html-keyboard-response","148","217159","0.0-7.37-1.37","656a080b54dcaea76f48f4e9","6579d0c5e56c6e1626038f86","6579d0fa0164dbb1754cf98d","144","./stimuli//pack_morph_shapes_1/cat_1/diff_2/ex_1_2_3.mp4","arrowright","response","ArrowLeft","3","1","2","test","false",""
"","","","","","html-keyboard-response","149","218660","0.0-7.37-2.37","656a080b54dcaea76f48f4e9","6579d0c5e56c6e1626038f86","6579d0fa0164dbb1754cf98d","null","<p> <font color=""red"" size=""5vw""> Wrong category! </font> <br> <br> <font color=""red"" size=""8vw""> - $0.05 </font> </p>","null","feedback","","","","","","","1.36"
"","","","","","html-keyboard-response","150","218767","0.0-7.38-0.38","656a080b54dcaea76f48f4e9","6579d0c5e56c6e1626038f86","6579d0fa0164dbb1754cf98d","107","
            
        <div style=""text-align: center; position: fixed; top: 5vh; left: 40vw;"">
            <div style=""margin:0 auto; width: 20vw; top: 8vh; font-size: 2vw""> 
            <font color=""green""> Bonus : $1.36 </font>
            </div>
        </div>
    
            <div> Please press any key to continue to the next movie.</div>
        ","arrowright","ITI","","","","","","",""
"","","","","","html-keyboard-response","151","218919","0.0-7.38-1.38","656a080b54dcaea76f48f4e9","6579d0c5e56c6e1626038f86","6579d0fa0164dbb1754cf98d","151","./stimuli//pack_morph_shapes_1/cat_2/diff_2/ex_2_2_12.mp4","arrowright","response","ArrowRight","12","2","2","test","true",""
"","","","","","html-keyboard-response","152","220420","0.0-7.38-2.38","656a080b54dcaea76f48f4e9","6579d0c5e56c6e1626038f86","6579d0fa0164dbb1754cf98d","null","<p> <font color=""green"" size=""5vw""> Correct category! </font> <br> <br> <font color=""green"" size=""8vw""> + $0.1 </font> </p>","null","feedback","","","","","","","1.46"
"","","","","","html-keyboard-response","153","220550","0.0-7.39-0.39","656a080b54dcaea76f48f4e9","6579d0c5e56c6e1626038f86","6579d0fa0164dbb1754cf98d","130","
            
        <div style=""text-align: center; position: fixed; top: 5vh; left: 40vw;"">
            <div style=""margin:0 auto; width: 20vw; top: 8vh; font-size: 2vw""> 
            <font color=""green""> Bonus : $1.46 </font>
            </div>
        </div>
    
            <div> Please press any key to continue to the next movie.</div>
        ","arrowright","ITI","","","","","","",""
"","","","","","html-keyboard-response","154","220695","0.0-7.39-1.39","656a080b54dcaea76f48f4e9","6579d0c5e56c6e1626038f86","6579d0fa0164dbb1754cf98d","144","./stimuli//pack_morph_shapes_1/cat_1/diff_2/ex_1_2_7.mp4","arrowright","response","ArrowLeft","7","1","2","test","false",""
"","","","","","html-keyboard-response","155","222197","0.0-7.39-2.39","656a080b54dcaea76f48f4e9","6579d0c5e56c6e1626038f86","6579d0fa0164dbb1754cf98d","null","<p> <font color=""red"" size=""5vw""> Wrong category! </font> <br> <br> <font color=""red"" size=""8vw""> - $0.05 </font> </p>","null","feedback","","","","","","","1.41"
"","","","","","html-keyboard-response","156","222199","0.0-7.40-0.40","656a080b54dcaea76f48f4e9","6579d0c5e56c6e1626038f86","6579d0fa0164dbb1754cf98d","1","
            
        <div style=""text-align: center; position: fixed; top: 5vh; left: 40vw;"">
            <div style=""margin:0 auto; width: 20vw; top: 8vh; font-size: 2vw""> 
            <font color=""green""> Bonus : $1.41 </font>
            </div>
        </div>
    
            <div> Please press any key to continue to the next movie.</div>
        ","arrowright","ITI","","","","","","",""
"","","","","","html-keyboard-response","157","222367","0.0-7.40-1.40","656a080b54dcaea76f48f4e9","6579d0c5e56c6e1626038f86","6579d0fa0164dbb1754cf98d","168","./stimuli//pack_morph_shapes_1/cat_1/diff_1/ex_1_1_11.mp4","arrowright","response","ArrowLeft","11","1","1","test","false",""
"","","","","","html-keyboard-response","158","223868","0.0-7.40-2.40","656a080b54dcaea76f48f4e9","6579d0c5e56c6e1626038f86","6579d0fa0164dbb1754cf98d","null","<p> <font color=""red"" size=""5vw""> Wrong category! </font> <br> <br> <font color=""red"" size=""8vw""> - $0.05 </font> </p>","null","feedback","","","","","","","1.36"
"","","","","","html-keyboard-response","159","223911","0.0-7.41-0.41","656a080b54dcaea76f48f4e9","6579d0c5e56c6e1626038f86","6579d0fa0164dbb1754cf98d","43","
            
        <div style=""text-align: center; position: fixed; top: 5vh; left: 40vw;"">
            <div style=""margin:0 auto; width: 20vw; top: 8vh; font-size: 2vw""> 
            <font color=""green""> Bonus : $1.36 </font>
            </div>
        </div>
    
            <div> Please press any key to continue to the next movie.</div>
        ","arrowright","ITI","","","","","","",""
"","","","","","html-keyboard-response","160","224071","0.0-7.41-1.41","656a080b54dcaea76f48f4e9","6579d0c5e56c6e1626038f86","6579d0fa0164dbb1754cf98d","159","./stimuli//pack_morph_shapes_1/cat_1/diff_1/ex_1_1_11.mp4","arrowright","response","ArrowLeft","11","1","1","test","false",""
"","","","","","html-keyboard-response","161","225572","0.0-7.41-2.41","656a080b54dcaea76f48f4e9","6579d0c5e56c6e1626038f86","6579d0fa0164dbb1754cf98d","null","<p> <font color=""red"" size=""5vw""> Wrong category! </font> <br> <br> <font color=""red"" size=""8vw""> - $0.05 </font> </p>","null","feedback","","","","","","","1.31"
"","","","","","html-keyboard-response","162","225591","0.0-7.42-0.42","656a080b54dcaea76f48f4e9","6579d0c5e56c6e1626038f86","6579d0fa0164dbb1754cf98d","18","
            
        <div style=""text-align: center; position: fixed; top: 5vh; left: 40vw;"">
            <div style=""margin:0 auto; width: 20vw; top: 8vh; font-size: 2vw""> 
            <font color=""green""> Bonus : $1.31 </font>
            </div>
        </div>
    
            <div> Please press any key to continue to the next movie.</div>
        ","arrowright","ITI","","","","","","",""
"","","","","","html-keyboard-response","163","225751","0.0-7.42-1.42","656a080b54dcaea76f48f4e9","6579d0c5e56c6e1626038f86","6579d0fa0164dbb1754cf98d","159","./stimuli//pack_morph_shapes_1/cat_2/diff_1/ex_2_1_6.mp4","arrowright","response","ArrowRight","6","2","1","test","true",""
"","","","","","html-keyboard-response","164","227253","0.0-7.42-2.42","656a080b54dcaea76f48f4e9","6579d0c5e56c6e1626038f86","6579d0fa0164dbb1754cf98d","null","<p> <font color=""green"" size=""5vw""> Correct category! </font> <br> <br> <font color=""green"" size=""8vw""> + $0.1 </font> </p>","null","feedback","","","","","","","1.41"
"","","","","","html-keyboard-response","165","227319","0.0-7.43-0.43","656a080b54dcaea76f48f4e9","6579d0c5e56c6e1626038f86","6579d0fa0164dbb1754cf98d","66","
            
        <div style=""text-align: center; position: fixed; top: 5vh; left: 40vw;"">
            <div style=""margin:0 auto; width: 20vw; top: 8vh; font-size: 2vw""> 
            <font color=""green""> Bonus : $1.41 </font>
            </div>
        </div>
    
            <div> Please press any key to continue to the next movie.</div>
        ","arrowright","ITI","","","","","","",""
"","","","","","html-keyboard-response","166","227471","0.0-7.43-1.43","656a080b54dcaea76f48f4e9","6579d0c5e56c6e1626038f86","6579d0fa0164dbb1754cf98d","151","./stimuli//pack_morph_shapes_1/cat_2/diff_1/ex_2_1_12.mp4","arrowright","response","ArrowRight","12","2","1","test","true",""
"","","","","","html-keyboard-response","167","228972","0.0-7.43-2.43","656a080b54dcaea76f48f4e9","6579d0c5e56c6e1626038f86","6579d0fa0164dbb1754cf98d","null","<p> <font color=""green"" size=""5vw""> Correct category! </font> <br> <br> <font color=""green"" size=""8vw""> + $0.1 </font> </p>","null","feedback","","","","","","","1.51"
"","","","","","html-keyboard-response","168","229119","0.0-7.44-0.44","656a080b54dcaea76f48f4e9","6579d0c5e56c6e1626038f86","6579d0fa0164dbb1754cf98d","147","
            
        <div style=""text-align: center; position: fixed; top: 5vh; left: 40vw;"">
            <div style=""margin:0 auto; width: 20vw; top: 8vh; font-size: 2vw""> 
            <font color=""green""> Bonus : $1.51 </font>
            </div>
        </div>
    
            <div> Please press any key to continue to the next movie.</div>
        ","arrowright","ITI","","","","","","",""
"","","","","","html-keyboard-response","169","229264","0.0-7.44-1.44","656a080b54dcaea76f48f4e9","6579d0c5e56c6e1626038f86","6579d0fa0164dbb1754cf98d","144","./stimuli//pack_morph_shapes_1/cat_2/diff_1/ex_2_1_12.mp4","arrowright","response","ArrowRight","12","2","1","test","true",""
"","","","","","html-keyboard-response","170","230765","0.0-7.44-2.44","656a080b54dcaea76f48f4e9","6579d0c5e56c6e1626038f86","6579d0fa0164dbb1754cf98d","null","<p> <font color=""green"" size=""5vw""> Correct category! </font> <br> <br> <font color=""green"" size=""8vw""> + $0.1 </font> </p>","null","feedback","","","","","","","1.61"
"","","","","","html-keyboard-response","171","230815","0.0-7.45-0.45","656a080b54dcaea76f48f4e9","6579d0c5e56c6e1626038f86","6579d0fa0164dbb1754cf98d","50","
            
        <div style=""text-align: center; position: fixed; top: 5vh; left: 40vw;"">
            <div style=""margin:0 auto; width: 20vw; top: 8vh; font-size: 2vw""> 
            <font color=""green""> Bonus : $1.61 </font>
            </div>
        </div>
    
            <div> Please press any key to continue to the next movie.</div>
        ","arrowright","ITI","","","","","","",""
"","","","","","html-keyboard-response","172","230967","0.0-7.45-1.45","656a080b54dcaea76f48f4e9","6579d0c5e56c6e1626038f86","6579d0fa0164dbb1754cf98d","151","./stimuli//pack_morph_shapes_1/cat_2/diff_1/ex_2_1_1.mp4","arrowright","response","ArrowRight","1","2","1","test","true",""
"","","","","","html-keyboard-response","173","232468","0.0-7.45-2.45","656a080b54dcaea76f48f4e9","6579d0c5e56c6e1626038f86","6579d0fa0164dbb1754cf98d","null","<p> <font color=""green"" size=""5vw""> Correct category! </font> <br> <br> <font color=""green"" size=""8vw""> + $0.1 </font> </p>","null","feedback","","","","","","","1.71"
"","","","","","html-keyboard-response","174","232551","0.0-7.46-0.46","656a080b54dcaea76f48f4e9","6579d0c5e56c6e1626038f86","6579d0fa0164dbb1754cf98d","83","
            
        <div style=""text-align: center; position: fixed; top: 5vh; left: 40vw;"">
            <div style=""margin:0 auto; width: 20vw; top: 8vh; font-size: 2vw""> 
            <font color=""green""> Bonus : $1.71 </font>
            </div>
        </div>
    
            <div> Please press any key to continue to the next movie.</div>
        ","arrowright","ITI","","","","","","",""
"","","","","","html-keyboard-response","175","232695","0.0-7.46-1.46","656a080b54dcaea76f48f4e9","6579d0c5e56c6e1626038f86","6579d0fa0164dbb1754cf98d","143","./stimuli//pack_morph_shapes_1/cat_2/diff_2/ex_2_2_9.mp4","arrowright","response","ArrowRight","9","2","2","test","true",""
"","","","","","html-keyboard-response","176","234196","0.0-7.46-2.46","656a080b54dcaea76f48f4e9","6579d0c5e56c6e1626038f86","6579d0fa0164dbb1754cf98d","null","<p> <font color=""green"" size=""5vw""> Correct category! </font> <br> <br> <font color=""green"" size=""8vw""> + $0.1 </font> </p>","null","feedback","","","","","","","1.81"
"","","","","","html-keyboard-response","177","234238","0.0-7.47-0.47","656a080b54dcaea76f48f4e9","6579d0c5e56c6e1626038f86","6579d0fa0164dbb1754cf98d","42","
            
        <div style=""text-align: center; position: fixed; top: 5vh; left: 40vw;"">
            <div style=""margin:0 auto; width: 20vw; top: 8vh; font-size: 2vw""> 
            <font color=""green""> Bonus : $1.81 </font>
            </div>
        </div>
    
            <div> Please press any key to continue to the next movie.</div>
        ","arrowright","ITI","","","","","","",""
"","","","","","html-keyboard-response","178","234391","0.0-7.47-1.47","656a080b54dcaea76f48f4e9","6579d0c5e56c6e1626038f86","6579d0fa0164dbb1754cf98d","152","./stimuli//pack_morph_shapes_1/cat_1/diff_2/ex_1_2_11.mp4","arrowright","response","ArrowLeft","11","1","2","test","false",""
"","","","","","html-keyboard-response","179","235891","0.0-7.47-2.47","656a080b54dcaea76f48f4e9","6579d0c5e56c6e1626038f86","6579d0fa0164dbb1754cf98d","null","<p> <font color=""red"" size=""5vw""> Wrong category! </font> <br> <br> <font color=""red"" size=""8vw""> - $0.05 </font> </p>","null","feedback","","","","","","","1.76"
"","","","","","html-keyboard-response","180","235927","0.0-7.48-0.48","656a080b54dcaea76f48f4e9","6579d0c5e56c6e1626038f86","6579d0fa0164dbb1754cf98d","35","
            
        <div style=""text-align: center; position: fixed; top: 5vh; left: 40vw;"">
            <div style=""margin:0 auto; width: 20vw; top: 8vh; font-size: 2vw""> 
            <font color=""green""> Bonus : $1.76 </font>
            </div>
        </div>
    
            <div> Please press any key to continue to the next movie.</div>
        ","arrowright","ITI","","","","","","",""
"","","","","","html-keyboard-response","181","236071","0.0-7.48-1.48","656a080b54dcaea76f48f4e9","6579d0c5e56c6e1626038f86","6579d0fa0164dbb1754cf98d","144","./stimuli//pack_morph_shapes_1/cat_2/diff_2/ex_2_2_1.mp4","arrowright","response","ArrowRight","1","2","2","test","true",""
"","","","","","html-keyboard-response","182","237572","0.0-7.48-2.48","656a080b54dcaea76f48f4e9","6579d0c5e56c6e1626038f86","6579d0fa0164dbb1754cf98d","null","<p> <font color=""green"" size=""5vw""> Correct category! </font> <br> <br> <font color=""green"" size=""8vw""> + $0.1 </font> </p>","null","feedback","","","","","","","1.86"
"","","","","","html-keyboard-response","183","237575","0.0-7.49-0.49","656a080b54dcaea76f48f4e9","6579d0c5e56c6e1626038f86","6579d0fa0164dbb1754cf98d","2","
            
        <div style=""text-align: center; position: fixed; top: 5vh; left: 40vw;"">
            <div style=""margin:0 auto; width: 20vw; top: 8vh; font-size: 2vw""> 
            <font color=""green""> Bonus : $1.86 </font>
            </div>
        </div>
    
            <div> Please press any key to continue to the next movie.</div>
        ","arrowright","ITI","","","","","","",""
"","","","","","html-keyboard-response","184","237727","0.0-7.49-1.49","656a080b54dcaea76f48f4e9","6579d0c5e56c6e1626038f86","6579d0fa0164dbb1754cf98d","151","./stimuli//pack_morph_shapes_1/cat_2/diff_2/ex_2_2_1.mp4","arrowright","response","ArrowRight","1","2","2","test","true",""
"","","","","","html-keyboard-response","185","239228","0.0-7.49-2.49","656a080b54dcaea76f48f4e9","6579d0c5e56c6e1626038f86","6579d0fa0164dbb1754cf98d","null","<p> <font color=""green"" size=""5vw""> Correct category! </font> <br> <br> <font color=""green"" size=""8vw""> + $0.1 </font> </p>","null","feedback","","","","","","","1.96"
"","","","","","html-keyboard-response","186","239367","0.0-7.50-0.50","656a080b54dcaea76f48f4e9","6579d0c5e56c6e1626038f86","6579d0fa0164dbb1754cf98d","139","
            
        <div style=""text-align: center; position: fixed; top: 5vh; left: 40vw;"">
            <div style=""margin:0 auto; width: 20vw; top: 8vh; font-size: 2vw""> 
            <font color=""green""> Bonus : $1.96 </font>
            </div>
        </div>
    
            <div> Please press any key to continue to the next movie.</div>
        ","arrowright","ITI","","","","","","",""
"","","","","","html-keyboard-response","187","239519","0.0-7.50-1.50","656a080b54dcaea76f48f4e9","6579d0c5e56c6e1626038f86","6579d0fa0164dbb1754cf98d","150","./stimuli//pack_morph_shapes_1/cat_2/diff_2/ex_2_2_7.mp4","arrowright","response","ArrowRight","7","2","2","test","true",""
"","","","","","html-keyboard-response","188","241019","0.0-7.50-2.50","656a080b54dcaea76f48f4e9","6579d0c5e56c6e1626038f86","6579d0fa0164dbb1754cf98d","null","<p> <font color=""green"" size=""5vw""> Correct category! </font> <br> <br> <font color=""green"" size=""8vw""> + $0.1 </font> </p>","null","feedback","","","","","","","2.06"
"","","","","","html-keyboard-response","189","241071","0.0-7.51-0.51","656a080b54dcaea76f48f4e9","6579d0c5e56c6e1626038f86","6579d0fa0164dbb1754cf98d","51","
            
        <div style=""text-align: center; position: fixed; top: 5vh; left: 40vw;"">
            <div style=""margin:0 auto; width: 20vw; top: 8vh; font-size: 2vw""> 
            <font color=""green""> Bonus : $2.06 </font>
            </div>
        </div>
    
            <div> Please press any key to continue to the next movie.</div>
        ","arrowright","ITI","","","","","","",""
"","","","","","html-keyboard-response","190","241223","0.0-7.51-1.51","656a080b54dcaea76f48f4e9","6579d0c5e56c6e1626038f86","6579d0fa0164dbb1754cf98d","152","./stimuli//pack_morph_shapes_1/cat_2/diff_3/ex_2_3_1.mp4","arrowright","response","ArrowRight","1","2","3","test","true",""
"","","","","","html-keyboard-response","191","242725","0.0-7.51-2.51","656a080b54dcaea76f48f4e9","6579d0c5e56c6e1626038f86","6579d0fa0164dbb1754cf98d","null","<p> <font color=""green"" size=""5vw""> Correct category! </font> <br> <br> <font color=""green"" size=""8vw""> + $0.1 </font> </p>","null","feedback","","","","","","","2.16"
"","","","","","html-keyboard-response","192","242735","0.0-7.52-0.52","656a080b54dcaea76f48f4e9","6579d0c5e56c6e1626038f86","6579d0fa0164dbb1754cf98d","10","
            
        <div style=""text-align: center; position: fixed; top: 5vh; left: 40vw;"">
            <div style=""margin:0 auto; width: 20vw; top: 8vh; font-size: 2vw""> 
            <font color=""green""> Bonus : $2.16 </font>
            </div>
        </div>
    
            <div> Please press any key to continue to the next movie.</div>
        ","arrowright","ITI","","","","","","",""
"","","","","","html-keyboard-response","193","242879","0.0-7.52-1.52","656a080b54dcaea76f48f4e9","6579d0c5e56c6e1626038f86","6579d0fa0164dbb1754cf98d","143","./stimuli//pack_morph_shapes_1/cat_1/diff_3/ex_1_3_3.mp4","arrowright","response","ArrowLeft","3","1","3","test","false",""
"","","","","","html-keyboard-response","194","244380","0.0-7.52-2.52","656a080b54dcaea76f48f4e9","6579d0c5e56c6e1626038f86","6579d0fa0164dbb1754cf98d","null","<p> <font color=""red"" size=""5vw""> Wrong category! </font> <br> <br> <font color=""red"" size=""8vw""> - $0.05 </font> </p>","null","feedback","","","","","","","2.11"
"","","","","","html-keyboard-response","195","244447","0.0-7.53-0.53","656a080b54dcaea76f48f4e9","6579d0c5e56c6e1626038f86","6579d0fa0164dbb1754cf98d","66","
            
        <div style=""text-align: center; position: fixed; top: 5vh; left: 40vw;"">
            <div style=""margin:0 auto; width: 20vw; top: 8vh; font-size: 2vw""> 
            <font color=""green""> Bonus : $2.11 </font>
            </div>
        </div>
    
            <div> Please press any key to continue to the next movie.</div>
        ","arrowright","ITI","","","","","","",""
"","","","","","html-keyboard-response","196","244607","0.0-7.53-1.53","656a080b54dcaea76f48f4e9","6579d0c5e56c6e1626038f86","6579d0fa0164dbb1754cf98d","160","./stimuli//pack_morph_shapes_1/cat_1/diff_3/ex_1_3_10.mp4","arrowright","response","ArrowLeft","10","1","3","test","false",""
"","","","","","html-keyboard-response","197","246110","0.0-7.53-2.53","656a080b54dcaea76f48f4e9","6579d0c5e56c6e1626038f86","6579d0fa0164dbb1754cf98d","null","<p> <font color=""red"" size=""5vw""> Wrong category! </font> <br> <br> <font color=""red"" size=""8vw""> - $0.05 </font> </p>","null","feedback","","","","","","","2.06"
"","","","","","html-keyboard-response","198","246192","0.0-7.54-0.54","656a080b54dcaea76f48f4e9","6579d0c5e56c6e1626038f86","6579d0fa0164dbb1754cf98d","82","
            
        <div style=""text-align: center; position: fixed; top: 5vh; left: 40vw;"">
            <div style=""margin:0 auto; width: 20vw; top: 8vh; font-size: 2vw""> 
            <font color=""green""> Bonus : $2.06 </font>
            </div>
        </div>
    
            <div> Please press any key to continue to the next movie.</div>
        ","arrowright","ITI","","","","","","",""
"","","","","","html-keyboard-response","199","246887","0.0-7.54-1.54","656a080b54dcaea76f48f4e9","6579d0c5e56c6e1626038f86","6579d0fa0164dbb1754cf98d","694","./stimuli//pack_morph_shapes_1/cat_1/diff_3/ex_1_3_14.mp4","arrowleft","response","ArrowLeft","14","1","3","test","true",""
"","","","","","html-keyboard-response","200","248389","0.0-7.54-2.54","656a080b54dcaea76f48f4e9","6579d0c5e56c6e1626038f86","6579d0fa0164dbb1754cf98d","null","<p> <font color=""green"" size=""5vw""> Correct category! </font> <br> <br> <font color=""green"" size=""8vw""> + $0.09 </font> </p>","null","feedback","","","","","","","2.15"
"","","","","","html-keyboard-response","201","248496","0.0-7.55-0.55","656a080b54dcaea76f48f4e9","6579d0c5e56c6e1626038f86","6579d0fa0164dbb1754cf98d","107","
            
        <div style=""text-align: center; position: fixed; top: 5vh; left: 40vw;"">
            <div style=""margin:0 auto; width: 20vw; top: 8vh; font-size: 2vw""> 
            <font color=""green""> Bonus : $2.15 </font>
            </div>
        </div>
    
            <div> Please press any key to continue to the next movie.</div>
        ","arrowright","ITI","","","","","","",""
"","","","","","html-keyboard-response","202","248632","0.0-7.55-1.55","656a080b54dcaea76f48f4e9","6579d0c5e56c6e1626038f86","6579d0fa0164dbb1754cf98d","135","./stimuli//pack_morph_shapes_1/cat_2/diff_3/ex_2_3_5.mp4","arrowright","response","ArrowRight","5","2","3","test","true",""
"","","","","","html-keyboard-response","203","250133","0.0-7.55-2.55","656a080b54dcaea76f48f4e9","6579d0c5e56c6e1626038f86","6579d0fa0164dbb1754cf98d","null","<p> <font color=""green"" size=""5vw""> Correct category! </font> <br> <br> <font color=""green"" size=""8vw""> + $0.1 </font> </p>","null","feedback","","","","","","","2.25"
"","","","","","html-keyboard-response","204","250216","0.0-7.56-0.56","656a080b54dcaea76f48f4e9","6579d0c5e56c6e1626038f86","6579d0fa0164dbb1754cf98d","82","
            
        <div style=""text-align: center; position: fixed; top: 5vh; left: 40vw;"">
            <div style=""margin:0 auto; width: 20vw; top: 8vh; font-size: 2vw""> 
            <font color=""green""> Bonus : $2.25 </font>
            </div>
        </div>
    
            <div> Please press any key to continue to the next movie.</div>
        ","arrowright","ITI","","","","","","",""
"","","","","","html-keyboard-response","205","250368","0.0-7.56-1.56","656a080b54dcaea76f48f4e9","6579d0c5e56c6e1626038f86","6579d0fa0164dbb1754cf98d","151","./stimuli//pack_morph_shapes_1/cat_1/diff_2/ex_1_2_14.mp4","arrowright","response","ArrowLeft","14","1","2","test","false",""
"","","","","","html-keyboard-response","206","251868","0.0-7.56-2.56","656a080b54dcaea76f48f4e9","6579d0c5e56c6e1626038f86","6579d0fa0164dbb1754cf98d","null","<p> <font color=""red"" size=""5vw""> Wrong category! </font> <br> <br> <font color=""red"" size=""8vw""> - $0.05 </font> </p>","null","feedback","","","","","","","2.2"
"","","","","","html-keyboard-response","207","251936","0.0-7.57-0.57","656a080b54dcaea76f48f4e9","6579d0c5e56c6e1626038f86","6579d0fa0164dbb1754cf98d","68","
            
        <div style=""text-align: center; position: fixed; top: 5vh; left: 40vw;"">
            <div style=""margin:0 auto; width: 20vw; top: 8vh; font-size: 2vw""> 
            <font color=""green""> Bonus : $2.2 </font>
            </div>
        </div>
    
            <div> Please press any key to continue to the next movie.</div>
        ","arrowright","ITI","","","","","","",""
"","","","","","html-keyboard-response","208","252088","0.0-7.57-1.57","656a080b54dcaea76f48f4e9","6579d0c5e56c6e1626038f86","6579d0fa0164dbb1754cf98d","151","./stimuli//pack_morph_shapes_1/cat_2/diff_2/ex_2_2_11.mp4","arrowright","response","ArrowRight","11","2","2","test","true",""
"","","","","","html-keyboard-response","209","253589","0.0-7.57-2.57","656a080b54dcaea76f48f4e9","6579d0c5e56c6e1626038f86","6579d0fa0164dbb1754cf98d","null","<p> <font color=""green"" size=""5vw""> Correct category! </font> <br> <br> <font color=""green"" size=""8vw""> + $0.1 </font> </p>","null","feedback","","","","","","","2.3"
"","","","","","html-keyboard-response","210","257327","0.0-7.58-0.58","656a080b54dcaea76f48f4e9","6579d0c5e56c6e1626038f86","6579d0fa0164dbb1754cf98d","3738","
            
        <div style=""text-align: center; position: fixed; top: 5vh; left: 40vw;"">
            <div style=""margin:0 auto; width: 20vw; top: 8vh; font-size: 2vw""> 
            <font color=""green""> Bonus : $2.3 </font>
            </div>
        </div>
    
            <div> Please press any key to continue to the next movie.</div>
        ","arrowright","ITI","","","","","","",""
"","","","","","html-keyboard-response","211","257543","0.0-7.58-1.58","656a080b54dcaea76f48f4e9","6579d0c5e56c6e1626038f86","6579d0fa0164dbb1754cf98d","215","./stimuli//pack_morph_shapes_1/cat_1/diff_2/ex_1_2_11.mp4","arrowright","response","ArrowLeft","11","1","2","test","false",""
"","","","","","html-keyboard-response","212","259045","0.0-7.58-2.58","656a080b54dcaea76f48f4e9","6579d0c5e56c6e1626038f86","6579d0fa0164dbb1754cf98d","null","<p> <font color=""red"" size=""5vw""> Wrong category! </font> <br> <br> <font color=""red"" size=""8vw""> - $0.05 </font> </p>","null","feedback","","","","","","","2.25"
"","","","","","html-keyboard-response","213","259152","0.0-7.59-0.59","656a080b54dcaea76f48f4e9","6579d0c5e56c6e1626038f86","6579d0fa0164dbb1754cf98d","107","
            
        <div style=""text-align: center; position: fixed; top: 5vh; left: 40vw;"">
            <div style=""margin:0 auto; width: 20vw; top: 8vh; font-size: 2vw""> 
            <font color=""green""> Bonus : $2.25 </font>
            </div>
        </div>
    
            <div> Please press any key to continue to the next movie.</div>
        ","arrowright","ITI","","","","","","",""
"","","","","","html-keyboard-response","214","259328","0.0-7.59-1.59","656a080b54dcaea76f48f4e9","6579d0c5e56c6e1626038f86","6579d0fa0164dbb1754cf98d","175","./stimuli//pack_morph_shapes_1/cat_1/diff_2/ex_1_2_11.mp4","arrowright","response","ArrowLeft","11","1","2","test","false",""
"","","","","","html-keyboard-response","215","260830","0.0-7.59-2.59","656a080b54dcaea76f48f4e9","6579d0c5e56c6e1626038f86","6579d0fa0164dbb1754cf98d","null","<p> <font color=""red"" size=""5vw""> Wrong category! </font> <br> <br> <font color=""red"" size=""8vw""> - $0.05 </font> </p>","null","feedback","","","","","","","2.2"
"","","","","","html-keyboard-response","216","260927","0.0-7.60-0.60","656a080b54dcaea76f48f4e9","6579d0c5e56c6e1626038f86","6579d0fa0164dbb1754cf98d","97","
            
        <div style=""text-align: center; position: fixed; top: 5vh; left: 40vw;"">
            <div style=""margin:0 auto; width: 20vw; top: 8vh; font-size: 2vw""> 
            <font color=""green""> Bonus : $2.2 </font>
            </div>
        </div>
    
            <div> Please press any key to continue to the next movie.</div>
        ","arrowleft","ITI","","","","","","",""
"","","","","","html-keyboard-response","217","261088","0.0-7.60-1.60","656a080b54dcaea76f48f4e9","6579d0c5e56c6e1626038f86","6579d0fa0164dbb1754cf98d","160","./stimuli//pack_morph_shapes_1/cat_1/diff_2/ex_1_2_14.mp4","arrowleft","response","ArrowLeft","14","1","2","test","true",""
"","","","","","html-keyboard-response","218","262589","0.0-7.60-2.60","656a080b54dcaea76f48f4e9","6579d0c5e56c6e1626038f86","6579d0fa0164dbb1754cf98d","null","<p> <font color=""green"" size=""5vw""> Correct category! </font> <br> <br> <font color=""green"" size=""8vw""> + $0.1 </font> </p>","null","feedback","","","","","","","2.3"
"","","","","","html-keyboard-response","219","262672","0.0-7.61-0.61","656a080b54dcaea76f48f4e9","6579d0c5e56c6e1626038f86","6579d0fa0164dbb1754cf98d","83","
            
        <div style=""text-align: center; position: fixed; top: 5vh; left: 40vw;"">
            <div style=""margin:0 auto; width: 20vw; top: 8vh; font-size: 2vw""> 
            <font color=""green""> Bonus : $2.3 </font>
            </div>
        </div>
    
            <div> Please press any key to continue to the next movie.</div>
        ","arrowright","ITI","","","","","","",""
"","","","","","html-keyboard-response","220","262848","0.0-7.61-1.61","656a080b54dcaea76f48f4e9","6579d0c5e56c6e1626038f86","6579d0fa0164dbb1754cf98d","175","./stimuli//pack_morph_shapes_1/cat_1/diff_1/ex_1_1_2.mp4","arrowright","response","ArrowLeft","2","1","1","test","false",""
"","","","","","html-keyboard-response","221","264349","0.0-7.61-2.61","656a080b54dcaea76f48f4e9","6579d0c5e56c6e1626038f86","6579d0fa0164dbb1754cf98d","null","<p> <font color=""red"" size=""5vw""> Wrong category! </font> <br> <br> <font color=""red"" size=""8vw""> - $0.05 </font> </p>","null","feedback","","","","","","","2.25"
"","","","","","html-keyboard-response","222","264375","0.0-7.62-0.62","656a080b54dcaea76f48f4e9","6579d0c5e56c6e1626038f86","6579d0fa0164dbb1754cf98d","26","
            
        <div style=""text-align: center; position: fixed; top: 5vh; left: 40vw;"">
            <div style=""margin:0 auto; width: 20vw; top: 8vh; font-size: 2vw""> 
            <font color=""green""> Bonus : $2.25 </font>
            </div>
        </div>
    
            <div> Please press any key to continue to the next movie.</div>
        ","arrowleft","ITI","","","","","","",""
"","","","","","html-keyboard-response","223","264552","0.0-7.62-1.62","656a080b54dcaea76f48f4e9","6579d0c5e56c6e1626038f86","6579d0fa0164dbb1754cf98d","175","./stimuli//pack_morph_shapes_1/cat_1/diff_1/ex_1_1_8.mp4","arrowleft","response","ArrowLeft","8","1","1","test","true",""
"","","","","","html-keyboard-response","224","266053","0.0-7.62-2.62","656a080b54dcaea76f48f4e9","6579d0c5e56c6e1626038f86","6579d0fa0164dbb1754cf98d","null","<p> <font color=""green"" size=""5vw""> Correct category! </font> <br> <br> <font color=""green"" size=""8vw""> + $0.1 </font> </p>","null","feedback","","","","","","","2.35"
"","","","","","html-keyboard-response","225","266176","0.0-7.63-0.63","656a080b54dcaea76f48f4e9","6579d0c5e56c6e1626038f86","6579d0fa0164dbb1754cf98d","122","
            
        <div style=""text-align: center; position: fixed; top: 5vh; left: 40vw;"">
            <div style=""margin:0 auto; width: 20vw; top: 8vh; font-size: 2vw""> 
            <font color=""green""> Bonus : $2.35 </font>
            </div>
        </div>
    
            <div> Please press any key to continue to the next movie.</div>
        ","arrowleft","ITI","","","","","","",""
"","","","","","html-keyboard-response","226","266359","0.0-7.63-1.63","656a080b54dcaea76f48f4e9","6579d0c5e56c6e1626038f86","6579d0fa0164dbb1754cf98d","183","./stimuli//pack_morph_shapes_1/cat_1/diff_1/ex_1_1_12.mp4","arrowleft","response","ArrowLeft","12","1","1","test","true",""
"","","","","","html-keyboard-response","227","267860","0.0-7.63-2.63","656a080b54dcaea76f48f4e9","6579d0c5e56c6e1626038f86","6579d0fa0164dbb1754cf98d","null","<p> <font color=""green"" size=""5vw""> Correct category! </font> <br> <br> <font color=""green"" size=""8vw""> + $0.1 </font> </p>","null","feedback","","","","","","","2.45"
"","","","","","html-keyboard-response","228","268120","0.0-7.64-0.64","656a080b54dcaea76f48f4e9","6579d0c5e56c6e1626038f86","6579d0fa0164dbb1754cf98d","259","
            
        <div style=""text-align: center; position: fixed; top: 5vh; left: 40vw;"">
            <div style=""margin:0 auto; width: 20vw; top: 8vh; font-size: 2vw""> 
            <font color=""green""> Bonus : $2.45 </font>
            </div>
        </div>
    
            <div> Please press any key to continue to the next movie.</div>
        ","arrowleft","ITI","","","","","","",""
"","","","","","html-keyboard-response","229","268280","0.0-7.64-1.64","656a080b54dcaea76f48f4e9","6579d0c5e56c6e1626038f86","6579d0fa0164dbb1754cf98d","159","./stimuli//pack_morph_shapes_1/cat_1/diff_1/ex_1_1_13.mp4","arrowleft","response","ArrowLeft","13","1","1","test","true",""
"","","","","","html-keyboard-response","230","269780","0.0-7.64-2.64","656a080b54dcaea76f48f4e9","6579d0c5e56c6e1626038f86","6579d0fa0164dbb1754cf98d","null","<p> <font color=""green"" size=""5vw""> Correct category! </font> <br> <br> <font color=""green"" size=""8vw""> + $0.1 </font> </p>","null","feedback","","","","","","","2.55"
"","","","","","html-keyboard-response","231","269864","0.0-7.65-0.65","656a080b54dcaea76f48f4e9","6579d0c5e56c6e1626038f86","6579d0fa0164dbb1754cf98d","83","
            
        <div style=""text-align: center; position: fixed; top: 5vh; left: 40vw;"">
            <div style=""margin:0 auto; width: 20vw; top: 8vh; font-size: 2vw""> 
            <font color=""green""> Bonus : $2.55 </font>
            </div>
        </div>
    
            <div> Please press any key to continue to the next movie.</div>
        ","arrowleft","ITI","","","","","","",""
"","","","","","html-keyboard-response","232","270056","0.0-7.65-1.65","656a080b54dcaea76f48f4e9","6579d0c5e56c6e1626038f86","6579d0fa0164dbb1754cf98d","192","./stimuli//pack_morph_shapes_1/cat_1/diff_1/ex_1_1_17.mp4","arrowleft","response","ArrowLeft","17","1","1","test","true",""
"","","","","","html-keyboard-response","233","271557","0.0-7.65-2.65","656a080b54dcaea76f48f4e9","6579d0c5e56c6e1626038f86","6579d0fa0164dbb1754cf98d","null","<p> <font color=""green"" size=""5vw""> Correct category! </font> <br> <br> <font color=""green"" size=""8vw""> + $0.1 </font> </p>","null","feedback","","","","","","","2.65"
"","","","","","html-keyboard-response","234","271664","0.0-7.66-0.66","656a080b54dcaea76f48f4e9","6579d0c5e56c6e1626038f86","6579d0fa0164dbb1754cf98d","106","
            
        <div style=""text-align: center; position: fixed; top: 5vh; left: 40vw;"">
            <div style=""margin:0 auto; width: 20vw; top: 8vh; font-size: 2vw""> 
            <font color=""green""> Bonus : $2.65 </font>
            </div>
        </div>
    
            <div> Please press any key to continue to the next movie.</div>
        ","arrowright","ITI","","","","","","",""
"","","","","","html-keyboard-response","235","271832","0.0-7.66-1.66","656a080b54dcaea76f48f4e9","6579d0c5e56c6e1626038f86","6579d0fa0164dbb1754cf98d","167","./stimuli//pack_morph_shapes_1/cat_2/diff_2/ex_2_2_11.mp4","arrowright","response","ArrowRight","11","2","2","test","true",""
"","","","","","html-keyboard-response","236","273333","0.0-7.66-2.66","656a080b54dcaea76f48f4e9","6579d0c5e56c6e1626038f86","6579d0fa0164dbb1754cf98d","null","<p> <font color=""green"" size=""5vw""> Correct category! </font> <br> <br> <font color=""green"" size=""8vw""> + $0.1 </font> </p>","null","feedback","","","","","","","2.75"
"","","","","","html-keyboard-response","237","273392","0.0-7.67-0.67","656a080b54dcaea76f48f4e9","6579d0c5e56c6e1626038f86","6579d0fa0164dbb1754cf98d","59","
            
        <div style=""text-align: center; position: fixed; top: 5vh; left: 40vw;"">
            <div style=""margin:0 auto; width: 20vw; top: 8vh; font-size: 2vw""> 
            <font color=""green""> Bonus : $2.75 </font>
            </div>
        </div>
    
            <div> Please press any key to continue to the next movie.</div>
        ","arrowright","ITI","","","","","","",""
"","","","","","html-keyboard-response","238","273560","0.0-7.67-1.67","656a080b54dcaea76f48f4e9","6579d0c5e56c6e1626038f86","6579d0fa0164dbb1754cf98d","167","./stimuli//pack_morph_shapes_1/cat_2/diff_2/ex_2_2_8.mp4","arrowright","response","ArrowRight","8","2","2","test","true",""
"","","","","","html-keyboard-response","239","275060","0.0-7.67-2.67","656a080b54dcaea76f48f4e9","6579d0c5e56c6e1626038f86","6579d0fa0164dbb1754cf98d","null","<p> <font color=""green"" size=""5vw""> Correct category! </font> <br> <br> <font color=""green"" size=""8vw""> + $0.1 </font> </p>","null","feedback","","","","","","","2.85"
"","","","","","html-keyboard-response","240","275200","0.0-7.68-0.68","656a080b54dcaea76f48f4e9","6579d0c5e56c6e1626038f86","6579d0fa0164dbb1754cf98d","139","
            
        <div style=""text-align: center; position: fixed; top: 5vh; left: 40vw;"">
            <div style=""margin:0 auto; width: 20vw; top: 8vh; font-size: 2vw""> 
            <font color=""green""> Bonus : $2.85 </font>
            </div>
        </div>
    
            <div> Please press any key to continue to the next movie.</div>
        ","arrowright","ITI","","","","","","",""
"","","","","","html-keyboard-response","241","275360","0.0-7.68-1.68","656a080b54dcaea76f48f4e9","6579d0c5e56c6e1626038f86","6579d0fa0164dbb1754cf98d","159","./stimuli//pack_morph_shapes_1/cat_2/diff_2/ex_2_2_5.mp4","arrowright","response","ArrowRight","5","2","2","test","true",""
"","","","","","html-keyboard-response","242","276862","0.0-7.68-2.68","656a080b54dcaea76f48f4e9","6579d0c5e56c6e1626038f86","6579d0fa0164dbb1754cf98d","null","<p> <font color=""green"" size=""5vw""> Correct category! </font> <br> <br> <font color=""green"" size=""8vw""> + $0.1 </font> </p>","null","feedback","","","","","","","2.95"
"","","","","","html-keyboard-response","243","277000","0.0-7.69-0.69","656a080b54dcaea76f48f4e9","6579d0c5e56c6e1626038f86","6579d0fa0164dbb1754cf98d","138","
            
        <div style=""text-align: center; position: fixed; top: 5vh; left: 40vw;"">
            <div style=""margin:0 auto; width: 20vw; top: 8vh; font-size: 2vw""> 
            <font color=""green""> Bonus : $2.95 </font>
            </div>
        </div>
    
            <div> Please press any key to continue to the next movie.</div>
        ","arrowright","ITI","","","","","","",""
"","","","","","html-keyboard-response","244","277200","0.0-7.69-1.69","656a080b54dcaea76f48f4e9","6579d0c5e56c6e1626038f86","6579d0fa0164dbb1754cf98d","200","./stimuli//pack_morph_shapes_1/cat_1/diff_2/ex_1_2_10.mp4","arrowright","response","ArrowLeft","10","1","2","test","false",""
"","","","","","html-keyboard-response","245","278702","0.0-7.69-2.69","656a080b54dcaea76f48f4e9","6579d0c5e56c6e1626038f86","6579d0fa0164dbb1754cf98d","null","<p> <font color=""red"" size=""5vw""> Wrong category! </font> <br> <br> <font color=""red"" size=""8vw""> - $0.05 </font> </p>","null","feedback","","","","","","","2.9"
"","","","","","html-keyboard-response","246","278816","0.0-7.70-0.70","656a080b54dcaea76f48f4e9","6579d0c5e56c6e1626038f86","6579d0fa0164dbb1754cf98d","114","
            
        <div style=""text-align: center; position: fixed; top: 5vh; left: 40vw;"">
            <div style=""margin:0 auto; width: 20vw; top: 8vh; font-size: 2vw""> 
            <font color=""green""> Bonus : $2.9 </font>
            </div>
        </div>
    
            <div> Please press any key to continue to the next movie.</div>
        ","arrowright","ITI","","","","","","",""
"","","","","","html-keyboard-response","247","278952","0.0-7.70-1.70","656a080b54dcaea76f48f4e9","6579d0c5e56c6e1626038f86","6579d0fa0164dbb1754cf98d","136","./stimuli//pack_morph_shapes_1/cat_1/diff_2/ex_1_2_1.mp4","arrowleft","response","ArrowLeft","1","1","2","test","true",""
"","","","","","html-keyboard-response","248","280453","0.0-7.70-2.70","656a080b54dcaea76f48f4e9","6579d0c5e56c6e1626038f86","6579d0fa0164dbb1754cf98d","null","<p> <font color=""green"" size=""5vw""> Correct category! </font> <br> <br> <font color=""green"" size=""8vw""> + $0.1 </font> </p>","null","feedback","","","","","","","3"
"","","","","","html-keyboard-response","249","280519","0.0-7.71-0.71","656a080b54dcaea76f48f4e9","6579d0c5e56c6e1626038f86","6579d0fa0164dbb1754cf98d","66","
            
        <div style=""text-align: center; position: fixed; top: 5vh; left: 40vw;"">
            <div style=""margin:0 auto; width: 20vw; top: 8vh; font-size: 2vw""> 
            <font color=""green""> Bonus : $3 </font>
            </div>
        </div>
    
            <div> Please press any key to continue to the next movie.</div>
        ","arrowright","ITI","","","","","","",""
"","","","","","html-keyboard-response","250","280704","0.0-7.71-1.71","656a080b54dcaea76f48f4e9","6579d0c5e56c6e1626038f86","6579d0fa0164dbb1754cf98d","184","./stimuli//pack_morph_shapes_1/cat_1/diff_3/ex_1_3_14.mp4","arrowright","response","ArrowLeft","14","1","3","test","false",""
"","","","","","html-keyboard-response","251","282205","0.0-7.71-2.71","656a080b54dcaea76f48f4e9","6579d0c5e56c6e1626038f86","6579d0fa0164dbb1754cf98d","null","<p> <font color=""red"" size=""5vw""> Wrong category! </font> <br> <br> <font color=""red"" size=""8vw""> - $0.05 </font> </p>","null","feedback","","","","","","","2.95"
"","","","","","html-keyboard-response","252","282327","0.0-7.72-0.72","656a080b54dcaea76f48f4e9","6579d0c5e56c6e1626038f86","6579d0fa0164dbb1754cf98d","122","
            
        <div style=""text-align: center; position: fixed; top: 5vh; left: 40vw;"">
            <div style=""margin:0 auto; width: 20vw; top: 8vh; font-size: 2vw""> 
            <font color=""green""> Bonus : $2.95 </font>
            </div>
        </div>
    
            <div> Please press any key to continue to the next movie.</div>
        ","arrowleft","ITI","","","","","","",""
"","","","","","html-keyboard-response","253","282511","0.0-7.72-1.72","656a080b54dcaea76f48f4e9","6579d0c5e56c6e1626038f86","6579d0fa0164dbb1754cf98d","183","./stimuli//pack_morph_shapes_1/cat_1/diff_3/ex_1_3_13.mp4","arrowleft","response","ArrowLeft","13","1","3","test","true",""
