"success","timeout","failed_images","failed_audio","failed_video","trial_type","trial_index","time_elapsed","internal_node_id","subject_id","study_id","session_id","rt","stimulus","response","task","correct_response","exemplar_ID","category","difficulty","phase","correct","bonus"
"true","false","[]","[]","[]","preload","0","4","0.0-0.0","60f815535ea713f564c6ed61","6579d0c5e56c6e1626038f86","6579d1311e525246fe229baf","","","","","","","","","","",""
"","","","","","html-keyboard-response","1","4363","0.0-1.0","60f815535ea713f564c6ed61","6579d0c5e56c6e1626038f86","6579d1311e525246fe229baf","4357","Welcome to the Category Learning experiment! Press any key to continue.","v","welcome","","","","","","",""
"","","","","","html-keyboard-response","2","27441","0.0-2.0","60f815535ea713f564c6ed61","6579d0c5e56c6e1626038f86","6579d1311e525246fe229baf","23077","
            <p>You will be shown movies. Each movie contains a shape that initially is hidden and is gradually revealed. 
            <br> Some shapes are category A, some are category B.
            <br> You will not know in advance which category each shape belongs to.</p>
            <p> While you watch a movie, you have to guess the category that the shape you see belongs to <b>(left arrow for category A, right arrow for category B)</b></p>
            <p> After you choose, the screen will show you whether you were correct or not.</p>
            <p>Press any key to continue.</p>
            "," ","introduction_1","","","","","","",""
"","","","","","html-keyboard-response","3","39313","0.0-3.0","60f815535ea713f564c6ed61","6579d0c5e56c6e1626038f86","6579d1311e525246fe229baf","11871","
              <p><b>You will receive a bonus payment for each correct answer! The faster you answer the higher the bonus will be!</b></p>
              <p> So you can increase your bonus by guessing as quickly and accurately as possible.</p>
              <p><b>You will lose $0.05 from your bonus payment for each incorrect answer! The bonus can not become less than $0.</b> </p>
              <p>Press any key to continue.</p>
              "," ","introduction_2","","","","","","",""
"","","","","","html-keyboard-response","4","46595","0.0-4.0","60f815535ea713f564c6ed61","6579d0c5e56c6e1626038f86","6579d1311e525246fe229baf","7281","
            <p> <b>The first 10 movies are a practice round that will not count towards your bonus payment.</b></p>
            <p> You will be notified when practice finishes and the test begins. </p>
            <p> Press any key to begin the practice round.</p>
            "," ","introduction_3","","","","","","",""
"","","","","","html-keyboard-response","5","49673","0.0-5.0-0.0","60f815535ea713f564c6ed61","6579d0c5e56c6e1626038f86","6579d1311e525246fe229baf","3077","
            
        <div style=""text-align: center; position: fixed; top: 5vh; left: 40vw;"">
            <div style=""margin:0 auto; width: 20vw; top: 8vh; font-size: 2vw""> 
            <font color=""green""> Bonus : $0 </font>
            </div>
        </div>
    
            <div> Please press any key to continue to the next movie.</div>
        "," ","ITI","","","","","","",""
"","","","","","html-keyboard-response","6","52852","0.0-5.0-1.0","60f815535ea713f564c6ed61","6579d0c5e56c6e1626038f86","6579d1311e525246fe229baf","3175","./stimuli//pack_morph_shapes_1/cat_2/diff_1/ex_2_1_14.mp4","arrowleft","response","ArrowRight","14","2","1","train","false",""
"","","","","","html-keyboard-response","7","54354","0.0-5.0-2.0","60f815535ea713f564c6ed61","6579d0c5e56c6e1626038f86","6579d1311e525246fe229baf","null","<p> <font color=""red"" size=""5vw""> Wrong category! </font> </p>","null","feedback","","","","","","","0"
"","","","","","html-keyboard-response","8","55856","0.0-5.0-0.1","60f815535ea713f564c6ed61","6579d0c5e56c6e1626038f86","6579d1311e525246fe229baf","1501","
            
        <div style=""text-align: center; position: fixed; top: 5vh; left: 40vw;"">
            <div style=""margin:0 auto; width: 20vw; top: 8vh; font-size: 2vw""> 
            <font color=""green""> Bonus : $0 </font>
            </div>
        </div>
    
            <div> Please press any key to continue to the next movie.</div>
        ","arrowleft","ITI","","","","","","",""
"","","","","","html-keyboard-response","9","59289","0.0-5.0-1.1","60f815535ea713f564c6ed61","6579d0c5e56c6e1626038f86","6579d1311e525246fe229baf","3431","./stimuli//pack_morph_shapes_1/cat_1/diff_1/ex_1_1_12.mp4","arrowright","response","ArrowLeft","12","1","1","train","false",""
"","","","","","html-keyboard-response","10","60801","0.0-5.0-2.1","60f815535ea713f564c6ed61","6579d0c5e56c6e1626038f86","6579d1311e525246fe229baf","null","<p> <font color=""red"" size=""5vw""> Wrong category! </font> </p>","null","feedback","","","","","","","0"
"","","","","","html-keyboard-response","11","61668","0.0-5.0-0.2","60f815535ea713f564c6ed61","6579d0c5e56c6e1626038f86","6579d1311e525246fe229baf","866","
            
        <div style=""text-align: center; position: fixed; top: 5vh; left: 40vw;"">
            <div style=""margin:0 auto; width: 20vw; top: 8vh; font-size: 2vw""> 
            <font color=""green""> Bonus : $0 </font>
            </div>
        </div>
    
            <div> Please press any key to continue to the next movie.</div>
        ","arrowleft","ITI","","","","","","",""
"","","","","","html-keyboard-response","12","67042","0.0-5.0-1.2","60f815535ea713f564c6ed61","6579d0c5e56c6e1626038f86","6579d1311e525246fe229baf","null","./stimuli//pack_morph_shapes_1/cat_2/diff_2/ex_2_2_2.mp4","null","response","ArrowRight","2","2","2","train","false",""
"","","","","","html-keyboard-response","13","68544","0.0-5.0-2.2","60f815535ea713f564c6ed61","6579d0c5e56c6e1626038f86","6579d1311e525246fe229baf","null","<p> <font color=""red"" size=""5vw""> Time out! </font> <br> Please try to respond as quickly as possible. </p>","null","feedback","","","","","","","0"
"","","","","","html-keyboard-response","14","69263","0.0-5.0-0.3","60f815535ea713f564c6ed61","6579d0c5e56c6e1626038f86","6579d1311e525246fe229baf","718","
            
        <div style=""text-align: center; position: fixed; top: 5vh; left: 40vw;"">
            <div style=""margin:0 auto; width: 20vw; top: 8vh; font-size: 2vw""> 
            <font color=""green""> Bonus : $0 </font>
            </div>
        </div>
    
            <div> Please press any key to continue to the next movie.</div>
        ","arrowleft","ITI","","","","","","",""
"","","","","","html-keyboard-response","15","73677","0.0-5.0-1.3","60f815535ea713f564c6ed61","6579d0c5e56c6e1626038f86","6579d1311e525246fe229baf","4411","./stimuli//pack_morph_shapes_1/cat_1/diff_2/ex_1_2_2.mp4","arrowleft","response","ArrowLeft","2","1","2","train","true",""
"","","","","","html-keyboard-response","16","75187","0.0-5.0-2.3","60f815535ea713f564c6ed61","6579d0c5e56c6e1626038f86","6579d1311e525246fe229baf","null","<p> <font color=""green"" size=""5vw""> Correct category! </font> </p>","null","feedback","","","","","","","0"
"","","","","","html-keyboard-response","17","75783","0.0-5.0-0.4","60f815535ea713f564c6ed61","6579d0c5e56c6e1626038f86","6579d1311e525246fe229baf","595","
            
        <div style=""text-align: center; position: fixed; top: 5vh; left: 40vw;"">
            <div style=""margin:0 auto; width: 20vw; top: 8vh; font-size: 2vw""> 
            <font color=""green""> Bonus : $0 </font>
            </div>
        </div>
    
            <div> Please press any key to continue to the next movie.</div>
        ","arrowleft","ITI","","","","","","",""
"","","","","","html-keyboard-response","18","80411","0.0-5.0-1.4","60f815535ea713f564c6ed61","6579d0c5e56c6e1626038f86","6579d1311e525246fe229baf","4627","./stimuli//pack_morph_shapes_1/cat_2/diff_1/ex_2_1_13.mp4","arrowright","response","ArrowRight","13","2","1","train","true",""
"","","","","","html-keyboard-response","19","81918","0.0-5.0-2.4","60f815535ea713f564c6ed61","6579d0c5e56c6e1626038f86","6579d1311e525246fe229baf","null","<p> <font color=""green"" size=""5vw""> Correct category! </font> </p>","null","feedback","","","","","","","0"
"","","","","","html-keyboard-response","20","82819","0.0-5.0-0.5","60f815535ea713f564c6ed61","6579d0c5e56c6e1626038f86","6579d1311e525246fe229baf","901","
            
        <div style=""text-align: center; position: fixed; top: 5vh; left: 40vw;"">
            <div style=""margin:0 auto; width: 20vw; top: 8vh; font-size: 2vw""> 
            <font color=""green""> Bonus : $0 </font>
            </div>
        </div>
    
            <div> Please press any key to continue to the next movie.</div>
        ","arrowleft","ITI","","","","","","",""
"","","","","","html-keyboard-response","21","87833","0.0-5.0-1.5","60f815535ea713f564c6ed61","6579d0c5e56c6e1626038f86","6579d1311e525246fe229baf","5011","./stimuli//pack_morph_shapes_1/cat_1/diff_1/ex_1_1_4.mp4","arrowright","response","ArrowLeft","4","1","1","train","false",""
"","","","","","html-keyboard-response","22","89346","0.0-5.0-2.5","60f815535ea713f564c6ed61","6579d0c5e56c6e1626038f86","6579d1311e525246fe229baf","null","<p> <font color=""red"" size=""5vw""> Wrong category! </font> </p>","null","feedback","","","","","","","0"
"","","","","","html-keyboard-response","23","91046","0.0-5.0-0.6","60f815535ea713f564c6ed61","6579d0c5e56c6e1626038f86","6579d1311e525246fe229baf","1700","
            
        <div style=""text-align: center; position: fixed; top: 5vh; left: 40vw;"">
            <div style=""margin:0 auto; width: 20vw; top: 8vh; font-size: 2vw""> 
            <font color=""green""> Bonus : $0 </font>
            </div>
        </div>
    
            <div> Please press any key to continue to the next movie.</div>
        ","arrowleft","ITI","","","","","","",""
"","","","","","html-keyboard-response","24","97038","0.0-5.0-1.6","60f815535ea713f564c6ed61","6579d0c5e56c6e1626038f86","6579d1311e525246fe229baf","null","./stimuli//pack_morph_shapes_1/cat_2/diff_2/ex_2_2_3.mp4","null","response","ArrowRight","3","2","2","train","false",""
"","","","","","html-keyboard-response","25","98546","0.0-5.0-2.6","60f815535ea713f564c6ed61","6579d0c5e56c6e1626038f86","6579d1311e525246fe229baf","null","<p> <font color=""red"" size=""5vw""> Time out! </font> <br> Please try to respond as quickly as possible. </p>","null","feedback","","","","","","","0"
"","","","","","html-keyboard-response","26","99982","0.0-5.0-0.7","60f815535ea713f564c6ed61","6579d0c5e56c6e1626038f86","6579d1311e525246fe229baf","1435","
            
        <div style=""text-align: center; position: fixed; top: 5vh; left: 40vw;"">
            <div style=""margin:0 auto; width: 20vw; top: 8vh; font-size: 2vw""> 
            <font color=""green""> Bonus : $0 </font>
            </div>
        </div>
    
            <div> Please press any key to continue to the next movie.</div>
        ","arrowup","ITI","","","","","","",""
"","","","","","html-keyboard-response","27","105045","0.0-5.0-1.7","60f815535ea713f564c6ed61","6579d0c5e56c6e1626038f86","6579d1311e525246fe229baf","null","./stimuli//pack_morph_shapes_1/cat_2/diff_1/ex_2_1_9.mp4","null","response","ArrowRight","9","2","1","train","false",""
"","","","","","html-keyboard-response","28","106558","0.0-5.0-2.7","60f815535ea713f564c6ed61","6579d0c5e56c6e1626038f86","6579d1311e525246fe229baf","null","<p> <font color=""red"" size=""5vw""> Time out! </font> <br> Please try to respond as quickly as possible. </p>","null","feedback","","","","","","","0"
"","","","","","html-keyboard-response","29","106729","0.0-5.0-0.8","60f815535ea713f564c6ed61","6579d0c5e56c6e1626038f86","6579d1311e525246fe229baf","170","
            
        <div style=""text-align: center; position: fixed; top: 5vh; left: 40vw;"">
            <div style=""margin:0 auto; width: 20vw; top: 8vh; font-size: 2vw""> 
            <font color=""green""> Bonus : $0 </font>
            </div>
        </div>
    
            <div> Please press any key to continue to the next movie.</div>
        ","arrowleft","ITI","","","","","","",""
"","","","","","html-keyboard-response","30","112034","0.0-5.0-1.8","60f815535ea713f564c6ed61","6579d0c5e56c6e1626038f86","6579d1311e525246fe229baf","null","./stimuli//pack_morph_shapes_1/cat_1/diff_2/ex_1_2_9.mp4","null","response","ArrowLeft","9","1","2","train","false",""
"","","","","","html-keyboard-response","31","113540","0.0-5.0-2.8","60f815535ea713f564c6ed61","6579d0c5e56c6e1626038f86","6579d1311e525246fe229baf","null","<p> <font color=""red"" size=""5vw""> Time out! </font> <br> Please try to respond as quickly as possible. </p>","null","feedback","","","","","","","0"
"","","","","","html-keyboard-response","32","115273","0.0-5.0-0.9","60f815535ea713f564c6ed61","6579d0c5e56c6e1626038f86","6579d1311e525246fe229baf","1732","
            
        <div style=""text-align: center; position: fixed; top: 5vh; left: 40vw;"">
            <div style=""margin:0 auto; width: 20vw; top: 8vh; font-size: 2vw""> 
            <font color=""green""> Bonus : $0 </font>
            </div>
        </div>
    
            <div> Please press any key to continue to the next movie.</div>
        ","arrowdown","ITI","","","","","","",""
"","","","","","html-keyboard-response","33","120301","0.0-5.0-1.9","60f815535ea713f564c6ed61","6579d0c5e56c6e1626038f86","6579d1311e525246fe229baf","5026","./stimuli//pack_morph_shapes_1/cat_1/diff_1/ex_1_1_17.mp4","arrowleft","response","ArrowLeft","17","1","1","train","true",""
"","","","","","html-keyboard-response","34","121812","0.0-5.0-2.9","60f815535ea713f564c6ed61","6579d0c5e56c6e1626038f86","6579d1311e525246fe229baf","null","<p> <font color=""green"" size=""5vw""> Correct category! </font> </p>","null","feedback","","","","","","","0"
"","","","","","html-keyboard-response","35","128745","0.0-6.0","60f815535ea713f564c6ed61","6579d0c5e56c6e1626038f86","6579d1311e525246fe229baf","6932","
            <b> <p> The practice round has finished.</p>
            <b> <p> For the rest of the experiment you will receive a bonus payment for each correct answer, which will be higher the faster you answer!</b></p>
            <b> <p> Also you will lose $0.05 from your bonus payment for each incorrect answer!</p>
            <p> Press any key to begin the test. </p>
            ","arrowdown","intermission","","","","","","",""
"","","","","","html-keyboard-response","36","129568","0.0-7.0-0.0","60f815535ea713f564c6ed61","6579d0c5e56c6e1626038f86","6579d1311e525246fe229baf","822","
            
        <div style=""text-align: center; position: fixed; top: 5vh; left: 40vw;"">
            <div style=""margin:0 auto; width: 20vw; top: 8vh; font-size: 2vw""> 
            <font color=""green""> Bonus : $0 </font>
            </div>
        </div>
    
            <div> Please press any key to continue to the next movie.</div>
        ","arrowdown","ITI","","","","","","",""
"","","","","","html-keyboard-response","37","132354","0.0-7.0-1.0","60f815535ea713f564c6ed61","6579d0c5e56c6e1626038f86","6579d1311e525246fe229baf","2781","./stimuli//pack_morph_shapes_1/cat_1/diff_1/ex_1_1_7.mp4","arrowleft","response","ArrowLeft","7","1","1","test","true",""
"","","","","","html-keyboard-response","38","133879","0.0-7.0-2.0","60f815535ea713f564c6ed61","6579d0c5e56c6e1626038f86","6579d1311e525246fe229baf","null","<p> <font color=""green"" size=""5vw""> Correct category! </font> <br> <br> <font color=""green"" size=""8vw""> + $0.06 </font> </p>","null","feedback","","","","","","","0.06"
"","","","","","html-keyboard-response","39","135237","0.0-7.1-0.1","60f815535ea713f564c6ed61","6579d0c5e56c6e1626038f86","6579d1311e525246fe229baf","1356","
            
        <div style=""text-align: center; position: fixed; top: 5vh; left: 40vw;"">
            <div style=""margin:0 auto; width: 20vw; top: 8vh; font-size: 2vw""> 
            <font color=""green""> Bonus : $0.06 </font>
            </div>
        </div>
    
            <div> Please press any key to continue to the next movie.</div>
        ","arrowdown","ITI","","","","","","",""
"","","","","","html-keyboard-response","40","137266","0.0-7.1-1.1","60f815535ea713f564c6ed61","6579d0c5e56c6e1626038f86","6579d1311e525246fe229baf","2027","./stimuli//pack_morph_shapes_1/cat_1/diff_1/ex_1_1_16.mp4","arrowright","response","ArrowLeft","16","1","1","test","false",""
"","","","","","html-keyboard-response","41","138777","0.0-7.1-2.1","60f815535ea713f564c6ed61","6579d0c5e56c6e1626038f86","6579d1311e525246fe229baf","null","<p> <font color=""red"" size=""5vw""> Wrong category! </font> <br> <br> <font color=""red"" size=""8vw""> - $0.05 </font> </p>","null","feedback","","","","","","","0.01"
"","","","","","html-keyboard-response","42","139388","0.0-7.2-0.2","60f815535ea713f564c6ed61","6579d0c5e56c6e1626038f86","6579d1311e525246fe229baf","610","
            
        <div style=""text-align: center; position: fixed; top: 5vh; left: 40vw;"">
            <div style=""margin:0 auto; width: 20vw; top: 8vh; font-size: 2vw""> 
            <font color=""green""> Bonus : $0.01 </font>
            </div>
        </div>
    
            <div> Please press any key to continue to the next movie.</div>
        ","arrowdown","ITI","","","","","","",""
"","","","","","html-keyboard-response","43","141602","0.0-7.2-1.2","60f815535ea713f564c6ed61","6579d0c5e56c6e1626038f86","6579d1311e525246fe229baf","2212","./stimuli//pack_morph_shapes_1/cat_1/diff_1/ex_1_1_11.mp4","arrowleft","response","ArrowLeft","11","1","1","test","true",""
"","","","","","html-keyboard-response","44","143106","0.0-7.2-2.2","60f815535ea713f564c6ed61","6579d0c5e56c6e1626038f86","6579d1311e525246fe229baf","null","<p> <font color=""green"" size=""5vw""> Correct category! </font> <br> <br> <font color=""green"" size=""8vw""> + $0.06 </font> </p>","null","feedback","","","","","","","0.07"
"","","","","","html-keyboard-response","45","143856","0.0-7.3-0.3","60f815535ea713f564c6ed61","6579d0c5e56c6e1626038f86","6579d1311e525246fe229baf","750","
            
        <div style=""text-align: center; position: fixed; top: 5vh; left: 40vw;"">
            <div style=""margin:0 auto; width: 20vw; top: 8vh; font-size: 2vw""> 
            <font color=""green""> Bonus : $0.07 </font>
            </div>
        </div>
    
            <div> Please press any key to continue to the next movie.</div>
        ","arrowdown","ITI","","","","","","",""
"","","","","","html-keyboard-response","46","146717","0.0-7.3-1.3","60f815535ea713f564c6ed61","6579d0c5e56c6e1626038f86","6579d1311e525246fe229baf","2859","./stimuli//pack_morph_shapes_1/cat_2/diff_1/ex_2_1_7.mp4","arrowright","response","ArrowRight","7","2","1","test","true",""
"","","","","","html-keyboard-response","47","148222","0.0-7.3-2.3","60f815535ea713f564c6ed61","6579d0c5e56c6e1626038f86","6579d1311e525246fe229baf","null","<p> <font color=""green"" size=""5vw""> Correct category! </font> <br> <br> <font color=""green"" size=""8vw""> + $0.06 </font> </p>","null","feedback","","","","","","","0.13"
"","","","","","html-keyboard-response","48","148742","0.0-7.4-0.4","60f815535ea713f564c6ed61","6579d0c5e56c6e1626038f86","6579d1311e525246fe229baf","519","
            
        <div style=""text-align: center; position: fixed; top: 5vh; left: 40vw;"">
            <div style=""margin:0 auto; width: 20vw; top: 8vh; font-size: 2vw""> 
            <font color=""green""> Bonus : $0.13 </font>
            </div>
        </div>
    
            <div> Please press any key to continue to the next movie.</div>
        ","arrowdown","ITI","","","","","","",""
"","","","","","html-keyboard-response","49","152133","0.0-7.4-1.4","60f815535ea713f564c6ed61","6579d0c5e56c6e1626038f86","6579d1311e525246fe229baf","3388","./stimuli//pack_morph_shapes_1/cat_2/diff_1/ex_2_1_16.mp4","arrowright","response","ArrowRight","16","2","1","test","true",""
"","","","","","html-keyboard-response","50","153648","0.0-7.4-2.4","60f815535ea713f564c6ed61","6579d0c5e56c6e1626038f86","6579d1311e525246fe229baf","null","<p> <font color=""green"" size=""5vw""> Correct category! </font> <br> <br> <font color=""green"" size=""8vw""> + $0.05 </font> </p>","null","feedback","","","","","","","0.18"
"","","","","","html-keyboard-response","51","154127","0.0-7.5-0.5","60f815535ea713f564c6ed61","6579d0c5e56c6e1626038f86","6579d1311e525246fe229baf","478","
            
        <div style=""text-align: center; position: fixed; top: 5vh; left: 40vw;"">
            <div style=""margin:0 auto; width: 20vw; top: 8vh; font-size: 2vw""> 
            <font color=""green""> Bonus : $0.18 </font>
            </div>
        </div>
    
            <div> Please press any key to continue to the next movie.</div>
        ","arrowdown","ITI","","","","","","",""
"","","","","","html-keyboard-response","52","156639","0.0-7.5-1.5","60f815535ea713f564c6ed61","6579d0c5e56c6e1626038f86","6579d1311e525246fe229baf","2509","./stimuli//pack_morph_shapes_1/cat_2/diff_2/ex_2_2_17.mp4","arrowleft","response","ArrowRight","17","2","2","test","false",""
"","","","","","html-keyboard-response","53","158143","0.0-7.5-2.5","60f815535ea713f564c6ed61","6579d0c5e56c6e1626038f86","6579d1311e525246fe229baf","null","<p> <font color=""red"" size=""5vw""> Wrong category! </font> <br> <br> <font color=""red"" size=""8vw""> - $0.05 </font> </p>","null","feedback","","","","","","","0.13"
"","","","","","html-keyboard-response","54","158310","0.0-7.6-0.6","60f815535ea713f564c6ed61","6579d0c5e56c6e1626038f86","6579d1311e525246fe229baf","166","
            
        <div style=""text-align: center; position: fixed; top: 5vh; left: 40vw;"">
            <div style=""margin:0 auto; width: 20vw; top: 8vh; font-size: 2vw""> 
            <font color=""green""> Bonus : $0.13 </font>
            </div>
        </div>
    
            <div> Please press any key to continue to the next movie.</div>
        ","arrowdown","ITI","","","","","","",""
"","","","","","html-keyboard-response","55","160699","0.0-7.6-1.6","60f815535ea713f564c6ed61","6579d0c5e56c6e1626038f86","6579d1311e525246fe229baf","2386","./stimuli//pack_morph_shapes_1/cat_2/diff_2/ex_2_2_8.mp4","arrowleft","response","ArrowRight","8","2","2","test","false",""
"","","","","","html-keyboard-response","56","162201","0.0-7.6-2.6","60f815535ea713f564c6ed61","6579d0c5e56c6e1626038f86","6579d1311e525246fe229baf","null","<p> <font color=""red"" size=""5vw""> Wrong category! </font> <br> <br> <font color=""red"" size=""8vw""> - $0.05 </font> </p>","null","feedback","","","","","","","0.08"
"","","","","","html-keyboard-response","57","162696","0.0-7.7-0.7","60f815535ea713f564c6ed61","6579d0c5e56c6e1626038f86","6579d1311e525246fe229baf","494","
            
        <div style=""text-align: center; position: fixed; top: 5vh; left: 40vw;"">
            <div style=""margin:0 auto; width: 20vw; top: 8vh; font-size: 2vw""> 
            <font color=""green""> Bonus : $0.08 </font>
            </div>
        </div>
    
            <div> Please press any key to continue to the next movie.</div>
        ","arrowdown","ITI","","","","","","",""
"","","","","","html-keyboard-response","58","167179","0.0-7.7-1.7","60f815535ea713f564c6ed61","6579d0c5e56c6e1626038f86","6579d1311e525246fe229baf","4480","./stimuli//pack_morph_shapes_1/cat_2/diff_2/ex_2_2_5.mp4","arrowleft","response","ArrowRight","5","2","2","test","false",""
"","","","","","html-keyboard-response","59","168682","0.0-7.7-2.7","60f815535ea713f564c6ed61","6579d0c5e56c6e1626038f86","6579d1311e525246fe229baf","null","<p> <font color=""red"" size=""5vw""> Wrong category! </font> <br> <br> <font color=""red"" size=""8vw""> - $0.05 </font> </p>","null","feedback","","","","","","","0.03"
"","","","","","html-keyboard-response","60","168755","0.0-7.8-0.8","60f815535ea713f564c6ed61","6579d0c5e56c6e1626038f86","6579d1311e525246fe229baf","72","
            
        <div style=""text-align: center; position: fixed; top: 5vh; left: 40vw;"">
            <div style=""margin:0 auto; width: 20vw; top: 8vh; font-size: 2vw""> 
            <font color=""green""> Bonus : $0.03 </font>
            </div>
        </div>
    
            <div> Please press any key to continue to the next movie.</div>
        ","arrowdown","ITI","","","","","","",""
"","","","","","html-keyboard-response","61","171658","0.0-7.8-1.8","60f815535ea713f564c6ed61","6579d0c5e56c6e1626038f86","6579d1311e525246fe229baf","2901","./stimuli//pack_morph_shapes_1/cat_2/diff_2/ex_2_2_12.mp4","arrowright","response","ArrowRight","12","2","2","test","true",""
"","","","","","html-keyboard-response","62","173172","0.0-7.8-2.8","60f815535ea713f564c6ed61","6579d0c5e56c6e1626038f86","6579d1311e525246fe229baf","null","<p> <font color=""green"" size=""5vw""> Correct category! </font> <br> <br> <font color=""green"" size=""8vw""> + $0.06 </font> </p>","null","feedback","","","","","","","0.09"
"","","","","","html-keyboard-response","63","173656","0.0-7.9-0.9","60f815535ea713f564c6ed61","6579d0c5e56c6e1626038f86","6579d1311e525246fe229baf","483","
            
        <div style=""text-align: center; position: fixed; top: 5vh; left: 40vw;"">
            <div style=""margin:0 auto; width: 20vw; top: 8vh; font-size: 2vw""> 
            <font color=""green""> Bonus : $0.09 </font>
            </div>
        </div>
    
            <div> Please press any key to continue to the next movie.</div>
        ","arrowdown","ITI","","","","","","",""
"","","","","","html-keyboard-response","64","175912","0.0-7.9-1.9","60f815535ea713f564c6ed61","6579d0c5e56c6e1626038f86","6579d1311e525246fe229baf","2254","./stimuli//pack_morph_shapes_1/cat_1/diff_2/ex_1_2_7.mp4","arrowright","response","ArrowLeft","7","1","2","test","false",""
"","","","","","html-keyboard-response","65","177425","0.0-7.9-2.9","60f815535ea713f564c6ed61","6579d0c5e56c6e1626038f86","6579d1311e525246fe229baf","null","<p> <font color=""red"" size=""5vw""> Wrong category! </font> <br> <br> <font color=""red"" size=""8vw""> - $0.05 </font> </p>","null","feedback","","","","","","","0.04"
"","","","","","html-keyboard-response","66","177881","0.0-7.10-0.10","60f815535ea713f564c6ed61","6579d0c5e56c6e1626038f86","6579d1311e525246fe229baf","455","
            
        <div style=""text-align: center; position: fixed; top: 5vh; left: 40vw;"">
            <div style=""margin:0 auto; width: 20vw; top: 8vh; font-size: 2vw""> 
            <font color=""green""> Bonus : $0.04 </font>
            </div>
        </div>
    
            <div> Please press any key to continue to the next movie.</div>
        ","arrowdown","ITI","","","","","","",""
"","","","","","html-keyboard-response","67","180636","0.0-7.10-1.10","60f815535ea713f564c6ed61","6579d0c5e56c6e1626038f86","6579d1311e525246fe229baf","2752","./stimuli//pack_morph_shapes_1/cat_1/diff_1/ex_1_1_5.mp4","arrowright","response","ArrowLeft","5","1","1","test","false",""
"","","","","","html-keyboard-response","68","182144","0.0-7.10-2.10","60f815535ea713f564c6ed61","6579d0c5e56c6e1626038f86","6579d1311e525246fe229baf","null","<p> <font color=""red"" size=""5vw""> Wrong category! </font> <br> <br> <font color=""red"" size=""8vw""> - $0.05 </font> </p>","null","feedback","","","","","","","-0.01"
"","","","","","html-keyboard-response","69","182586","0.0-7.11-0.11","60f815535ea713f564c6ed61","6579d0c5e56c6e1626038f86","6579d1311e525246fe229baf","441","
            
        <div style=""text-align: center; position: fixed; top: 5vh; left: 40vw;"">
            <div style=""margin:0 auto; width: 20vw; top: 8vh; font-size: 2vw""> 
            <font color=""green""> Bonus : $-0.01 </font>
            </div>
        </div>
    
            <div> Please press any key to continue to the next movie.</div>
        ","arrowdown","ITI","","","","","","",""
"","","","","","html-keyboard-response","70","184777","0.0-7.11-1.11","60f815535ea713f564c6ed61","6579d0c5e56c6e1626038f86","6579d1311e525246fe229baf","2188","./stimuli//pack_morph_shapes_1/cat_1/diff_1/ex_1_1_7.mp4","arrowleft","response","ArrowLeft","7","1","1","test","true",""
"","","","","","html-keyboard-response","71","186280","0.0-7.11-2.11","60f815535ea713f564c6ed61","6579d0c5e56c6e1626038f86","6579d1311e525246fe229baf","null","<p> <font color=""green"" size=""5vw""> Correct category! </font> <br> <br> <font color=""green"" size=""8vw""> + $0.06 </font> </p>","null","feedback","","","","","","","0.05"
"","","","","","html-keyboard-response","72","186808","0.0-7.12-0.12","60f815535ea713f564c6ed61","6579d0c5e56c6e1626038f86","6579d1311e525246fe229baf","527","
            
        <div style=""text-align: center; position: fixed; top: 5vh; left: 40vw;"">
            <div style=""margin:0 auto; width: 20vw; top: 8vh; font-size: 2vw""> 
            <font color=""green""> Bonus : $0.05 </font>
            </div>
        </div>
    
            <div> Please press any key to continue to the next movie.</div>
        ","arrowdown","ITI","","","","","","",""
"","","","","","html-keyboard-response","73","191123","0.0-7.12-1.12","60f815535ea713f564c6ed61","6579d0c5e56c6e1626038f86","6579d1311e525246fe229baf","4312","./stimuli//pack_morph_shapes_1/cat_1/diff_1/ex_1_1_11.mp4","arrowright","response","ArrowLeft","11","1","1","test","false",""
"","","","","","html-keyboard-response","74","192625","0.0-7.12-2.12","60f815535ea713f564c6ed61","6579d0c5e56c6e1626038f86","6579d1311e525246fe229baf","null","<p> <font color=""red"" size=""5vw""> Wrong category! </font> <br> <br> <font color=""red"" size=""8vw""> - $0.05 </font> </p>","null","feedback","","","","","","","0"
"","","","","","html-keyboard-response","75","193079","0.0-7.13-0.13","60f815535ea713f564c6ed61","6579d0c5e56c6e1626038f86","6579d1311e525246fe229baf","453","
            
        <div style=""text-align: center; position: fixed; top: 5vh; left: 40vw;"">
            <div style=""margin:0 auto; width: 20vw; top: 8vh; font-size: 2vw""> 
            <font color=""green""> Bonus : $0 </font>
            </div>
        </div>
    
            <div> Please press any key to continue to the next movie.</div>
        ","arrowdown","ITI","","","","","","",""
"","","","","","html-keyboard-response","76","197782","0.0-7.13-1.13","60f815535ea713f564c6ed61","6579d0c5e56c6e1626038f86","6579d1311e525246fe229baf","4701","./stimuli//pack_morph_shapes_1/cat_1/diff_1/ex_1_1_8.mp4","arrowright","response","ArrowLeft","8","1","1","test","false",""
"","","","","","html-keyboard-response","77","199287","0.0-7.13-2.13","60f815535ea713f564c6ed61","6579d0c5e56c6e1626038f86","6579d1311e525246fe229baf","null","<p> <font color=""red"" size=""5vw""> Wrong category! </font> </p>","null","feedback","","","","","","","0"
"","","","","","html-keyboard-response","78","199769","0.0-7.14-0.14","60f815535ea713f564c6ed61","6579d0c5e56c6e1626038f86","6579d1311e525246fe229baf","482","
            
        <div style=""text-align: center; position: fixed; top: 5vh; left: 40vw;"">
            <div style=""margin:0 auto; width: 20vw; top: 8vh; font-size: 2vw""> 
            <font color=""green""> Bonus : $0 </font>
            </div>
        </div>
    
            <div> Please press any key to continue to the next movie.</div>
        ","arrowdown","ITI","","","","","","",""
"","","","","","html-keyboard-response","79","203512","0.0-7.14-1.14","60f815535ea713f564c6ed61","6579d0c5e56c6e1626038f86","6579d1311e525246fe229baf","3740","./stimuli//pack_morph_shapes_1/cat_2/diff_1/ex_2_1_1.mp4","arrowleft","response","ArrowRight","1","2","1","test","false",""
"","","","","","html-keyboard-response","80","205029","0.0-7.14-2.14","60f815535ea713f564c6ed61","6579d0c5e56c6e1626038f86","6579d1311e525246fe229baf","null","<p> <font color=""red"" size=""5vw""> Wrong category! </font> </p>","null","feedback","","","","","","","0"
"","","","","","html-keyboard-response","81","205495","0.0-7.15-0.15","60f815535ea713f564c6ed61","6579d0c5e56c6e1626038f86","6579d1311e525246fe229baf","466","
            
        <div style=""text-align: center; position: fixed; top: 5vh; left: 40vw;"">
            <div style=""margin:0 auto; width: 20vw; top: 8vh; font-size: 2vw""> 
            <font color=""green""> Bonus : $0 </font>
            </div>
        </div>
    
            <div> Please press any key to continue to the next movie.</div>
        ","arrowdown","ITI","","","","","","",""
"","","","","","html-keyboard-response","82","208023","0.0-7.15-1.15","60f815535ea713f564c6ed61","6579d0c5e56c6e1626038f86","6579d1311e525246fe229baf","2525","./stimuli//pack_morph_shapes_1/cat_1/diff_1/ex_1_1_8.mp4","arrowleft","response","ArrowLeft","8","1","1","test","true",""
"","","","","","html-keyboard-response","83","209532","0.0-7.15-2.15","60f815535ea713f564c6ed61","6579d0c5e56c6e1626038f86","6579d1311e525246fe229baf","null","<p> <font color=""green"" size=""5vw""> Correct category! </font> <br> <br> <font color=""green"" size=""8vw""> + $0.06 </font> </p>","null","feedback","","","","","","","0.06"
"","","","","","html-keyboard-response","84","209931","0.0-7.16-0.16","60f815535ea713f564c6ed61","6579d0c5e56c6e1626038f86","6579d1311e525246fe229baf","398","
            
        <div style=""text-align: center; position: fixed; top: 5vh; left: 40vw;"">
            <div style=""margin:0 auto; width: 20vw; top: 8vh; font-size: 2vw""> 
            <font color=""green""> Bonus : $0.06 </font>
            </div>
        </div>
    
            <div> Please press any key to continue to the next movie.</div>
        ","arrowdown","ITI","","","","","","",""
"","","","","","html-keyboard-response","85","214938","0.0-7.16-1.16","60f815535ea713f564c6ed61","6579d0c5e56c6e1626038f86","6579d1311e525246fe229baf","null","./stimuli//pack_morph_shapes_1/cat_2/diff_1/ex_2_1_10.mp4","null","response","ArrowRight","10","2","1","test","false",""
"","","","","","html-keyboard-response","86","216443","0.0-7.16-2.16","60f815535ea713f564c6ed61","6579d0c5e56c6e1626038f86","6579d1311e525246fe229baf","null","<p> <font color=""red"" size=""5vw""> Time out! </font> <br> <br> <font color=""red"" size=""8vw""> - $0.05 </font> <br> <br> Please try to respond as quickly as possible. </p>","null","feedback","","","","","","","0.01"
"","","","","","html-keyboard-response","87","217188","0.0-7.17-0.17","60f815535ea713f564c6ed61","6579d0c5e56c6e1626038f86","6579d1311e525246fe229baf","744","
            
        <div style=""text-align: center; position: fixed; top: 5vh; left: 40vw;"">
            <div style=""margin:0 auto; width: 20vw; top: 8vh; font-size: 2vw""> 
            <font color=""green""> Bonus : $0.01 </font>
            </div>
        </div>
    
            <div> Please press any key to continue to the next movie.</div>
        ","arrowleft","ITI","","","","","","",""
"","","","","","html-keyboard-response","88","219934","0.0-7.17-1.17","60f815535ea713f564c6ed61","6579d0c5e56c6e1626038f86","6579d1311e525246fe229baf","2743","./stimuli//pack_morph_shapes_1/cat_2/diff_1/ex_2_1_10.mp4","arrowleft","response","ArrowRight","10","2","1","test","false",""
"","","","","","html-keyboard-response","89","221450","0.0-7.17-2.17","60f815535ea713f564c6ed61","6579d0c5e56c6e1626038f86","6579d1311e525246fe229baf","null","<p> <font color=""red"" size=""5vw""> Wrong category! </font> <br> <br> <font color=""red"" size=""8vw""> - $0.05 </font> </p>","null","feedback","","","","","","","-0.04"
"","","","","","html-keyboard-response","90","221858","0.0-7.18-0.18","60f815535ea713f564c6ed61","6579d0c5e56c6e1626038f86","6579d1311e525246fe229baf","408","
            
        <div style=""text-align: center; position: fixed; top: 5vh; left: 40vw;"">
            <div style=""margin:0 auto; width: 20vw; top: 8vh; font-size: 2vw""> 
            <font color=""green""> Bonus : $-0.04 </font>
            </div>
        </div>
    
            <div> Please press any key to continue to the next movie.</div>
        ","arrowdown","ITI","","","","","","",""
"","","","","","html-keyboard-response","91","226759","0.0-7.18-1.18","60f815535ea713f564c6ed61","6579d0c5e56c6e1626038f86","6579d1311e525246fe229baf","4898","./stimuli//pack_morph_shapes_1/cat_1/diff_1/ex_1_1_9.mp4","arrowright","response","ArrowLeft","9","1","1","test","false",""
"","","","","","html-keyboard-response","92","228275","0.0-7.18-2.18","60f815535ea713f564c6ed61","6579d0c5e56c6e1626038f86","6579d1311e525246fe229baf","null","<p> <font color=""red"" size=""5vw""> Wrong category! </font> </p>","null","feedback","","","","","","","-0.04"
"","","","","","html-keyboard-response","93","228399","0.0-7.19-0.19","60f815535ea713f564c6ed61","6579d0c5e56c6e1626038f86","6579d1311e525246fe229baf","123","
            
        <div style=""text-align: center; position: fixed; top: 5vh; left: 40vw;"">
            <div style=""margin:0 auto; width: 20vw; top: 8vh; font-size: 2vw""> 
            <font color=""green""> Bonus : $-0.04 </font>
            </div>
        </div>
    
            <div> Please press any key to continue to the next movie.</div>
        ","arrowdown","ITI","","","","","","",""
"","","","","","html-keyboard-response","94","232880","0.0-7.19-1.19","60f815535ea713f564c6ed61","6579d0c5e56c6e1626038f86","6579d1311e525246fe229baf","4479","./stimuli//pack_morph_shapes_1/cat_2/diff_1/ex_2_1_15.mp4","arrowleft","response","ArrowRight","15","2","1","test","false",""
"","","","","","html-keyboard-response","95","234394","0.0-7.19-2.19","60f815535ea713f564c6ed61","6579d0c5e56c6e1626038f86","6579d1311e525246fe229baf","null","<p> <font color=""red"" size=""5vw""> Wrong category! </font> </p>","null","feedback","","","","","","","-0.04"
"","","","","","html-keyboard-response","96","234445","0.0-7.20-0.20","60f815535ea713f564c6ed61","6579d0c5e56c6e1626038f86","6579d1311e525246fe229baf","50","
            
        <div style=""text-align: center; position: fixed; top: 5vh; left: 40vw;"">
            <div style=""margin:0 auto; width: 20vw; top: 8vh; font-size: 2vw""> 
            <font color=""green""> Bonus : $-0.04 </font>
            </div>
        </div>
    
            <div> Please press any key to continue to the next movie.</div>
        ","arrowdown","ITI","","","","","","",""
"","","","","","html-keyboard-response","97","239270","0.0-7.20-1.20","60f815535ea713f564c6ed61","6579d0c5e56c6e1626038f86","6579d1311e525246fe229baf","4822","./stimuli//pack_morph_shapes_1/cat_1/diff_1/ex_1_1_1.mp4","arrowleft","response","ArrowLeft","1","1","1","test","true",""
"","","","","","html-keyboard-response","98","240777","0.0-7.20-2.20","60f815535ea713f564c6ed61","6579d0c5e56c6e1626038f86","6579d1311e525246fe229baf","null","<p> <font color=""green"" size=""5vw""> Correct category! </font> <br> <br> <font color=""green"" size=""8vw""> + $0.04 </font> </p>","null","feedback","","","","","","","0"
"","","","","","html-keyboard-response","99","241141","0.0-7.21-0.21","60f815535ea713f564c6ed61","6579d0c5e56c6e1626038f86","6579d1311e525246fe229baf","363","
            
        <div style=""text-align: center; position: fixed; top: 5vh; left: 40vw;"">
            <div style=""margin:0 auto; width: 20vw; top: 8vh; font-size: 2vw""> 
            <font color=""green""> Bonus : $0 </font>
            </div>
        </div>
    
            <div> Please press any key to continue to the next movie.</div>
        ","arrowdown","ITI","","","","","","",""
"","","","","","html-keyboard-response","100","245666","0.0-7.21-1.21","60f815535ea713f564c6ed61","6579d0c5e56c6e1626038f86","6579d1311e525246fe229baf","4523","./stimuli//pack_morph_shapes_1/cat_2/diff_1/ex_2_1_7.mp4","arrowright","response","ArrowRight","7","2","1","test","true",""
"","","","","","html-keyboard-response","101","247175","0.0-7.21-2.21","60f815535ea713f564c6ed61","6579d0c5e56c6e1626038f86","6579d1311e525246fe229baf","null","<p> <font color=""green"" size=""5vw""> Correct category! </font> <br> <br> <font color=""green"" size=""8vw""> + $0.04 </font> </p>","null","feedback","","","","","","","0.04"
"","","","","","html-keyboard-response","102","247621","0.0-7.22-0.22","60f815535ea713f564c6ed61","6579d0c5e56c6e1626038f86","6579d1311e525246fe229baf","446","
            
        <div style=""text-align: center; position: fixed; top: 5vh; left: 40vw;"">
            <div style=""margin:0 auto; width: 20vw; top: 8vh; font-size: 2vw""> 
            <font color=""green""> Bonus : $0.04 </font>
            </div>
        </div>
    
            <div> Please press any key to continue to the next movie.</div>
        ","arrowdown","ITI","","","","","","",""
"","","","","","html-keyboard-response","103","253034","0.0-7.22-1.22","60f815535ea713f564c6ed61","6579d0c5e56c6e1626038f86","6579d1311e525246fe229baf","null","./stimuli//pack_morph_shapes_1/cat_1/diff_1/ex_1_1_8.mp4","null","response","ArrowLeft","8","1","1","test","false",""
"","","","","","html-keyboard-response","104","254541","0.0-7.22-2.22","60f815535ea713f564c6ed61","6579d0c5e56c6e1626038f86","6579d1311e525246fe229baf","null","<p> <font color=""red"" size=""5vw""> Time out! </font> <br> <br> <font color=""red"" size=""8vw""> - $0.05 </font> <br> <br> Please try to respond as quickly as possible. </p>","null","feedback","","","","","","","-0.01"
"","","","","","html-keyboard-response","105","255036","0.0-7.23-0.23","60f815535ea713f564c6ed61","6579d0c5e56c6e1626038f86","6579d1311e525246fe229baf","494","
            
        <div style=""text-align: center; position: fixed; top: 5vh; left: 40vw;"">
            <div style=""margin:0 auto; width: 20vw; top: 8vh; font-size: 2vw""> 
            <font color=""green""> Bonus : $-0.01 </font>
            </div>
        </div>
    
            <div> Please press any key to continue to the next movie.</div>
        ","arrowdown","ITI","","","","","","",""
"","","","","","html-keyboard-response","106","259730","0.0-7.23-1.23","60f815535ea713f564c6ed61","6579d0c5e56c6e1626038f86","6579d1311e525246fe229baf","4692","./stimuli//pack_morph_shapes_1/cat_2/diff_1/ex_2_1_6.mp4","arrowleft","response","ArrowRight","6","2","1","test","false",""
"","","","","","html-keyboard-response","107","261241","0.0-7.23-2.23","60f815535ea713f564c6ed61","6579d0c5e56c6e1626038f86","6579d1311e525246fe229baf","null","<p> <font color=""red"" size=""5vw""> Wrong category! </font> </p>","null","feedback","","","","","","","-0.01"
"","","","","","html-keyboard-response","108","261714","0.0-7.24-0.24","60f815535ea713f564c6ed61","6579d0c5e56c6e1626038f86","6579d1311e525246fe229baf","473","
            
        <div style=""text-align: center; position: fixed; top: 5vh; left: 40vw;"">
            <div style=""margin:0 auto; width: 20vw; top: 8vh; font-size: 2vw""> 
            <font color=""green""> Bonus : $-0.01 </font>
            </div>
        </div>
    
            <div> Please press any key to continue to the next movie.</div>
        ","arrowdown","ITI","","","","","","",""
"","","","","","html-keyboard-response","109","266649","0.0-7.24-1.24","60f815535ea713f564c6ed61","6579d0c5e56c6e1626038f86","6579d1311e525246fe229baf","4932","./stimuli//pack_morph_shapes_1/cat_1/diff_1/ex_1_1_3.mp4","arrowleft","response","ArrowLeft","3","1","1","test","true",""
"","","","","","html-keyboard-response","110","268163","0.0-7.24-2.24","60f815535ea713f564c6ed61","6579d0c5e56c6e1626038f86","6579d1311e525246fe229baf","null","<p> <font color=""green"" size=""5vw""> Correct category! </font> <br> <br> <font color=""green"" size=""8vw""> + $0.04 </font> </p>","null","feedback","","","","","","","0.03"
"","","","","","html-keyboard-response","111","268702","0.0-7.25-0.25","60f815535ea713f564c6ed61","6579d0c5e56c6e1626038f86","6579d1311e525246fe229baf","539","
            
        <div style=""text-align: center; position: fixed; top: 5vh; left: 40vw;"">
            <div style=""margin:0 auto; width: 20vw; top: 8vh; font-size: 2vw""> 
            <font color=""green""> Bonus : $0.03 </font>
            </div>
        </div>
    
            <div> Please press any key to continue to the next movie.</div>
        ","arrowdown","ITI","","","","","","",""
"","","","","","html-keyboard-response","112","273335","0.0-7.25-1.25","60f815535ea713f564c6ed61","6579d0c5e56c6e1626038f86","6579d1311e525246fe229baf","4630","./stimuli//pack_morph_shapes_1/cat_1/diff_1/ex_1_1_1.mp4","arrowleft","response","ArrowLeft","1","1","1","test","true",""
"","","","","","html-keyboard-response","113","274844","0.0-7.25-2.25","60f815535ea713f564c6ed61","6579d0c5e56c6e1626038f86","6579d1311e525246fe229baf","null","<p> <font color=""green"" size=""5vw""> Correct category! </font> <br> <br> <font color=""green"" size=""8vw""> + $0.04 </font> </p>","null","feedback","","","","","","","0.07"
"","","","","","html-keyboard-response","114","275027","0.0-7.26-0.26","60f815535ea713f564c6ed61","6579d0c5e56c6e1626038f86","6579d1311e525246fe229baf","182","
            
        <div style=""text-align: center; position: fixed; top: 5vh; left: 40vw;"">
            <div style=""margin:0 auto; width: 20vw; top: 8vh; font-size: 2vw""> 
            <font color=""green""> Bonus : $0.07 </font>
            </div>
        </div>
    
            <div> Please press any key to continue to the next movie.</div>
        ","arrowdown","ITI","","","","","","",""
"","","","","","html-keyboard-response","115","280034","0.0-7.26-1.26","60f815535ea713f564c6ed61","6579d0c5e56c6e1626038f86","6579d1311e525246fe229baf","null","./stimuli//pack_morph_shapes_1/cat_2/diff_1/ex_2_1_1.mp4","null","response","ArrowRight","1","2","1","test","false",""
"","","","","","html-keyboard-response","116","281549","0.0-7.26-2.26","60f815535ea713f564c6ed61","6579d0c5e56c6e1626038f86","6579d1311e525246fe229baf","null","<p> <font color=""red"" size=""5vw""> Time out! </font> <br> <br> <font color=""red"" size=""8vw""> - $0.05 </font> <br> <br> Please try to respond as quickly as possible. </p>","null","feedback","","","","","","","0.02"
"","","","","","html-keyboard-response","117","282016","0.0-7.27-0.27","60f815535ea713f564c6ed61","6579d0c5e56c6e1626038f86","6579d1311e525246fe229baf","466","
            
        <div style=""text-align: center; position: fixed; top: 5vh; left: 40vw;"">
            <div style=""margin:0 auto; width: 20vw; top: 8vh; font-size: 2vw""> 
            <font color=""green""> Bonus : $0.02 </font>
            </div>
        </div>
    
            <div> Please press any key to continue to the next movie.</div>
        ","arrowdown","ITI","","","","","","",""
"","","","","","html-keyboard-response","118","284744","0.0-7.27-1.27","60f815535ea713f564c6ed61","6579d0c5e56c6e1626038f86","6579d1311e525246fe229baf","2726","./stimuli//pack_morph_shapes_1/cat_2/diff_1/ex_2_1_15.mp4","arrowleft","response","ArrowRight","15","2","1","test","false",""
"","","","","","html-keyboard-response","119","286250","0.0-7.27-2.27","60f815535ea713f564c6ed61","6579d0c5e56c6e1626038f86","6579d1311e525246fe229baf","null","<p> <font color=""red"" size=""5vw""> Wrong category! </font> <br> <br> <font color=""red"" size=""8vw""> - $0.05 </font> </p>","null","feedback","","","","","","","-0.03"
"","","","","","html-keyboard-response","120","286505","0.0-7.28-0.28","60f815535ea713f564c6ed61","6579d0c5e56c6e1626038f86","6579d1311e525246fe229baf","254","
            
        <div style=""text-align: center; position: fixed; top: 5vh; left: 40vw;"">
            <div style=""margin:0 auto; width: 20vw; top: 8vh; font-size: 2vw""> 
            <font color=""green""> Bonus : $-0.03 </font>
            </div>
        </div>
    
            <div> Please press any key to continue to the next movie.</div>
        ","arrowdown","ITI","","","","","","",""
"","","","","","html-keyboard-response","121","288746","0.0-7.28-1.28","60f815535ea713f564c6ed61","6579d0c5e56c6e1626038f86","6579d1311e525246fe229baf","2238","./stimuli//pack_morph_shapes_1/cat_1/diff_1/ex_1_1_16.mp4","arrowleft","response","ArrowLeft","16","1","1","test","true",""
"","","","","","html-keyboard-response","122","290262","0.0-7.28-2.28","60f815535ea713f564c6ed61","6579d0c5e56c6e1626038f86","6579d1311e525246fe229baf","null","<p> <font color=""green"" size=""5vw""> Correct category! </font> <br> <br> <font color=""green"" size=""8vw""> + $0.06 </font> </p>","null","feedback","","","","","","","0.03"
"","","","","","html-keyboard-response","123","290821","0.0-7.29-0.29","60f815535ea713f564c6ed61","6579d0c5e56c6e1626038f86","6579d1311e525246fe229baf","557","
            
        <div style=""text-align: center; position: fixed; top: 5vh; left: 40vw;"">
            <div style=""margin:0 auto; width: 20vw; top: 8vh; font-size: 2vw""> 
            <font color=""green""> Bonus : $0.03 </font>
            </div>
        </div>
    
            <div> Please press any key to continue to the next movie.</div>
        ","arrowdown","ITI","","","","","","",""
"","","","","","html-keyboard-response","124","293157","0.0-7.29-1.29","60f815535ea713f564c6ed61","6579d0c5e56c6e1626038f86","6579d1311e525246fe229baf","2333","./stimuli//pack_morph_shapes_1/cat_1/diff_1/ex_1_1_6.mp4","arrowleft","response","ArrowLeft","6","1","1","test","true",""
"","","","","","html-keyboard-response","125","294673","0.0-7.29-2.29","60f815535ea713f564c6ed61","6579d0c5e56c6e1626038f86","6579d1311e525246fe229baf","null","<p> <font color=""green"" size=""5vw""> Correct category! </font> <br> <br> <font color=""green"" size=""8vw""> + $0.06 </font> </p>","null","feedback","","","","","","","0.09"
"","","","","","html-keyboard-response","126","294842","0.0-7.30-0.30","60f815535ea713f564c6ed61","6579d0c5e56c6e1626038f86","6579d1311e525246fe229baf","168","
            
        <div style=""text-align: center; position: fixed; top: 5vh; left: 40vw;"">
            <div style=""margin:0 auto; width: 20vw; top: 8vh; font-size: 2vw""> 
            <font color=""green""> Bonus : $0.09 </font>
            </div>
        </div>
    
            <div> Please press any key to continue to the next movie.</div>
        ","arrowdown","ITI","","","","","","",""
"","","","","","html-keyboard-response","127","297270","0.0-7.30-1.30","60f815535ea713f564c6ed61","6579d0c5e56c6e1626038f86","6579d1311e525246fe229baf","2425","./stimuli//pack_morph_shapes_1/cat_2/diff_1/ex_2_1_17.mp4","arrowright","response","ArrowRight","17","2","1","test","true",""
"","","","","","html-keyboard-response","128","298778","0.0-7.30-2.30","60f815535ea713f564c6ed61","6579d0c5e56c6e1626038f86","6579d1311e525246fe229baf","null","<p> <font color=""green"" size=""5vw""> Correct category! </font> <br> <br> <font color=""green"" size=""8vw""> + $0.06 </font> </p>","null","feedback","","","","","","","0.15"
"","","","","","html-keyboard-response","129","299252","0.0-7.31-0.31","60f815535ea713f564c6ed61","6579d0c5e56c6e1626038f86","6579d1311e525246fe229baf","473","
            
        <div style=""text-align: center; position: fixed; top: 5vh; left: 40vw;"">
            <div style=""margin:0 auto; width: 20vw; top: 8vh; font-size: 2vw""> 
            <font color=""green""> Bonus : $0.15 </font>
            </div>
        </div>
    
            <div> Please press any key to continue to the next movie.</div>
        ","arrowdown","ITI","","","","","","",""
"","","","","","html-keyboard-response","130","301710","0.0-7.31-1.31","60f815535ea713f564c6ed61","6579d0c5e56c6e1626038f86","6579d1311e525246fe229baf","2456","./stimuli//pack_morph_shapes_1/cat_1/diff_1/ex_1_1_13.mp4","arrowright","response","ArrowLeft","13","1","1","test","false",""
"","","","","","html-keyboard-response","131","303227","0.0-7.31-2.31","60f815535ea713f564c6ed61","6579d0c5e56c6e1626038f86","6579d1311e525246fe229baf","null","<p> <font color=""red"" size=""5vw""> Wrong category! </font> <br> <br> <font color=""red"" size=""8vw""> - $0.05 </font> </p>","null","feedback","","","","","","","0.1"
"","","","","","html-keyboard-response","132","303264","0.0-7.32-0.32","60f815535ea713f564c6ed61","6579d0c5e56c6e1626038f86","6579d1311e525246fe229baf","36","
            
        <div style=""text-align: center; position: fixed; top: 5vh; left: 40vw;"">
            <div style=""margin:0 auto; width: 20vw; top: 8vh; font-size: 2vw""> 
            <font color=""green""> Bonus : $0.1 </font>
            </div>
        </div>
    
            <div> Please press any key to continue to the next movie.</div>
        ","arrowdown","ITI","","","","","","",""
"","","","","","html-keyboard-response","133","304001","0.0-7.32-1.32","60f815535ea713f564c6ed61","6579d0c5e56c6e1626038f86","6579d1311e525246fe229baf","735","./stimuli//pack_morph_shapes_1/cat_1/diff_1/ex_1_1_16.mp4","arrowleft","response","ArrowLeft","16","1","1","test","true",""
"","","","","","html-keyboard-response","134","305517","0.0-7.32-2.32","60f815535ea713f564c6ed61","6579d0c5e56c6e1626038f86","6579d1311e525246fe229baf","null","<p> <font color=""green"" size=""5vw""> Correct category! </font> <br> <br> <font color=""green"" size=""8vw""> + $0.09 </font> </p>","null","feedback","","","","","","","0.19"
"","","","","","html-keyboard-response","135","306364","0.0-7.33-0.33","60f815535ea713f564c6ed61","6579d0c5e56c6e1626038f86","6579d1311e525246fe229baf","847","
            
        <div style=""text-align: center; position: fixed; top: 5vh; left: 40vw;"">
            <div style=""margin:0 auto; width: 20vw; top: 8vh; font-size: 2vw""> 
            <font color=""green""> Bonus : $0.19 </font>
            </div>
        </div>
    
            <div> Please press any key to continue to the next movie.</div>
        ","arrowdown","ITI","","","","","","",""
"","","","","","html-keyboard-response","136","308932","0.0-7.33-1.33","60f815535ea713f564c6ed61","6579d0c5e56c6e1626038f86","6579d1311e525246fe229baf","2565","./stimuli//pack_morph_shapes_1/cat_1/diff_2/ex_1_2_6.mp4","arrowright","response","ArrowLeft","6","1","2","test","false",""
"","","","","","html-keyboard-response","137","310437","0.0-7.33-2.33","60f815535ea713f564c6ed61","6579d0c5e56c6e1626038f86","6579d1311e525246fe229baf","null","<p> <font color=""red"" size=""5vw""> Wrong category! </font> <br> <br> <font color=""red"" size=""8vw""> - $0.05 </font> </p>","null","feedback","","","","","","","0.14"
"","","","","","html-keyboard-response","138","310656","0.0-7.34-0.34","60f815535ea713f564c6ed61","6579d0c5e56c6e1626038f86","6579d1311e525246fe229baf","218","
            
        <div style=""text-align: center; position: fixed; top: 5vh; left: 40vw;"">
            <div style=""margin:0 auto; width: 20vw; top: 8vh; font-size: 2vw""> 
            <font color=""green""> Bonus : $0.14 </font>
            </div>
        </div>
    
            <div> Please press any key to continue to the next movie.</div>
        ","arrowdown","ITI","","","","","","",""
"","","","","","html-keyboard-response","139","313493","0.0-7.34-1.34","60f815535ea713f564c6ed61","6579d0c5e56c6e1626038f86","6579d1311e525246fe229baf","2834","./stimuli//pack_morph_shapes_1/cat_2/diff_2/ex_2_2_10.mp4","arrowleft","response","ArrowRight","10","2","2","test","false",""
"","","","","","html-keyboard-response","140","314999","0.0-7.34-2.34","60f815535ea713f564c6ed61","6579d0c5e56c6e1626038f86","6579d1311e525246fe229baf","null","<p> <font color=""red"" size=""5vw""> Wrong category! </font> <br> <br> <font color=""red"" size=""8vw""> - $0.05 </font> </p>","null","feedback","","","","","","","0.09"
"","","","","","html-keyboard-response","141","315408","0.0-7.35-0.35","60f815535ea713f564c6ed61","6579d0c5e56c6e1626038f86","6579d1311e525246fe229baf","408","
            
        <div style=""text-align: center; position: fixed; top: 5vh; left: 40vw;"">
            <div style=""margin:0 auto; width: 20vw; top: 8vh; font-size: 2vw""> 
            <font color=""green""> Bonus : $0.09 </font>
            </div>
        </div>
    
            <div> Please press any key to continue to the next movie.</div>
        ","arrowdown","ITI","","","","","","",""
"","","","","","html-keyboard-response","142","318324","0.0-7.35-1.35","60f815535ea713f564c6ed61","6579d0c5e56c6e1626038f86","6579d1311e525246fe229baf","2913","./stimuli//pack_morph_shapes_1/cat_2/diff_2/ex_2_2_14.mp4","arrowright","response","ArrowRight","14","2","2","test","true",""
"","","","","","html-keyboard-response","143","319837","0.0-7.35-2.35","60f815535ea713f564c6ed61","6579d0c5e56c6e1626038f86","6579d1311e525246fe229baf","null","<p> <font color=""green"" size=""5vw""> Correct category! </font> <br> <br> <font color=""green"" size=""8vw""> + $0.06 </font> </p>","null","feedback","","","","","","","0.15"
"","","","","","html-keyboard-response","144","320338","0.0-7.36-0.36","60f815535ea713f564c6ed61","6579d0c5e56c6e1626038f86","6579d1311e525246fe229baf","500","
            
        <div style=""text-align: center; position: fixed; top: 5vh; left: 40vw;"">
            <div style=""margin:0 auto; width: 20vw; top: 8vh; font-size: 2vw""> 
            <font color=""green""> Bonus : $0.15 </font>
            </div>
        </div>
    
            <div> Please press any key to continue to the next movie.</div>
        ","arrowdown","ITI","","","","","","",""
"","","","","","html-keyboard-response","145","322376","0.0-7.36-1.36","60f815535ea713f564c6ed61","6579d0c5e56c6e1626038f86","6579d1311e525246fe229baf","2035","./stimuli//pack_morph_shapes_1/cat_1/diff_2/ex_1_2_5.mp4","arrowleft","response","ArrowLeft","5","1","2","test","true",""
"","","","","","html-keyboard-response","146","323884","0.0-7.36-2.36","60f815535ea713f564c6ed61","6579d0c5e56c6e1626038f86","6579d1311e525246fe229baf","null","<p> <font color=""green"" size=""5vw""> Correct category! </font> <br> <br> <font color=""green"" size=""8vw""> + $0.07 </font> </p>","null","feedback","","","","","","","0.22"
"","","","","","html-keyboard-response","147","324182","0.0-7.37-0.37","60f815535ea713f564c6ed61","6579d0c5e56c6e1626038f86","6579d1311e525246fe229baf","297","
            
        <div style=""text-align: center; position: fixed; top: 5vh; left: 40vw;"">
            <div style=""margin:0 auto; width: 20vw; top: 8vh; font-size: 2vw""> 
            <font color=""green""> Bonus : $0.22 </font>
            </div>
        </div>
    
            <div> Please press any key to continue to the next movie.</div>
        ","arrowdown","ITI","","","","","","",""
"","","","","","html-keyboard-response","148","326971","0.0-7.37-1.37","60f815535ea713f564c6ed61","6579d0c5e56c6e1626038f86","6579d1311e525246fe229baf","2786","./stimuli//pack_morph_shapes_1/cat_1/diff_2/ex_1_2_16.mp4","arrowleft","response","ArrowLeft","16","1","2","test","true",""
"","","","","","html-keyboard-response","149","328481","0.0-7.37-2.37","60f815535ea713f564c6ed61","6579d0c5e56c6e1626038f86","6579d1311e525246fe229baf","null","<p> <font color=""green"" size=""5vw""> Correct category! </font> <br> <br> <font color=""green"" size=""8vw""> + $0.06 </font> </p>","null","feedback","","","","","","","0.28"
"","","","","","html-keyboard-response","150","328511","0.0-7.38-0.38","60f815535ea713f564c6ed61","6579d0c5e56c6e1626038f86","6579d1311e525246fe229baf","29","
            
        <div style=""text-align: center; position: fixed; top: 5vh; left: 40vw;"">
            <div style=""margin:0 auto; width: 20vw; top: 8vh; font-size: 2vw""> 
            <font color=""green""> Bonus : $0.28 </font>
            </div>
        </div>
    
            <div> Please press any key to continue to the next movie.</div>
        ","arrowdown","ITI","","","","","","",""
"","","","","","html-keyboard-response","151","332232","0.0-7.38-1.38","60f815535ea713f564c6ed61","6579d0c5e56c6e1626038f86","6579d1311e525246fe229baf","3719","./stimuli//pack_morph_shapes_1/cat_1/diff_1/ex_1_1_15.mp4","arrowright","response","ArrowLeft","15","1","1","test","false",""
"","","","","","html-keyboard-response","152","333738","0.0-7.38-2.38","60f815535ea713f564c6ed61","6579d0c5e56c6e1626038f86","6579d1311e525246fe229baf","null","<p> <font color=""red"" size=""5vw""> Wrong category! </font> <br> <br> <font color=""red"" size=""8vw""> - $0.05 </font> </p>","null","feedback","","","","","","","0.23"
"","","","","","html-keyboard-response","153","334205","0.0-7.39-0.39","60f815535ea713f564c6ed61","6579d0c5e56c6e1626038f86","6579d1311e525246fe229baf","466","
            
        <div style=""text-align: center; position: fixed; top: 5vh; left: 40vw;"">
            <div style=""margin:0 auto; width: 20vw; top: 8vh; font-size: 2vw""> 
            <font color=""green""> Bonus : $0.23 </font>
            </div>
        </div>
    
            <div> Please press any key to continue to the next movie.</div>
        ","arrowdown","ITI","","","","","","",""
"","","","","","html-keyboard-response","154","336975","0.0-7.39-1.39","60f815535ea713f564c6ed61","6579d0c5e56c6e1626038f86","6579d1311e525246fe229baf","2767","./stimuli//pack_morph_shapes_1/cat_1/diff_1/ex_1_1_16.mp4","arrowleft","response","ArrowLeft","16","1","1","test","true",""
"","","","","","html-keyboard-response","155","338482","0.0-7.39-2.39","60f815535ea713f564c6ed61","6579d0c5e56c6e1626038f86","6579d1311e525246fe229baf","null","<p> <font color=""green"" size=""5vw""> Correct category! </font> <br> <br> <font color=""green"" size=""8vw""> + $0.06 </font> </p>","null","feedback","","","","","","","0.29"
"","","","","","html-keyboard-response","156","339035","0.0-7.40-0.40","60f815535ea713f564c6ed61","6579d0c5e56c6e1626038f86","6579d1311e525246fe229baf","553","
            
        <div style=""text-align: center; position: fixed; top: 5vh; left: 40vw;"">
            <div style=""margin:0 auto; width: 20vw; top: 8vh; font-size: 2vw""> 
            <font color=""green""> Bonus : $0.29 </font>
            </div>
        </div>
    
            <div> Please press any key to continue to the next movie.</div>
        ","arrowdown","ITI","","","","","","",""
"","","","","","html-keyboard-response","157","341443","0.0-7.40-1.40","60f815535ea713f564c6ed61","6579d0c5e56c6e1626038f86","6579d1311e525246fe229baf","2405","./stimuli//pack_morph_shapes_1/cat_2/diff_1/ex_2_1_1.mp4","arrowleft","response","ArrowRight","1","2","1","test","false",""
"","","","","","html-keyboard-response","158","342945","0.0-7.40-2.40","60f815535ea713f564c6ed61","6579d0c5e56c6e1626038f86","6579d1311e525246fe229baf","null","<p> <font color=""red"" size=""5vw""> Wrong category! </font> <br> <br> <font color=""red"" size=""8vw""> - $0.05 </font> </p>","null","feedback","","","","","","","0.24"
"","","","","","html-keyboard-response","159","343697","0.0-7.41-0.41","60f815535ea713f564c6ed61","6579d0c5e56c6e1626038f86","6579d1311e525246fe229baf","750","
            
        <div style=""text-align: center; position: fixed; top: 5vh; left: 40vw;"">
            <div style=""margin:0 auto; width: 20vw; top: 8vh; font-size: 2vw""> 
            <font color=""green""> Bonus : $0.24 </font>
            </div>
        </div>
    
            <div> Please press any key to continue to the next movie.</div>
        ","arrowdown","ITI","","","","","","",""
"","","","","","html-keyboard-response","160","346469","0.0-7.41-1.41","60f815535ea713f564c6ed61","6579d0c5e56c6e1626038f86","6579d1311e525246fe229baf","2770","./stimuli//pack_morph_shapes_1/cat_2/diff_1/ex_2_1_6.mp4","arrowleft","response","ArrowRight","6","2","1","test","false",""
"","","","","","html-keyboard-response","161","348037","0.0-7.41-2.41","60f815535ea713f564c6ed61","6579d0c5e56c6e1626038f86","6579d1311e525246fe229baf","null","<p> <font color=""red"" size=""5vw""> Wrong category! </font> <br> <br> <font color=""red"" size=""8vw""> - $0.05 </font> </p>","null","feedback","","","","","","","0.19"
"","","","","","html-keyboard-response","162","349072","0.0-7.42-0.42","60f815535ea713f564c6ed61","6579d0c5e56c6e1626038f86","6579d1311e525246fe229baf","1034","
            
        <div style=""text-align: center; position: fixed; top: 5vh; left: 40vw;"">
            <div style=""margin:0 auto; width: 20vw; top: 8vh; font-size: 2vw""> 
            <font color=""green""> Bonus : $0.19 </font>
            </div>
        </div>
    
            <div> Please press any key to continue to the next movie.</div>
        ","arrowright","ITI","","","","","","",""
"","","","","","html-keyboard-response","163","350905","0.0-7.42-1.42","60f815535ea713f564c6ed61","6579d0c5e56c6e1626038f86","6579d1311e525246fe229baf","1830","./stimuli//pack_morph_shapes_1/cat_1/diff_1/ex_1_1_13.mp4","arrowright","response","ArrowLeft","13","1","1","test","false",""
"","","","","","html-keyboard-response","164","352416","0.0-7.42-2.42","60f815535ea713f564c6ed61","6579d0c5e56c6e1626038f86","6579d1311e525246fe229baf","null","<p> <font color=""red"" size=""5vw""> Wrong category! </font> <br> <br> <font color=""red"" size=""8vw""> - $0.05 </font> </p>","null","feedback","","","","","","","0.14"
"","","","","","html-keyboard-response","165","352831","0.0-7.43-0.43","60f815535ea713f564c6ed61","6579d0c5e56c6e1626038f86","6579d1311e525246fe229baf","415","
            
        <div style=""text-align: center; position: fixed; top: 5vh; left: 40vw;"">
            <div style=""margin:0 auto; width: 20vw; top: 8vh; font-size: 2vw""> 
            <font color=""green""> Bonus : $0.14 </font>
            </div>
        </div>
    
            <div> Please press any key to continue to the next movie.</div>
        ","arrowleft","ITI","","","","","","",""
"","","","","","html-keyboard-response","166","355003","0.0-7.43-1.43","60f815535ea713f564c6ed61","6579d0c5e56c6e1626038f86","6579d1311e525246fe229baf","2170","./stimuli//pack_morph_shapes_1/cat_1/diff_1/ex_1_1_3.mp4","arrowleft","response","ArrowLeft","3","1","1","test","true",""
"","","","","","html-keyboard-response","167","356517","0.0-7.43-2.43","60f815535ea713f564c6ed61","6579d0c5e56c6e1626038f86","6579d1311e525246fe229baf","null","<p> <font color=""green"" size=""5vw""> Correct category! </font> <br> <br> <font color=""green"" size=""8vw""> + $0.06 </font> </p>","null","feedback","","","","","","","0.2"
"","","","","","html-keyboard-response","168","357179","0.0-7.44-0.44","60f815535ea713f564c6ed61","6579d0c5e56c6e1626038f86","6579d1311e525246fe229baf","662","
            
        <div style=""text-align: center; position: fixed; top: 5vh; left: 40vw;"">
            <div style=""margin:0 auto; width: 20vw; top: 8vh; font-size: 2vw""> 
            <font color=""green""> Bonus : $0.2 </font>
            </div>
        </div>
    
            <div> Please press any key to continue to the next movie.</div>
        ","arrowdown","ITI","","","","","","",""
"","","","","","html-keyboard-response","169","359401","0.0-7.44-1.44","60f815535ea713f564c6ed61","6579d0c5e56c6e1626038f86","6579d1311e525246fe229baf","2219","./stimuli//pack_morph_shapes_1/cat_1/diff_1/ex_1_1_7.mp4","arrowleft","response","ArrowLeft","7","1","1","test","true",""
"","","","","","html-keyboard-response","170","361035","0.0-7.44-2.44","60f815535ea713f564c6ed61","6579d0c5e56c6e1626038f86","6579d1311e525246fe229baf","null","<p> <font color=""green"" size=""5vw""> Correct category! </font> <br> <br> <font color=""green"" size=""8vw""> + $0.06 </font> </p>","null","feedback","","","","","","","0.26"
"","","","","","html-keyboard-response","171","361333","0.0-7.45-0.45","60f815535ea713f564c6ed61","6579d0c5e56c6e1626038f86","6579d1311e525246fe229baf","297","
            
        <div style=""text-align: center; position: fixed; top: 5vh; left: 40vw;"">
            <div style=""margin:0 auto; width: 20vw; top: 8vh; font-size: 2vw""> 
            <font color=""green""> Bonus : $0.26 </font>
            </div>
        </div>
    
            <div> Please press any key to continue to the next movie.</div>
        ","arrowdown","ITI","","","","","","",""
"","","","","","html-keyboard-response","172","363795","0.0-7.45-1.45","60f815535ea713f564c6ed61","6579d0c5e56c6e1626038f86","6579d1311e525246fe229baf","2460","./stimuli//pack_morph_shapes_1/cat_1/diff_1/ex_1_1_1.mp4","arrowleft","response","ArrowLeft","1","1","1","test","true",""
"","","","","","html-keyboard-response","173","365311","0.0-7.45-2.45","60f815535ea713f564c6ed61","6579d0c5e56c6e1626038f86","6579d1311e525246fe229baf","null","<p> <font color=""green"" size=""5vw""> Correct category! </font> <br> <br> <font color=""green"" size=""8vw""> + $0.06 </font> </p>","null","feedback","","","","","","","0.32"
"","","","","","html-keyboard-response","174","365711","0.0-7.46-0.46","60f815535ea713f564c6ed61","6579d0c5e56c6e1626038f86","6579d1311e525246fe229baf","399","
            
        <div style=""text-align: center; position: fixed; top: 5vh; left: 40vw;"">
            <div style=""margin:0 auto; width: 20vw; top: 8vh; font-size: 2vw""> 
            <font color=""green""> Bonus : $0.32 </font>
            </div>
        </div>
    
            <div> Please press any key to continue to the next movie.</div>
        ","arrowdown","ITI","","","","","","",""
"","","","","","html-keyboard-response","175","367854","0.0-7.46-1.46","60f815535ea713f564c6ed61","6579d0c5e56c6e1626038f86","6579d1311e525246fe229baf","2141","./stimuli//pack_morph_shapes_1/cat_1/diff_1/ex_1_1_6.mp4","arrowleft","response","ArrowLeft","6","1","1","test","true",""
"","","","","","html-keyboard-response","176","369355","0.0-7.46-2.46","60f815535ea713f564c6ed61","6579d0c5e56c6e1626038f86","6579d1311e525246fe229baf","null","<p> <font color=""green"" size=""5vw""> Correct category! </font> <br> <br> <font color=""green"" size=""8vw""> + $0.07 </font> </p>","null","feedback","","","","","","","0.39"
"","","","","","html-keyboard-response","177","369661","0.0-7.47-0.47","60f815535ea713f564c6ed61","6579d0c5e56c6e1626038f86","6579d1311e525246fe229baf","305","
            
        <div style=""text-align: center; position: fixed; top: 5vh; left: 40vw;"">
            <div style=""margin:0 auto; width: 20vw; top: 8vh; font-size: 2vw""> 
            <font color=""green""> Bonus : $0.39 </font>
            </div>
        </div>
    
            <div> Please press any key to continue to the next movie.</div>
        ","arrowdown","ITI","","","","","","",""
"","","","","","html-keyboard-response","178","372477","0.0-7.47-1.47","60f815535ea713f564c6ed61","6579d0c5e56c6e1626038f86","6579d1311e525246fe229baf","2813","./stimuli//pack_morph_shapes_1/cat_1/diff_2/ex_1_2_6.mp4","arrowleft","response","ArrowLeft","6","1","2","test","true",""
"","","","","","html-keyboard-response","179","374032","0.0-7.47-2.47","60f815535ea713f564c6ed61","6579d0c5e56c6e1626038f86","6579d1311e525246fe229baf","null","<p> <font color=""green"" size=""5vw""> Correct category! </font> <br> <br> <font color=""green"" size=""8vw""> + $0.06 </font> </p>","null","feedback","","","","","","","0.45"
"","","","","","html-keyboard-response","180","374381","0.0-7.48-0.48","60f815535ea713f564c6ed61","6579d0c5e56c6e1626038f86","6579d1311e525246fe229baf","349","
            
        <div style=""text-align: center; position: fixed; top: 5vh; left: 40vw;"">
            <div style=""margin:0 auto; width: 20vw; top: 8vh; font-size: 2vw""> 
            <font color=""green""> Bonus : $0.45 </font>
            </div>
        </div>
    
            <div> Please press any key to continue to the next movie.</div>
        ","arrowdown","ITI","","","","","","",""
"","","","","","html-keyboard-response","181","376925","0.0-7.48-1.48","60f815535ea713f564c6ed61","6579d0c5e56c6e1626038f86","6579d1311e525246fe229baf","2542","./stimuli//pack_morph_shapes_1/cat_2/diff_2/ex_2_2_16.mp4","arrowleft","response","ArrowRight","16","2","2","test","false",""
"","","","","","html-keyboard-response","182","378441","0.0-7.48-2.48","60f815535ea713f564c6ed61","6579d0c5e56c6e1626038f86","6579d1311e525246fe229baf","null","<p> <font color=""red"" size=""5vw""> Wrong category! </font> <br> <br> <font color=""red"" size=""8vw""> - $0.05 </font> </p>","null","feedback","","","","","","","0.4"
"","","","","","html-keyboard-response","183","378960","0.0-7.49-0.49","60f815535ea713f564c6ed61","6579d0c5e56c6e1626038f86","6579d1311e525246fe229baf","518","
            
        <div style=""text-align: center; position: fixed; top: 5vh; left: 40vw;"">
            <div style=""margin:0 auto; width: 20vw; top: 8vh; font-size: 2vw""> 
            <font color=""green""> Bonus : $0.4 </font>
            </div>
        </div>
    
            <div> Please press any key to continue to the next movie.</div>
        ","arrowdown","ITI","","","","","","",""
"","","","","","html-keyboard-response","184","380978","0.0-7.49-1.49","60f815535ea713f564c6ed61","6579d0c5e56c6e1626038f86","6579d1311e525246fe229baf","2015","./stimuli//pack_morph_shapes_1/cat_1/diff_2/ex_1_2_5.mp4","arrowleft","response","ArrowLeft","5","1","2","test","true",""
"","","","","","html-keyboard-response","185","382485","0.0-7.49-2.49","60f815535ea713f564c6ed61","6579d0c5e56c6e1626038f86","6579d1311e525246fe229baf","null","<p> <font color=""green"" size=""5vw""> Correct category! </font> <br> <br> <font color=""green"" size=""8vw""> + $0.07 </font> </p>","null","feedback","","","","","","","0.47"
"","","","","","html-keyboard-response","186","382864","0.0-7.50-0.50","60f815535ea713f564c6ed61","6579d0c5e56c6e1626038f86","6579d1311e525246fe229baf","377","
            
        <div style=""text-align: center; position: fixed; top: 5vh; left: 40vw;"">
            <div style=""margin:0 auto; width: 20vw; top: 8vh; font-size: 2vw""> 
            <font color=""green""> Bonus : $0.47 </font>
            </div>
        </div>
    
            <div> Please press any key to continue to the next movie.</div>
        ","arrowdown","ITI","","","","","","",""
"","","","","","html-keyboard-response","187","384085","0.0-7.50-1.50","60f815535ea713f564c6ed61","6579d0c5e56c6e1626038f86","6579d1311e525246fe229baf","1219","./stimuli//pack_morph_shapes_1/cat_2/diff_2/ex_2_2_16.mp4","arrowleft","response","ArrowRight","16","2","2","test","false",""
"","","","","","html-keyboard-response","188","385598","0.0-7.50-2.50","60f815535ea713f564c6ed61","6579d0c5e56c6e1626038f86","6579d1311e525246fe229baf","null","<p> <font color=""red"" size=""5vw""> Wrong category! </font> <br> <br> <font color=""red"" size=""8vw""> - $0.05 </font> </p>","null","feedback","","","","","","","0.42"
"","","","","","html-keyboard-response","189","385920","0.0-7.51-0.51","60f815535ea713f564c6ed61","6579d0c5e56c6e1626038f86","6579d1311e525246fe229baf","321","
            
        <div style=""text-align: center; position: fixed; top: 5vh; left: 40vw;"">
            <div style=""margin:0 auto; width: 20vw; top: 8vh; font-size: 2vw""> 
            <font color=""green""> Bonus : $0.42 </font>
            </div>
        </div>
    
            <div> Please press any key to continue to the next movie.</div>
        ","arrowdown","ITI","","","","","","",""
"","","","","","html-keyboard-response","190","388699","0.0-7.51-1.51","60f815535ea713f564c6ed61","6579d0c5e56c6e1626038f86","6579d1311e525246fe229baf","2776","./stimuli//pack_morph_shapes_1/cat_2/diff_2/ex_2_2_5.mp4","arrowleft","response","ArrowRight","5","2","2","test","false",""
"","","","","","html-keyboard-response","191","390212","0.0-7.51-2.51","60f815535ea713f564c6ed61","6579d0c5e56c6e1626038f86","6579d1311e525246fe229baf","null","<p> <font color=""red"" size=""5vw""> Wrong category! </font> <br> <br> <font color=""red"" size=""8vw""> - $0.05 </font> </p>","null","feedback","","","","","","","0.37"
"","","","","","html-keyboard-response","192","390828","0.0-7.52-0.52","60f815535ea713f564c6ed61","6579d0c5e56c6e1626038f86","6579d1311e525246fe229baf","616","
            
        <div style=""text-align: center; position: fixed; top: 5vh; left: 40vw;"">
            <div style=""margin:0 auto; width: 20vw; top: 8vh; font-size: 2vw""> 
            <font color=""green""> Bonus : $0.37 </font>
            </div>
        </div>
    
            <div> Please press any key to continue to the next movie.</div>
        ","arrowleft","ITI","","","","","","",""
"","","","","","html-keyboard-response","193","393035","0.0-7.52-1.52","60f815535ea713f564c6ed61","6579d0c5e56c6e1626038f86","6579d1311e525246fe229baf","2205","./stimuli//pack_morph_shapes_1/cat_1/diff_1/ex_1_1_2.mp4","arrowleft","response","ArrowLeft","2","1","1","test","true",""
"","","","","","html-keyboard-response","194","394542","0.0-7.52-2.52","60f815535ea713f564c6ed61","6579d0c5e56c6e1626038f86","6579d1311e525246fe229baf","null","<p> <font color=""green"" size=""5vw""> Correct category! </font> <br> <br> <font color=""green"" size=""8vw""> + $0.06 </font> </p>","null","feedback","","","","","","","0.43"
"","","","","","html-keyboard-response","195","394959","0.0-7.53-0.53","60f815535ea713f564c6ed61","6579d0c5e56c6e1626038f86","6579d1311e525246fe229baf","416","
            
        <div style=""text-align: center; position: fixed; top: 5vh; left: 40vw;"">
            <div style=""margin:0 auto; width: 20vw; top: 8vh; font-size: 2vw""> 
            <font color=""green""> Bonus : $0.43 </font>
            </div>
        </div>
    
            <div> Please press any key to continue to the next movie.</div>
        ","arrowdown","ITI","","","","","","",""
"","","","","","html-keyboard-response","196","397252","0.0-7.53-1.53","60f815535ea713f564c6ed61","6579d0c5e56c6e1626038f86","6579d1311e525246fe229baf","2291","./stimuli//pack_morph_shapes_1/cat_1/diff_1/ex_1_1_7.mp4","arrowleft","response","ArrowLeft","7","1","1","test","true",""
"","","","","","html-keyboard-response","197","399043","0.0-7.53-2.53","60f815535ea713f564c6ed61","6579d0c5e56c6e1626038f86","6579d1311e525246fe229baf","null","<p> <font color=""green"" size=""5vw""> Correct category! </font> <br> <br> <font color=""green"" size=""8vw""> + $0.06 </font> </p>","null","feedback","","","","","","","0.49"
"","","","","","html-keyboard-response","198","399482","0.0-7.54-0.54","60f815535ea713f564c6ed61","6579d0c5e56c6e1626038f86","6579d1311e525246fe229baf","439","
            
        <div style=""text-align: center; position: fixed; top: 5vh; left: 40vw;"">
            <div style=""margin:0 auto; width: 20vw; top: 8vh; font-size: 2vw""> 
            <font color=""green""> Bonus : $0.49 </font>
            </div>
        </div>
    
            <div> Please press any key to continue to the next movie.</div>
        ","arrowdown","ITI","","","","","","",""
"","","","","","html-keyboard-response","199","401694","0.0-7.54-1.54","60f815535ea713f564c6ed61","6579d0c5e56c6e1626038f86","6579d1311e525246fe229baf","2210","./stimuli//pack_morph_shapes_1/cat_2/diff_1/ex_2_1_12.mp4","arrowleft","response","ArrowRight","12","2","1","test","false",""
"","","","","","html-keyboard-response","200","403204","0.0-7.54-2.54","60f815535ea713f564c6ed61","6579d0c5e56c6e1626038f86","6579d1311e525246fe229baf","null","<p> <font color=""red"" size=""5vw""> Wrong category! </font> <br> <br> <font color=""red"" size=""8vw""> - $0.05 </font> </p>","null","feedback","","","","","","","0.44"
"","","","","","html-keyboard-response","201","403797","0.0-7.55-0.55","60f815535ea713f564c6ed61","6579d0c5e56c6e1626038f86","6579d1311e525246fe229baf","592","
            
        <div style=""text-align: center; position: fixed; top: 5vh; left: 40vw;"">
            <div style=""margin:0 auto; width: 20vw; top: 8vh; font-size: 2vw""> 
            <font color=""green""> Bonus : $0.44 </font>
            </div>
        </div>
    
            <div> Please press any key to continue to the next movie.</div>
        ","arrowleft","ITI","","","","","","",""
"","","","","","html-keyboard-response","202","406219","0.0-7.55-1.55","60f815535ea713f564c6ed61","6579d0c5e56c6e1626038f86","6579d1311e525246fe229baf","2419","./stimuli//pack_morph_shapes_1/cat_1/diff_1/ex_1_1_2.mp4","arrowleft","response","ArrowLeft","2","1","1","test","true",""
"","","","","","html-keyboard-response","203","407727","0.0-7.55-2.55","60f815535ea713f564c6ed61","6579d0c5e56c6e1626038f86","6579d1311e525246fe229baf","null","<p> <font color=""green"" size=""5vw""> Correct category! </font> <br> <br> <font color=""green"" size=""8vw""> + $0.06 </font> </p>","null","feedback","","","","","","","0.5"
"","","","","","html-keyboard-response","204","409000","0.0-7.56-0.56","60f815535ea713f564c6ed61","6579d0c5e56c6e1626038f86","6579d1311e525246fe229baf","1273","
            
        <div style=""text-align: center; position: fixed; top: 5vh; left: 40vw;"">
            <div style=""margin:0 auto; width: 20vw; top: 8vh; font-size: 2vw""> 
            <font color=""green""> Bonus : $0.5 </font>
            </div>
        </div>
    
            <div> Please press any key to continue to the next movie.</div>
        ","arrowleft","ITI","","","","","","",""
"","","","","","html-keyboard-response","205","411020","0.0-7.56-1.56","60f815535ea713f564c6ed61","6579d0c5e56c6e1626038f86","6579d1311e525246fe229baf","2017","./stimuli//pack_morph_shapes_1/cat_2/diff_1/ex_2_1_2.mp4","arrowleft","response","ArrowRight","2","2","1","test","false",""
"","","","","","html-keyboard-response","206","413037","0.0-7.56-2.56","60f815535ea713f564c6ed61","6579d0c5e56c6e1626038f86","6579d1311e525246fe229baf","null","<p> <font color=""red"" size=""5vw""> Wrong category! </font> <br> <br> <font color=""red"" size=""8vw""> - $0.05 </font> </p>","null","feedback","","","","","","","0.45"
"","","","","","html-keyboard-response","207","414324","0.0-7.57-0.57","60f815535ea713f564c6ed61","6579d0c5e56c6e1626038f86","6579d1311e525246fe229baf","1285","
            
        <div style=""text-align: center; position: fixed; top: 5vh; left: 40vw;"">
            <div style=""margin:0 auto; width: 20vw; top: 8vh; font-size: 2vw""> 
            <font color=""green""> Bonus : $0.45 </font>
            </div>
        </div>
    
            <div> Please press any key to continue to the next movie.</div>
        ","arrowleft","ITI","","","","","","",""
"","","","","","html-keyboard-response","208","417035","0.0-7.57-1.57","60f815535ea713f564c6ed61","6579d0c5e56c6e1626038f86","6579d1311e525246fe229baf","2709","./stimuli//pack_morph_shapes_1/cat_2/diff_1/ex_2_1_3.mp4","arrowleft","response","ArrowRight","3","2","1","test","false",""
"","","","","","html-keyboard-response","209","418551","0.0-7.57-2.57","60f815535ea713f564c6ed61","6579d0c5e56c6e1626038f86","6579d1311e525246fe229baf","null","<p> <font color=""red"" size=""5vw""> Wrong category! </font> <br> <br> <font color=""red"" size=""8vw""> - $0.05 </font> </p>","null","feedback","","","","","","","0.4"
"","","","","","html-keyboard-response","210","421269","0.0-7.58-0.58","60f815535ea713f564c6ed61","6579d0c5e56c6e1626038f86","6579d1311e525246fe229baf","2717","
            
        <div style=""text-align: center; position: fixed; top: 5vh; left: 40vw;"">
            <div style=""margin:0 auto; width: 20vw; top: 8vh; font-size: 2vw""> 
            <font color=""green""> Bonus : $0.4 </font>
            </div>
        </div>
    
            <div> Please press any key to continue to the next movie.</div>
        ","arrowleft","ITI","","","","","","",""
"","","","","","html-keyboard-response","211","423318","0.0-7.58-1.58","60f815535ea713f564c6ed61","6579d0c5e56c6e1626038f86","6579d1311e525246fe229baf","2046","./stimuli//pack_morph_shapes_1/cat_2/diff_1/ex_2_1_1.mp4","arrowleft","response","ArrowRight","1","2","1","test","false",""
"","","","","","html-keyboard-response","212","424820","0.0-7.58-2.58","60f815535ea713f564c6ed61","6579d0c5e56c6e1626038f86","6579d1311e525246fe229baf","null","<p> <font color=""red"" size=""5vw""> Wrong category! </font> <br> <br> <font color=""red"" size=""8vw""> - $0.05 </font> </p>","null","feedback","","","","","","","0.35"
"","","","","","html-keyboard-response","213","426083","0.0-7.59-0.59","60f815535ea713f564c6ed61","6579d0c5e56c6e1626038f86","6579d1311e525246fe229baf","1262","
            
        <div style=""text-align: center; position: fixed; top: 5vh; left: 40vw;"">
            <div style=""margin:0 auto; width: 20vw; top: 8vh; font-size: 2vw""> 
            <font color=""green""> Bonus : $0.35 </font>
            </div>
        </div>
    
            <div> Please press any key to continue to the next movie.</div>
        ","arrowdown","ITI","","","","","","",""
"","","","","","html-keyboard-response","214","429136","0.0-7.59-1.59","60f815535ea713f564c6ed61","6579d0c5e56c6e1626038f86","6579d1311e525246fe229baf","3051","./stimuli//pack_morph_shapes_1/cat_1/diff_1/ex_1_1_16.mp4","arrowleft","response","ArrowLeft","16","1","1","test","true",""
"","","","","","html-keyboard-response","215","430646","0.0-7.59-2.59","60f815535ea713f564c6ed61","6579d0c5e56c6e1626038f86","6579d1311e525246fe229baf","null","<p> <font color=""green"" size=""5vw""> Correct category! </font> <br> <br> <font color=""green"" size=""8vw""> + $0.05 </font> </p>","null","feedback","","","","","","","0.4"
"","","","","","html-keyboard-response","216","431690","0.0-7.60-0.60","60f815535ea713f564c6ed61","6579d0c5e56c6e1626038f86","6579d1311e525246fe229baf","1042","
            
        <div style=""text-align: center; position: fixed; top: 5vh; left: 40vw;"">
            <div style=""margin:0 auto; width: 20vw; top: 8vh; font-size: 2vw""> 
            <font color=""green""> Bonus : $0.4 </font>
            </div>
        </div>
    
            <div> Please press any key to continue to the next movie.</div>
        ","arrowleft","ITI","","","","","","",""
"","","","","","html-keyboard-response","217","434416","0.0-7.60-1.60","60f815535ea713f564c6ed61","6579d0c5e56c6e1626038f86","6579d1311e525246fe229baf","2724","./stimuli//pack_morph_shapes_1/cat_2/diff_1/ex_2_1_12.mp4","arrowleft","response","ArrowRight","12","2","1","test","false",""
"","","","","","html-keyboard-response","218","435921","0.0-7.60-2.60","60f815535ea713f564c6ed61","6579d0c5e56c6e1626038f86","6579d1311e525246fe229baf","null","<p> <font color=""red"" size=""5vw""> Wrong category! </font> <br> <br> <font color=""red"" size=""8vw""> - $0.05 </font> </p>","null","feedback","","","","","","","0.35"
"","","","","","html-keyboard-response","219","438963","0.0-7.61-0.61","60f815535ea713f564c6ed61","6579d0c5e56c6e1626038f86","6579d1311e525246fe229baf","3041","
            
        <div style=""text-align: center; position: fixed; top: 5vh; left: 40vw;"">
            <div style=""margin:0 auto; width: 20vw; top: 8vh; font-size: 2vw""> 
            <font color=""green""> Bonus : $0.35 </font>
            </div>
        </div>
    
            <div> Please press any key to continue to the next movie.</div>
        ","arrowdown","ITI","","","","","","",""
"","","","","","html-keyboard-response","220","440832","0.0-7.61-1.61","60f815535ea713f564c6ed61","6579d0c5e56c6e1626038f86","6579d1311e525246fe229baf","1867","./stimuli//pack_morph_shapes_1/cat_2/diff_1/ex_2_1_17.mp4","arrowleft","response","ArrowRight","17","2","1","test","false",""
"","","","","","html-keyboard-response","221","442344","0.0-7.61-2.61","60f815535ea713f564c6ed61","6579d0c5e56c6e1626038f86","6579d1311e525246fe229baf","null","<p> <font color=""red"" size=""5vw""> Wrong category! </font> <br> <br> <font color=""red"" size=""8vw""> - $0.05 </font> </p>","null","feedback","","","","","","","0.3"
"","","","","","html-keyboard-response","222","443009","0.0-7.62-0.62","60f815535ea713f564c6ed61","6579d0c5e56c6e1626038f86","6579d1311e525246fe229baf","664","
            
        <div style=""text-align: center; position: fixed; top: 5vh; left: 40vw;"">
            <div style=""margin:0 auto; width: 20vw; top: 8vh; font-size: 2vw""> 
            <font color=""green""> Bonus : $0.3 </font>
            </div>
        </div>
    
            <div> Please press any key to continue to the next movie.</div>
        ","arrowdown","ITI","","","","","","",""
"","","","","","html-keyboard-response","223","444974","0.0-7.62-1.62","60f815535ea713f564c6ed61","6579d0c5e56c6e1626038f86","6579d1311e525246fe229baf","1963","./stimuli//pack_morph_shapes_1/cat_2/diff_1/ex_2_1_1.mp4","arrowleft","response","ArrowRight","1","2","1","test","false",""
"","","","","","html-keyboard-response","224","446857","0.0-7.62-2.62","60f815535ea713f564c6ed61","6579d0c5e56c6e1626038f86","6579d1311e525246fe229baf","null","<p> <font color=""red"" size=""5vw""> Wrong category! </font> <br> <br> <font color=""red"" size=""8vw""> - $0.05 </font> </p>","null","feedback","","","","","","","0.25"
"","","","","","html-keyboard-response","225","447807","0.0-7.63-0.63","60f815535ea713f564c6ed61","6579d0c5e56c6e1626038f86","6579d1311e525246fe229baf","949","
            
        <div style=""text-align: center; position: fixed; top: 5vh; left: 40vw;"">
            <div style=""margin:0 auto; width: 20vw; top: 8vh; font-size: 2vw""> 
            <font color=""green""> Bonus : $0.25 </font>
            </div>
        </div>
    
            <div> Please press any key to continue to the next movie.</div>
        ","arrowdown","ITI","","","","","","",""
"","","","","","html-keyboard-response","226","449753","0.0-7.63-1.63","60f815535ea713f564c6ed61","6579d0c5e56c6e1626038f86","6579d1311e525246fe229baf","1944","./stimuli//pack_morph_shapes_1/cat_2/diff_1/ex_2_1_3.mp4","arrowleft","response","ArrowRight","3","2","1","test","false",""
"","","","","","html-keyboard-response","227","451254","0.0-7.63-2.63","60f815535ea713f564c6ed61","6579d0c5e56c6e1626038f86","6579d1311e525246fe229baf","null","<p> <font color=""red"" size=""5vw""> Wrong category! </font> <br> <br> <font color=""red"" size=""8vw""> - $0.05 </font> </p>","null","feedback","","","","","","","0.2"
"","","","","","html-keyboard-response","228","451307","0.0-7.64-0.64","60f815535ea713f564c6ed61","6579d0c5e56c6e1626038f86","6579d1311e525246fe229baf","52","
            
        <div style=""text-align: center; position: fixed; top: 5vh; left: 40vw;"">
            <div style=""margin:0 auto; width: 20vw; top: 8vh; font-size: 2vw""> 
            <font color=""green""> Bonus : $0.2 </font>
            </div>
        </div>
    
            <div> Please press any key to continue to the next movie.</div>
        ","arrowleft","ITI","","","","","","",""
"","","","","","html-keyboard-response","229","451746","0.0-7.64-1.64","60f815535ea713f564c6ed61","6579d0c5e56c6e1626038f86","6579d1311e525246fe229baf","436","./stimuli//pack_morph_shapes_1/cat_2/diff_1/ex_2_1_17.mp4","arrowleft","response","ArrowRight","17","2","1","test","false",""
"","","","","","html-keyboard-response","230","453252","0.0-7.64-2.64","60f815535ea713f564c6ed61","6579d0c5e56c6e1626038f86","6579d1311e525246fe229baf","null","<p> <font color=""red"" size=""5vw""> Wrong category! </font> <br> <br> <font color=""red"" size=""8vw""> - $0.05 </font> </p>","null","feedback","","","","","","","0.15"
"","","","","","html-keyboard-response","231","453537","0.0-7.65-0.65","60f815535ea713f564c6ed61","6579d0c5e56c6e1626038f86","6579d1311e525246fe229baf","284","
            
        <div style=""text-align: center; position: fixed; top: 5vh; left: 40vw;"">
            <div style=""margin:0 auto; width: 20vw; top: 8vh; font-size: 2vw""> 
            <font color=""green""> Bonus : $0.15 </font>
            </div>
        </div>
    
            <div> Please press any key to continue to the next movie.</div>
        ","arrowleft","ITI","","","","","","",""
"","","","","","html-keyboard-response","232","454123","0.0-7.65-1.65","60f815535ea713f564c6ed61","6579d0c5e56c6e1626038f86","6579d1311e525246fe229baf","583","./stimuli//pack_morph_shapes_1/cat_1/diff_1/ex_1_1_5.mp4","arrowleft","response","ArrowLeft","5","1","1","test","true",""
"","","","","","html-keyboard-response","233","455634","0.0-7.65-2.65","60f815535ea713f564c6ed61","6579d0c5e56c6e1626038f86","6579d1311e525246fe229baf","null","<p> <font color=""green"" size=""5vw""> Correct category! </font> <br> <br> <font color=""green"" size=""8vw""> + $0.09 </font> </p>","null","feedback","","","","","","","0.24"
"","","","","","html-keyboard-response","234","456299","0.0-7.66-0.66","60f815535ea713f564c6ed61","6579d0c5e56c6e1626038f86","6579d1311e525246fe229baf","664","
            
        <div style=""text-align: center; position: fixed; top: 5vh; left: 40vw;"">
            <div style=""margin:0 auto; width: 20vw; top: 8vh; font-size: 2vw""> 
            <font color=""green""> Bonus : $0.24 </font>
            </div>
        </div>
    
            <div> Please press any key to continue to the next movie.</div>
        ","arrowleft","ITI","","","","","","",""
"","","","","","html-keyboard-response","235","458496","0.0-7.66-1.66","60f815535ea713f564c6ed61","6579d0c5e56c6e1626038f86","6579d1311e525246fe229baf","2195","./stimuli//pack_morph_shapes_1/cat_1/diff_1/ex_1_1_3.mp4","arrowleft","response","ArrowLeft","3","1","1","test","true",""
"","","","","","html-keyboard-response","236","460003","0.0-7.66-2.66","60f815535ea713f564c6ed61","6579d0c5e56c6e1626038f86","6579d1311e525246fe229baf","null","<p> <font color=""green"" size=""5vw""> Correct category! </font> <br> <br> <font color=""green"" size=""8vw""> + $0.06 </font> </p>","null","feedback","","","","","","","0.3"
"","","","","","html-keyboard-response","237","460532","0.0-7.67-0.67","60f815535ea713f564c6ed61","6579d0c5e56c6e1626038f86","6579d1311e525246fe229baf","529","
            
        <div style=""text-align: center; position: fixed; top: 5vh; left: 40vw;"">
            <div style=""margin:0 auto; width: 20vw; top: 8vh; font-size: 2vw""> 
            <font color=""green""> Bonus : $0.3 </font>
            </div>
        </div>
    
            <div> Please press any key to continue to the next movie.</div>
        ","arrowleft","ITI","","","","","","",""
"","","","","","html-keyboard-response","238","462743","0.0-7.67-1.67","60f815535ea713f564c6ed61","6579d0c5e56c6e1626038f86","6579d1311e525246fe229baf","2208","./stimuli//pack_morph_shapes_1/cat_2/diff_1/ex_2_1_2.mp4","arrowleft","response","ArrowRight","2","2","1","test","false",""
"","","","","","html-keyboard-response","239","464978","0.0-7.67-2.67","60f815535ea713f564c6ed61","6579d0c5e56c6e1626038f86","6579d1311e525246fe229baf","null","<p> <font color=""red"" size=""5vw""> Wrong category! </font> <br> <br> <font color=""red"" size=""8vw""> - $0.05 </font> </p>","null","feedback","","","","","","","0.25"
"","","","","","html-keyboard-response","240","465762","0.0-7.68-0.68","60f815535ea713f564c6ed61","6579d0c5e56c6e1626038f86","6579d1311e525246fe229baf","784","
            
        <div style=""text-align: center; position: fixed; top: 5vh; left: 40vw;"">
            <div style=""margin:0 auto; width: 20vw; top: 8vh; font-size: 2vw""> 
            <font color=""green""> Bonus : $0.25 </font>
            </div>
        </div>
    
            <div> Please press any key to continue to the next movie.</div>
        ","arrowleft","ITI","","","","","","",""
"","","","","","html-keyboard-response","241","467947","0.0-7.68-1.68","60f815535ea713f564c6ed61","6579d0c5e56c6e1626038f86","6579d1311e525246fe229baf","2182","./stimuli//pack_morph_shapes_1/cat_2/diff_1/ex_2_1_6.mp4","arrowleft","response","ArrowRight","6","2","1","test","false",""
"","","","","","html-keyboard-response","242","469452","0.0-7.68-2.68","60f815535ea713f564c6ed61","6579d0c5e56c6e1626038f86","6579d1311e525246fe229baf","null","<p> <font color=""red"" size=""5vw""> Wrong category! </font> <br> <br> <font color=""red"" size=""8vw""> - $0.05 </font> </p>","null","feedback","","","","","","","0.2"
"","","","","","html-keyboard-response","243","470027","0.0-7.69-0.69","60f815535ea713f564c6ed61","6579d0c5e56c6e1626038f86","6579d1311e525246fe229baf","574","
            
        <div style=""text-align: center; position: fixed; top: 5vh; left: 40vw;"">
            <div style=""margin:0 auto; width: 20vw; top: 8vh; font-size: 2vw""> 
            <font color=""green""> Bonus : $0.2 </font>
            </div>
        </div>
    
            <div> Please press any key to continue to the next movie.</div>
        ","arrowleft","ITI","","","","","","",""
"","","","","","html-keyboard-response","244","472198","0.0-7.69-1.69","60f815535ea713f564c6ed61","6579d0c5e56c6e1626038f86","6579d1311e525246fe229baf","2168","./stimuli//pack_morph_shapes_1/cat_1/diff_1/ex_1_1_9.mp4","arrowleft","response","ArrowLeft","9","1","1","test","true",""
"","","","","","html-keyboard-response","245","473710","0.0-7.69-2.69","60f815535ea713f564c6ed61","6579d0c5e56c6e1626038f86","6579d1311e525246fe229baf","null","<p> <font color=""green"" size=""5vw""> Correct category! </font> <br> <br> <font color=""green"" size=""8vw""> + $0.06 </font> </p>","null","feedback","","","","","","","0.26"
"","","","","","html-keyboard-response","246","474109","0.0-7.70-0.70","60f815535ea713f564c6ed61","6579d0c5e56c6e1626038f86","6579d1311e525246fe229baf","398","
            
        <div style=""text-align: center; position: fixed; top: 5vh; left: 40vw;"">
            <div style=""margin:0 auto; width: 20vw; top: 8vh; font-size: 2vw""> 
            <font color=""green""> Bonus : $0.26 </font>
            </div>
        </div>
    
            <div> Please press any key to continue to the next movie.</div>
        ","arrowleft","ITI","","","","","","",""
"","","","","","html-keyboard-response","247","476515","0.0-7.70-1.70","60f815535ea713f564c6ed61","6579d0c5e56c6e1626038f86","6579d1311e525246fe229baf","2404","./stimuli//pack_morph_shapes_1/cat_2/diff_1/ex_2_1_4.mp4","arrowleft","response","ArrowRight","4","2","1","test","false",""
"","","","","","html-keyboard-response","248","478021","0.0-7.70-2.70","60f815535ea713f564c6ed61","6579d0c5e56c6e1626038f86","6579d1311e525246fe229baf","null","<p> <font color=""red"" size=""5vw""> Wrong category! </font> <br> <br> <font color=""red"" size=""8vw""> - $0.05 </font> </p>","null","feedback","","","","","","","0.21"
"","","","","","html-keyboard-response","249","478454","0.0-7.71-0.71","60f815535ea713f564c6ed61","6579d0c5e56c6e1626038f86","6579d1311e525246fe229baf","433","
            
        <div style=""text-align: center; position: fixed; top: 5vh; left: 40vw;"">
            <div style=""margin:0 auto; width: 20vw; top: 8vh; font-size: 2vw""> 
            <font color=""green""> Bonus : $0.21 </font>
            </div>
        </div>
    
            <div> Please press any key to continue to the next movie.</div>
        ","arrowleft","ITI","","","","","","",""
"","","","","","html-keyboard-response","250","479865","0.0-7.71-1.71","60f815535ea713f564c6ed61","6579d0c5e56c6e1626038f86","6579d1311e525246fe229baf","1409","./stimuli//pack_morph_shapes_1/cat_1/diff_1/ex_1_1_7.mp4","arrowleft","response","ArrowLeft","7","1","1","test","true",""
"","","","","","html-keyboard-response","251","481369","0.0-7.71-2.71","60f815535ea713f564c6ed61","6579d0c5e56c6e1626038f86","6579d1311e525246fe229baf","null","<p> <font color=""green"" size=""5vw""> Correct category! </font> <br> <br> <font color=""green"" size=""8vw""> + $0.08 </font> </p>","null","feedback","","","","","","","0.29"
"","","","","","html-keyboard-response","252","481768","0.0-7.72-0.72","60f815535ea713f564c6ed61","6579d0c5e56c6e1626038f86","6579d1311e525246fe229baf","398","
            
        <div style=""text-align: center; position: fixed; top: 5vh; left: 40vw;"">
            <div style=""margin:0 auto; width: 20vw; top: 8vh; font-size: 2vw""> 
            <font color=""green""> Bonus : $0.29 </font>
            </div>
        </div>
    
            <div> Please press any key to continue to the next movie.</div>
        ","arrowleft","ITI","","","","","","",""
"","","","","","html-keyboard-response","253","483494","0.0-7.72-1.72","60f815535ea713f564c6ed61","6579d0c5e56c6e1626038f86","6579d1311e525246fe229baf","1724","./stimuli//pack_morph_shapes_1/cat_2/diff_1/ex_2_1_5.mp4","arrowleft","response","ArrowRight","5","2","1","test","false",""
"","","","","","html-keyboard-response","254","484997","0.0-7.72-2.72","60f815535ea713f564c6ed61","6579d0c5e56c6e1626038f86","6579d1311e525246fe229baf","null","<p> <font color=""red"" size=""5vw""> Wrong category! </font> <br> <br> <font color=""red"" size=""8vw""> - $0.05 </font> </p>","null","feedback","","","","","","","0.24"
