"success","timeout","failed_images","failed_audio","failed_video","trial_type","trial_index","time_elapsed","internal_node_id","subject_id","study_id","session_id","rt","stimulus","response","task","correct_response","exemplar_ID","category","difficulty","phase","correct","bonus"
"true","false","[]","[]","[]","preload","0","1","0.0-0.0","5e5bd584dafd983a690b9fc8","6579d0c5e56c6e1626038f86","6579d157d1d35728c5dc449d","","","","","","","","","","",""
"","","","","","html-keyboard-response","1","2164","0.0-1.0","5e5bd584dafd983a690b9fc8","6579d0c5e56c6e1626038f86","6579d157d1d35728c5dc449d","2162","Welcome to the Category Learning experiment! Press any key to continue."," ","welcome","","","","","","",""
"","","","","","html-keyboard-response","2","30055","0.0-2.0","5e5bd584dafd983a690b9fc8","6579d0c5e56c6e1626038f86","6579d157d1d35728c5dc449d","27891","
            <p>You will be shown movies. Each movie contains a shape that initially is hidden and is gradually revealed. 
            <br> Some shapes are category A, some are category B.
            <br> You will not know in advance which category each shape belongs to.</p>
            <p> While you watch a movie, you have to guess the category that the shape you see belongs to <b>(left arrow for category A, right arrow for category B)</b></p>
            <p> After you choose, the screen will show you whether you were correct or not.</p>
            <p>Press any key to continue.</p>
            ","arrowleft","introduction_1","","","","","","",""
"","","","","","html-keyboard-response","3","40696","0.0-3.0","5e5bd584dafd983a690b9fc8","6579d0c5e56c6e1626038f86","6579d157d1d35728c5dc449d","10641","
              <p><b>You will receive a bonus payment for each correct answer! The faster you answer the higher the bonus will be!</b></p>
              <p> So you can increase your bonus by guessing as quickly and accurately as possible.</p>
              <p><b>You will lose $0.05 from your bonus payment for each incorrect answer! The bonus can not become less than $0.</b> </p>
              <p>Press any key to continue.</p>
              ","arrowright","introduction_2","","","","","","",""
"","","","","","html-keyboard-response","4","43769","0.0-4.0","5e5bd584dafd983a690b9fc8","6579d0c5e56c6e1626038f86","6579d157d1d35728c5dc449d","3072","
            <p> <b>The first 10 movies are a practice round that will not count towards your bonus payment.</b></p>
            <p> You will be notified when practice finishes and the test begins. </p>
            <p> Press any key to begin the practice round.</p>
            ","arrowright","introduction_3","","","","","","",""
"","","","","","html-keyboard-response","5","46131","0.0-5.0-0.0","5e5bd584dafd983a690b9fc8","6579d0c5e56c6e1626038f86","6579d157d1d35728c5dc449d","2362","
            
        <div style=""text-align: center; position: fixed; top: 5vh; left: 40vw;"">
            <div style=""margin:0 auto; width: 20vw; top: 8vh; font-size: 2vw""> 
            <font color=""green""> Bonus : $0 </font>
            </div>
        </div>
    
            <div> Please press any key to continue to the next movie.</div>
        ","arrowright","ITI","","","","","","",""
"","","","","","html-keyboard-response","6","51140","0.0-5.0-1.0","5e5bd584dafd983a690b9fc8","6579d0c5e56c6e1626038f86","6579d157d1d35728c5dc449d","null","./stimuli//pack_morph_shapes_1/cat_1/diff_1/ex_1_1_17.mp4","null","response","ArrowLeft","17","1","1","train","false",""
"","","","","","html-keyboard-response","7","52643","0.0-5.0-2.0","5e5bd584dafd983a690b9fc8","6579d0c5e56c6e1626038f86","6579d157d1d35728c5dc449d","null","<p> <font color=""red"" size=""5vw""> Time out! </font> <br> Please try to respond as quickly as possible. </p>","null","feedback","","","","","","","0"
"","","","","","html-keyboard-response","8","53220","0.0-5.0-0.1","5e5bd584dafd983a690b9fc8","6579d0c5e56c6e1626038f86","6579d157d1d35728c5dc449d","575","
            
        <div style=""text-align: center; position: fixed; top: 5vh; left: 40vw;"">
            <div style=""margin:0 auto; width: 20vw; top: 8vh; font-size: 2vw""> 
            <font color=""green""> Bonus : $0 </font>
            </div>
        </div>
    
            <div> Please press any key to continue to the next movie.</div>
        ","arrowright","ITI","","","","","","",""
"","","","","","html-keyboard-response","9","56102","0.0-5.0-1.1","5e5bd584dafd983a690b9fc8","6579d0c5e56c6e1626038f86","6579d157d1d35728c5dc449d","2881","./stimuli//pack_morph_shapes_1/cat_2/diff_2/ex_2_2_7.mp4","arrowright","response","ArrowRight","7","2","2","train","true",""
"","","","","","html-keyboard-response","10","57616","0.0-5.0-2.1","5e5bd584dafd983a690b9fc8","6579d0c5e56c6e1626038f86","6579d157d1d35728c5dc449d","null","<p> <font color=""green"" size=""5vw""> Correct category! </font> </p>","null","feedback","","","","","","","0"
"","","","","","html-keyboard-response","11","58349","0.0-5.0-0.2","5e5bd584dafd983a690b9fc8","6579d0c5e56c6e1626038f86","6579d157d1d35728c5dc449d","732","
            
        <div style=""text-align: center; position: fixed; top: 5vh; left: 40vw;"">
            <div style=""margin:0 auto; width: 20vw; top: 8vh; font-size: 2vw""> 
            <font color=""green""> Bonus : $0 </font>
            </div>
        </div>
    
            <div> Please press any key to continue to the next movie.</div>
        ","arrowright","ITI","","","","","","",""
"","","","","","html-keyboard-response","12","61432","0.0-5.0-1.2","5e5bd584dafd983a690b9fc8","6579d0c5e56c6e1626038f86","6579d157d1d35728c5dc449d","3082","./stimuli//pack_morph_shapes_1/cat_2/diff_2/ex_2_2_6.mp4","arrowright","response","ArrowRight","6","2","2","train","true",""
"","","","","","html-keyboard-response","13","62944","0.0-5.0-2.2","5e5bd584dafd983a690b9fc8","6579d0c5e56c6e1626038f86","6579d157d1d35728c5dc449d","null","<p> <font color=""green"" size=""5vw""> Correct category! </font> </p>","null","feedback","","","","","","","0"
"","","","","","html-keyboard-response","14","63381","0.0-5.0-0.3","5e5bd584dafd983a690b9fc8","6579d0c5e56c6e1626038f86","6579d157d1d35728c5dc449d","437","
            
        <div style=""text-align: center; position: fixed; top: 5vh; left: 40vw;"">
            <div style=""margin:0 auto; width: 20vw; top: 8vh; font-size: 2vw""> 
            <font color=""green""> Bonus : $0 </font>
            </div>
        </div>
    
            <div> Please press any key to continue to the next movie.</div>
        ","arrowright","ITI","","","","","","",""
"","","","","","html-keyboard-response","15","66415","0.0-5.0-1.3","5e5bd584dafd983a690b9fc8","6579d0c5e56c6e1626038f86","6579d157d1d35728c5dc449d","3033","./stimuli//pack_morph_shapes_1/cat_1/diff_2/ex_1_2_4.mp4","arrowleft","response","ArrowLeft","4","1","2","train","true",""
"","","","","","html-keyboard-response","16","67922","0.0-5.0-2.3","5e5bd584dafd983a690b9fc8","6579d0c5e56c6e1626038f86","6579d157d1d35728c5dc449d","null","<p> <font color=""green"" size=""5vw""> Correct category! </font> </p>","null","feedback","","","","","","","0"
"","","","","","html-keyboard-response","17","68599","0.0-5.0-0.4","5e5bd584dafd983a690b9fc8","6579d0c5e56c6e1626038f86","6579d157d1d35728c5dc449d","677","
            
        <div style=""text-align: center; position: fixed; top: 5vh; left: 40vw;"">
            <div style=""margin:0 auto; width: 20vw; top: 8vh; font-size: 2vw""> 
            <font color=""green""> Bonus : $0 </font>
            </div>
        </div>
    
            <div> Please press any key to continue to the next movie.</div>
        ","arrowright","ITI","","","","","","",""
"","","","","","html-keyboard-response","18","71423","0.0-5.0-1.4","5e5bd584dafd983a690b9fc8","6579d0c5e56c6e1626038f86","6579d157d1d35728c5dc449d","2823","./stimuli//pack_morph_shapes_1/cat_2/diff_1/ex_2_1_14.mp4","arrowright","response","ArrowRight","14","2","1","train","true",""
"","","","","","html-keyboard-response","19","72931","0.0-5.0-2.4","5e5bd584dafd983a690b9fc8","6579d0c5e56c6e1626038f86","6579d157d1d35728c5dc449d","null","<p> <font color=""green"" size=""5vw""> Correct category! </font> </p>","null","feedback","","","","","","","0"
"","","","","","html-keyboard-response","20","73437","0.0-5.0-0.5","5e5bd584dafd983a690b9fc8","6579d0c5e56c6e1626038f86","6579d157d1d35728c5dc449d","506","
            
        <div style=""text-align: center; position: fixed; top: 5vh; left: 40vw;"">
            <div style=""margin:0 auto; width: 20vw; top: 8vh; font-size: 2vw""> 
            <font color=""green""> Bonus : $0 </font>
            </div>
        </div>
    
            <div> Please press any key to continue to the next movie.</div>
        ","arrowright","ITI","","","","","","",""
"","","","","","html-keyboard-response","21","76104","0.0-5.0-1.5","5e5bd584dafd983a690b9fc8","6579d0c5e56c6e1626038f86","6579d157d1d35728c5dc449d","2667","./stimuli//pack_morph_shapes_1/cat_2/diff_1/ex_2_1_2.mp4","arrowright","response","ArrowRight","2","2","1","train","true",""
"","","","","","html-keyboard-response","22","77618","0.0-5.0-2.5","5e5bd584dafd983a690b9fc8","6579d0c5e56c6e1626038f86","6579d157d1d35728c5dc449d","null","<p> <font color=""green"" size=""5vw""> Correct category! </font> </p>","null","feedback","","","","","","","0"
"","","","","","html-keyboard-response","23","77893","0.0-5.0-0.6","5e5bd584dafd983a690b9fc8","6579d0c5e56c6e1626038f86","6579d157d1d35728c5dc449d","274","
            
        <div style=""text-align: center; position: fixed; top: 5vh; left: 40vw;"">
            <div style=""margin:0 auto; width: 20vw; top: 8vh; font-size: 2vw""> 
            <font color=""green""> Bonus : $0 </font>
            </div>
        </div>
    
            <div> Please press any key to continue to the next movie.</div>
        ","arrowright","ITI","","","","","","",""
"","","","","","html-keyboard-response","24","80413","0.0-5.0-1.6","5e5bd584dafd983a690b9fc8","6579d0c5e56c6e1626038f86","6579d157d1d35728c5dc449d","2519","./stimuli//pack_morph_shapes_1/cat_2/diff_1/ex_2_1_1.mp4","arrowright","response","ArrowRight","1","2","1","train","true",""
"","","","","","html-keyboard-response","25","81920","0.0-5.0-2.6","5e5bd584dafd983a690b9fc8","6579d0c5e56c6e1626038f86","6579d157d1d35728c5dc449d","null","<p> <font color=""green"" size=""5vw""> Correct category! </font> </p>","null","feedback","","","","","","","0"
"","","","","","html-keyboard-response","26","82330","0.0-5.0-0.7","5e5bd584dafd983a690b9fc8","6579d0c5e56c6e1626038f86","6579d157d1d35728c5dc449d","410","
            
        <div style=""text-align: center; position: fixed; top: 5vh; left: 40vw;"">
            <div style=""margin:0 auto; width: 20vw; top: 8vh; font-size: 2vw""> 
            <font color=""green""> Bonus : $0 </font>
            </div>
        </div>
    
            <div> Please press any key to continue to the next movie.</div>
        ","arrowright","ITI","","","","","","",""
"","","","","","html-keyboard-response","27","85046","0.0-5.0-1.7","5e5bd584dafd983a690b9fc8","6579d0c5e56c6e1626038f86","6579d157d1d35728c5dc449d","2714","./stimuli//pack_morph_shapes_1/cat_1/diff_1/ex_1_1_16.mp4","arrowleft","response","ArrowLeft","16","1","1","train","true",""
"","","","","","html-keyboard-response","28","86561","0.0-5.0-2.7","5e5bd584dafd983a690b9fc8","6579d0c5e56c6e1626038f86","6579d157d1d35728c5dc449d","null","<p> <font color=""green"" size=""5vw""> Correct category! </font> </p>","null","feedback","","","","","","","0"
"","","","","","html-keyboard-response","29","87065","0.0-5.0-0.8","5e5bd584dafd983a690b9fc8","6579d0c5e56c6e1626038f86","6579d157d1d35728c5dc449d","504","
            
        <div style=""text-align: center; position: fixed; top: 5vh; left: 40vw;"">
            <div style=""margin:0 auto; width: 20vw; top: 8vh; font-size: 2vw""> 
            <font color=""green""> Bonus : $0 </font>
            </div>
        </div>
    
            <div> Please press any key to continue to the next movie.</div>
        ","arrowright","ITI","","","","","","",""
"","","","","","html-keyboard-response","30","89729","0.0-5.0-1.8","5e5bd584dafd983a690b9fc8","6579d0c5e56c6e1626038f86","6579d157d1d35728c5dc449d","2664","./stimuli//pack_morph_shapes_1/cat_1/diff_1/ex_1_1_14.mp4","arrowleft","response","ArrowLeft","14","1","1","train","true",""
"","","","","","html-keyboard-response","31","91234","0.0-5.0-2.8","5e5bd584dafd983a690b9fc8","6579d0c5e56c6e1626038f86","6579d157d1d35728c5dc449d","null","<p> <font color=""green"" size=""5vw""> Correct category! </font> </p>","null","feedback","","","","","","","0"
"","","","","","html-keyboard-response","32","91642","0.0-5.0-0.9","5e5bd584dafd983a690b9fc8","6579d0c5e56c6e1626038f86","6579d157d1d35728c5dc449d","408","
            
        <div style=""text-align: center; position: fixed; top: 5vh; left: 40vw;"">
            <div style=""margin:0 auto; width: 20vw; top: 8vh; font-size: 2vw""> 
            <font color=""green""> Bonus : $0 </font>
            </div>
        </div>
    
            <div> Please press any key to continue to the next movie.</div>
        ","arrowright","ITI","","","","","","",""
"","","","","","html-keyboard-response","33","94431","0.0-5.0-1.9","5e5bd584dafd983a690b9fc8","6579d0c5e56c6e1626038f86","6579d157d1d35728c5dc449d","2789","./stimuli//pack_morph_shapes_1/cat_1/diff_2/ex_1_2_17.mp4","arrowright","response","ArrowLeft","17","1","2","train","false",""
"","","","","","html-keyboard-response","34","95937","0.0-5.0-2.9","5e5bd584dafd983a690b9fc8","6579d0c5e56c6e1626038f86","6579d157d1d35728c5dc449d","null","<p> <font color=""red"" size=""5vw""> Wrong category! </font> </p>","null","feedback","","","","","","","0"
"","","","","","html-keyboard-response","35","99419","0.0-6.0","5e5bd584dafd983a690b9fc8","6579d0c5e56c6e1626038f86","6579d157d1d35728c5dc449d","3481","
            <b> <p> The practice round has finished.</p>
            <b> <p> For the rest of the experiment you will receive a bonus payment for each correct answer, which will be higher the faster you answer!</b></p>
            <b> <p> Also you will lose $0.05 from your bonus payment for each incorrect answer!</p>
            <p> Press any key to begin the test. </p>
            ","arrowright","intermission","","","","","","",""
"","","","","","html-keyboard-response","36","101137","0.0-7.0-0.0","5e5bd584dafd983a690b9fc8","6579d0c5e56c6e1626038f86","6579d157d1d35728c5dc449d","1718","
            
        <div style=""text-align: center; position: fixed; top: 5vh; left: 40vw;"">
            <div style=""margin:0 auto; width: 20vw; top: 8vh; font-size: 2vw""> 
            <font color=""green""> Bonus : $0 </font>
            </div>
        </div>
    
            <div> Please press any key to continue to the next movie.</div>
        ","arrowright","ITI","","","","","","",""
"","","","","","html-keyboard-response","37","103687","0.0-7.0-1.0","5e5bd584dafd983a690b9fc8","6579d0c5e56c6e1626038f86","6579d157d1d35728c5dc449d","2549","./stimuli//pack_morph_shapes_1/cat_1/diff_1/ex_1_1_13.mp4","arrowleft","response","ArrowLeft","13","1","1","test","true",""
"","","","","","html-keyboard-response","38","105203","0.0-7.0-2.0","5e5bd584dafd983a690b9fc8","6579d0c5e56c6e1626038f86","6579d157d1d35728c5dc449d","null","<p> <font color=""green"" size=""5vw""> Correct category! </font> <br> <br> <font color=""green"" size=""8vw""> + $0.06 </font> </p>","null","feedback","","","","","","","0.06"
"","","","","","html-keyboard-response","39","105995","0.0-7.1-0.1","5e5bd584dafd983a690b9fc8","6579d0c5e56c6e1626038f86","6579d157d1d35728c5dc449d","792","
            
        <div style=""text-align: center; position: fixed; top: 5vh; left: 40vw;"">
            <div style=""margin:0 auto; width: 20vw; top: 8vh; font-size: 2vw""> 
            <font color=""green""> Bonus : $0.06 </font>
            </div>
        </div>
    
            <div> Please press any key to continue to the next movie.</div>
        ","arrowleft","ITI","","","","","","",""
"","","","","","html-keyboard-response","40","108511","0.0-7.1-1.1","5e5bd584dafd983a690b9fc8","6579d0c5e56c6e1626038f86","6579d157d1d35728c5dc449d","2515","./stimuli//pack_morph_shapes_1/cat_1/diff_1/ex_1_1_5.mp4","arrowleft","response","ArrowLeft","5","1","1","test","true",""
"","","","","","html-keyboard-response","41","110023","0.0-7.1-2.1","5e5bd584dafd983a690b9fc8","6579d0c5e56c6e1626038f86","6579d157d1d35728c5dc449d","null","<p> <font color=""green"" size=""5vw""> Correct category! </font> <br> <br> <font color=""green"" size=""8vw""> + $0.06 </font> </p>","null","feedback","","","","","","","0.12"
"","","","","","html-keyboard-response","42","110619","0.0-7.2-0.2","5e5bd584dafd983a690b9fc8","6579d0c5e56c6e1626038f86","6579d157d1d35728c5dc449d","595","
            
        <div style=""text-align: center; position: fixed; top: 5vh; left: 40vw;"">
            <div style=""margin:0 auto; width: 20vw; top: 8vh; font-size: 2vw""> 
            <font color=""green""> Bonus : $0.12 </font>
            </div>
        </div>
    
            <div> Please press any key to continue to the next movie.</div>
        ","arrowleft","ITI","","","","","","",""
"","","","","","html-keyboard-response","43","113421","0.0-7.2-1.2","5e5bd584dafd983a690b9fc8","6579d0c5e56c6e1626038f86","6579d157d1d35728c5dc449d","2802","./stimuli//pack_morph_shapes_1/cat_1/diff_1/ex_1_1_8.mp4","arrowleft","response","ArrowLeft","8","1","1","test","true",""
"","","","","","html-keyboard-response","44","114923","0.0-7.2-2.2","5e5bd584dafd983a690b9fc8","6579d0c5e56c6e1626038f86","6579d157d1d35728c5dc449d","null","<p> <font color=""green"" size=""5vw""> Correct category! </font> <br> <br> <font color=""green"" size=""8vw""> + $0.06 </font> </p>","null","feedback","","","","","","","0.18"
"","","","","","html-keyboard-response","45","115331","0.0-7.3-0.3","5e5bd584dafd983a690b9fc8","6579d0c5e56c6e1626038f86","6579d157d1d35728c5dc449d","408","
            
        <div style=""text-align: center; position: fixed; top: 5vh; left: 40vw;"">
            <div style=""margin:0 auto; width: 20vw; top: 8vh; font-size: 2vw""> 
            <font color=""green""> Bonus : $0.18 </font>
            </div>
        </div>
    
            <div> Please press any key to continue to the next movie.</div>
        ","arrowleft","ITI","","","","","","",""
"","","","","","html-keyboard-response","46","117921","0.0-7.3-1.3","5e5bd584dafd983a690b9fc8","6579d0c5e56c6e1626038f86","6579d157d1d35728c5dc449d","2589","./stimuli//pack_morph_shapes_1/cat_1/diff_1/ex_1_1_6.mp4","arrowleft","response","ArrowLeft","6","1","1","test","true",""
"","","","","","html-keyboard-response","47","119427","0.0-7.3-2.3","5e5bd584dafd983a690b9fc8","6579d0c5e56c6e1626038f86","6579d157d1d35728c5dc449d","null","<p> <font color=""green"" size=""5vw""> Correct category! </font> <br> <br> <font color=""green"" size=""8vw""> + $0.06 </font> </p>","null","feedback","","","","","","","0.24"
"","","","","","html-keyboard-response","48","119990","0.0-7.4-0.4","5e5bd584dafd983a690b9fc8","6579d0c5e56c6e1626038f86","6579d157d1d35728c5dc449d","562","
            
        <div style=""text-align: center; position: fixed; top: 5vh; left: 40vw;"">
            <div style=""margin:0 auto; width: 20vw; top: 8vh; font-size: 2vw""> 
            <font color=""green""> Bonus : $0.24 </font>
            </div>
        </div>
    
            <div> Please press any key to continue to the next movie.</div>
        ","arrowright","ITI","","","","","","",""
"","","","","","html-keyboard-response","49","122542","0.0-7.4-1.4","5e5bd584dafd983a690b9fc8","6579d0c5e56c6e1626038f86","6579d157d1d35728c5dc449d","2551","./stimuli//pack_morph_shapes_1/cat_2/diff_1/ex_2_1_13.mp4","arrowright","response","ArrowRight","13","2","1","test","true",""
"","","","","","html-keyboard-response","50","124052","0.0-7.4-2.4","5e5bd584dafd983a690b9fc8","6579d0c5e56c6e1626038f86","6579d157d1d35728c5dc449d","null","<p> <font color=""green"" size=""5vw""> Correct category! </font> <br> <br> <font color=""green"" size=""8vw""> + $0.06 </font> </p>","null","feedback","","","","","","","0.3"
"","","","","","html-keyboard-response","51","124563","0.0-7.5-0.5","5e5bd584dafd983a690b9fc8","6579d0c5e56c6e1626038f86","6579d157d1d35728c5dc449d","511","
            
        <div style=""text-align: center; position: fixed; top: 5vh; left: 40vw;"">
            <div style=""margin:0 auto; width: 20vw; top: 8vh; font-size: 2vw""> 
            <font color=""green""> Bonus : $0.3 </font>
            </div>
        </div>
    
            <div> Please press any key to continue to the next movie.</div>
        ","arrowright","ITI","","","","","","",""
"","","","","","html-keyboard-response","52","127078","0.0-7.5-1.5","5e5bd584dafd983a690b9fc8","6579d0c5e56c6e1626038f86","6579d157d1d35728c5dc449d","2514","./stimuli//pack_morph_shapes_1/cat_1/diff_2/ex_1_2_3.mp4","arrowleft","response","ArrowLeft","3","1","2","test","true",""
"","","","","","html-keyboard-response","53","128589","0.0-7.5-2.5","5e5bd584dafd983a690b9fc8","6579d0c5e56c6e1626038f86","6579d157d1d35728c5dc449d","null","<p> <font color=""green"" size=""5vw""> Correct category! </font> <br> <br> <font color=""green"" size=""8vw""> + $0.06 </font> </p>","null","feedback","","","","","","","0.36"
"","","","","","html-keyboard-response","54","129066","0.0-7.6-0.6","5e5bd584dafd983a690b9fc8","6579d0c5e56c6e1626038f86","6579d157d1d35728c5dc449d","476","
            
        <div style=""text-align: center; position: fixed; top: 5vh; left: 40vw;"">
            <div style=""margin:0 auto; width: 20vw; top: 8vh; font-size: 2vw""> 
            <font color=""green""> Bonus : $0.36 </font>
            </div>
        </div>
    
            <div> Please press any key to continue to the next movie.</div>
        ","arrowleft","ITI","","","","","","",""
"","","","","","html-keyboard-response","55","131676","0.0-7.6-1.6","5e5bd584dafd983a690b9fc8","6579d0c5e56c6e1626038f86","6579d157d1d35728c5dc449d","2609","./stimuli//pack_morph_shapes_1/cat_2/diff_2/ex_2_2_15.mp4","arrowright","response","ArrowRight","15","2","2","test","true",""
"","","","","","html-keyboard-response","56","133183","0.0-7.6-2.6","5e5bd584dafd983a690b9fc8","6579d0c5e56c6e1626038f86","6579d157d1d35728c5dc449d","null","<p> <font color=""green"" size=""5vw""> Correct category! </font> <br> <br> <font color=""green"" size=""8vw""> + $0.06 </font> </p>","null","feedback","","","","","","","0.42"
"","","","","","html-keyboard-response","57","133721","0.0-7.7-0.7","5e5bd584dafd983a690b9fc8","6579d0c5e56c6e1626038f86","6579d157d1d35728c5dc449d","538","
            
        <div style=""text-align: center; position: fixed; top: 5vh; left: 40vw;"">
            <div style=""margin:0 auto; width: 20vw; top: 8vh; font-size: 2vw""> 
            <font color=""green""> Bonus : $0.42 </font>
            </div>
        </div>
    
            <div> Please press any key to continue to the next movie.</div>
        ","arrowright","ITI","","","","","","",""
"","","","","","html-keyboard-response","58","136303","0.0-7.7-1.7","5e5bd584dafd983a690b9fc8","6579d0c5e56c6e1626038f86","6579d157d1d35728c5dc449d","2581","./stimuli//pack_morph_shapes_1/cat_1/diff_2/ex_1_2_12.mp4","arrowleft","response","ArrowLeft","12","1","2","test","true",""
"","","","","","html-keyboard-response","59","137811","0.0-7.7-2.7","5e5bd584dafd983a690b9fc8","6579d0c5e56c6e1626038f86","6579d157d1d35728c5dc449d","null","<p> <font color=""green"" size=""5vw""> Correct category! </font> <br> <br> <font color=""green"" size=""8vw""> + $0.06 </font> </p>","null","feedback","","","","","","","0.48"
"","","","","","html-keyboard-response","60","138081","0.0-7.8-0.8","5e5bd584dafd983a690b9fc8","6579d0c5e56c6e1626038f86","6579d157d1d35728c5dc449d","269","
            
        <div style=""text-align: center; position: fixed; top: 5vh; left: 40vw;"">
            <div style=""margin:0 auto; width: 20vw; top: 8vh; font-size: 2vw""> 
            <font color=""green""> Bonus : $0.48 </font>
            </div>
        </div>
    
            <div> Please press any key to continue to the next movie.</div>
        ","arrowright","ITI","","","","","","",""
"","","","","","html-keyboard-response","61","140731","0.0-7.8-1.8","5e5bd584dafd983a690b9fc8","6579d0c5e56c6e1626038f86","6579d157d1d35728c5dc449d","2650","./stimuli//pack_morph_shapes_1/cat_1/diff_2/ex_1_2_16.mp4","arrowleft","response","ArrowLeft","16","1","2","test","true",""
"","","","","","html-keyboard-response","62","142244","0.0-7.8-2.8","5e5bd584dafd983a690b9fc8","6579d0c5e56c6e1626038f86","6579d157d1d35728c5dc449d","null","<p> <font color=""green"" size=""5vw""> Correct category! </font> <br> <br> <font color=""green"" size=""8vw""> + $0.06 </font> </p>","null","feedback","","","","","","","0.54"
"","","","","","html-keyboard-response","63","142599","0.0-7.9-0.9","5e5bd584dafd983a690b9fc8","6579d0c5e56c6e1626038f86","6579d157d1d35728c5dc449d","354","
            
        <div style=""text-align: center; position: fixed; top: 5vh; left: 40vw;"">
            <div style=""margin:0 auto; width: 20vw; top: 8vh; font-size: 2vw""> 
            <font color=""green""> Bonus : $0.54 </font>
            </div>
        </div>
    
            <div> Please press any key to continue to the next movie.</div>
        ","arrowright","ITI","","","","","","",""
"","","","","","html-keyboard-response","64","145153","0.0-7.9-1.9","5e5bd584dafd983a690b9fc8","6579d0c5e56c6e1626038f86","6579d157d1d35728c5dc449d","2553","./stimuli//pack_morph_shapes_1/cat_1/diff_2/ex_1_2_14.mp4","arrowleft","response","ArrowLeft","14","1","2","test","true",""
"","","","","","html-keyboard-response","65","146669","0.0-7.9-2.9","5e5bd584dafd983a690b9fc8","6579d0c5e56c6e1626038f86","6579d157d1d35728c5dc449d","null","<p> <font color=""green"" size=""5vw""> Correct category! </font> <br> <br> <font color=""green"" size=""8vw""> + $0.06 </font> </p>","null","feedback","","","","","","","0.6"
"","","","","","html-keyboard-response","66","147015","0.0-7.10-0.10","5e5bd584dafd983a690b9fc8","6579d0c5e56c6e1626038f86","6579d157d1d35728c5dc449d","346","
            
        <div style=""text-align: center; position: fixed; top: 5vh; left: 40vw;"">
            <div style=""margin:0 auto; width: 20vw; top: 8vh; font-size: 2vw""> 
            <font color=""green""> Bonus : $0.6 </font>
            </div>
        </div>
    
            <div> Please press any key to continue to the next movie.</div>
        ","arrowright","ITI","","","","","","",""
"","","","","","html-keyboard-response","67","149771","0.0-7.10-1.10","5e5bd584dafd983a690b9fc8","6579d0c5e56c6e1626038f86","6579d157d1d35728c5dc449d","2756","./stimuli//pack_morph_shapes_1/cat_1/diff_3/ex_1_3_2.mp4","arrowleft","response","ArrowLeft","2","1","3","test","true",""
"","","","","","html-keyboard-response","68","151280","0.0-7.10-2.10","5e5bd584dafd983a690b9fc8","6579d0c5e56c6e1626038f86","6579d157d1d35728c5dc449d","null","<p> <font color=""green"" size=""5vw""> Correct category! </font> <br> <br> <font color=""green"" size=""8vw""> + $0.06 </font> </p>","null","feedback","","","","","","","0.66"
"","","","","","html-keyboard-response","69","151567","0.0-7.11-0.11","5e5bd584dafd983a690b9fc8","6579d0c5e56c6e1626038f86","6579d157d1d35728c5dc449d","287","
            
        <div style=""text-align: center; position: fixed; top: 5vh; left: 40vw;"">
            <div style=""margin:0 auto; width: 20vw; top: 8vh; font-size: 2vw""> 
            <font color=""green""> Bonus : $0.66 </font>
            </div>
        </div>
    
            <div> Please press any key to continue to the next movie.</div>
        ","arrowright","ITI","","","","","","",""
"","","","","","html-keyboard-response","70","154281","0.0-7.11-1.11","5e5bd584dafd983a690b9fc8","6579d0c5e56c6e1626038f86","6579d157d1d35728c5dc449d","2713","./stimuli//pack_morph_shapes_1/cat_2/diff_3/ex_2_3_14.mp4","arrowright","response","ArrowRight","14","2","3","test","true",""
"","","","","","html-keyboard-response","71","155789","0.0-7.11-2.11","5e5bd584dafd983a690b9fc8","6579d0c5e56c6e1626038f86","6579d157d1d35728c5dc449d","null","<p> <font color=""green"" size=""5vw""> Correct category! </font> <br> <br> <font color=""green"" size=""8vw""> + $0.06 </font> </p>","null","feedback","","","","","","","0.72"
"","","","","","html-keyboard-response","72","156253","0.0-7.12-0.12","5e5bd584dafd983a690b9fc8","6579d0c5e56c6e1626038f86","6579d157d1d35728c5dc449d","464","
            
        <div style=""text-align: center; position: fixed; top: 5vh; left: 40vw;"">
            <div style=""margin:0 auto; width: 20vw; top: 8vh; font-size: 2vw""> 
            <font color=""green""> Bonus : $0.72 </font>
            </div>
        </div>
    
            <div> Please press any key to continue to the next movie.</div>
        ","arrowright","ITI","","","","","","",""
"","","","","","html-keyboard-response","73","158687","0.0-7.12-1.12","5e5bd584dafd983a690b9fc8","6579d0c5e56c6e1626038f86","6579d157d1d35728c5dc449d","2433","./stimuli//pack_morph_shapes_1/cat_1/diff_3/ex_1_3_9.mp4","arrowleft","response","ArrowLeft","9","1","3","test","true",""
"","","","","","html-keyboard-response","74","160193","0.0-7.12-2.12","5e5bd584dafd983a690b9fc8","6579d0c5e56c6e1626038f86","6579d157d1d35728c5dc449d","null","<p> <font color=""green"" size=""5vw""> Correct category! </font> <br> <br> <font color=""green"" size=""8vw""> + $0.06 </font> </p>","null","feedback","","","","","","","0.78"
"","","","","","html-keyboard-response","75","160499","0.0-7.13-0.13","5e5bd584dafd983a690b9fc8","6579d0c5e56c6e1626038f86","6579d157d1d35728c5dc449d","306","
            
        <div style=""text-align: center; position: fixed; top: 5vh; left: 40vw;"">
            <div style=""margin:0 auto; width: 20vw; top: 8vh; font-size: 2vw""> 
            <font color=""green""> Bonus : $0.78 </font>
            </div>
        </div>
    
            <div> Please press any key to continue to the next movie.</div>
        ","arrowright","ITI","","","","","","",""
"","","","","","html-keyboard-response","76","163233","0.0-7.13-1.13","5e5bd584dafd983a690b9fc8","6579d0c5e56c6e1626038f86","6579d157d1d35728c5dc449d","2733","./stimuli//pack_morph_shapes_1/cat_1/diff_3/ex_1_3_11.mp4","arrowleft","response","ArrowLeft","11","1","3","test","true",""
"","","","","","html-keyboard-response","77","164737","0.0-7.13-2.13","5e5bd584dafd983a690b9fc8","6579d0c5e56c6e1626038f86","6579d157d1d35728c5dc449d","null","<p> <font color=""green"" size=""5vw""> Correct category! </font> <br> <br> <font color=""green"" size=""8vw""> + $0.06 </font> </p>","null","feedback","","","","","","","0.84"
"","","","","","html-keyboard-response","78","164981","0.0-7.14-0.14","5e5bd584dafd983a690b9fc8","6579d0c5e56c6e1626038f86","6579d157d1d35728c5dc449d","243","
            
        <div style=""text-align: center; position: fixed; top: 5vh; left: 40vw;"">
            <div style=""margin:0 auto; width: 20vw; top: 8vh; font-size: 2vw""> 
            <font color=""green""> Bonus : $0.84 </font>
            </div>
        </div>
    
            <div> Please press any key to continue to the next movie.</div>
        ","arrowright","ITI","","","","","","",""
"","","","","","html-keyboard-response","79","167204","0.0-7.14-1.14","5e5bd584dafd983a690b9fc8","6579d0c5e56c6e1626038f86","6579d157d1d35728c5dc449d","2223","./stimuli//pack_morph_shapes_1/cat_2/diff_3/ex_2_3_16.mp4","arrowright","response","ArrowRight","16","2","3","test","true",""
"","","","","","html-keyboard-response","80","168705","0.0-7.14-2.14","5e5bd584dafd983a690b9fc8","6579d0c5e56c6e1626038f86","6579d157d1d35728c5dc449d","null","<p> <font color=""green"" size=""5vw""> Correct category! </font> <br> <br> <font color=""green"" size=""8vw""> + $0.06 </font> </p>","null","feedback","","","","","","","0.9"
"","","","","","html-keyboard-response","81","169137","0.0-7.15-0.15","5e5bd584dafd983a690b9fc8","6579d0c5e56c6e1626038f86","6579d157d1d35728c5dc449d","432","
            
        <div style=""text-align: center; position: fixed; top: 5vh; left: 40vw;"">
            <div style=""margin:0 auto; width: 20vw; top: 8vh; font-size: 2vw""> 
            <font color=""green""> Bonus : $0.9 </font>
            </div>
        </div>
    
            <div> Please press any key to continue to the next movie.</div>
        ","arrowright","ITI","","","","","","",""
"","","","","","html-keyboard-response","82","171673","0.0-7.15-1.15","5e5bd584dafd983a690b9fc8","6579d0c5e56c6e1626038f86","6579d157d1d35728c5dc449d","2535","./stimuli//pack_morph_shapes_1/cat_1/diff_4/ex_1_4_12.mp4","arrowleft","response","ArrowLeft","12","1","4","test","true",""
"","","","","","html-keyboard-response","83","173183","0.0-7.15-2.15","5e5bd584dafd983a690b9fc8","6579d0c5e56c6e1626038f86","6579d157d1d35728c5dc449d","null","<p> <font color=""green"" size=""5vw""> Correct category! </font> <br> <br> <font color=""green"" size=""8vw""> + $0.06 </font> </p>","null","feedback","","","","","","","0.96"
"","","","","","html-keyboard-response","84","173491","0.0-7.16-0.16","5e5bd584dafd983a690b9fc8","6579d0c5e56c6e1626038f86","6579d157d1d35728c5dc449d","308","
            
        <div style=""text-align: center; position: fixed; top: 5vh; left: 40vw;"">
            <div style=""margin:0 auto; width: 20vw; top: 8vh; font-size: 2vw""> 
            <font color=""green""> Bonus : $0.96 </font>
            </div>
        </div>
    
            <div> Please press any key to continue to the next movie.</div>
        ","arrowright","ITI","","","","","","",""
"","","","","","html-keyboard-response","85","175991","0.0-7.16-1.16","5e5bd584dafd983a690b9fc8","6579d0c5e56c6e1626038f86","6579d157d1d35728c5dc449d","2499","./stimuli//pack_morph_shapes_1/cat_1/diff_4/ex_1_4_11.mp4","arrowleft","response","ArrowLeft","11","1","4","test","true",""
"","","","","","html-keyboard-response","86","177495","0.0-7.16-2.16","5e5bd584dafd983a690b9fc8","6579d0c5e56c6e1626038f86","6579d157d1d35728c5dc449d","null","<p> <font color=""green"" size=""5vw""> Correct category! </font> <br> <br> <font color=""green"" size=""8vw""> + $0.06 </font> </p>","null","feedback","","","","","","","1.02"
"","","","","","html-keyboard-response","87","177839","0.0-7.17-0.17","5e5bd584dafd983a690b9fc8","6579d0c5e56c6e1626038f86","6579d157d1d35728c5dc449d","343","
            
        <div style=""text-align: center; position: fixed; top: 5vh; left: 40vw;"">
            <div style=""margin:0 auto; width: 20vw; top: 8vh; font-size: 2vw""> 
            <font color=""green""> Bonus : $1.02 </font>
            </div>
        </div>
    
            <div> Please press any key to continue to the next movie.</div>
        ","arrowright","ITI","","","","","","",""
"","","","","","html-keyboard-response","88","180506","0.0-7.17-1.17","5e5bd584dafd983a690b9fc8","6579d0c5e56c6e1626038f86","6579d157d1d35728c5dc449d","2667","./stimuli//pack_morph_shapes_1/cat_1/diff_4/ex_1_4_12.mp4","arrowleft","response","ArrowLeft","12","1","4","test","true",""
"","","","","","html-keyboard-response","89","182018","0.0-7.17-2.17","5e5bd584dafd983a690b9fc8","6579d0c5e56c6e1626038f86","6579d157d1d35728c5dc449d","null","<p> <font color=""green"" size=""5vw""> Correct category! </font> <br> <br> <font color=""green"" size=""8vw""> + $0.06 </font> </p>","null","feedback","","","","","","","1.08"
"","","","","","html-keyboard-response","90","182291","0.0-7.18-0.18","5e5bd584dafd983a690b9fc8","6579d0c5e56c6e1626038f86","6579d157d1d35728c5dc449d","273","
            
        <div style=""text-align: center; position: fixed; top: 5vh; left: 40vw;"">
            <div style=""margin:0 auto; width: 20vw; top: 8vh; font-size: 2vw""> 
            <font color=""green""> Bonus : $1.08 </font>
            </div>
        </div>
    
            <div> Please press any key to continue to the next movie.</div>
        ","arrowright","ITI","","","","","","",""
"","","","","","html-keyboard-response","91","184925","0.0-7.18-1.18","5e5bd584dafd983a690b9fc8","6579d0c5e56c6e1626038f86","6579d157d1d35728c5dc449d","2634","./stimuli//pack_morph_shapes_1/cat_1/diff_4/ex_1_4_6.mp4","arrowright","response","ArrowLeft","6","1","4","test","false",""
"","","","","","html-keyboard-response","92","186431","0.0-7.18-2.18","5e5bd584dafd983a690b9fc8","6579d0c5e56c6e1626038f86","6579d157d1d35728c5dc449d","null","<p> <font color=""red"" size=""5vw""> Wrong category! </font> <br> <br> <font color=""red"" size=""8vw""> - $0.05 </font> </p>","null","feedback","","","","","","","1.03"
"","","","","","html-keyboard-response","93","186863","0.0-7.19-0.19","5e5bd584dafd983a690b9fc8","6579d0c5e56c6e1626038f86","6579d157d1d35728c5dc449d","431","
            
        <div style=""text-align: center; position: fixed; top: 5vh; left: 40vw;"">
            <div style=""margin:0 auto; width: 20vw; top: 8vh; font-size: 2vw""> 
            <font color=""green""> Bonus : $1.03 </font>
            </div>
        </div>
    
            <div> Please press any key to continue to the next movie.</div>
        ","arrowright","ITI","","","","","","",""
"","","","","","html-keyboard-response","94","189393","0.0-7.19-1.19","5e5bd584dafd983a690b9fc8","6579d0c5e56c6e1626038f86","6579d157d1d35728c5dc449d","2530","./stimuli//pack_morph_shapes_1/cat_2/diff_4/ex_2_4_9.mp4","arrowright","response","ArrowRight","9","2","4","test","true",""
"","","","","","html-keyboard-response","95","190899","0.0-7.19-2.19","5e5bd584dafd983a690b9fc8","6579d0c5e56c6e1626038f86","6579d157d1d35728c5dc449d","null","<p> <font color=""green"" size=""5vw""> Correct category! </font> <br> <br> <font color=""green"" size=""8vw""> + $0.06 </font> </p>","null","feedback","","","","","","","1.09"
"","","","","","html-keyboard-response","96","191297","0.0-7.20-0.20","5e5bd584dafd983a690b9fc8","6579d0c5e56c6e1626038f86","6579d157d1d35728c5dc449d","397","
            
        <div style=""text-align: center; position: fixed; top: 5vh; left: 40vw;"">
            <div style=""margin:0 auto; width: 20vw; top: 8vh; font-size: 2vw""> 
            <font color=""green""> Bonus : $1.09 </font>
            </div>
        </div>
    
            <div> Please press any key to continue to the next movie.</div>
        ","arrowright","ITI","","","","","","",""
"","","","","","html-keyboard-response","97","193713","0.0-7.20-1.20","5e5bd584dafd983a690b9fc8","6579d0c5e56c6e1626038f86","6579d157d1d35728c5dc449d","2416","./stimuli//pack_morph_shapes_1/cat_2/diff_5/ex_2_5_11.mp4","arrowright","response","ArrowRight","11","2","5","test","true",""
"","","","","","html-keyboard-response","98","195221","0.0-7.20-2.20","5e5bd584dafd983a690b9fc8","6579d0c5e56c6e1626038f86","6579d157d1d35728c5dc449d","null","<p> <font color=""green"" size=""5vw""> Correct category! </font> <br> <br> <font color=""green"" size=""8vw""> + $0.06 </font> </p>","null","feedback","","","","","","","1.15"
"","","","","","html-keyboard-response","99","195569","0.0-7.21-0.21","5e5bd584dafd983a690b9fc8","6579d0c5e56c6e1626038f86","6579d157d1d35728c5dc449d","348","
            
        <div style=""text-align: center; position: fixed; top: 5vh; left: 40vw;"">
            <div style=""margin:0 auto; width: 20vw; top: 8vh; font-size: 2vw""> 
            <font color=""green""> Bonus : $1.15 </font>
            </div>
        </div>
    
            <div> Please press any key to continue to the next movie.</div>
        ","arrowright","ITI","","","","","","",""
"","","","","","html-keyboard-response","100","198016","0.0-7.21-1.21","5e5bd584dafd983a690b9fc8","6579d0c5e56c6e1626038f86","6579d157d1d35728c5dc449d","2447","./stimuli//pack_morph_shapes_1/cat_2/diff_5/ex_2_5_5.mp4","arrowright","response","ArrowRight","5","2","5","test","true",""
"","","","","","html-keyboard-response","101","199530","0.0-7.21-2.21","5e5bd584dafd983a690b9fc8","6579d0c5e56c6e1626038f86","6579d157d1d35728c5dc449d","null","<p> <font color=""green"" size=""5vw""> Correct category! </font> <br> <br> <font color=""green"" size=""8vw""> + $0.06 </font> </p>","null","feedback","","","","","","","1.21"
"","","","","","html-keyboard-response","102","200085","0.0-7.22-0.22","5e5bd584dafd983a690b9fc8","6579d0c5e56c6e1626038f86","6579d157d1d35728c5dc449d","555","
            
        <div style=""text-align: center; position: fixed; top: 5vh; left: 40vw;"">
            <div style=""margin:0 auto; width: 20vw; top: 8vh; font-size: 2vw""> 
            <font color=""green""> Bonus : $1.21 </font>
            </div>
        </div>
    
            <div> Please press any key to continue to the next movie.</div>
        ","arrowright","ITI","","","","","","",""
"","","","","","html-keyboard-response","103","202553","0.0-7.22-1.22","5e5bd584dafd983a690b9fc8","6579d0c5e56c6e1626038f86","6579d157d1d35728c5dc449d","2468","./stimuli//pack_morph_shapes_1/cat_1/diff_5/ex_1_5_6.mp4","arrowleft","response","ArrowLeft","6","1","5","test","true",""
"","","","","","html-keyboard-response","104","204058","0.0-7.22-2.22","5e5bd584dafd983a690b9fc8","6579d0c5e56c6e1626038f86","6579d157d1d35728c5dc449d","null","<p> <font color=""green"" size=""5vw""> Correct category! </font> <br> <br> <font color=""green"" size=""8vw""> + $0.06 </font> </p>","null","feedback","","","","","","","1.27"
"","","","","","html-keyboard-response","105","204452","0.0-7.23-0.23","5e5bd584dafd983a690b9fc8","6579d0c5e56c6e1626038f86","6579d157d1d35728c5dc449d","394","
            
        <div style=""text-align: center; position: fixed; top: 5vh; left: 40vw;"">
            <div style=""margin:0 auto; width: 20vw; top: 8vh; font-size: 2vw""> 
            <font color=""green""> Bonus : $1.27 </font>
            </div>
        </div>
    
            <div> Please press any key to continue to the next movie.</div>
        ","arrowright","ITI","","","","","","",""
"","","","","","html-keyboard-response","106","207191","0.0-7.23-1.23","5e5bd584dafd983a690b9fc8","6579d0c5e56c6e1626038f86","6579d157d1d35728c5dc449d","2739","./stimuli//pack_morph_shapes_1/cat_2/diff_5/ex_2_5_14.mp4","arrowright","response","ArrowRight","14","2","5","test","true",""
"","","","","","html-keyboard-response","107","208705","0.0-7.23-2.23","5e5bd584dafd983a690b9fc8","6579d0c5e56c6e1626038f86","6579d157d1d35728c5dc449d","null","<p> <font color=""green"" size=""5vw""> Correct category! </font> <br> <br> <font color=""green"" size=""8vw""> + $0.06 </font> </p>","null","feedback","","","","","","","1.33"
"","","","","","html-keyboard-response","108","209441","0.0-7.24-0.24","5e5bd584dafd983a690b9fc8","6579d0c5e56c6e1626038f86","6579d157d1d35728c5dc449d","736","
            
        <div style=""text-align: center; position: fixed; top: 5vh; left: 40vw;"">
            <div style=""margin:0 auto; width: 20vw; top: 8vh; font-size: 2vw""> 
            <font color=""green""> Bonus : $1.33 </font>
            </div>
        </div>
    
            <div> Please press any key to continue to the next movie.</div>
        ","arrowright","ITI","","","","","","",""
"","","","","","html-keyboard-response","109","212115","0.0-7.24-1.24","5e5bd584dafd983a690b9fc8","6579d0c5e56c6e1626038f86","6579d157d1d35728c5dc449d","2673","./stimuli//pack_morph_shapes_1/cat_2/diff_5/ex_2_5_6.mp4","arrowright","response","ArrowRight","6","2","5","test","true",""
"","","","","","html-keyboard-response","110","213622","0.0-7.24-2.24","5e5bd584dafd983a690b9fc8","6579d0c5e56c6e1626038f86","6579d157d1d35728c5dc449d","null","<p> <font color=""green"" size=""5vw""> Correct category! </font> <br> <br> <font color=""green"" size=""8vw""> + $0.06 </font> </p>","null","feedback","","","","","","","1.39"
"","","","","","html-keyboard-response","111","213994","0.0-7.25-0.25","5e5bd584dafd983a690b9fc8","6579d0c5e56c6e1626038f86","6579d157d1d35728c5dc449d","372","
            
        <div style=""text-align: center; position: fixed; top: 5vh; left: 40vw;"">
            <div style=""margin:0 auto; width: 20vw; top: 8vh; font-size: 2vw""> 
            <font color=""green""> Bonus : $1.39 </font>
            </div>
        </div>
    
            <div> Please press any key to continue to the next movie.</div>
        ","arrowright","ITI","","","","","","",""
"","","","","","html-keyboard-response","112","216477","0.0-7.25-1.25","5e5bd584dafd983a690b9fc8","6579d0c5e56c6e1626038f86","6579d157d1d35728c5dc449d","2483","./stimuli//pack_morph_shapes_1/cat_2/diff_5/ex_2_5_12.mp4","arrowright","response","ArrowRight","12","2","5","test","true",""
"","","","","","html-keyboard-response","113","217983","0.0-7.25-2.25","5e5bd584dafd983a690b9fc8","6579d0c5e56c6e1626038f86","6579d157d1d35728c5dc449d","null","<p> <font color=""green"" size=""5vw""> Correct category! </font> <br> <br> <font color=""green"" size=""8vw""> + $0.06 </font> </p>","null","feedback","","","","","","","1.45"
"","","","","","html-keyboard-response","114","218722","0.0-7.26-0.26","5e5bd584dafd983a690b9fc8","6579d0c5e56c6e1626038f86","6579d157d1d35728c5dc449d","739","
            
        <div style=""text-align: center; position: fixed; top: 5vh; left: 40vw;"">
            <div style=""margin:0 auto; width: 20vw; top: 8vh; font-size: 2vw""> 
            <font color=""green""> Bonus : $1.45 </font>
            </div>
        </div>
    
            <div> Please press any key to continue to the next movie.</div>
        ","arrowright","ITI","","","","","","",""
"","","","","","html-keyboard-response","115","220984","0.0-7.26-1.26","5e5bd584dafd983a690b9fc8","6579d0c5e56c6e1626038f86","6579d157d1d35728c5dc449d","2261","./stimuli//pack_morph_shapes_1/cat_1/diff_5/ex_1_5_3.mp4","arrowright","response","ArrowLeft","3","1","5","test","false",""
"","","","","","html-keyboard-response","116","222494","0.0-7.26-2.26","5e5bd584dafd983a690b9fc8","6579d0c5e56c6e1626038f86","6579d157d1d35728c5dc449d","null","<p> <font color=""red"" size=""5vw""> Wrong category! </font> <br> <br> <font color=""red"" size=""8vw""> - $0.05 </font> </p>","null","feedback","","","","","","","1.4"
"","","","","","html-keyboard-response","117","223263","0.0-7.27-0.27","5e5bd584dafd983a690b9fc8","6579d0c5e56c6e1626038f86","6579d157d1d35728c5dc449d","768","
            
        <div style=""text-align: center; position: fixed; top: 5vh; left: 40vw;"">
            <div style=""margin:0 auto; width: 20vw; top: 8vh; font-size: 2vw""> 
            <font color=""green""> Bonus : $1.4 </font>
            </div>
        </div>
    
            <div> Please press any key to continue to the next movie.</div>
        ","arrowright","ITI","","","","","","",""
"","","","","","html-keyboard-response","118","225996","0.0-7.27-1.27","5e5bd584dafd983a690b9fc8","6579d0c5e56c6e1626038f86","6579d157d1d35728c5dc449d","2733","./stimuli//pack_morph_shapes_1/cat_1/diff_5/ex_1_5_6.mp4","arrowleft","response","ArrowLeft","6","1","5","test","true",""
"","","","","","html-keyboard-response","119","227500","0.0-7.27-2.27","5e5bd584dafd983a690b9fc8","6579d0c5e56c6e1626038f86","6579d157d1d35728c5dc449d","null","<p> <font color=""green"" size=""5vw""> Correct category! </font> <br> <br> <font color=""green"" size=""8vw""> + $0.06 </font> </p>","null","feedback","","","","","","","1.46"
"","","","","","html-keyboard-response","120","227837","0.0-7.28-0.28","5e5bd584dafd983a690b9fc8","6579d0c5e56c6e1626038f86","6579d157d1d35728c5dc449d","337","
            
        <div style=""text-align: center; position: fixed; top: 5vh; left: 40vw;"">
            <div style=""margin:0 auto; width: 20vw; top: 8vh; font-size: 2vw""> 
            <font color=""green""> Bonus : $1.46 </font>
            </div>
        </div>
    
            <div> Please press any key to continue to the next movie.</div>
        ","arrowright","ITI","","","","","","",""
"","","","","","html-keyboard-response","121","230570","0.0-7.28-1.28","5e5bd584dafd983a690b9fc8","6579d0c5e56c6e1626038f86","6579d157d1d35728c5dc449d","2732","./stimuli//pack_morph_shapes_1/cat_1/diff_5/ex_1_5_17.mp4","arrowright","response","ArrowLeft","17","1","5","test","false",""
"","","","","","html-keyboard-response","122","232086","0.0-7.28-2.28","5e5bd584dafd983a690b9fc8","6579d0c5e56c6e1626038f86","6579d157d1d35728c5dc449d","null","<p> <font color=""red"" size=""5vw""> Wrong category! </font> <br> <br> <font color=""red"" size=""8vw""> - $0.05 </font> </p>","null","feedback","","","","","","","1.41"
"","","","","","html-keyboard-response","123","232599","0.0-7.29-0.29","5e5bd584dafd983a690b9fc8","6579d0c5e56c6e1626038f86","6579d157d1d35728c5dc449d","512","
            
        <div style=""text-align: center; position: fixed; top: 5vh; left: 40vw;"">
            <div style=""margin:0 auto; width: 20vw; top: 8vh; font-size: 2vw""> 
            <font color=""green""> Bonus : $1.41 </font>
            </div>
        </div>
    
            <div> Please press any key to continue to the next movie.</div>
        ","arrowright","ITI","","","","","","",""
"","","","","","html-keyboard-response","124","235603","0.0-7.29-1.29","5e5bd584dafd983a690b9fc8","6579d0c5e56c6e1626038f86","6579d157d1d35728c5dc449d","3003","./stimuli//pack_morph_shapes_1/cat_2/diff_4/ex_2_4_9.mp4","arrowright","response","ArrowRight","9","2","4","test","true",""
"","","","","","html-keyboard-response","125","237107","0.0-7.29-2.29","5e5bd584dafd983a690b9fc8","6579d0c5e56c6e1626038f86","6579d157d1d35728c5dc449d","null","<p> <font color=""green"" size=""5vw""> Correct category! </font> <br> <br> <font color=""green"" size=""8vw""> + $0.05 </font> </p>","null","feedback","","","","","","","1.46"
"","","","","","html-keyboard-response","126","237512","0.0-7.30-0.30","5e5bd584dafd983a690b9fc8","6579d0c5e56c6e1626038f86","6579d157d1d35728c5dc449d","405","
            
        <div style=""text-align: center; position: fixed; top: 5vh; left: 40vw;"">
            <div style=""margin:0 auto; width: 20vw; top: 8vh; font-size: 2vw""> 
            <font color=""green""> Bonus : $1.46 </font>
            </div>
        </div>
    
            <div> Please press any key to continue to the next movie.</div>
        ","arrowright","ITI","","","","","","",""
"","","","","","html-keyboard-response","127","240249","0.0-7.30-1.30","5e5bd584dafd983a690b9fc8","6579d0c5e56c6e1626038f86","6579d157d1d35728c5dc449d","2736","./stimuli//pack_morph_shapes_1/cat_2/diff_4/ex_2_4_7.mp4","arrowright","response","ArrowRight","7","2","4","test","true",""
"","","","","","html-keyboard-response","128","241762","0.0-7.30-2.30","5e5bd584dafd983a690b9fc8","6579d0c5e56c6e1626038f86","6579d157d1d35728c5dc449d","null","<p> <font color=""green"" size=""5vw""> Correct category! </font> <br> <br> <font color=""green"" size=""8vw""> + $0.06 </font> </p>","null","feedback","","","","","","","1.52"
"","","","","","html-keyboard-response","129","242116","0.0-7.31-0.31","5e5bd584dafd983a690b9fc8","6579d0c5e56c6e1626038f86","6579d157d1d35728c5dc449d","353","
            
        <div style=""text-align: center; position: fixed; top: 5vh; left: 40vw;"">
            <div style=""margin:0 auto; width: 20vw; top: 8vh; font-size: 2vw""> 
            <font color=""green""> Bonus : $1.52 </font>
            </div>
        </div>
    
            <div> Please press any key to continue to the next movie.</div>
        ","arrowright","ITI","","","","","","",""
"","","","","","html-keyboard-response","130","245065","0.0-7.31-1.31","5e5bd584dafd983a690b9fc8","6579d0c5e56c6e1626038f86","6579d157d1d35728c5dc449d","2948","./stimuli//pack_morph_shapes_1/cat_2/diff_4/ex_2_4_10.mp4","arrowright","response","ArrowRight","10","2","4","test","true",""
"","","","","","html-keyboard-response","131","246566","0.0-7.31-2.31","5e5bd584dafd983a690b9fc8","6579d0c5e56c6e1626038f86","6579d157d1d35728c5dc449d","null","<p> <font color=""green"" size=""5vw""> Correct category! </font> <br> <br> <font color=""green"" size=""8vw""> + $0.06 </font> </p>","null","feedback","","","","","","","1.58"
"","","","","","html-keyboard-response","132","246883","0.0-7.32-0.32","5e5bd584dafd983a690b9fc8","6579d0c5e56c6e1626038f86","6579d157d1d35728c5dc449d","317","
            
        <div style=""text-align: center; position: fixed; top: 5vh; left: 40vw;"">
            <div style=""margin:0 auto; width: 20vw; top: 8vh; font-size: 2vw""> 
            <font color=""green""> Bonus : $1.58 </font>
            </div>
        </div>
    
            <div> Please press any key to continue to the next movie.</div>
        ","arrowright","ITI","","","","","","",""
"","","","","","html-keyboard-response","133","249368","0.0-7.32-1.32","5e5bd584dafd983a690b9fc8","6579d0c5e56c6e1626038f86","6579d157d1d35728c5dc449d","2484","./stimuli//pack_morph_shapes_1/cat_2/diff_4/ex_2_4_8.mp4","arrowright","response","ArrowRight","8","2","4","test","true",""
"","","","","","html-keyboard-response","134","250884","0.0-7.32-2.32","5e5bd584dafd983a690b9fc8","6579d0c5e56c6e1626038f86","6579d157d1d35728c5dc449d","null","<p> <font color=""green"" size=""5vw""> Correct category! </font> <br> <br> <font color=""green"" size=""8vw""> + $0.06 </font> </p>","null","feedback","","","","","","","1.64"
"","","","","","html-keyboard-response","135","251143","0.0-7.33-0.33","5e5bd584dafd983a690b9fc8","6579d0c5e56c6e1626038f86","6579d157d1d35728c5dc449d","259","
            
        <div style=""text-align: center; position: fixed; top: 5vh; left: 40vw;"">
            <div style=""margin:0 auto; width: 20vw; top: 8vh; font-size: 2vw""> 
            <font color=""green""> Bonus : $1.64 </font>
            </div>
        </div>
    
            <div> Please press any key to continue to the next movie.</div>
        ","arrowright","ITI","","","","","","",""
"","","","","","html-keyboard-response","136","253156","0.0-7.33-1.33","5e5bd584dafd983a690b9fc8","6579d0c5e56c6e1626038f86","6579d157d1d35728c5dc449d","2013","./stimuli//pack_morph_shapes_1/cat_2/diff_4/ex_2_4_10.mp4","arrowright","response","ArrowRight","10","2","4","test","true",""
"","","","","","html-keyboard-response","137","254671","0.0-7.33-2.33","5e5bd584dafd983a690b9fc8","6579d0c5e56c6e1626038f86","6579d157d1d35728c5dc449d","null","<p> <font color=""green"" size=""5vw""> Correct category! </font> <br> <br> <font color=""green"" size=""8vw""> + $0.07 </font> </p>","null","feedback","","","","","","","1.71"
"","","","","","html-keyboard-response","138","254930","0.0-7.34-0.34","5e5bd584dafd983a690b9fc8","6579d0c5e56c6e1626038f86","6579d157d1d35728c5dc449d","259","
            
        <div style=""text-align: center; position: fixed; top: 5vh; left: 40vw;"">
            <div style=""margin:0 auto; width: 20vw; top: 8vh; font-size: 2vw""> 
            <font color=""green""> Bonus : $1.71 </font>
            </div>
        </div>
    
            <div> Please press any key to continue to the next movie.</div>
        ","arrowright","ITI","","","","","","",""
"","","","","","html-keyboard-response","139","257141","0.0-7.34-1.34","5e5bd584dafd983a690b9fc8","6579d0c5e56c6e1626038f86","6579d157d1d35728c5dc449d","2210","./stimuli//pack_morph_shapes_1/cat_1/diff_5/ex_1_5_6.mp4","arrowright","response","ArrowLeft","6","1","5","test","false",""
"","","","","","html-keyboard-response","140","258656","0.0-7.34-2.34","5e5bd584dafd983a690b9fc8","6579d0c5e56c6e1626038f86","6579d157d1d35728c5dc449d","null","<p> <font color=""red"" size=""5vw""> Wrong category! </font> <br> <br> <font color=""red"" size=""8vw""> - $0.05 </font> </p>","null","feedback","","","","","","","1.66"
"","","","","","html-keyboard-response","141","259039","0.0-7.35-0.35","5e5bd584dafd983a690b9fc8","6579d0c5e56c6e1626038f86","6579d157d1d35728c5dc449d","383","
            
        <div style=""text-align: center; position: fixed; top: 5vh; left: 40vw;"">
            <div style=""margin:0 auto; width: 20vw; top: 8vh; font-size: 2vw""> 
            <font color=""green""> Bonus : $1.66 </font>
            </div>
        </div>
    
            <div> Please press any key to continue to the next movie.</div>
        ","arrowright","ITI","","","","","","",""
"","","","","","html-keyboard-response","142","261652","0.0-7.35-1.35","5e5bd584dafd983a690b9fc8","6579d0c5e56c6e1626038f86","6579d157d1d35728c5dc449d","2612","./stimuli//pack_morph_shapes_1/cat_2/diff_5/ex_2_5_7.mp4","arrowleft","response","ArrowRight","7","2","5","test","false",""
"","","","","","html-keyboard-response","143","263168","0.0-7.35-2.35","5e5bd584dafd983a690b9fc8","6579d0c5e56c6e1626038f86","6579d157d1d35728c5dc449d","null","<p> <font color=""red"" size=""5vw""> Wrong category! </font> <br> <br> <font color=""red"" size=""8vw""> - $0.05 </font> </p>","null","feedback","","","","","","","1.61"
"","","","","","html-keyboard-response","144","263563","0.0-7.36-0.36","5e5bd584dafd983a690b9fc8","6579d0c5e56c6e1626038f86","6579d157d1d35728c5dc449d","395","
            
        <div style=""text-align: center; position: fixed; top: 5vh; left: 40vw;"">
            <div style=""margin:0 auto; width: 20vw; top: 8vh; font-size: 2vw""> 
            <font color=""green""> Bonus : $1.61 </font>
            </div>
        </div>
    
            <div> Please press any key to continue to the next movie.</div>
        ","arrowright","ITI","","","","","","",""
"","","","","","html-keyboard-response","145","266130","0.0-7.36-1.36","5e5bd584dafd983a690b9fc8","6579d0c5e56c6e1626038f86","6579d157d1d35728c5dc449d","2566","./stimuli//pack_morph_shapes_1/cat_2/diff_5/ex_2_5_6.mp4","arrowright","response","ArrowRight","6","2","5","test","true",""
"","","","","","html-keyboard-response","146","267634","0.0-7.36-2.36","5e5bd584dafd983a690b9fc8","6579d0c5e56c6e1626038f86","6579d157d1d35728c5dc449d","null","<p> <font color=""green"" size=""5vw""> Correct category! </font> <br> <br> <font color=""green"" size=""8vw""> + $0.06 </font> </p>","null","feedback","","","","","","","1.67"
"","","","","","html-keyboard-response","147","268036","0.0-7.37-0.37","5e5bd584dafd983a690b9fc8","6579d0c5e56c6e1626038f86","6579d157d1d35728c5dc449d","401","
            
        <div style=""text-align: center; position: fixed; top: 5vh; left: 40vw;"">
            <div style=""margin:0 auto; width: 20vw; top: 8vh; font-size: 2vw""> 
            <font color=""green""> Bonus : $1.67 </font>
            </div>
        </div>
    
            <div> Please press any key to continue to the next movie.</div>
        ","arrowright","ITI","","","","","","",""
"","","","","","html-keyboard-response","148","270699","0.0-7.37-1.37","5e5bd584dafd983a690b9fc8","6579d0c5e56c6e1626038f86","6579d157d1d35728c5dc449d","2663","./stimuli//pack_morph_shapes_1/cat_1/diff_5/ex_1_5_14.mp4","arrowright","response","ArrowLeft","14","1","5","test","false",""
"","","","","","html-keyboard-response","149","272204","0.0-7.37-2.37","5e5bd584dafd983a690b9fc8","6579d0c5e56c6e1626038f86","6579d157d1d35728c5dc449d","null","<p> <font color=""red"" size=""5vw""> Wrong category! </font> <br> <br> <font color=""red"" size=""8vw""> - $0.05 </font> </p>","null","feedback","","","","","","","1.62"
"","","","","","html-keyboard-response","150","272556","0.0-7.38-0.38","5e5bd584dafd983a690b9fc8","6579d0c5e56c6e1626038f86","6579d157d1d35728c5dc449d","352","
            
        <div style=""text-align: center; position: fixed; top: 5vh; left: 40vw;"">
            <div style=""margin:0 auto; width: 20vw; top: 8vh; font-size: 2vw""> 
            <font color=""green""> Bonus : $1.62 </font>
            </div>
        </div>
    
            <div> Please press any key to continue to the next movie.</div>
        ","arrowright","ITI","","","","","","",""
"","","","","","html-keyboard-response","151","275193","0.0-7.38-1.38","5e5bd584dafd983a690b9fc8","6579d0c5e56c6e1626038f86","6579d157d1d35728c5dc449d","2636","./stimuli//pack_morph_shapes_1/cat_1/diff_5/ex_1_5_5.mp4","arrowleft","response","ArrowLeft","5","1","5","test","true",""
"","","","","","html-keyboard-response","152","276699","0.0-7.38-2.38","5e5bd584dafd983a690b9fc8","6579d0c5e56c6e1626038f86","6579d157d1d35728c5dc449d","null","<p> <font color=""green"" size=""5vw""> Correct category! </font> <br> <br> <font color=""green"" size=""8vw""> + $0.06 </font> </p>","null","feedback","","","","","","","1.68"
"","","","","","html-keyboard-response","153","277156","0.0-7.39-0.39","5e5bd584dafd983a690b9fc8","6579d0c5e56c6e1626038f86","6579d157d1d35728c5dc449d","457","
            
        <div style=""text-align: center; position: fixed; top: 5vh; left: 40vw;"">
            <div style=""margin:0 auto; width: 20vw; top: 8vh; font-size: 2vw""> 
            <font color=""green""> Bonus : $1.68 </font>
            </div>
        </div>
    
            <div> Please press any key to continue to the next movie.</div>
        ","arrowleft","ITI","","","","","","",""
"","","","","","html-keyboard-response","154","280176","0.0-7.39-1.39","5e5bd584dafd983a690b9fc8","6579d0c5e56c6e1626038f86","6579d157d1d35728c5dc449d","3019","./stimuli//pack_morph_shapes_1/cat_1/diff_4/ex_1_4_15.mp4","arrowright","response","ArrowLeft","15","1","4","test","false",""
"","","","","","html-keyboard-response","155","281682","0.0-7.39-2.39","5e5bd584dafd983a690b9fc8","6579d0c5e56c6e1626038f86","6579d157d1d35728c5dc449d","null","<p> <font color=""red"" size=""5vw""> Wrong category! </font> <br> <br> <font color=""red"" size=""8vw""> - $0.05 </font> </p>","null","feedback","","","","","","","1.63"
"","","","","","html-keyboard-response","156","282303","0.0-7.40-0.40","5e5bd584dafd983a690b9fc8","6579d0c5e56c6e1626038f86","6579d157d1d35728c5dc449d","621","
            
        <div style=""text-align: center; position: fixed; top: 5vh; left: 40vw;"">
            <div style=""margin:0 auto; width: 20vw; top: 8vh; font-size: 2vw""> 
            <font color=""green""> Bonus : $1.63 </font>
            </div>
        </div>
    
            <div> Please press any key to continue to the next movie.</div>
        ","arrowright","ITI","","","","","","",""
"","","","","","html-keyboard-response","157","284972","0.0-7.40-1.40","5e5bd584dafd983a690b9fc8","6579d0c5e56c6e1626038f86","6579d157d1d35728c5dc449d","2669","./stimuli//pack_morph_shapes_1/cat_1/diff_4/ex_1_4_14.mp4","arrowleft","response","ArrowLeft","14","1","4","test","true",""
"","","","","","html-keyboard-response","158","286479","0.0-7.40-2.40","5e5bd584dafd983a690b9fc8","6579d0c5e56c6e1626038f86","6579d157d1d35728c5dc449d","null","<p> <font color=""green"" size=""5vw""> Correct category! </font> <br> <br> <font color=""green"" size=""8vw""> + $0.06 </font> </p>","null","feedback","","","","","","","1.69"
"","","","","","html-keyboard-response","159","286845","0.0-7.41-0.41","5e5bd584dafd983a690b9fc8","6579d0c5e56c6e1626038f86","6579d157d1d35728c5dc449d","366","
            
        <div style=""text-align: center; position: fixed; top: 5vh; left: 40vw;"">
            <div style=""margin:0 auto; width: 20vw; top: 8vh; font-size: 2vw""> 
            <font color=""green""> Bonus : $1.69 </font>
            </div>
        </div>
    
            <div> Please press any key to continue to the next movie.</div>
        ","arrowleft","ITI","","","","","","",""
"","","","","","html-keyboard-response","160","289693","0.0-7.41-1.41","5e5bd584dafd983a690b9fc8","6579d0c5e56c6e1626038f86","6579d157d1d35728c5dc449d","2847","./stimuli//pack_morph_shapes_1/cat_1/diff_4/ex_1_4_4.mp4","arrowleft","response","ArrowLeft","4","1","4","test","true",""
"","","","","","html-keyboard-response","161","291204","0.0-7.41-2.41","5e5bd584dafd983a690b9fc8","6579d0c5e56c6e1626038f86","6579d157d1d35728c5dc449d","null","<p> <font color=""green"" size=""5vw""> Correct category! </font> <br> <br> <font color=""green"" size=""8vw""> + $0.06 </font> </p>","null","feedback","","","","","","","1.75"
"","","","","","html-keyboard-response","162","291858","0.0-7.42-0.42","5e5bd584dafd983a690b9fc8","6579d0c5e56c6e1626038f86","6579d157d1d35728c5dc449d","654","
            
        <div style=""text-align: center; position: fixed; top: 5vh; left: 40vw;"">
            <div style=""margin:0 auto; width: 20vw; top: 8vh; font-size: 2vw""> 
            <font color=""green""> Bonus : $1.75 </font>
            </div>
        </div>
    
            <div> Please press any key to continue to the next movie.</div>
        ","arrowleft","ITI","","","","","","",""
"","","","","","html-keyboard-response","163","294365","0.0-7.42-1.42","5e5bd584dafd983a690b9fc8","6579d0c5e56c6e1626038f86","6579d157d1d35728c5dc449d","2506","./stimuli//pack_morph_shapes_1/cat_2/diff_4/ex_2_4_16.mp4","arrowright","response","ArrowRight","16","2","4","test","true",""
"","","","","","html-keyboard-response","164","295868","0.0-7.42-2.42","5e5bd584dafd983a690b9fc8","6579d0c5e56c6e1626038f86","6579d157d1d35728c5dc449d","null","<p> <font color=""green"" size=""5vw""> Correct category! </font> <br> <br> <font color=""green"" size=""8vw""> + $0.06 </font> </p>","null","feedback","","","","","","","1.81"
"","","","","","html-keyboard-response","165","296110","0.0-7.43-0.43","5e5bd584dafd983a690b9fc8","6579d0c5e56c6e1626038f86","6579d157d1d35728c5dc449d","242","
            
        <div style=""text-align: center; position: fixed; top: 5vh; left: 40vw;"">
            <div style=""margin:0 auto; width: 20vw; top: 8vh; font-size: 2vw""> 
            <font color=""green""> Bonus : $1.81 </font>
            </div>
        </div>
    
            <div> Please press any key to continue to the next movie.</div>
        ","arrowright","ITI","","","","","","",""
"","","","","","html-keyboard-response","166","298370","0.0-7.43-1.43","5e5bd584dafd983a690b9fc8","6579d0c5e56c6e1626038f86","6579d157d1d35728c5dc449d","2259","./stimuli//pack_morph_shapes_1/cat_2/diff_4/ex_2_4_14.mp4","arrowright","response","ArrowRight","14","2","4","test","true",""
"","","","","","html-keyboard-response","167","299880","0.0-7.43-2.43","5e5bd584dafd983a690b9fc8","6579d0c5e56c6e1626038f86","6579d157d1d35728c5dc449d","null","<p> <font color=""green"" size=""5vw""> Correct category! </font> <br> <br> <font color=""green"" size=""8vw""> + $0.06 </font> </p>","null","feedback","","","","","","","1.87"
"","","","","","html-keyboard-response","168","300166","0.0-7.44-0.44","5e5bd584dafd983a690b9fc8","6579d0c5e56c6e1626038f86","6579d157d1d35728c5dc449d","285","
            
        <div style=""text-align: center; position: fixed; top: 5vh; left: 40vw;"">
            <div style=""margin:0 auto; width: 20vw; top: 8vh; font-size: 2vw""> 
            <font color=""green""> Bonus : $1.87 </font>
            </div>
        </div>
    
            <div> Please press any key to continue to the next movie.</div>
        ","arrowright","ITI","","","","","","",""
"","","","","","html-keyboard-response","169","302821","0.0-7.44-1.44","5e5bd584dafd983a690b9fc8","6579d0c5e56c6e1626038f86","6579d157d1d35728c5dc449d","2654","./stimuli//pack_morph_shapes_1/cat_1/diff_5/ex_1_5_15.mp4","arrowright","response","ArrowLeft","15","1","5","test","false",""
"","","","","","html-keyboard-response","170","304324","0.0-7.44-2.44","5e5bd584dafd983a690b9fc8","6579d0c5e56c6e1626038f86","6579d157d1d35728c5dc449d","null","<p> <font color=""red"" size=""5vw""> Wrong category! </font> <br> <br> <font color=""red"" size=""8vw""> - $0.05 </font> </p>","null","feedback","","","","","","","1.82"
"","","","","","html-keyboard-response","171","304707","0.0-7.45-0.45","5e5bd584dafd983a690b9fc8","6579d0c5e56c6e1626038f86","6579d157d1d35728c5dc449d","383","
            
        <div style=""text-align: center; position: fixed; top: 5vh; left: 40vw;"">
            <div style=""margin:0 auto; width: 20vw; top: 8vh; font-size: 2vw""> 
            <font color=""green""> Bonus : $1.82 </font>
            </div>
        </div>
    
            <div> Please press any key to continue to the next movie.</div>
        ","arrowright","ITI","","","","","","",""
"","","","","","html-keyboard-response","172","306626","0.0-7.45-1.45","5e5bd584dafd983a690b9fc8","6579d0c5e56c6e1626038f86","6579d157d1d35728c5dc449d","1918","./stimuli//pack_morph_shapes_1/cat_2/diff_5/ex_2_5_7.mp4","arrowleft","response","ArrowRight","7","2","5","test","false",""
"","","","","","html-keyboard-response","173","308133","0.0-7.45-2.45","5e5bd584dafd983a690b9fc8","6579d0c5e56c6e1626038f86","6579d157d1d35728c5dc449d","null","<p> <font color=""red"" size=""5vw""> Wrong category! </font> <br> <br> <font color=""red"" size=""8vw""> - $0.05 </font> </p>","null","feedback","","","","","","","1.77"
"","","","","","html-keyboard-response","174","308711","0.0-7.46-0.46","5e5bd584dafd983a690b9fc8","6579d0c5e56c6e1626038f86","6579d157d1d35728c5dc449d","578","
            
        <div style=""text-align: center; position: fixed; top: 5vh; left: 40vw;"">
            <div style=""margin:0 auto; width: 20vw; top: 8vh; font-size: 2vw""> 
            <font color=""green""> Bonus : $1.77 </font>
            </div>
        </div>
    
            <div> Please press any key to continue to the next movie.</div>
        ","arrowright","ITI","","","","","","",""
"","","","","","html-keyboard-response","175","311457","0.0-7.46-1.46","5e5bd584dafd983a690b9fc8","6579d0c5e56c6e1626038f86","6579d157d1d35728c5dc449d","2745","./stimuli//pack_morph_shapes_1/cat_2/diff_5/ex_2_5_8.mp4","arrowright","response","ArrowRight","8","2","5","test","true",""
"","","","","","html-keyboard-response","176","312968","0.0-7.46-2.46","5e5bd584dafd983a690b9fc8","6579d0c5e56c6e1626038f86","6579d157d1d35728c5dc449d","null","<p> <font color=""green"" size=""5vw""> Correct category! </font> <br> <br> <font color=""green"" size=""8vw""> + $0.06 </font> </p>","null","feedback","","","","","","","1.83"
"","","","","","html-keyboard-response","177","313430","0.0-7.47-0.47","5e5bd584dafd983a690b9fc8","6579d0c5e56c6e1626038f86","6579d157d1d35728c5dc449d","462","
            
        <div style=""text-align: center; position: fixed; top: 5vh; left: 40vw;"">
            <div style=""margin:0 auto; width: 20vw; top: 8vh; font-size: 2vw""> 
            <font color=""green""> Bonus : $1.83 </font>
            </div>
        </div>
    
            <div> Please press any key to continue to the next movie.</div>
        ","arrowright","ITI","","","","","","",""
"","","","","","html-keyboard-response","178","316394","0.0-7.47-1.47","5e5bd584dafd983a690b9fc8","6579d0c5e56c6e1626038f86","6579d157d1d35728c5dc449d","2963","./stimuli//pack_morph_shapes_1/cat_2/diff_5/ex_2_5_12.mp4","arrowright","response","ArrowRight","12","2","5","test","true",""
"","","","","","html-keyboard-response","179","317902","0.0-7.47-2.47","5e5bd584dafd983a690b9fc8","6579d0c5e56c6e1626038f86","6579d157d1d35728c5dc449d","null","<p> <font color=""green"" size=""5vw""> Correct category! </font> <br> <br> <font color=""green"" size=""8vw""> + $0.06 </font> </p>","null","feedback","","","","","","","1.89"
"","","","","","html-keyboard-response","180","318266","0.0-7.48-0.48","5e5bd584dafd983a690b9fc8","6579d0c5e56c6e1626038f86","6579d157d1d35728c5dc449d","364","
            
        <div style=""text-align: center; position: fixed; top: 5vh; left: 40vw;"">
            <div style=""margin:0 auto; width: 20vw; top: 8vh; font-size: 2vw""> 
            <font color=""green""> Bonus : $1.89 </font>
            </div>
        </div>
    
            <div> Please press any key to continue to the next movie.</div>
        ","arrowright","ITI","","","","","","",""
"","","","","","html-keyboard-response","181","320932","0.0-7.48-1.48","5e5bd584dafd983a690b9fc8","6579d0c5e56c6e1626038f86","6579d157d1d35728c5dc449d","2665","./stimuli//pack_morph_shapes_1/cat_1/diff_5/ex_1_5_10.mp4","arrowleft","response","ArrowLeft","10","1","5","test","true",""
"","","","","","html-keyboard-response","182","322442","0.0-7.48-2.48","5e5bd584dafd983a690b9fc8","6579d0c5e56c6e1626038f86","6579d157d1d35728c5dc449d","null","<p> <font color=""green"" size=""5vw""> Correct category! </font> <br> <br> <font color=""green"" size=""8vw""> + $0.06 </font> </p>","null","feedback","","","","","","","1.95"
"","","","","","html-keyboard-response","183","322685","0.0-7.49-0.49","5e5bd584dafd983a690b9fc8","6579d0c5e56c6e1626038f86","6579d157d1d35728c5dc449d","242","
            
        <div style=""text-align: center; position: fixed; top: 5vh; left: 40vw;"">
            <div style=""margin:0 auto; width: 20vw; top: 8vh; font-size: 2vw""> 
            <font color=""green""> Bonus : $1.95 </font>
            </div>
        </div>
    
            <div> Please press any key to continue to the next movie.</div>
        ","arrowleft","ITI","","","","","","",""
"","","","","","html-keyboard-response","184","325314","0.0-7.49-1.49","5e5bd584dafd983a690b9fc8","6579d0c5e56c6e1626038f86","6579d157d1d35728c5dc449d","2628","./stimuli//pack_morph_shapes_1/cat_2/diff_4/ex_2_4_16.mp4","arrowright","response","ArrowRight","16","2","4","test","true",""
"","","","","","html-keyboard-response","185","326821","0.0-7.49-2.49","5e5bd584dafd983a690b9fc8","6579d0c5e56c6e1626038f86","6579d157d1d35728c5dc449d","null","<p> <font color=""green"" size=""5vw""> Correct category! </font> <br> <br> <font color=""green"" size=""8vw""> + $0.06 </font> </p>","null","feedback","","","","","","","2.01"
"","","","","","html-keyboard-response","186","327235","0.0-7.50-0.50","5e5bd584dafd983a690b9fc8","6579d0c5e56c6e1626038f86","6579d157d1d35728c5dc449d","413","
            
        <div style=""text-align: center; position: fixed; top: 5vh; left: 40vw;"">
            <div style=""margin:0 auto; width: 20vw; top: 8vh; font-size: 2vw""> 
            <font color=""green""> Bonus : $2.01 </font>
            </div>
        </div>
    
            <div> Please press any key to continue to the next movie.</div>
        ","arrowright","ITI","","","","","","",""
"","","","","","html-keyboard-response","187","329978","0.0-7.50-1.50","5e5bd584dafd983a690b9fc8","6579d0c5e56c6e1626038f86","6579d157d1d35728c5dc449d","2743","./stimuli//pack_morph_shapes_1/cat_1/diff_4/ex_1_4_14.mp4","arrowleft","response","ArrowLeft","14","1","4","test","true",""
"","","","","","html-keyboard-response","188","331486","0.0-7.50-2.50","5e5bd584dafd983a690b9fc8","6579d0c5e56c6e1626038f86","6579d157d1d35728c5dc449d","null","<p> <font color=""green"" size=""5vw""> Correct category! </font> <br> <br> <font color=""green"" size=""8vw""> + $0.06 </font> </p>","null","feedback","","","","","","","2.07"
"","","","","","html-keyboard-response","189","331805","0.0-7.51-0.51","5e5bd584dafd983a690b9fc8","6579d0c5e56c6e1626038f86","6579d157d1d35728c5dc449d","319","
            
        <div style=""text-align: center; position: fixed; top: 5vh; left: 40vw;"">
            <div style=""margin:0 auto; width: 20vw; top: 8vh; font-size: 2vw""> 
            <font color=""green""> Bonus : $2.07 </font>
            </div>
        </div>
    
            <div> Please press any key to continue to the next movie.</div>
        ","arrowleft","ITI","","","","","","",""
"","","","","","html-keyboard-response","190","334528","0.0-7.51-1.51","5e5bd584dafd983a690b9fc8","6579d0c5e56c6e1626038f86","6579d157d1d35728c5dc449d","2721","./stimuli//pack_morph_shapes_1/cat_1/diff_4/ex_1_4_1.mp4","arrowright","response","ArrowLeft","1","1","4","test","false",""
"","","","","","html-keyboard-response","191","336029","0.0-7.51-2.51","5e5bd584dafd983a690b9fc8","6579d0c5e56c6e1626038f86","6579d157d1d35728c5dc449d","null","<p> <font color=""red"" size=""5vw""> Wrong category! </font> <br> <br> <font color=""red"" size=""8vw""> - $0.05 </font> </p>","null","feedback","","","","","","","2.02"
"","","","","","html-keyboard-response","192","336360","0.0-7.52-0.52","5e5bd584dafd983a690b9fc8","6579d0c5e56c6e1626038f86","6579d157d1d35728c5dc449d","331","
            
        <div style=""text-align: center; position: fixed; top: 5vh; left: 40vw;"">
            <div style=""margin:0 auto; width: 20vw; top: 8vh; font-size: 2vw""> 
            <font color=""green""> Bonus : $2.02 </font>
            </div>
        </div>
    
            <div> Please press any key to continue to the next movie.</div>
        ","arrowright","ITI","","","","","","",""
"","","","","","html-keyboard-response","193","339294","0.0-7.52-1.52","5e5bd584dafd983a690b9fc8","6579d0c5e56c6e1626038f86","6579d157d1d35728c5dc449d","2933","./stimuli//pack_morph_shapes_1/cat_1/diff_4/ex_1_4_4.mp4","arrowleft","response","ArrowLeft","4","1","4","test","true",""
"","","","","","html-keyboard-response","194","340807","0.0-7.52-2.52","5e5bd584dafd983a690b9fc8","6579d0c5e56c6e1626038f86","6579d157d1d35728c5dc449d","null","<p> <font color=""green"" size=""5vw""> Correct category! </font> <br> <br> <font color=""green"" size=""8vw""> + $0.06 </font> </p>","null","feedback","","","","","","","2.08"
"","","","","","html-keyboard-response","195","341302","0.0-7.53-0.53","5e5bd584dafd983a690b9fc8","6579d0c5e56c6e1626038f86","6579d157d1d35728c5dc449d","495","
            
        <div style=""text-align: center; position: fixed; top: 5vh; left: 40vw;"">
            <div style=""margin:0 auto; width: 20vw; top: 8vh; font-size: 2vw""> 
            <font color=""green""> Bonus : $2.08 </font>
            </div>
        </div>
    
            <div> Please press any key to continue to the next movie.</div>
        ","arrowleft","ITI","","","","","","",""
"","","","","","html-keyboard-response","196","344203","0.0-7.53-1.53","5e5bd584dafd983a690b9fc8","6579d0c5e56c6e1626038f86","6579d157d1d35728c5dc449d","2900","./stimuli//pack_morph_shapes_1/cat_1/diff_4/ex_1_4_8.mp4","arrowleft","response","ArrowLeft","8","1","4","test","true",""
"","","","","","html-keyboard-response","197","345714","0.0-7.53-2.53","5e5bd584dafd983a690b9fc8","6579d0c5e56c6e1626038f86","6579d157d1d35728c5dc449d","null","<p> <font color=""green"" size=""5vw""> Correct category! </font> <br> <br> <font color=""green"" size=""8vw""> + $0.06 </font> </p>","null","feedback","","","","","","","2.14"
"","","","","","html-keyboard-response","198","345999","0.0-7.54-0.54","5e5bd584dafd983a690b9fc8","6579d0c5e56c6e1626038f86","6579d157d1d35728c5dc449d","284","
            
        <div style=""text-align: center; position: fixed; top: 5vh; left: 40vw;"">
            <div style=""margin:0 auto; width: 20vw; top: 8vh; font-size: 2vw""> 
            <font color=""green""> Bonus : $2.14 </font>
            </div>
        </div>
    
            <div> Please press any key to continue to the next movie.</div>
        ","arrowleft","ITI","","","","","","",""
"","","","","","html-keyboard-response","199","348487","0.0-7.54-1.54","5e5bd584dafd983a690b9fc8","6579d0c5e56c6e1626038f86","6579d157d1d35728c5dc449d","2487","./stimuli//pack_morph_shapes_1/cat_1/diff_5/ex_1_5_5.mp4","arrowleft","response","ArrowLeft","5","1","5","test","true",""
"","","","","","html-keyboard-response","200","349995","0.0-7.54-2.54","5e5bd584dafd983a690b9fc8","6579d0c5e56c6e1626038f86","6579d157d1d35728c5dc449d","null","<p> <font color=""green"" size=""5vw""> Correct category! </font> <br> <br> <font color=""green"" size=""8vw""> + $0.06 </font> </p>","null","feedback","","","","","","","2.2"
"","","","","","html-keyboard-response","201","350206","0.0-7.55-0.55","5e5bd584dafd983a690b9fc8","6579d0c5e56c6e1626038f86","6579d157d1d35728c5dc449d","210","
            
        <div style=""text-align: center; position: fixed; top: 5vh; left: 40vw;"">
            <div style=""margin:0 auto; width: 20vw; top: 8vh; font-size: 2vw""> 
            <font color=""green""> Bonus : $2.2 </font>
            </div>
        </div>
    
            <div> Please press any key to continue to the next movie.</div>
        ","arrowleft","ITI","","","","","","",""
"","","","","","html-keyboard-response","202","352691","0.0-7.55-1.55","5e5bd584dafd983a690b9fc8","6579d0c5e56c6e1626038f86","6579d157d1d35728c5dc449d","2485","./stimuli//pack_morph_shapes_1/cat_1/diff_5/ex_1_5_17.mp4","arrowright","response","ArrowLeft","17","1","5","test","false",""
"","","","","","html-keyboard-response","203","354202","0.0-7.55-2.55","5e5bd584dafd983a690b9fc8","6579d0c5e56c6e1626038f86","6579d157d1d35728c5dc449d","null","<p> <font color=""red"" size=""5vw""> Wrong category! </font> <br> <br> <font color=""red"" size=""8vw""> - $0.05 </font> </p>","null","feedback","","","","","","","2.15"
"","","","","","html-keyboard-response","204","354630","0.0-7.56-0.56","5e5bd584dafd983a690b9fc8","6579d0c5e56c6e1626038f86","6579d157d1d35728c5dc449d","428","
            
        <div style=""text-align: center; position: fixed; top: 5vh; left: 40vw;"">
            <div style=""margin:0 auto; width: 20vw; top: 8vh; font-size: 2vw""> 
            <font color=""green""> Bonus : $2.15 </font>
            </div>
        </div>
    
            <div> Please press any key to continue to the next movie.</div>
        ","arrowright","ITI","","","","","","",""
"","","","","","html-keyboard-response","205","357389","0.0-7.56-1.56","5e5bd584dafd983a690b9fc8","6579d0c5e56c6e1626038f86","6579d157d1d35728c5dc449d","2758","./stimuli//pack_morph_shapes_1/cat_1/diff_5/ex_1_5_14.mp4","arrowleft","response","ArrowLeft","14","1","5","test","true",""
"","","","","","html-keyboard-response","206","358900","0.0-7.56-2.56","5e5bd584dafd983a690b9fc8","6579d0c5e56c6e1626038f86","6579d157d1d35728c5dc449d","null","<p> <font color=""green"" size=""5vw""> Correct category! </font> <br> <br> <font color=""green"" size=""8vw""> + $0.06 </font> </p>","null","feedback","","","","","","","2.21"
"","","","","","html-keyboard-response","207","359316","0.0-7.57-0.57","5e5bd584dafd983a690b9fc8","6579d0c5e56c6e1626038f86","6579d157d1d35728c5dc449d","416","
            
        <div style=""text-align: center; position: fixed; top: 5vh; left: 40vw;"">
            <div style=""margin:0 auto; width: 20vw; top: 8vh; font-size: 2vw""> 
            <font color=""green""> Bonus : $2.21 </font>
            </div>
        </div>
    
            <div> Please press any key to continue to the next movie.</div>
        ","arrowleft","ITI","","","","","","",""
"","","","","","html-keyboard-response","208","361908","0.0-7.57-1.57","5e5bd584dafd983a690b9fc8","6579d0c5e56c6e1626038f86","6579d157d1d35728c5dc449d","2592","./stimuli//pack_morph_shapes_1/cat_2/diff_5/ex_2_5_2.mp4","arrowright","response","ArrowRight","2","2","5","test","true",""
"","","","","","html-keyboard-response","209","363414","0.0-7.57-2.57","5e5bd584dafd983a690b9fc8","6579d0c5e56c6e1626038f86","6579d157d1d35728c5dc449d","null","<p> <font color=""green"" size=""5vw""> Correct category! </font> <br> <br> <font color=""green"" size=""8vw""> + $0.06 </font> </p>","null","feedback","","","","","","","2.27"
"","","","","","html-keyboard-response","210","363866","0.0-7.58-0.58","5e5bd584dafd983a690b9fc8","6579d0c5e56c6e1626038f86","6579d157d1d35728c5dc449d","452","
            
        <div style=""text-align: center; position: fixed; top: 5vh; left: 40vw;"">
            <div style=""margin:0 auto; width: 20vw; top: 8vh; font-size: 2vw""> 
            <font color=""green""> Bonus : $2.27 </font>
            </div>
        </div>
    
            <div> Please press any key to continue to the next movie.</div>
        ","arrowright","ITI","","","","","","",""
"","","","","","html-keyboard-response","211","366411","0.0-7.58-1.58","5e5bd584dafd983a690b9fc8","6579d0c5e56c6e1626038f86","6579d157d1d35728c5dc449d","2544","./stimuli//pack_morph_shapes_1/cat_2/diff_5/ex_2_5_1.mp4","arrowright","response","ArrowRight","1","2","5","test","true",""
"","","","","","html-keyboard-response","212","367913","0.0-7.58-2.58","5e5bd584dafd983a690b9fc8","6579d0c5e56c6e1626038f86","6579d157d1d35728c5dc449d","null","<p> <font color=""green"" size=""5vw""> Correct category! </font> <br> <br> <font color=""green"" size=""8vw""> + $0.06 </font> </p>","null","feedback","","","","","","","2.33"
"","","","","","html-keyboard-response","213","368291","0.0-7.59-0.59","5e5bd584dafd983a690b9fc8","6579d0c5e56c6e1626038f86","6579d157d1d35728c5dc449d","377","
            
        <div style=""text-align: center; position: fixed; top: 5vh; left: 40vw;"">
            <div style=""margin:0 auto; width: 20vw; top: 8vh; font-size: 2vw""> 
            <font color=""green""> Bonus : $2.33 </font>
            </div>
        </div>
    
            <div> Please press any key to continue to the next movie.</div>
        ","arrowright","ITI","","","","","","",""
"","","","","","html-keyboard-response","214","370615","0.0-7.59-1.59","5e5bd584dafd983a690b9fc8","6579d0c5e56c6e1626038f86","6579d157d1d35728c5dc449d","2324","./stimuli//pack_morph_shapes_1/cat_1/diff_5/ex_1_5_17.mp4","arrowright","response","ArrowLeft","17","1","5","test","false",""
"","","","","","html-keyboard-response","215","372131","0.0-7.59-2.59","5e5bd584dafd983a690b9fc8","6579d0c5e56c6e1626038f86","6579d157d1d35728c5dc449d","null","<p> <font color=""red"" size=""5vw""> Wrong category! </font> <br> <br> <font color=""red"" size=""8vw""> - $0.05 </font> </p>","null","feedback","","","","","","","2.28"
"","","","","","html-keyboard-response","216","372801","0.0-7.60-0.60","5e5bd584dafd983a690b9fc8","6579d0c5e56c6e1626038f86","6579d157d1d35728c5dc449d","670","
            
        <div style=""text-align: center; position: fixed; top: 5vh; left: 40vw;"">
            <div style=""margin:0 auto; width: 20vw; top: 8vh; font-size: 2vw""> 
            <font color=""green""> Bonus : $2.28 </font>
            </div>
        </div>
    
            <div> Please press any key to continue to the next movie.</div>
        ","arrowright","ITI","","","","","","",""
"","","","","","html-keyboard-response","217","375647","0.0-7.60-1.60","5e5bd584dafd983a690b9fc8","6579d0c5e56c6e1626038f86","6579d157d1d35728c5dc449d","2845","./stimuli//pack_morph_shapes_1/cat_1/diff_4/ex_1_4_12.mp4","arrowleft","response","ArrowLeft","12","1","4","test","true",""
"","","","","","html-keyboard-response","218","377150","0.0-7.60-2.60","5e5bd584dafd983a690b9fc8","6579d0c5e56c6e1626038f86","6579d157d1d35728c5dc449d","null","<p> <font color=""green"" size=""5vw""> Correct category! </font> <br> <br> <font color=""green"" size=""8vw""> + $0.06 </font> </p>","null","feedback","","","","","","","2.34"
"","","","","","html-keyboard-response","219","378029","0.0-7.61-0.61","5e5bd584dafd983a690b9fc8","6579d0c5e56c6e1626038f86","6579d157d1d35728c5dc449d","879","
            
        <div style=""text-align: center; position: fixed; top: 5vh; left: 40vw;"">
            <div style=""margin:0 auto; width: 20vw; top: 8vh; font-size: 2vw""> 
            <font color=""green""> Bonus : $2.34 </font>
            </div>
        </div>
    
            <div> Please press any key to continue to the next movie.</div>
        ","arrowright","ITI","","","","","","",""
"","","","","","html-keyboard-response","220","381038","0.0-7.61-1.61","5e5bd584dafd983a690b9fc8","6579d0c5e56c6e1626038f86","6579d157d1d35728c5dc449d","3008","./stimuli//pack_morph_shapes_1/cat_2/diff_4/ex_2_4_15.mp4","arrowright","response","ArrowRight","15","2","4","test","true",""
"","","","","","html-keyboard-response","221","382541","0.0-7.61-2.61","5e5bd584dafd983a690b9fc8","6579d0c5e56c6e1626038f86","6579d157d1d35728c5dc449d","null","<p> <font color=""green"" size=""5vw""> Correct category! </font> <br> <br> <font color=""green"" size=""8vw""> + $0.05 </font> </p>","null","feedback","","","","","","","2.39"
"","","","","","html-keyboard-response","222","382890","0.0-7.62-0.62","5e5bd584dafd983a690b9fc8","6579d0c5e56c6e1626038f86","6579d157d1d35728c5dc449d","348","
            
        <div style=""text-align: center; position: fixed; top: 5vh; left: 40vw;"">
            <div style=""margin:0 auto; width: 20vw; top: 8vh; font-size: 2vw""> 
            <font color=""green""> Bonus : $2.39 </font>
            </div>
        </div>
    
            <div> Please press any key to continue to the next movie.</div>
        ","arrowright","ITI","","","","","","",""
"","","","","","html-keyboard-response","223","385211","0.0-7.62-1.62","5e5bd584dafd983a690b9fc8","6579d0c5e56c6e1626038f86","6579d157d1d35728c5dc449d","2321","./stimuli//pack_morph_shapes_1/cat_2/diff_4/ex_2_4_14.mp4","arrowright","response","ArrowRight","14","2","4","test","true",""
"","","","","","html-keyboard-response","224","386724","0.0-7.62-2.62","5e5bd584dafd983a690b9fc8","6579d0c5e56c6e1626038f86","6579d157d1d35728c5dc449d","null","<p> <font color=""green"" size=""5vw""> Correct category! </font> <br> <br> <font color=""green"" size=""8vw""> + $0.06 </font> </p>","null","feedback","","","","","","","2.45"
"","","","","","html-keyboard-response","225","386973","0.0-7.63-0.63","5e5bd584dafd983a690b9fc8","6579d0c5e56c6e1626038f86","6579d157d1d35728c5dc449d","248","
            
        <div style=""text-align: center; position: fixed; top: 5vh; left: 40vw;"">
            <div style=""margin:0 auto; width: 20vw; top: 8vh; font-size: 2vw""> 
            <font color=""green""> Bonus : $2.45 </font>
            </div>
        </div>
    
            <div> Please press any key to continue to the next movie.</div>
        ","arrowright","ITI","","","","","","",""
"","","","","","html-keyboard-response","226","389344","0.0-7.63-1.63","5e5bd584dafd983a690b9fc8","6579d0c5e56c6e1626038f86","6579d157d1d35728c5dc449d","2370","./stimuli//pack_morph_shapes_1/cat_1/diff_4/ex_1_4_6.mp4","arrowright","response","ArrowLeft","6","1","4","test","false",""
"","","","","","html-keyboard-response","227","390853","0.0-7.63-2.63","5e5bd584dafd983a690b9fc8","6579d0c5e56c6e1626038f86","6579d157d1d35728c5dc449d","null","<p> <font color=""red"" size=""5vw""> Wrong category! </font> <br> <br> <font color=""red"" size=""8vw""> - $0.05 </font> </p>","null","feedback","","","","","","","2.4"
"","","","","","html-keyboard-response","228","391176","0.0-7.64-0.64","5e5bd584dafd983a690b9fc8","6579d0c5e56c6e1626038f86","6579d157d1d35728c5dc449d","322","
            
        <div style=""text-align: center; position: fixed; top: 5vh; left: 40vw;"">
            <div style=""margin:0 auto; width: 20vw; top: 8vh; font-size: 2vw""> 
            <font color=""green""> Bonus : $2.4 </font>
            </div>
        </div>
    
            <div> Please press any key to continue to the next movie.</div>
        ","arrowright","ITI","","","","","","",""
"","","","","","html-keyboard-response","229","393894","0.0-7.64-1.64","5e5bd584dafd983a690b9fc8","6579d0c5e56c6e1626038f86","6579d157d1d35728c5dc449d","2717","./stimuli//pack_morph_shapes_1/cat_2/diff_4/ex_2_4_17.mp4","arrowright","response","ArrowRight","17","2","4","test","true",""
"","","","","","html-keyboard-response","230","395397","0.0-7.64-2.64","5e5bd584dafd983a690b9fc8","6579d0c5e56c6e1626038f86","6579d157d1d35728c5dc449d","null","<p> <font color=""green"" size=""5vw""> Correct category! </font> <br> <br> <font color=""green"" size=""8vw""> + $0.06 </font> </p>","null","feedback","","","","","","","2.46"
"","","","","","html-keyboard-response","231","395900","0.0-7.65-0.65","5e5bd584dafd983a690b9fc8","6579d0c5e56c6e1626038f86","6579d157d1d35728c5dc449d","503","
            
        <div style=""text-align: center; position: fixed; top: 5vh; left: 40vw;"">
            <div style=""margin:0 auto; width: 20vw; top: 8vh; font-size: 2vw""> 
            <font color=""green""> Bonus : $2.46 </font>
            </div>
        </div>
    
            <div> Please press any key to continue to the next movie.</div>
        ","arrowright","ITI","","","","","","",""
"","","","","","html-keyboard-response","232","398145","0.0-7.65-1.65","5e5bd584dafd983a690b9fc8","6579d0c5e56c6e1626038f86","6579d157d1d35728c5dc449d","2245","./stimuli//pack_morph_shapes_1/cat_1/diff_5/ex_1_5_9.mp4","arrowright","response","ArrowLeft","9","1","5","test","false",""
"","","","","","html-keyboard-response","233","399650","0.0-7.65-2.65","5e5bd584dafd983a690b9fc8","6579d0c5e56c6e1626038f86","6579d157d1d35728c5dc449d","null","<p> <font color=""red"" size=""5vw""> Wrong category! </font> <br> <br> <font color=""red"" size=""8vw""> - $0.05 </font> </p>","null","feedback","","","","","","","2.41"
"","","","","","html-keyboard-response","234","399952","0.0-7.66-0.66","5e5bd584dafd983a690b9fc8","6579d0c5e56c6e1626038f86","6579d157d1d35728c5dc449d","302","
            
        <div style=""text-align: center; position: fixed; top: 5vh; left: 40vw;"">
            <div style=""margin:0 auto; width: 20vw; top: 8vh; font-size: 2vw""> 
            <font color=""green""> Bonus : $2.41 </font>
            </div>
        </div>
    
            <div> Please press any key to continue to the next movie.</div>
        ","arrowright","ITI","","","","","","",""
"","","","","","html-keyboard-response","235","402495","0.0-7.66-1.66","5e5bd584dafd983a690b9fc8","6579d0c5e56c6e1626038f86","6579d157d1d35728c5dc449d","2542","./stimuli//pack_morph_shapes_1/cat_1/diff_5/ex_1_5_1.mp4","arrowleft","response","ArrowLeft","1","1","5","test","true",""
"","","","","","html-keyboard-response","236","404008","0.0-7.66-2.66","5e5bd584dafd983a690b9fc8","6579d0c5e56c6e1626038f86","6579d157d1d35728c5dc449d","null","<p> <font color=""green"" size=""5vw""> Correct category! </font> <br> <br> <font color=""green"" size=""8vw""> + $0.06 </font> </p>","null","feedback","","","","","","","2.47"
"","","","","","html-keyboard-response","237","404359","0.0-7.67-0.67","5e5bd584dafd983a690b9fc8","6579d0c5e56c6e1626038f86","6579d157d1d35728c5dc449d","350","
            
        <div style=""text-align: center; position: fixed; top: 5vh; left: 40vw;"">
            <div style=""margin:0 auto; width: 20vw; top: 8vh; font-size: 2vw""> 
            <font color=""green""> Bonus : $2.47 </font>
            </div>
        </div>
    
            <div> Please press any key to continue to the next movie.</div>
        ","arrowleft","ITI","","","","","","",""
"","","","","","html-keyboard-response","238","407024","0.0-7.67-1.67","5e5bd584dafd983a690b9fc8","6579d0c5e56c6e1626038f86","6579d157d1d35728c5dc449d","2663","./stimuli//pack_morph_shapes_1/cat_1/diff_5/ex_1_5_2.mp4","arrowleft","response","ArrowLeft","2","1","5","test","true",""
"","","","","","html-keyboard-response","239","408529","0.0-7.67-2.67","5e5bd584dafd983a690b9fc8","6579d0c5e56c6e1626038f86","6579d157d1d35728c5dc449d","null","<p> <font color=""green"" size=""5vw""> Correct category! </font> <br> <br> <font color=""green"" size=""8vw""> + $0.06 </font> </p>","null","feedback","","","","","","","2.53"
"","","","","","html-keyboard-response","240","409112","0.0-7.68-0.68","5e5bd584dafd983a690b9fc8","6579d0c5e56c6e1626038f86","6579d157d1d35728c5dc449d","583","
            
        <div style=""text-align: center; position: fixed; top: 5vh; left: 40vw;"">
            <div style=""margin:0 auto; width: 20vw; top: 8vh; font-size: 2vw""> 
            <font color=""green""> Bonus : $2.53 </font>
            </div>
        </div>
    
            <div> Please press any key to continue to the next movie.</div>
        ","arrowright","ITI","","","","","","",""
"","","","","","html-keyboard-response","241","411933","0.0-7.68-1.68","5e5bd584dafd983a690b9fc8","6579d0c5e56c6e1626038f86","6579d157d1d35728c5dc449d","2820","./stimuli//pack_morph_shapes_1/cat_1/diff_5/ex_1_5_13.mp4","arrowleft","response","ArrowLeft","13","1","5","test","true",""
"","","","","","html-keyboard-response","242","413435","0.0-7.68-2.68","5e5bd584dafd983a690b9fc8","6579d0c5e56c6e1626038f86","6579d157d1d35728c5dc449d","null","<p> <font color=""green"" size=""5vw""> Correct category! </font> <br> <br> <font color=""green"" size=""8vw""> + $0.06 </font> </p>","null","feedback","","","","","","","2.59"
"","","","","","html-keyboard-response","243","413755","0.0-7.69-0.69","5e5bd584dafd983a690b9fc8","6579d0c5e56c6e1626038f86","6579d157d1d35728c5dc449d","319","
            
        <div style=""text-align: center; position: fixed; top: 5vh; left: 40vw;"">
            <div style=""margin:0 auto; width: 20vw; top: 8vh; font-size: 2vw""> 
            <font color=""green""> Bonus : $2.59 </font>
            </div>
        </div>
    
            <div> Please press any key to continue to the next movie.</div>
        ","arrowleft","ITI","","","","","","",""
"","","","","","html-keyboard-response","244","416524","0.0-7.69-1.69","5e5bd584dafd983a690b9fc8","6579d0c5e56c6e1626038f86","6579d157d1d35728c5dc449d","2769","./stimuli//pack_morph_shapes_1/cat_2/diff_5/ex_2_5_17.mp4","arrowleft","response","ArrowRight","17","2","5","test","false",""
"","","","","","html-keyboard-response","245","418027","0.0-7.69-2.69","5e5bd584dafd983a690b9fc8","6579d0c5e56c6e1626038f86","6579d157d1d35728c5dc449d","null","<p> <font color=""red"" size=""5vw""> Wrong category! </font> <br> <br> <font color=""red"" size=""8vw""> - $0.05 </font> </p>","null","feedback","","","","","","","2.54"
"","","","","","html-keyboard-response","246","418334","0.0-7.70-0.70","5e5bd584dafd983a690b9fc8","6579d0c5e56c6e1626038f86","6579d157d1d35728c5dc449d","307","
            
        <div style=""text-align: center; position: fixed; top: 5vh; left: 40vw;"">
            <div style=""margin:0 auto; width: 20vw; top: 8vh; font-size: 2vw""> 
            <font color=""green""> Bonus : $2.54 </font>
            </div>
        </div>
    
            <div> Please press any key to continue to the next movie.</div>
        ","arrowright","ITI","","","","","","",""
"","","","","","html-keyboard-response","247","420972","0.0-7.70-1.70","5e5bd584dafd983a690b9fc8","6579d0c5e56c6e1626038f86","6579d157d1d35728c5dc449d","2637","./stimuli//pack_morph_shapes_1/cat_1/diff_4/ex_1_4_6.mp4","arrowleft","response","ArrowLeft","6","1","4","test","true",""
"","","","","","html-keyboard-response","248","422477","0.0-7.70-2.70","5e5bd584dafd983a690b9fc8","6579d0c5e56c6e1626038f86","6579d157d1d35728c5dc449d","null","<p> <font color=""green"" size=""5vw""> Correct category! </font> <br> <br> <font color=""green"" size=""8vw""> + $0.06 </font> </p>","null","feedback","","","","","","","2.6"
"","","","","","html-keyboard-response","249","422754","0.0-7.71-0.71","5e5bd584dafd983a690b9fc8","6579d0c5e56c6e1626038f86","6579d157d1d35728c5dc449d","277","
            
        <div style=""text-align: center; position: fixed; top: 5vh; left: 40vw;"">
            <div style=""margin:0 auto; width: 20vw; top: 8vh; font-size: 2vw""> 
            <font color=""green""> Bonus : $2.6 </font>
            </div>
        </div>
    
            <div> Please press any key to continue to the next movie.</div>
        ","arrowright","ITI","","","","","","",""
"","","","","","html-keyboard-response","250","425572","0.0-7.71-1.71","5e5bd584dafd983a690b9fc8","6579d0c5e56c6e1626038f86","6579d157d1d35728c5dc449d","2818","./stimuli//pack_morph_shapes_1/cat_1/diff_4/ex_1_4_17.mp4","arrowleft","response","ArrowLeft","17","1","4","test","true",""
"","","","","","html-keyboard-response","251","427080","0.0-7.71-2.71","5e5bd584dafd983a690b9fc8","6579d0c5e56c6e1626038f86","6579d157d1d35728c5dc449d","null","<p> <font color=""green"" size=""5vw""> Correct category! </font> <br> <br> <font color=""green"" size=""8vw""> + $0.06 </font> </p>","null","feedback","","","","","","","2.66"
"","","","","","html-keyboard-response","252","427434","0.0-7.72-0.72","5e5bd584dafd983a690b9fc8","6579d0c5e56c6e1626038f86","6579d157d1d35728c5dc449d","354","
            
        <div style=""text-align: center; position: fixed; top: 5vh; left: 40vw;"">
            <div style=""margin:0 auto; width: 20vw; top: 8vh; font-size: 2vw""> 
            <font color=""green""> Bonus : $2.66 </font>
            </div>
        </div>
    
            <div> Please press any key to continue to the next movie.</div>
        ","arrowleft","ITI","","","","","","",""
"","","","","","html-keyboard-response","253","430138","0.0-7.72-1.72","5e5bd584dafd983a690b9fc8","6579d0c5e56c6e1626038f86","6579d157d1d35728c5dc449d","2703","./stimuli//pack_morph_shapes_1/cat_2/diff_4/ex_2_4_3.mp4","arrowleft","response","ArrowRight","3","2","4","test","false",""
