"success","timeout","failed_images","failed_audio","failed_video","trial_type","trial_index","time_elapsed","internal_node_id","subject_id","study_id","session_id","rt","stimulus","response","task","correct_response","exemplar_ID","category","difficulty","phase","correct","bonus"
"true","false","[]","[]","[]","preload","0","2","0.0-0.0","64ecac30144d366de5ce9c03","6579d0c5e56c6e1626038f86","6579d115f58c244f51a95cc4","","","","","","","","","","",""
"","","","","","html-keyboard-response","1","3202","0.0-1.0","64ecac30144d366de5ce9c03","6579d0c5e56c6e1626038f86","6579d115f58c244f51a95cc4","3199","Welcome to the Category Learning experiment! Press any key to continue.","enter","welcome","","","","","","",""
"","","","","","html-keyboard-response","2","18209","0.0-2.0","64ecac30144d366de5ce9c03","6579d0c5e56c6e1626038f86","6579d115f58c244f51a95cc4","15006","
            <p>You will be shown movies. Each movie contains a shape that initially is hidden and is gradually revealed. 
            <br> Some shapes are category A, some are category B.
            <br> You will not know in advance which category each shape belongs to.</p>
            <p> While you watch a movie, you have to guess the category that the shape you see belongs to <b>(left arrow for category A, right arrow for category B)</b></p>
            <p> After you choose, the screen will show you whether you were correct or not.</p>
            <p>Press any key to continue.</p>
            ","enter","introduction_1","","","","","","",""
"","","","","","html-keyboard-response","3","27040","0.0-3.0","64ecac30144d366de5ce9c03","6579d0c5e56c6e1626038f86","6579d115f58c244f51a95cc4","8831","
              <p><b>You will receive a bonus payment for each correct answer! The faster you answer the higher the bonus will be!</b></p>
              <p> So you can increase your bonus by guessing as quickly and accurately as possible.</p>
              <p><b>You will lose $0.05 from your bonus payment for each incorrect answer! The bonus can not become less than $0.</b> </p>
              <p>Press any key to continue.</p>
              ","enter","introduction_2","","","","","","",""
"","","","","","html-keyboard-response","4","31624","0.0-4.0","64ecac30144d366de5ce9c03","6579d0c5e56c6e1626038f86","6579d115f58c244f51a95cc4","4583","
            <p> <b>The first 10 movies are a practice round that will not count towards your bonus payment.</b></p>
            <p> You will be notified when practice finishes and the test begins. </p>
            <p> Press any key to begin the practice round.</p>
            ","enter","introduction_3","","","","","","",""
"","","","","","html-keyboard-response","5","33888","0.0-5.0-0.0","64ecac30144d366de5ce9c03","6579d0c5e56c6e1626038f86","6579d115f58c244f51a95cc4","2263","
            
        <div style=""text-align: center; position: fixed; top: 5vh; left: 40vw;"">
            <div style=""margin:0 auto; width: 20vw; top: 8vh; font-size: 2vw""> 
            <font color=""green""> Bonus : $0 </font>
            </div>
        </div>
    
            <div> Please press any key to continue to the next movie.</div>
        ","enter","ITI","","","","","","",""
"","","","","","html-keyboard-response","6","38893","0.0-5.0-1.0","64ecac30144d366de5ce9c03","6579d0c5e56c6e1626038f86","6579d115f58c244f51a95cc4","null","./stimuli//pack_morph_shapes_1/cat_1/diff_2/ex_1_2_13.mp4","null","response","ArrowLeft","13","1","2","train","false",""
"","","","","","html-keyboard-response","7","40397","0.0-5.0-2.0","64ecac30144d366de5ce9c03","6579d0c5e56c6e1626038f86","6579d115f58c244f51a95cc4","null","<p> <font color=""red"" size=""5vw""> Time out! </font> <br> Please try to respond as quickly as possible. </p>","null","feedback","","","","","","","0"
"","","","","","html-keyboard-response","8","43848","0.0-5.0-0.1","64ecac30144d366de5ce9c03","6579d0c5e56c6e1626038f86","6579d115f58c244f51a95cc4","3450","
            
        <div style=""text-align: center; position: fixed; top: 5vh; left: 40vw;"">
            <div style=""margin:0 auto; width: 20vw; top: 8vh; font-size: 2vw""> 
            <font color=""green""> Bonus : $0 </font>
            </div>
        </div>
    
            <div> Please press any key to continue to the next movie.</div>
        ","enter","ITI","","","","","","",""
"","","","","","html-keyboard-response","9","48853","0.0-5.0-1.1","64ecac30144d366de5ce9c03","6579d0c5e56c6e1626038f86","6579d115f58c244f51a95cc4","null","./stimuli//pack_morph_shapes_1/cat_2/diff_1/ex_2_1_6.mp4","null","response","ArrowRight","6","2","1","train","false",""
"","","","","","html-keyboard-response","10","50358","0.0-5.0-2.1","64ecac30144d366de5ce9c03","6579d0c5e56c6e1626038f86","6579d115f58c244f51a95cc4","null","<p> <font color=""red"" size=""5vw""> Time out! </font> <br> Please try to respond as quickly as possible. </p>","null","feedback","","","","","","","0"
"","","","","","html-keyboard-response","11","51593","0.0-5.0-0.2","64ecac30144d366de5ce9c03","6579d0c5e56c6e1626038f86","6579d115f58c244f51a95cc4","1234","
            
        <div style=""text-align: center; position: fixed; top: 5vh; left: 40vw;"">
            <div style=""margin:0 auto; width: 20vw; top: 8vh; font-size: 2vw""> 
            <font color=""green""> Bonus : $0 </font>
            </div>
        </div>
    
            <div> Please press any key to continue to the next movie.</div>
        ","enter","ITI","","","","","","",""
"","","","","","html-keyboard-response","12","53106","0.0-5.0-1.2","64ecac30144d366de5ce9c03","6579d0c5e56c6e1626038f86","6579d115f58c244f51a95cc4","1511","./stimuli//pack_morph_shapes_1/cat_2/diff_2/ex_2_2_13.mp4","arrowleft","response","ArrowRight","13","2","2","train","false",""
"","","","","","html-keyboard-response","13","54614","0.0-5.0-2.2","64ecac30144d366de5ce9c03","6579d0c5e56c6e1626038f86","6579d115f58c244f51a95cc4","null","<p> <font color=""red"" size=""5vw""> Wrong category! </font> </p>","null","feedback","","","","","","","0"
"","","","","","html-keyboard-response","14","55809","0.0-5.0-0.3","64ecac30144d366de5ce9c03","6579d0c5e56c6e1626038f86","6579d115f58c244f51a95cc4","1194","
            
        <div style=""text-align: center; position: fixed; top: 5vh; left: 40vw;"">
            <div style=""margin:0 auto; width: 20vw; top: 8vh; font-size: 2vw""> 
            <font color=""green""> Bonus : $0 </font>
            </div>
        </div>
    
            <div> Please press any key to continue to the next movie.</div>
        ","enter","ITI","","","","","","",""
"","","","","","html-keyboard-response","15","59249","0.0-5.0-1.3","64ecac30144d366de5ce9c03","6579d0c5e56c6e1626038f86","6579d115f58c244f51a95cc4","3438","./stimuli//pack_morph_shapes_1/cat_2/diff_1/ex_2_1_7.mp4","arrowright","response","ArrowRight","7","2","1","train","true",""
"","","","","","html-keyboard-response","16","60766","0.0-5.0-2.3","64ecac30144d366de5ce9c03","6579d0c5e56c6e1626038f86","6579d115f58c244f51a95cc4","null","<p> <font color=""green"" size=""5vw""> Correct category! </font> </p>","null","feedback","","","","","","","0"
"","","","","","html-keyboard-response","17","61449","0.0-5.0-0.4","64ecac30144d366de5ce9c03","6579d0c5e56c6e1626038f86","6579d115f58c244f51a95cc4","682","
            
        <div style=""text-align: center; position: fixed; top: 5vh; left: 40vw;"">
            <div style=""margin:0 auto; width: 20vw; top: 8vh; font-size: 2vw""> 
            <font color=""green""> Bonus : $0 </font>
            </div>
        </div>
    
            <div> Please press any key to continue to the next movie.</div>
        ","enter","ITI","","","","","","",""
"","","","","","html-keyboard-response","18","66451","0.0-5.0-1.4","64ecac30144d366de5ce9c03","6579d0c5e56c6e1626038f86","6579d115f58c244f51a95cc4","null","./stimuli//pack_morph_shapes_1/cat_1/diff_1/ex_1_1_10.mp4","null","response","ArrowLeft","10","1","1","train","false",""
"","","","","","html-keyboard-response","19","67958","0.0-5.0-2.4","64ecac30144d366de5ce9c03","6579d0c5e56c6e1626038f86","6579d115f58c244f51a95cc4","null","<p> <font color=""red"" size=""5vw""> Time out! </font> <br> Please try to respond as quickly as possible. </p>","null","feedback","","","","","","","0"
"","","","","","html-keyboard-response","20","68808","0.0-5.0-0.5","64ecac30144d366de5ce9c03","6579d0c5e56c6e1626038f86","6579d115f58c244f51a95cc4","849","
            
        <div style=""text-align: center; position: fixed; top: 5vh; left: 40vw;"">
            <div style=""margin:0 auto; width: 20vw; top: 8vh; font-size: 2vw""> 
            <font color=""green""> Bonus : $0 </font>
            </div>
        </div>
    
            <div> Please press any key to continue to the next movie.</div>
        ","enter","ITI","","","","","","",""
"","","","","","html-keyboard-response","21","70418","0.0-5.0-1.5","64ecac30144d366de5ce9c03","6579d0c5e56c6e1626038f86","6579d115f58c244f51a95cc4","1608","./stimuli//pack_morph_shapes_1/cat_2/diff_1/ex_2_1_10.mp4","arrowleft","response","ArrowRight","10","2","1","train","false",""
"","","","","","html-keyboard-response","22","71927","0.0-5.0-2.5","64ecac30144d366de5ce9c03","6579d0c5e56c6e1626038f86","6579d115f58c244f51a95cc4","null","<p> <font color=""red"" size=""5vw""> Wrong category! </font> </p>","null","feedback","","","","","","","0"
"","","","","","html-keyboard-response","23","72488","0.0-5.0-0.6","64ecac30144d366de5ce9c03","6579d0c5e56c6e1626038f86","6579d115f58c244f51a95cc4","561","
            
        <div style=""text-align: center; position: fixed; top: 5vh; left: 40vw;"">
            <div style=""margin:0 auto; width: 20vw; top: 8vh; font-size: 2vw""> 
            <font color=""green""> Bonus : $0 </font>
            </div>
        </div>
    
            <div> Please press any key to continue to the next movie.</div>
        ","enter","ITI","","","","","","",""
"","","","","","html-keyboard-response","24","72929","0.0-5.0-1.6","64ecac30144d366de5ce9c03","6579d0c5e56c6e1626038f86","6579d115f58c244f51a95cc4","439","./stimuli//pack_morph_shapes_1/cat_1/diff_2/ex_1_2_12.mp4","arrowright","response","ArrowLeft","12","1","2","train","false",""
"","","","","","html-keyboard-response","25","74431","0.0-5.0-2.6","64ecac30144d366de5ce9c03","6579d0c5e56c6e1626038f86","6579d115f58c244f51a95cc4","null","<p> <font color=""red"" size=""5vw""> Wrong category! </font> </p>","null","feedback","","","","","","","0"
"","","","","","html-keyboard-response","26","74752","0.0-5.0-0.7","64ecac30144d366de5ce9c03","6579d0c5e56c6e1626038f86","6579d115f58c244f51a95cc4","321","
            
        <div style=""text-align: center; position: fixed; top: 5vh; left: 40vw;"">
            <div style=""margin:0 auto; width: 20vw; top: 8vh; font-size: 2vw""> 
            <font color=""green""> Bonus : $0 </font>
            </div>
        </div>
    
            <div> Please press any key to continue to the next movie.</div>
        ","enter","ITI","","","","","","",""
"","","","","","html-keyboard-response","27","75288","0.0-5.0-1.7","64ecac30144d366de5ce9c03","6579d0c5e56c6e1626038f86","6579d115f58c244f51a95cc4","535","./stimuli//pack_morph_shapes_1/cat_1/diff_1/ex_1_1_15.mp4","arrowleft","response","ArrowLeft","15","1","1","train","true",""
"","","","","","html-keyboard-response","28","76790","0.0-5.0-2.7","64ecac30144d366de5ce9c03","6579d0c5e56c6e1626038f86","6579d115f58c244f51a95cc4","null","<p> <font color=""green"" size=""5vw""> Correct category! </font> </p>","null","feedback","","","","","","","0"
"","","","","","html-keyboard-response","29","77336","0.0-5.0-0.8","64ecac30144d366de5ce9c03","6579d0c5e56c6e1626038f86","6579d115f58c244f51a95cc4","546","
            
        <div style=""text-align: center; position: fixed; top: 5vh; left: 40vw;"">
            <div style=""margin:0 auto; width: 20vw; top: 8vh; font-size: 2vw""> 
            <font color=""green""> Bonus : $0 </font>
            </div>
        </div>
    
            <div> Please press any key to continue to the next movie.</div>
        ","enter","ITI","","","","","","",""
"","","","","","html-keyboard-response","30","77904","0.0-5.0-1.8","64ecac30144d366de5ce9c03","6579d0c5e56c6e1626038f86","6579d115f58c244f51a95cc4","567","./stimuli//pack_morph_shapes_1/cat_2/diff_2/ex_2_2_10.mp4","arrowright","response","ArrowRight","10","2","2","train","true",""
"","","","","","html-keyboard-response","31","79406","0.0-5.0-2.8","64ecac30144d366de5ce9c03","6579d0c5e56c6e1626038f86","6579d115f58c244f51a95cc4","null","<p> <font color=""green"" size=""5vw""> Correct category! </font> </p>","null","feedback","","","","","","","0"
"","","","","","html-keyboard-response","32","79664","0.0-5.0-0.9","64ecac30144d366de5ce9c03","6579d0c5e56c6e1626038f86","6579d115f58c244f51a95cc4","258","
            
        <div style=""text-align: center; position: fixed; top: 5vh; left: 40vw;"">
            <div style=""margin:0 auto; width: 20vw; top: 8vh; font-size: 2vw""> 
            <font color=""green""> Bonus : $0 </font>
            </div>
        </div>
    
            <div> Please press any key to continue to the next movie.</div>
        ","enter","ITI","","","","","","",""
"","","","","","html-keyboard-response","33","80248","0.0-5.0-1.9","64ecac30144d366de5ce9c03","6579d0c5e56c6e1626038f86","6579d115f58c244f51a95cc4","583","./stimuli//pack_morph_shapes_1/cat_1/diff_1/ex_1_1_7.mp4","arrowleft","response","ArrowLeft","7","1","1","train","true",""
"","","","","","html-keyboard-response","34","81749","0.0-5.0-2.9","64ecac30144d366de5ce9c03","6579d0c5e56c6e1626038f86","6579d115f58c244f51a95cc4","null","<p> <font color=""green"" size=""5vw""> Correct category! </font> </p>","null","feedback","","","","","","","0"
"","","","","","html-keyboard-response","35","82032","0.0-6.0","64ecac30144d366de5ce9c03","6579d0c5e56c6e1626038f86","6579d115f58c244f51a95cc4","282","
            <b> <p> The practice round has finished.</p>
            <b> <p> For the rest of the experiment you will receive a bonus payment for each correct answer, which will be higher the faster you answer!</b></p>
            <b> <p> Also you will lose $0.05 from your bonus payment for each incorrect answer!</p>
            <p> Press any key to begin the test. </p>
            ","enter","intermission","","","","","","",""
"","","","","","html-keyboard-response","36","84512","0.0-7.0-0.0","64ecac30144d366de5ce9c03","6579d0c5e56c6e1626038f86","6579d115f58c244f51a95cc4","2479","
            
        <div style=""text-align: center; position: fixed; top: 5vh; left: 40vw;"">
            <div style=""margin:0 auto; width: 20vw; top: 8vh; font-size: 2vw""> 
            <font color=""green""> Bonus : $0 </font>
            </div>
        </div>
    
            <div> Please press any key to continue to the next movie.</div>
        ","enter","ITI","","","","","","",""
"","","","","","html-keyboard-response","37","85104","0.0-7.0-1.0","64ecac30144d366de5ce9c03","6579d0c5e56c6e1626038f86","6579d115f58c244f51a95cc4","590","./stimuli//pack_morph_shapes_1/cat_1/diff_1/ex_1_1_12.mp4","arrowleft","response","ArrowLeft","12","1","1","test","true",""
"","","","","","html-keyboard-response","38","86606","0.0-7.0-2.0","64ecac30144d366de5ce9c03","6579d0c5e56c6e1626038f86","6579d115f58c244f51a95cc4","null","<p> <font color=""green"" size=""5vw""> Correct category! </font> <br> <br> <font color=""green"" size=""8vw""> + $0.09 </font> </p>","null","feedback","","","","","","","0.09"
"","","","","","html-keyboard-response","39","87424","0.0-7.1-0.1","64ecac30144d366de5ce9c03","6579d0c5e56c6e1626038f86","6579d115f58c244f51a95cc4","817","
            
        <div style=""text-align: center; position: fixed; top: 5vh; left: 40vw;"">
            <div style=""margin:0 auto; width: 20vw; top: 8vh; font-size: 2vw""> 
            <font color=""green""> Bonus : $0.09 </font>
            </div>
        </div>
    
            <div> Please press any key to continue to the next movie.</div>
        ","enter","ITI","","","","","","",""
"","","","","","html-keyboard-response","40","87768","0.0-7.1-1.1","64ecac30144d366de5ce9c03","6579d0c5e56c6e1626038f86","6579d115f58c244f51a95cc4","334","./stimuli//pack_morph_shapes_1/cat_2/diff_1/ex_2_1_2.mp4","arrowright","response","ArrowRight","2","2","1","test","true",""
"","","","","","html-keyboard-response","41","89270","0.0-7.1-2.1","64ecac30144d366de5ce9c03","6579d0c5e56c6e1626038f86","6579d115f58c244f51a95cc4","null","<p> <font color=""green"" size=""5vw""> Correct category! </font> <br> <br> <font color=""green"" size=""8vw""> + $0.09 </font> </p>","null","feedback","","","","","","","0.18"
"","","","","","html-keyboard-response","42","89976","0.0-7.2-0.2","64ecac30144d366de5ce9c03","6579d0c5e56c6e1626038f86","6579d115f58c244f51a95cc4","705","
            
        <div style=""text-align: center; position: fixed; top: 5vh; left: 40vw;"">
            <div style=""margin:0 auto; width: 20vw; top: 8vh; font-size: 2vw""> 
            <font color=""green""> Bonus : $0.18 </font>
            </div>
        </div>
    
            <div> Please press any key to continue to the next movie.</div>
        ","enter","ITI","","","","","","",""
"","","","","","html-keyboard-response","43","90312","0.0-7.2-1.2","64ecac30144d366de5ce9c03","6579d0c5e56c6e1626038f86","6579d115f58c244f51a95cc4","334","./stimuli//pack_morph_shapes_1/cat_1/diff_1/ex_1_1_4.mp4","arrowleft","response","ArrowLeft","4","1","1","test","true",""
"","","","","","html-keyboard-response","44","91814","0.0-7.2-2.2","64ecac30144d366de5ce9c03","6579d0c5e56c6e1626038f86","6579d115f58c244f51a95cc4","null","<p> <font color=""green"" size=""5vw""> Correct category! </font> <br> <br> <font color=""green"" size=""8vw""> + $0.09 </font> </p>","null","feedback","","","","","","","0.27"
"","","","","","html-keyboard-response","45","92247","0.0-7.3-0.3","64ecac30144d366de5ce9c03","6579d0c5e56c6e1626038f86","6579d115f58c244f51a95cc4","433","
            
        <div style=""text-align: center; position: fixed; top: 5vh; left: 40vw;"">
            <div style=""margin:0 auto; width: 20vw; top: 8vh; font-size: 2vw""> 
            <font color=""green""> Bonus : $0.27 </font>
            </div>
        </div>
    
            <div> Please press any key to continue to the next movie.</div>
        ","enter","ITI","","","","","","",""
"","","","","","html-keyboard-response","46","92600","0.0-7.3-1.3","64ecac30144d366de5ce9c03","6579d0c5e56c6e1626038f86","6579d115f58c244f51a95cc4","351","./stimuli//pack_morph_shapes_1/cat_1/diff_1/ex_1_1_16.mp4","arrowright","response","ArrowLeft","16","1","1","test","false",""
"","","","","","html-keyboard-response","47","94102","0.0-7.3-2.3","64ecac30144d366de5ce9c03","6579d0c5e56c6e1626038f86","6579d115f58c244f51a95cc4","null","<p> <font color=""red"" size=""5vw""> Wrong category! </font> <br> <br> <font color=""red"" size=""8vw""> - $0.05 </font> </p>","null","feedback","","","","","","","0.22"
"","","","","","html-keyboard-response","48","94767","0.0-7.4-0.4","64ecac30144d366de5ce9c03","6579d0c5e56c6e1626038f86","6579d115f58c244f51a95cc4","664","
            
        <div style=""text-align: center; position: fixed; top: 5vh; left: 40vw;"">
            <div style=""margin:0 auto; width: 20vw; top: 8vh; font-size: 2vw""> 
            <font color=""green""> Bonus : $0.22 </font>
            </div>
        </div>
    
            <div> Please press any key to continue to the next movie.</div>
        ","enter","ITI","","","","","","",""
"","","","","","html-keyboard-response","49","95135","0.0-7.4-1.4","64ecac30144d366de5ce9c03","6579d0c5e56c6e1626038f86","6579d115f58c244f51a95cc4","367","./stimuli//pack_morph_shapes_1/cat_2/diff_1/ex_2_1_15.mp4","arrowleft","response","ArrowRight","15","2","1","test","false",""
"","","","","","html-keyboard-response","50","96638","0.0-7.4-2.4","64ecac30144d366de5ce9c03","6579d0c5e56c6e1626038f86","6579d115f58c244f51a95cc4","null","<p> <font color=""red"" size=""5vw""> Wrong category! </font> <br> <br> <font color=""red"" size=""8vw""> - $0.05 </font> </p>","null","feedback","","","","","","","0.17"
"","","","","","html-keyboard-response","51","97127","0.0-7.5-0.5","64ecac30144d366de5ce9c03","6579d0c5e56c6e1626038f86","6579d115f58c244f51a95cc4","489","
            
        <div style=""text-align: center; position: fixed; top: 5vh; left: 40vw;"">
            <div style=""margin:0 auto; width: 20vw; top: 8vh; font-size: 2vw""> 
            <font color=""green""> Bonus : $0.17 </font>
            </div>
        </div>
    
            <div> Please press any key to continue to the next movie.</div>
        ","enter","ITI","","","","","","",""
"","","","","","html-keyboard-response","52","97574","0.0-7.5-1.5","64ecac30144d366de5ce9c03","6579d0c5e56c6e1626038f86","6579d115f58c244f51a95cc4","445","./stimuli//pack_morph_shapes_1/cat_2/diff_1/ex_2_1_8.mp4","arrowleft","response","ArrowRight","8","2","1","test","false",""
"","","","","","html-keyboard-response","53","99084","0.0-7.5-2.5","64ecac30144d366de5ce9c03","6579d0c5e56c6e1626038f86","6579d115f58c244f51a95cc4","null","<p> <font color=""red"" size=""5vw""> Wrong category! </font> <br> <br> <font color=""red"" size=""8vw""> - $0.05 </font> </p>","null","feedback","","","","","","","0.12"
"","","","","","html-keyboard-response","54","99359","0.0-7.6-0.6","64ecac30144d366de5ce9c03","6579d0c5e56c6e1626038f86","6579d115f58c244f51a95cc4","275","
            
        <div style=""text-align: center; position: fixed; top: 5vh; left: 40vw;"">
            <div style=""margin:0 auto; width: 20vw; top: 8vh; font-size: 2vw""> 
            <font color=""green""> Bonus : $0.12 </font>
            </div>
        </div>
    
            <div> Please press any key to continue to the next movie.</div>
        ","enter","ITI","","","","","","",""
"","","","","","html-keyboard-response","55","99728","0.0-7.6-1.6","64ecac30144d366de5ce9c03","6579d0c5e56c6e1626038f86","6579d115f58c244f51a95cc4","367","./stimuli//pack_morph_shapes_1/cat_2/diff_1/ex_2_1_11.mp4","arrowleft","response","ArrowRight","11","2","1","test","false",""
"","","","","","html-keyboard-response","56","101230","0.0-7.6-2.6","64ecac30144d366de5ce9c03","6579d0c5e56c6e1626038f86","6579d115f58c244f51a95cc4","null","<p> <font color=""red"" size=""5vw""> Wrong category! </font> <br> <br> <font color=""red"" size=""8vw""> - $0.05 </font> </p>","null","feedback","","","","","","","0.07"
"","","","","","html-keyboard-response","57","101551","0.0-7.7-0.7","64ecac30144d366de5ce9c03","6579d0c5e56c6e1626038f86","6579d115f58c244f51a95cc4","321","
            
        <div style=""text-align: center; position: fixed; top: 5vh; left: 40vw;"">
            <div style=""margin:0 auto; width: 20vw; top: 8vh; font-size: 2vw""> 
            <font color=""green""> Bonus : $0.07 </font>
            </div>
        </div>
    
            <div> Please press any key to continue to the next movie.</div>
        ","enter","ITI","","","","","","",""
"","","","","","html-keyboard-response","58","101867","0.0-7.7-1.7","64ecac30144d366de5ce9c03","6579d0c5e56c6e1626038f86","6579d115f58c244f51a95cc4","314","./stimuli//pack_morph_shapes_1/cat_1/diff_1/ex_1_1_8.mp4","arrowright","response","ArrowLeft","8","1","1","test","false",""
"","","","","","html-keyboard-response","59","103371","0.0-7.7-2.7","64ecac30144d366de5ce9c03","6579d0c5e56c6e1626038f86","6579d115f58c244f51a95cc4","null","<p> <font color=""red"" size=""5vw""> Wrong category! </font> <br> <br> <font color=""red"" size=""8vw""> - $0.05 </font> </p>","null","feedback","","","","","","","0.02"
"","","","","","html-keyboard-response","60","103879","0.0-7.8-0.8","64ecac30144d366de5ce9c03","6579d0c5e56c6e1626038f86","6579d115f58c244f51a95cc4","507","
            
        <div style=""text-align: center; position: fixed; top: 5vh; left: 40vw;"">
            <div style=""margin:0 auto; width: 20vw; top: 8vh; font-size: 2vw""> 
            <font color=""green""> Bonus : $0.02 </font>
            </div>
        </div>
    
            <div> Please press any key to continue to the next movie.</div>
        ","enter","ITI","","","","","","",""
"","","","","","html-keyboard-response","61","104199","0.0-7.8-1.8","64ecac30144d366de5ce9c03","6579d0c5e56c6e1626038f86","6579d115f58c244f51a95cc4","318","./stimuli//pack_morph_shapes_1/cat_2/diff_1/ex_2_1_9.mp4","arrowleft","response","ArrowRight","9","2","1","test","false",""
"","","","","","html-keyboard-response","62","105692","0.0-7.8-2.8","64ecac30144d366de5ce9c03","6579d0c5e56c6e1626038f86","6579d115f58c244f51a95cc4","null","<p> <font color=""red"" size=""5vw""> Wrong category! </font> <br> <br> <font color=""red"" size=""8vw""> - $0.05 </font> </p>","null","feedback","","","","","","","-0.03"
"","","","","","html-keyboard-response","63","106470","0.0-7.9-0.9","64ecac30144d366de5ce9c03","6579d0c5e56c6e1626038f86","6579d115f58c244f51a95cc4","776","
            
        <div style=""text-align: center; position: fixed; top: 5vh; left: 40vw;"">
            <div style=""margin:0 auto; width: 20vw; top: 8vh; font-size: 2vw""> 
            <font color=""green""> Bonus : $-0.03 </font>
            </div>
        </div>
    
            <div> Please press any key to continue to the next movie.</div>
        ","enter","ITI","","","","","","",""
"","","","","","html-keyboard-response","64","106781","0.0-7.9-1.9","64ecac30144d366de5ce9c03","6579d0c5e56c6e1626038f86","6579d115f58c244f51a95cc4","310","./stimuli//pack_morph_shapes_1/cat_2/diff_1/ex_2_1_2.mp4","arrowleft","response","ArrowRight","2","2","1","test","false",""
"","","","","","html-keyboard-response","65","108284","0.0-7.9-2.9","64ecac30144d366de5ce9c03","6579d0c5e56c6e1626038f86","6579d115f58c244f51a95cc4","null","<p> <font color=""red"" size=""5vw""> Wrong category! </font> </p>","null","feedback","","","","","","","-0.03"
"","","","","","html-keyboard-response","66","108789","0.0-7.10-0.10","64ecac30144d366de5ce9c03","6579d0c5e56c6e1626038f86","6579d115f58c244f51a95cc4","505","
            
        <div style=""text-align: center; position: fixed; top: 5vh; left: 40vw;"">
            <div style=""margin:0 auto; width: 20vw; top: 8vh; font-size: 2vw""> 
            <font color=""green""> Bonus : $-0.03 </font>
            </div>
        </div>
    
            <div> Please press any key to continue to the next movie.</div>
        ","enter","ITI","","","","","","",""
"","","","","","html-keyboard-response","67","109125","0.0-7.10-1.10","64ecac30144d366de5ce9c03","6579d0c5e56c6e1626038f86","6579d115f58c244f51a95cc4","335","./stimuli//pack_morph_shapes_1/cat_2/diff_1/ex_2_1_9.mp4","arrowleft","response","ArrowRight","9","2","1","test","false",""
"","","","","","html-keyboard-response","68","110628","0.0-7.10-2.10","64ecac30144d366de5ce9c03","6579d0c5e56c6e1626038f86","6579d115f58c244f51a95cc4","null","<p> <font color=""red"" size=""5vw""> Wrong category! </font> </p>","null","feedback","","","","","","","-0.03"
"","","","","","html-keyboard-response","69","111101","0.0-7.11-0.11","64ecac30144d366de5ce9c03","6579d0c5e56c6e1626038f86","6579d115f58c244f51a95cc4","473","
            
        <div style=""text-align: center; position: fixed; top: 5vh; left: 40vw;"">
            <div style=""margin:0 auto; width: 20vw; top: 8vh; font-size: 2vw""> 
            <font color=""green""> Bonus : $-0.03 </font>
            </div>
        </div>
    
            <div> Please press any key to continue to the next movie.</div>
        ","enter","ITI","","","","","","",""
"","","","","","html-keyboard-response","70","111477","0.0-7.11-1.11","64ecac30144d366de5ce9c03","6579d0c5e56c6e1626038f86","6579d115f58c244f51a95cc4","374","./stimuli//pack_morph_shapes_1/cat_2/diff_1/ex_2_1_8.mp4","arrowleft","response","ArrowRight","8","2","1","test","false",""
"","","","","","html-keyboard-response","71","112980","0.0-7.11-2.11","64ecac30144d366de5ce9c03","6579d0c5e56c6e1626038f86","6579d115f58c244f51a95cc4","null","<p> <font color=""red"" size=""5vw""> Wrong category! </font> </p>","null","feedback","","","","","","","-0.03"
"","","","","","html-keyboard-response","72","113277","0.0-7.12-0.12","64ecac30144d366de5ce9c03","6579d0c5e56c6e1626038f86","6579d115f58c244f51a95cc4","297","
            
        <div style=""text-align: center; position: fixed; top: 5vh; left: 40vw;"">
            <div style=""margin:0 auto; width: 20vw; top: 8vh; font-size: 2vw""> 
            <font color=""green""> Bonus : $-0.03 </font>
            </div>
        </div>
    
            <div> Please press any key to continue to the next movie.</div>
        ","enter","ITI","","","","","","",""
"","","","","","html-keyboard-response","73","113661","0.0-7.12-1.12","64ecac30144d366de5ce9c03","6579d0c5e56c6e1626038f86","6579d115f58c244f51a95cc4","382","./stimuli//pack_morph_shapes_1/cat_1/diff_1/ex_1_1_17.mp4","arrowright","response","ArrowLeft","17","1","1","test","false",""
"","","","","","html-keyboard-response","74","115164","0.0-7.12-2.12","64ecac30144d366de5ce9c03","6579d0c5e56c6e1626038f86","6579d115f58c244f51a95cc4","null","<p> <font color=""red"" size=""5vw""> Wrong category! </font> </p>","null","feedback","","","","","","","-0.03"
"","","","","","html-keyboard-response","75","115429","0.0-7.13-0.13","64ecac30144d366de5ce9c03","6579d0c5e56c6e1626038f86","6579d115f58c244f51a95cc4","264","
            
        <div style=""text-align: center; position: fixed; top: 5vh; left: 40vw;"">
            <div style=""margin:0 auto; width: 20vw; top: 8vh; font-size: 2vw""> 
            <font color=""green""> Bonus : $-0.03 </font>
            </div>
        </div>
    
            <div> Please press any key to continue to the next movie.</div>
        ","enter","ITI","","","","","","",""
"","","","","","html-keyboard-response","76","115773","0.0-7.13-1.13","64ecac30144d366de5ce9c03","6579d0c5e56c6e1626038f86","6579d115f58c244f51a95cc4","343","./stimuli//pack_morph_shapes_1/cat_1/diff_1/ex_1_1_11.mp4","arrowleft","response","ArrowLeft","11","1","1","test","true",""
"","","","","","html-keyboard-response","77","117276","0.0-7.13-2.13","64ecac30144d366de5ce9c03","6579d0c5e56c6e1626038f86","6579d115f58c244f51a95cc4","null","<p> <font color=""green"" size=""5vw""> Correct category! </font> <br> <br> <font color=""green"" size=""8vw""> + $0.09 </font> </p>","null","feedback","","","","","","","0.06"
"","","","","","html-keyboard-response","78","117637","0.0-7.14-0.14","64ecac30144d366de5ce9c03","6579d0c5e56c6e1626038f86","6579d115f58c244f51a95cc4","360","
            
        <div style=""text-align: center; position: fixed; top: 5vh; left: 40vw;"">
            <div style=""margin:0 auto; width: 20vw; top: 8vh; font-size: 2vw""> 
            <font color=""green""> Bonus : $0.06 </font>
            </div>
        </div>
    
            <div> Please press any key to continue to the next movie.</div>
        ","enter","ITI","","","","","","",""
"","","","","","html-keyboard-response","79","117877","0.0-7.14-1.14","64ecac30144d366de5ce9c03","6579d0c5e56c6e1626038f86","6579d115f58c244f51a95cc4","239","./stimuli//pack_morph_shapes_1/cat_1/diff_1/ex_1_1_2.mp4","arrowright","response","ArrowLeft","2","1","1","test","false",""
"","","","","","html-keyboard-response","80","119386","0.0-7.14-2.14","64ecac30144d366de5ce9c03","6579d0c5e56c6e1626038f86","6579d115f58c244f51a95cc4","null","<p> <font color=""red"" size=""5vw""> Wrong category! </font> <br> <br> <font color=""red"" size=""8vw""> - $0.05 </font> </p>","null","feedback","","","","","","","0.01"
"","","","","","html-keyboard-response","81","119773","0.0-7.15-0.15","64ecac30144d366de5ce9c03","6579d0c5e56c6e1626038f86","6579d115f58c244f51a95cc4","386","
            
        <div style=""text-align: center; position: fixed; top: 5vh; left: 40vw;"">
            <div style=""margin:0 auto; width: 20vw; top: 8vh; font-size: 2vw""> 
            <font color=""green""> Bonus : $0.01 </font>
            </div>
        </div>
    
            <div> Please press any key to continue to the next movie.</div>
        ","enter","ITI","","","","","","",""
"","","","","","html-keyboard-response","82","120221","0.0-7.15-1.15","64ecac30144d366de5ce9c03","6579d0c5e56c6e1626038f86","6579d115f58c244f51a95cc4","447","./stimuli//pack_morph_shapes_1/cat_2/diff_1/ex_2_1_5.mp4","arrowleft","response","ArrowRight","5","2","1","test","false",""
"","","","","","html-keyboard-response","83","121722","0.0-7.15-2.15","64ecac30144d366de5ce9c03","6579d0c5e56c6e1626038f86","6579d115f58c244f51a95cc4","null","<p> <font color=""red"" size=""5vw""> Wrong category! </font> <br> <br> <font color=""red"" size=""8vw""> - $0.05 </font> </p>","null","feedback","","","","","","","-0.04"
"","","","","","html-keyboard-response","84","122061","0.0-7.16-0.16","64ecac30144d366de5ce9c03","6579d0c5e56c6e1626038f86","6579d115f58c244f51a95cc4","338","
            
        <div style=""text-align: center; position: fixed; top: 5vh; left: 40vw;"">
            <div style=""margin:0 auto; width: 20vw; top: 8vh; font-size: 2vw""> 
            <font color=""green""> Bonus : $-0.04 </font>
            </div>
        </div>
    
            <div> Please press any key to continue to the next movie.</div>
        ","enter","ITI","","","","","","",""
"","","","","","html-keyboard-response","85","122477","0.0-7.16-1.16","64ecac30144d366de5ce9c03","6579d0c5e56c6e1626038f86","6579d115f58c244f51a95cc4","414","./stimuli//pack_morph_shapes_1/cat_1/diff_1/ex_1_1_2.mp4","arrowright","response","ArrowLeft","2","1","1","test","false",""
"","","","","","html-keyboard-response","86","123979","0.0-7.16-2.16","64ecac30144d366de5ce9c03","6579d0c5e56c6e1626038f86","6579d115f58c244f51a95cc4","null","<p> <font color=""red"" size=""5vw""> Wrong category! </font> </p>","null","feedback","","","","","","","-0.04"
"","","","","","html-keyboard-response","87","124277","0.0-7.17-0.17","64ecac30144d366de5ce9c03","6579d0c5e56c6e1626038f86","6579d115f58c244f51a95cc4","297","
            
        <div style=""text-align: center; position: fixed; top: 5vh; left: 40vw;"">
            <div style=""margin:0 auto; width: 20vw; top: 8vh; font-size: 2vw""> 
            <font color=""green""> Bonus : $-0.04 </font>
            </div>
        </div>
    
            <div> Please press any key to continue to the next movie.</div>
        ","enter","ITI","","","","","","",""
"","","","","","html-keyboard-response","88","124583","0.0-7.17-1.17","64ecac30144d366de5ce9c03","6579d0c5e56c6e1626038f86","6579d115f58c244f51a95cc4","303","./stimuli//pack_morph_shapes_1/cat_1/diff_1/ex_1_1_8.mp4","arrowleft","response","ArrowLeft","8","1","1","test","true",""
"","","","","","html-keyboard-response","89","126084","0.0-7.17-2.17","64ecac30144d366de5ce9c03","6579d0c5e56c6e1626038f86","6579d115f58c244f51a95cc4","null","<p> <font color=""green"" size=""5vw""> Correct category! </font> <br> <br> <font color=""green"" size=""8vw""> + $0.09 </font> </p>","null","feedback","","","","","","","0.05"
"","","","","","html-keyboard-response","90","126189","0.0-7.18-0.18","64ecac30144d366de5ce9c03","6579d0c5e56c6e1626038f86","6579d115f58c244f51a95cc4","104","
            
        <div style=""text-align: center; position: fixed; top: 5vh; left: 40vw;"">
            <div style=""margin:0 auto; width: 20vw; top: 8vh; font-size: 2vw""> 
            <font color=""green""> Bonus : $0.05 </font>
            </div>
        </div>
    
            <div> Please press any key to continue to the next movie.</div>
        ","enter","ITI","","","","","","",""
"","","","","","html-keyboard-response","91","126469","0.0-7.18-1.18","64ecac30144d366de5ce9c03","6579d0c5e56c6e1626038f86","6579d115f58c244f51a95cc4","253","./stimuli//pack_morph_shapes_1/cat_1/diff_1/ex_1_1_13.mp4","arrowleft","response","ArrowLeft","13","1","1","test","true",""
"","","","","","html-keyboard-response","92","127972","0.0-7.18-2.18","64ecac30144d366de5ce9c03","6579d0c5e56c6e1626038f86","6579d115f58c244f51a95cc4","null","<p> <font color=""green"" size=""5vw""> Correct category! </font> <br> <br> <font color=""green"" size=""8vw""> + $0.1 </font> </p>","null","feedback","","","","","","","0.15"
"","","","","","html-keyboard-response","93","128205","0.0-7.19-0.19","64ecac30144d366de5ce9c03","6579d0c5e56c6e1626038f86","6579d115f58c244f51a95cc4","231","
            
        <div style=""text-align: center; position: fixed; top: 5vh; left: 40vw;"">
            <div style=""margin:0 auto; width: 20vw; top: 8vh; font-size: 2vw""> 
            <font color=""green""> Bonus : $0.15 </font>
            </div>
        </div>
    
            <div> Please press any key to continue to the next movie.</div>
        ","enter","ITI","","","","","","",""
"","","","","","html-keyboard-response","94","128573","0.0-7.19-1.19","64ecac30144d366de5ce9c03","6579d0c5e56c6e1626038f86","6579d115f58c244f51a95cc4","367","./stimuli//pack_morph_shapes_1/cat_2/diff_1/ex_2_1_1.mp4","arrowleft","response","ArrowRight","1","2","1","test","false",""
"","","","","","html-keyboard-response","95","130077","0.0-7.19-2.19","64ecac30144d366de5ce9c03","6579d0c5e56c6e1626038f86","6579d115f58c244f51a95cc4","null","<p> <font color=""red"" size=""5vw""> Wrong category! </font> <br> <br> <font color=""red"" size=""8vw""> - $0.05 </font> </p>","null","feedback","","","","","","","0.1"
"","","","","","html-keyboard-response","96","130332","0.0-7.20-0.20","64ecac30144d366de5ce9c03","6579d0c5e56c6e1626038f86","6579d115f58c244f51a95cc4","255","
            
        <div style=""text-align: center; position: fixed; top: 5vh; left: 40vw;"">
            <div style=""margin:0 auto; width: 20vw; top: 8vh; font-size: 2vw""> 
            <font color=""green""> Bonus : $0.1 </font>
            </div>
        </div>
    
            <div> Please press any key to continue to the next movie.</div>
        ","enter","ITI","","","","","","",""
"","","","","","html-keyboard-response","97","130885","0.0-7.20-1.20","64ecac30144d366de5ce9c03","6579d0c5e56c6e1626038f86","6579d115f58c244f51a95cc4","551","./stimuli//pack_morph_shapes_1/cat_1/diff_1/ex_1_1_2.mp4","arrowright","response","ArrowLeft","2","1","1","test","false",""
"","","","","","html-keyboard-response","98","132389","0.0-7.20-2.20","64ecac30144d366de5ce9c03","6579d0c5e56c6e1626038f86","6579d115f58c244f51a95cc4","null","<p> <font color=""red"" size=""5vw""> Wrong category! </font> <br> <br> <font color=""red"" size=""8vw""> - $0.05 </font> </p>","null","feedback","","","","","","","0.05"
"","","","","","html-keyboard-response","99","132517","0.0-7.21-0.21","64ecac30144d366de5ce9c03","6579d0c5e56c6e1626038f86","6579d115f58c244f51a95cc4","127","
            
        <div style=""text-align: center; position: fixed; top: 5vh; left: 40vw;"">
            <div style=""margin:0 auto; width: 20vw; top: 8vh; font-size: 2vw""> 
            <font color=""green""> Bonus : $0.05 </font>
            </div>
        </div>
    
            <div> Please press any key to continue to the next movie.</div>
        ","enter","ITI","","","","","","",""
"","","","","","html-keyboard-response","100","132837","0.0-7.21-1.21","64ecac30144d366de5ce9c03","6579d0c5e56c6e1626038f86","6579d115f58c244f51a95cc4","319","./stimuli//pack_morph_shapes_1/cat_2/diff_1/ex_2_1_2.mp4","arrowright","response","ArrowRight","2","2","1","test","true",""
"","","","","","html-keyboard-response","101","134337","0.0-7.21-2.21","64ecac30144d366de5ce9c03","6579d0c5e56c6e1626038f86","6579d115f58c244f51a95cc4","null","<p> <font color=""green"" size=""5vw""> Correct category! </font> <br> <br> <font color=""green"" size=""8vw""> + $0.09 </font> </p>","null","feedback","","","","","","","0.14"
"","","","","","html-keyboard-response","102","134532","0.0-7.22-0.22","64ecac30144d366de5ce9c03","6579d0c5e56c6e1626038f86","6579d115f58c244f51a95cc4","194","
            
        <div style=""text-align: center; position: fixed; top: 5vh; left: 40vw;"">
            <div style=""margin:0 auto; width: 20vw; top: 8vh; font-size: 2vw""> 
            <font color=""green""> Bonus : $0.14 </font>
            </div>
        </div>
    
            <div> Please press any key to continue to the next movie.</div>
        ","enter","ITI","","","","","","",""
"","","","","","html-keyboard-response","103","134796","0.0-7.22-1.22","64ecac30144d366de5ce9c03","6579d0c5e56c6e1626038f86","6579d115f58c244f51a95cc4","263","./stimuli//pack_morph_shapes_1/cat_2/diff_1/ex_2_1_9.mp4","arrowleft","response","ArrowRight","9","2","1","test","false",""
"","","","","","html-keyboard-response","104","136299","0.0-7.22-2.22","64ecac30144d366de5ce9c03","6579d0c5e56c6e1626038f86","6579d115f58c244f51a95cc4","null","<p> <font color=""red"" size=""5vw""> Wrong category! </font> <br> <br> <font color=""red"" size=""8vw""> - $0.05 </font> </p>","null","feedback","","","","","","","0.09"
"","","","","","html-keyboard-response","105","136596","0.0-7.23-0.23","64ecac30144d366de5ce9c03","6579d0c5e56c6e1626038f86","6579d115f58c244f51a95cc4","297","
            
        <div style=""text-align: center; position: fixed; top: 5vh; left: 40vw;"">
            <div style=""margin:0 auto; width: 20vw; top: 8vh; font-size: 2vw""> 
            <font color=""green""> Bonus : $0.09 </font>
            </div>
        </div>
    
            <div> Please press any key to continue to the next movie.</div>
        ","enter","ITI","","","","","","",""
"","","","","","html-keyboard-response","106","137109","0.0-7.23-1.23","64ecac30144d366de5ce9c03","6579d0c5e56c6e1626038f86","6579d115f58c244f51a95cc4","511","./stimuli//pack_morph_shapes_1/cat_2/diff_1/ex_2_1_5.mp4","arrowright","response","ArrowRight","5","2","1","test","true",""
"","","","","","html-keyboard-response","107","138613","0.0-7.23-2.23","64ecac30144d366de5ce9c03","6579d0c5e56c6e1626038f86","6579d115f58c244f51a95cc4","null","<p> <font color=""green"" size=""5vw""> Correct category! </font> <br> <br> <font color=""green"" size=""8vw""> + $0.09 </font> </p>","null","feedback","","","","","","","0.18"
"","","","","","html-keyboard-response","108","138636","0.0-7.24-0.24","64ecac30144d366de5ce9c03","6579d0c5e56c6e1626038f86","6579d115f58c244f51a95cc4","23","
            
        <div style=""text-align: center; position: fixed; top: 5vh; left: 40vw;"">
            <div style=""margin:0 auto; width: 20vw; top: 8vh; font-size: 2vw""> 
            <font color=""green""> Bonus : $0.18 </font>
            </div>
        </div>
    
            <div> Please press any key to continue to the next movie.</div>
        ","enter","ITI","","","","","","",""
"","","","","","html-keyboard-response","109","138956","0.0-7.24-1.24","64ecac30144d366de5ce9c03","6579d0c5e56c6e1626038f86","6579d115f58c244f51a95cc4","319","./stimuli//pack_morph_shapes_1/cat_2/diff_1/ex_2_1_13.mp4","arrowright","response","ArrowRight","13","2","1","test","true",""
"","","","","","html-keyboard-response","110","140461","0.0-7.24-2.24","64ecac30144d366de5ce9c03","6579d0c5e56c6e1626038f86","6579d115f58c244f51a95cc4","null","<p> <font color=""green"" size=""5vw""> Correct category! </font> <br> <br> <font color=""green"" size=""8vw""> + $0.09 </font> </p>","null","feedback","","","","","","","0.27"
"","","","","","html-keyboard-response","111","140564","0.0-7.25-0.25","64ecac30144d366de5ce9c03","6579d0c5e56c6e1626038f86","6579d115f58c244f51a95cc4","103","
            
        <div style=""text-align: center; position: fixed; top: 5vh; left: 40vw;"">
            <div style=""margin:0 auto; width: 20vw; top: 8vh; font-size: 2vw""> 
            <font color=""green""> Bonus : $0.27 </font>
            </div>
        </div>
    
            <div> Please press any key to continue to the next movie.</div>
        ","enter","ITI","","","","","","",""
"","","","","","html-keyboard-response","112","140772","0.0-7.25-1.25","64ecac30144d366de5ce9c03","6579d0c5e56c6e1626038f86","6579d115f58c244f51a95cc4","206","./stimuli//pack_morph_shapes_1/cat_1/diff_1/ex_1_1_11.mp4","arrowright","response","ArrowLeft","11","1","1","test","false",""
"","","","","","html-keyboard-response","113","142273","0.0-7.25-2.25","64ecac30144d366de5ce9c03","6579d0c5e56c6e1626038f86","6579d115f58c244f51a95cc4","null","<p> <font color=""red"" size=""5vw""> Wrong category! </font> <br> <br> <font color=""red"" size=""8vw""> - $0.05 </font> </p>","null","feedback","","","","","","","0.22"
"","","","","","html-keyboard-response","114","142508","0.0-7.26-0.26","64ecac30144d366de5ce9c03","6579d0c5e56c6e1626038f86","6579d115f58c244f51a95cc4","234","
            
        <div style=""text-align: center; position: fixed; top: 5vh; left: 40vw;"">
            <div style=""margin:0 auto; width: 20vw; top: 8vh; font-size: 2vw""> 
            <font color=""green""> Bonus : $0.22 </font>
            </div>
        </div>
    
            <div> Please press any key to continue to the next movie.</div>
        ","enter","ITI","","","","","","",""
"","","","","","html-keyboard-response","115","143037","0.0-7.26-1.26","64ecac30144d366de5ce9c03","6579d0c5e56c6e1626038f86","6579d115f58c244f51a95cc4","527","./stimuli//pack_morph_shapes_1/cat_2/diff_1/ex_2_1_2.mp4","arrowright","response","ArrowRight","2","2","1","test","true",""
"","","","","","html-keyboard-response","116","144539","0.0-7.26-2.26","64ecac30144d366de5ce9c03","6579d0c5e56c6e1626038f86","6579d115f58c244f51a95cc4","null","<p> <font color=""green"" size=""5vw""> Correct category! </font> <br> <br> <font color=""green"" size=""8vw""> + $0.09 </font> </p>","null","feedback","","","","","","","0.31"
"","","","","","html-keyboard-response","117","144620","0.0-7.27-0.27","64ecac30144d366de5ce9c03","6579d0c5e56c6e1626038f86","6579d115f58c244f51a95cc4","80","
            
        <div style=""text-align: center; position: fixed; top: 5vh; left: 40vw;"">
            <div style=""margin:0 auto; width: 20vw; top: 8vh; font-size: 2vw""> 
            <font color=""green""> Bonus : $0.31 </font>
            </div>
        </div>
    
            <div> Please press any key to continue to the next movie.</div>
        ","enter","ITI","","","","","","",""
"","","","","","html-keyboard-response","118","144876","0.0-7.27-1.27","64ecac30144d366de5ce9c03","6579d0c5e56c6e1626038f86","6579d115f58c244f51a95cc4","255","./stimuli//pack_morph_shapes_1/cat_2/diff_1/ex_2_1_13.mp4","arrowright","response","ArrowRight","13","2","1","test","true",""
"","","","","","html-keyboard-response","119","146380","0.0-7.27-2.27","64ecac30144d366de5ce9c03","6579d0c5e56c6e1626038f86","6579d115f58c244f51a95cc4","null","<p> <font color=""green"" size=""5vw""> Correct category! </font> <br> <br> <font color=""green"" size=""8vw""> + $0.1 </font> </p>","null","feedback","","","","","","","0.41"
"","","","","","html-keyboard-response","120","146591","0.0-7.28-0.28","64ecac30144d366de5ce9c03","6579d0c5e56c6e1626038f86","6579d115f58c244f51a95cc4","210","
            
        <div style=""text-align: center; position: fixed; top: 5vh; left: 40vw;"">
            <div style=""margin:0 auto; width: 20vw; top: 8vh; font-size: 2vw""> 
            <font color=""green""> Bonus : $0.41 </font>
            </div>
        </div>
    
            <div> Please press any key to continue to the next movie.</div>
        ","enter","ITI","","","","","","",""
"","","","","","html-keyboard-response","121","146900","0.0-7.28-1.28","64ecac30144d366de5ce9c03","6579d0c5e56c6e1626038f86","6579d115f58c244f51a95cc4","295","./stimuli//pack_morph_shapes_1/cat_2/diff_2/ex_2_2_3.mp4","arrowleft","response","ArrowRight","3","2","2","test","false",""
"","","","","","html-keyboard-response","122","148404","0.0-7.28-2.28","64ecac30144d366de5ce9c03","6579d0c5e56c6e1626038f86","6579d115f58c244f51a95cc4","null","<p> <font color=""red"" size=""5vw""> Wrong category! </font> <br> <br> <font color=""red"" size=""8vw""> - $0.05 </font> </p>","null","feedback","","","","","","","0.36"
"","","","","","html-keyboard-response","123","148612","0.0-7.29-0.29","64ecac30144d366de5ce9c03","6579d0c5e56c6e1626038f86","6579d115f58c244f51a95cc4","207","
            
        <div style=""text-align: center; position: fixed; top: 5vh; left: 40vw;"">
            <div style=""margin:0 auto; width: 20vw; top: 8vh; font-size: 2vw""> 
            <font color=""green""> Bonus : $0.36 </font>
            </div>
        </div>
    
            <div> Please press any key to continue to the next movie.</div>
        ","enter","ITI","","","","","","",""
"","","","","","html-keyboard-response","124","148812","0.0-7.29-1.29","64ecac30144d366de5ce9c03","6579d0c5e56c6e1626038f86","6579d115f58c244f51a95cc4","196","./stimuli//pack_morph_shapes_1/cat_1/diff_2/ex_1_2_2.mp4","arrowleft","response","ArrowLeft","2","1","2","test","true",""
"","","","","","html-keyboard-response","125","150314","0.0-7.29-2.29","64ecac30144d366de5ce9c03","6579d0c5e56c6e1626038f86","6579d115f58c244f51a95cc4","null","<p> <font color=""green"" size=""5vw""> Correct category! </font> <br> <br> <font color=""green"" size=""8vw""> + $0.1 </font> </p>","null","feedback","","","","","","","0.46"
"","","","","","html-keyboard-response","126","150372","0.0-7.30-0.30","64ecac30144d366de5ce9c03","6579d0c5e56c6e1626038f86","6579d115f58c244f51a95cc4","57","
            
        <div style=""text-align: center; position: fixed; top: 5vh; left: 40vw;"">
            <div style=""margin:0 auto; width: 20vw; top: 8vh; font-size: 2vw""> 
            <font color=""green""> Bonus : $0.46 </font>
            </div>
        </div>
    
            <div> Please press any key to continue to the next movie.</div>
        ","enter","ITI","","","","","","",""
"","","","","","html-keyboard-response","127","150652","0.0-7.30-1.30","64ecac30144d366de5ce9c03","6579d0c5e56c6e1626038f86","6579d115f58c244f51a95cc4","279","./stimuli//pack_morph_shapes_1/cat_1/diff_2/ex_1_2_3.mp4","arrowleft","response","ArrowLeft","3","1","2","test","true",""
"","","","","","html-keyboard-response","128","152156","0.0-7.30-2.30","64ecac30144d366de5ce9c03","6579d0c5e56c6e1626038f86","6579d115f58c244f51a95cc4","null","<p> <font color=""green"" size=""5vw""> Correct category! </font> <br> <br> <font color=""green"" size=""8vw""> + $0.09 </font> </p>","null","feedback","","","","","","","0.55"
"","","","","","html-keyboard-response","129","152292","0.0-7.31-0.31","64ecac30144d366de5ce9c03","6579d0c5e56c6e1626038f86","6579d115f58c244f51a95cc4","135","
            
        <div style=""text-align: center; position: fixed; top: 5vh; left: 40vw;"">
            <div style=""margin:0 auto; width: 20vw; top: 8vh; font-size: 2vw""> 
            <font color=""green""> Bonus : $0.55 </font>
            </div>
        </div>
    
            <div> Please press any key to continue to the next movie.</div>
        ","enter","ITI","","","","","","",""
"","","","","","html-keyboard-response","130","152564","0.0-7.31-1.31","64ecac30144d366de5ce9c03","6579d0c5e56c6e1626038f86","6579d115f58c244f51a95cc4","271","./stimuli//pack_morph_shapes_1/cat_2/diff_2/ex_2_2_11.mp4","arrowright","response","ArrowRight","11","2","2","test","true",""
"","","","","","html-keyboard-response","131","154068","0.0-7.31-2.31","64ecac30144d366de5ce9c03","6579d0c5e56c6e1626038f86","6579d115f58c244f51a95cc4","null","<p> <font color=""green"" size=""5vw""> Correct category! </font> <br> <br> <font color=""green"" size=""8vw""> + $0.09 </font> </p>","null","feedback","","","","","","","0.64"
"","","","","","html-keyboard-response","132","154093","0.0-7.32-0.32","64ecac30144d366de5ce9c03","6579d0c5e56c6e1626038f86","6579d115f58c244f51a95cc4","24","
            
        <div style=""text-align: center; position: fixed; top: 5vh; left: 40vw;"">
            <div style=""margin:0 auto; width: 20vw; top: 8vh; font-size: 2vw""> 
            <font color=""green""> Bonus : $0.64 </font>
            </div>
        </div>
    
            <div> Please press any key to continue to the next movie.</div>
        ","enter","ITI","","","","","","",""
"","","","","","html-keyboard-response","133","154404","0.0-7.32-1.32","64ecac30144d366de5ce9c03","6579d0c5e56c6e1626038f86","6579d115f58c244f51a95cc4","310","./stimuli//pack_morph_shapes_1/cat_2/diff_2/ex_2_2_7.mp4","arrowright","response","ArrowRight","7","2","2","test","true",""
"","","","","","html-keyboard-response","134","155926","0.0-7.32-2.32","64ecac30144d366de5ce9c03","6579d0c5e56c6e1626038f86","6579d115f58c244f51a95cc4","null","<p> <font color=""green"" size=""5vw""> Correct category! </font> <br> <br> <font color=""green"" size=""8vw""> + $0.09 </font> </p>","null","feedback","","","","","","","0.73"
"","","","","","html-keyboard-response","135","155976","0.0-7.33-0.33","64ecac30144d366de5ce9c03","6579d0c5e56c6e1626038f86","6579d115f58c244f51a95cc4","50","
            
        <div style=""text-align: center; position: fixed; top: 5vh; left: 40vw;"">
            <div style=""margin:0 auto; width: 20vw; top: 8vh; font-size: 2vw""> 
            <font color=""green""> Bonus : $0.73 </font>
            </div>
        </div>
    
            <div> Please press any key to continue to the next movie.</div>
        ","enter","ITI","","","","","","",""
"","","","","","html-keyboard-response","136","156196","0.0-7.33-1.33","64ecac30144d366de5ce9c03","6579d0c5e56c6e1626038f86","6579d115f58c244f51a95cc4","214","./stimuli//pack_morph_shapes_1/cat_2/diff_3/ex_2_3_4.mp4","arrowleft","response","ArrowRight","4","2","3","test","false",""
"","","","","","html-keyboard-response","137","157697","0.0-7.33-2.33","64ecac30144d366de5ce9c03","6579d0c5e56c6e1626038f86","6579d115f58c244f51a95cc4","null","<p> <font color=""red"" size=""5vw""> Wrong category! </font> <br> <br> <font color=""red"" size=""8vw""> - $0.05 </font> </p>","null","feedback","","","","","","","0.68"
"","","","","","html-keyboard-response","138","157836","0.0-7.34-0.34","64ecac30144d366de5ce9c03","6579d0c5e56c6e1626038f86","6579d115f58c244f51a95cc4","138","
            
        <div style=""text-align: center; position: fixed; top: 5vh; left: 40vw;"">
            <div style=""margin:0 auto; width: 20vw; top: 8vh; font-size: 2vw""> 
            <font color=""green""> Bonus : $0.68 </font>
            </div>
        </div>
    
            <div> Please press any key to continue to the next movie.</div>
        ","enter","ITI","","","","","","",""
"","","","","","html-keyboard-response","139","158092","0.0-7.34-1.34","64ecac30144d366de5ce9c03","6579d0c5e56c6e1626038f86","6579d115f58c244f51a95cc4","254","./stimuli//pack_morph_shapes_1/cat_2/diff_3/ex_2_3_4.mp4","arrowleft","response","ArrowRight","4","2","3","test","false",""
"","","","","","html-keyboard-response","140","159596","0.0-7.34-2.34","64ecac30144d366de5ce9c03","6579d0c5e56c6e1626038f86","6579d115f58c244f51a95cc4","null","<p> <font color=""red"" size=""5vw""> Wrong category! </font> <br> <br> <font color=""red"" size=""8vw""> - $0.05 </font> </p>","null","feedback","","","","","","","0.63"
"","","","","","html-keyboard-response","141","159748","0.0-7.35-0.35","64ecac30144d366de5ce9c03","6579d0c5e56c6e1626038f86","6579d115f58c244f51a95cc4","151","
            
        <div style=""text-align: center; position: fixed; top: 5vh; left: 40vw;"">
            <div style=""margin:0 auto; width: 20vw; top: 8vh; font-size: 2vw""> 
            <font color=""green""> Bonus : $0.63 </font>
            </div>
        </div>
    
            <div> Please press any key to continue to the next movie.</div>
        ","enter","ITI","","","","","","",""
"","","","","","html-keyboard-response","142","159948","0.0-7.35-1.35","64ecac30144d366de5ce9c03","6579d0c5e56c6e1626038f86","6579d115f58c244f51a95cc4","199","./stimuli//pack_morph_shapes_1/cat_1/diff_3/ex_1_3_13.mp4","arrowleft","response","ArrowLeft","13","1","3","test","true",""
"","","","","","html-keyboard-response","143","161453","0.0-7.35-2.35","64ecac30144d366de5ce9c03","6579d0c5e56c6e1626038f86","6579d115f58c244f51a95cc4","null","<p> <font color=""green"" size=""5vw""> Correct category! </font> <br> <br> <font color=""green"" size=""8vw""> + $0.1 </font> </p>","null","feedback","","","","","","","0.73"
"","","","","","html-keyboard-response","144","161676","0.0-7.36-0.36","64ecac30144d366de5ce9c03","6579d0c5e56c6e1626038f86","6579d115f58c244f51a95cc4","222","
            
        <div style=""text-align: center; position: fixed; top: 5vh; left: 40vw;"">
            <div style=""margin:0 auto; width: 20vw; top: 8vh; font-size: 2vw""> 
            <font color=""green""> Bonus : $0.73 </font>
            </div>
        </div>
    
            <div> Please press any key to continue to the next movie.</div>
        ","enter","ITI","","","","","","",""
"","","","","","html-keyboard-response","145","161916","0.0-7.36-1.36","64ecac30144d366de5ce9c03","6579d0c5e56c6e1626038f86","6579d115f58c244f51a95cc4","239","./stimuli//pack_morph_shapes_1/cat_2/diff_3/ex_2_3_1.mp4","arrowright","response","ArrowRight","1","2","3","test","true",""
"","","","","","html-keyboard-response","146","163421","0.0-7.36-2.36","64ecac30144d366de5ce9c03","6579d0c5e56c6e1626038f86","6579d115f58c244f51a95cc4","null","<p> <font color=""green"" size=""5vw""> Correct category! </font> <br> <br> <font color=""green"" size=""8vw""> + $0.1 </font> </p>","null","feedback","","","","","","","0.83"
"","","","","","html-keyboard-response","147","163788","0.0-7.37-0.37","64ecac30144d366de5ce9c03","6579d0c5e56c6e1626038f86","6579d115f58c244f51a95cc4","366","
            
        <div style=""text-align: center; position: fixed; top: 5vh; left: 40vw;"">
            <div style=""margin:0 auto; width: 20vw; top: 8vh; font-size: 2vw""> 
            <font color=""green""> Bonus : $0.83 </font>
            </div>
        </div>
    
            <div> Please press any key to continue to the next movie.</div>
        ","enter","ITI","","","","","","",""
"","","","","","html-keyboard-response","148","164076","0.0-7.37-1.37","64ecac30144d366de5ce9c03","6579d0c5e56c6e1626038f86","6579d115f58c244f51a95cc4","286","./stimuli//pack_morph_shapes_1/cat_2/diff_3/ex_2_3_5.mp4","arrowleft","response","ArrowRight","5","2","3","test","false",""
"","","","","","html-keyboard-response","149","165581","0.0-7.37-2.37","64ecac30144d366de5ce9c03","6579d0c5e56c6e1626038f86","6579d115f58c244f51a95cc4","null","<p> <font color=""red"" size=""5vw""> Wrong category! </font> <br> <br> <font color=""red"" size=""8vw""> - $0.05 </font> </p>","null","feedback","","","","","","","0.78"
"","","","","","html-keyboard-response","150","165757","0.0-7.38-0.38","64ecac30144d366de5ce9c03","6579d0c5e56c6e1626038f86","6579d115f58c244f51a95cc4","174","
            
        <div style=""text-align: center; position: fixed; top: 5vh; left: 40vw;"">
            <div style=""margin:0 auto; width: 20vw; top: 8vh; font-size: 2vw""> 
            <font color=""green""> Bonus : $0.78 </font>
            </div>
        </div>
    
            <div> Please press any key to continue to the next movie.</div>
        ","enter","ITI","","","","","","",""
"","","","","","html-keyboard-response","151","166021","0.0-7.38-1.38","64ecac30144d366de5ce9c03","6579d0c5e56c6e1626038f86","6579d115f58c244f51a95cc4","263","./stimuli//pack_morph_shapes_1/cat_1/diff_2/ex_1_2_3.mp4","arrowright","response","ArrowLeft","3","1","2","test","false",""
"","","","","","html-keyboard-response","152","167528","0.0-7.38-2.38","64ecac30144d366de5ce9c03","6579d0c5e56c6e1626038f86","6579d115f58c244f51a95cc4","null","<p> <font color=""red"" size=""5vw""> Wrong category! </font> <br> <br> <font color=""red"" size=""8vw""> - $0.05 </font> </p>","null","feedback","","","","","","","0.73"
"","","","","","html-keyboard-response","153","167805","0.0-7.39-0.39","64ecac30144d366de5ce9c03","6579d0c5e56c6e1626038f86","6579d115f58c244f51a95cc4","276","
            
        <div style=""text-align: center; position: fixed; top: 5vh; left: 40vw;"">
            <div style=""margin:0 auto; width: 20vw; top: 8vh; font-size: 2vw""> 
            <font color=""green""> Bonus : $0.73 </font>
            </div>
        </div>
    
            <div> Please press any key to continue to the next movie.</div>
        ","enter","ITI","","","","","","",""
"","","","","","html-keyboard-response","154","168013","0.0-7.39-1.39","64ecac30144d366de5ce9c03","6579d0c5e56c6e1626038f86","6579d115f58c244f51a95cc4","206","./stimuli//pack_morph_shapes_1/cat_2/diff_2/ex_2_2_5.mp4","arrowright","response","ArrowRight","5","2","2","test","true",""
"","","","","","html-keyboard-response","155","169518","0.0-7.39-2.39","64ecac30144d366de5ce9c03","6579d0c5e56c6e1626038f86","6579d115f58c244f51a95cc4","null","<p> <font color=""green"" size=""5vw""> Correct category! </font> <br> <br> <font color=""green"" size=""8vw""> + $0.1 </font> </p>","null","feedback","","","","","","","0.83"
"","","","","","html-keyboard-response","156","169701","0.0-7.40-0.40","64ecac30144d366de5ce9c03","6579d0c5e56c6e1626038f86","6579d115f58c244f51a95cc4","182","
            
        <div style=""text-align: center; position: fixed; top: 5vh; left: 40vw;"">
            <div style=""margin:0 auto; width: 20vw; top: 8vh; font-size: 2vw""> 
            <font color=""green""> Bonus : $0.83 </font>
            </div>
        </div>
    
            <div> Please press any key to continue to the next movie.</div>
        ","enter","ITI","","","","","","",""
"","","","","","html-keyboard-response","157","169901","0.0-7.40-1.40","64ecac30144d366de5ce9c03","6579d0c5e56c6e1626038f86","6579d115f58c244f51a95cc4","199","./stimuli//pack_morph_shapes_1/cat_1/diff_2/ex_1_2_4.mp4","arrowright","response","ArrowLeft","4","1","2","test","false",""
"","","","","","html-keyboard-response","158","171406","0.0-7.40-2.40","64ecac30144d366de5ce9c03","6579d0c5e56c6e1626038f86","6579d115f58c244f51a95cc4","null","<p> <font color=""red"" size=""5vw""> Wrong category! </font> <br> <br> <font color=""red"" size=""8vw""> - $0.05 </font> </p>","null","feedback","","","","","","","0.78"
"","","","","","html-keyboard-response","159","171589","0.0-7.41-0.41","64ecac30144d366de5ce9c03","6579d0c5e56c6e1626038f86","6579d115f58c244f51a95cc4","182","
            
        <div style=""text-align: center; position: fixed; top: 5vh; left: 40vw;"">
            <div style=""margin:0 auto; width: 20vw; top: 8vh; font-size: 2vw""> 
            <font color=""green""> Bonus : $0.78 </font>
            </div>
        </div>
    
            <div> Please press any key to continue to the next movie.</div>
        ","enter","ITI","","","","","","",""
"","","","","","html-keyboard-response","160","171845","0.0-7.41-1.41","64ecac30144d366de5ce9c03","6579d0c5e56c6e1626038f86","6579d115f58c244f51a95cc4","255","./stimuli//pack_morph_shapes_1/cat_1/diff_2/ex_1_2_2.mp4","arrowright","response","ArrowLeft","2","1","2","test","false",""
"","","","","","html-keyboard-response","161","173350","0.0-7.41-2.41","64ecac30144d366de5ce9c03","6579d0c5e56c6e1626038f86","6579d115f58c244f51a95cc4","null","<p> <font color=""red"" size=""5vw""> Wrong category! </font> <br> <br> <font color=""red"" size=""8vw""> - $0.05 </font> </p>","null","feedback","","","","","","","0.73"
"","","","","","html-keyboard-response","162","173637","0.0-7.42-0.42","64ecac30144d366de5ce9c03","6579d0c5e56c6e1626038f86","6579d115f58c244f51a95cc4","286","
            
        <div style=""text-align: center; position: fixed; top: 5vh; left: 40vw;"">
            <div style=""margin:0 auto; width: 20vw; top: 8vh; font-size: 2vw""> 
            <font color=""green""> Bonus : $0.73 </font>
            </div>
        </div>
    
            <div> Please press any key to continue to the next movie.</div>
        ","enter","ITI","","","","","","",""
"","","","","","html-keyboard-response","163","174189","0.0-7.42-1.42","64ecac30144d366de5ce9c03","6579d0c5e56c6e1626038f86","6579d115f58c244f51a95cc4","551","./stimuli//pack_morph_shapes_1/cat_1/diff_2/ex_1_2_2.mp4","arrowright","response","ArrowLeft","2","1","2","test","false",""
"","","","","","html-keyboard-response","164","175692","0.0-7.42-2.42","64ecac30144d366de5ce9c03","6579d0c5e56c6e1626038f86","6579d115f58c244f51a95cc4","null","<p> <font color=""red"" size=""5vw""> Wrong category! </font> <br> <br> <font color=""red"" size=""8vw""> - $0.05 </font> </p>","null","feedback","","","","","","","0.68"
"","","","","","html-keyboard-response","165","176325","0.0-7.43-0.43","64ecac30144d366de5ce9c03","6579d0c5e56c6e1626038f86","6579d115f58c244f51a95cc4","632","
            
        <div style=""text-align: center; position: fixed; top: 5vh; left: 40vw;"">
            <div style=""margin:0 auto; width: 20vw; top: 8vh; font-size: 2vw""> 
            <font color=""green""> Bonus : $0.68 </font>
            </div>
        </div>
    
            <div> Please press any key to continue to the next movie.</div>
        ","enter","ITI","","","","","","",""
"","","","","","html-keyboard-response","166","176566","0.0-7.43-1.43","64ecac30144d366de5ce9c03","6579d0c5e56c6e1626038f86","6579d115f58c244f51a95cc4","239","./stimuli//pack_morph_shapes_1/cat_2/diff_1/ex_2_1_1.mp4","arrowright","response","ArrowRight","1","2","1","test","true",""
"","","","","","html-keyboard-response","167","178070","0.0-7.43-2.43","64ecac30144d366de5ce9c03","6579d0c5e56c6e1626038f86","6579d115f58c244f51a95cc4","null","<p> <font color=""green"" size=""5vw""> Correct category! </font> <br> <br> <font color=""green"" size=""8vw""> + $0.1 </font> </p>","null","feedback","","","","","","","0.78"
"","","","","","html-keyboard-response","168","178268","0.0-7.44-0.44","64ecac30144d366de5ce9c03","6579d0c5e56c6e1626038f86","6579d115f58c244f51a95cc4","198","
            
        <div style=""text-align: center; position: fixed; top: 5vh; left: 40vw;"">
            <div style=""margin:0 auto; width: 20vw; top: 8vh; font-size: 2vw""> 
            <font color=""green""> Bonus : $0.78 </font>
            </div>
        </div>
    
            <div> Please press any key to continue to the next movie.</div>
        ","enter","ITI","","","","","","",""
"","","","","","html-keyboard-response","169","178509","0.0-7.44-1.44","64ecac30144d366de5ce9c03","6579d0c5e56c6e1626038f86","6579d115f58c244f51a95cc4","239","./stimuli//pack_morph_shapes_1/cat_2/diff_1/ex_2_1_11.mp4","arrowleft","response","ArrowRight","11","2","1","test","false",""
"","","","","","html-keyboard-response","170","180013","0.0-7.44-2.44","64ecac30144d366de5ce9c03","6579d0c5e56c6e1626038f86","6579d115f58c244f51a95cc4","null","<p> <font color=""red"" size=""5vw""> Wrong category! </font> <br> <br> <font color=""red"" size=""8vw""> - $0.05 </font> </p>","null","feedback","","","","","","","0.73"
"","","","","","html-keyboard-response","171","180236","0.0-7.45-0.45","64ecac30144d366de5ce9c03","6579d0c5e56c6e1626038f86","6579d115f58c244f51a95cc4","223","
            
        <div style=""text-align: center; position: fixed; top: 5vh; left: 40vw;"">
            <div style=""margin:0 auto; width: 20vw; top: 8vh; font-size: 2vw""> 
            <font color=""green""> Bonus : $0.73 </font>
            </div>
        </div>
    
            <div> Please press any key to continue to the next movie.</div>
        ","enter","ITI","","","","","","",""
"","","","","","html-keyboard-response","172","180524","0.0-7.45-1.45","64ecac30144d366de5ce9c03","6579d0c5e56c6e1626038f86","6579d115f58c244f51a95cc4","287","./stimuli//pack_morph_shapes_1/cat_1/diff_1/ex_1_1_8.mp4","arrowleft","response","ArrowLeft","8","1","1","test","true",""
"","","","","","html-keyboard-response","173","182028","0.0-7.45-2.45","64ecac30144d366de5ce9c03","6579d0c5e56c6e1626038f86","6579d115f58c244f51a95cc4","null","<p> <font color=""green"" size=""5vw""> Correct category! </font> <br> <br> <font color=""green"" size=""8vw""> + $0.09 </font> </p>","null","feedback","","","","","","","0.82"
"","","","","","html-keyboard-response","174","182140","0.0-7.46-0.46","64ecac30144d366de5ce9c03","6579d0c5e56c6e1626038f86","6579d115f58c244f51a95cc4","112","
            
        <div style=""text-align: center; position: fixed; top: 5vh; left: 40vw;"">
            <div style=""margin:0 auto; width: 20vw; top: 8vh; font-size: 2vw""> 
            <font color=""green""> Bonus : $0.82 </font>
            </div>
        </div>
    
            <div> Please press any key to continue to the next movie.</div>
        ","enter","ITI","","","","","","",""
"","","","","","html-keyboard-response","175","182452","0.0-7.46-1.46","64ecac30144d366de5ce9c03","6579d0c5e56c6e1626038f86","6579d115f58c244f51a95cc4","311","./stimuli//pack_morph_shapes_1/cat_1/diff_1/ex_1_1_12.mp4","arrowleft","response","ArrowLeft","12","1","1","test","true",""
"","","","","","html-keyboard-response","176","183958","0.0-7.46-2.46","64ecac30144d366de5ce9c03","6579d0c5e56c6e1626038f86","6579d115f58c244f51a95cc4","null","<p> <font color=""green"" size=""5vw""> Correct category! </font> <br> <br> <font color=""green"" size=""8vw""> + $0.09 </font> </p>","null","feedback","","","","","","","0.91"
"","","","","","html-keyboard-response","177","184068","0.0-7.47-0.47","64ecac30144d366de5ce9c03","6579d0c5e56c6e1626038f86","6579d115f58c244f51a95cc4","110","
            
        <div style=""text-align: center; position: fixed; top: 5vh; left: 40vw;"">
            <div style=""margin:0 auto; width: 20vw; top: 8vh; font-size: 2vw""> 
            <font color=""green""> Bonus : $0.91 </font>
            </div>
        </div>
    
            <div> Please press any key to continue to the next movie.</div>
        ","enter","ITI","","","","","","",""
"","","","","","html-keyboard-response","178","184365","0.0-7.47-1.47","64ecac30144d366de5ce9c03","6579d0c5e56c6e1626038f86","6579d115f58c244f51a95cc4","295","./stimuli//pack_morph_shapes_1/cat_1/diff_1/ex_1_1_8.mp4","arrowright","response","ArrowLeft","8","1","1","test","false",""
"","","","","","html-keyboard-response","179","185872","0.0-7.47-2.47","64ecac30144d366de5ce9c03","6579d0c5e56c6e1626038f86","6579d115f58c244f51a95cc4","null","<p> <font color=""red"" size=""5vw""> Wrong category! </font> <br> <br> <font color=""red"" size=""8vw""> - $0.05 </font> </p>","null","feedback","","","","","","","0.86"
"","","","","","html-keyboard-response","180","185893","0.0-7.48-0.48","64ecac30144d366de5ce9c03","6579d0c5e56c6e1626038f86","6579d115f58c244f51a95cc4","20","
            
        <div style=""text-align: center; position: fixed; top: 5vh; left: 40vw;"">
            <div style=""margin:0 auto; width: 20vw; top: 8vh; font-size: 2vw""> 
            <font color=""green""> Bonus : $0.86 </font>
            </div>
        </div>
    
            <div> Please press any key to continue to the next movie.</div>
        ","enter","ITI","","","","","","",""
"","","","","","html-keyboard-response","181","186212","0.0-7.48-1.48","64ecac30144d366de5ce9c03","6579d0c5e56c6e1626038f86","6579d115f58c244f51a95cc4","318","./stimuli//pack_morph_shapes_1/cat_2/diff_1/ex_2_1_13.mp4","arrowright","response","ArrowRight","13","2","1","test","true",""
"","","","","","html-keyboard-response","182","187718","0.0-7.48-2.48","64ecac30144d366de5ce9c03","6579d0c5e56c6e1626038f86","6579d115f58c244f51a95cc4","null","<p> <font color=""green"" size=""5vw""> Correct category! </font> <br> <br> <font color=""green"" size=""8vw""> + $0.09 </font> </p>","null","feedback","","","","","","","0.95"
"","","","","","html-keyboard-response","183","187940","0.0-7.49-0.49","64ecac30144d366de5ce9c03","6579d0c5e56c6e1626038f86","6579d115f58c244f51a95cc4","221","
            
        <div style=""text-align: center; position: fixed; top: 5vh; left: 40vw;"">
            <div style=""margin:0 auto; width: 20vw; top: 8vh; font-size: 2vw""> 
            <font color=""green""> Bonus : $0.95 </font>
            </div>
        </div>
    
            <div> Please press any key to continue to the next movie.</div>
        ","enter","ITI","","","","","","",""
"","","","","","html-keyboard-response","184","188196","0.0-7.49-1.49","64ecac30144d366de5ce9c03","6579d0c5e56c6e1626038f86","6579d115f58c244f51a95cc4","255","./stimuli//pack_morph_shapes_1/cat_1/diff_1/ex_1_1_2.mp4","arrowright","response","ArrowLeft","2","1","1","test","false",""
"","","","","","html-keyboard-response","185","189702","0.0-7.49-2.49","64ecac30144d366de5ce9c03","6579d0c5e56c6e1626038f86","6579d115f58c244f51a95cc4","null","<p> <font color=""red"" size=""5vw""> Wrong category! </font> <br> <br> <font color=""red"" size=""8vw""> - $0.05 </font> </p>","null","feedback","","","","","","","0.9"
"","","","","","html-keyboard-response","186","189796","0.0-7.50-0.50","64ecac30144d366de5ce9c03","6579d0c5e56c6e1626038f86","6579d115f58c244f51a95cc4","93","
            
        <div style=""text-align: center; position: fixed; top: 5vh; left: 40vw;"">
            <div style=""margin:0 auto; width: 20vw; top: 8vh; font-size: 2vw""> 
            <font color=""green""> Bonus : $0.9 </font>
            </div>
        </div>
    
            <div> Please press any key to continue to the next movie.</div>
        ","enter","ITI","","","","","","",""
"","","","","","html-keyboard-response","187","190052","0.0-7.50-1.50","64ecac30144d366de5ce9c03","6579d0c5e56c6e1626038f86","6579d115f58c244f51a95cc4","255","./stimuli//pack_morph_shapes_1/cat_1/diff_1/ex_1_1_8.mp4","arrowright","response","ArrowLeft","8","1","1","test","false",""
"","","","","","html-keyboard-response","188","191558","0.0-7.50-2.50","64ecac30144d366de5ce9c03","6579d0c5e56c6e1626038f86","6579d115f58c244f51a95cc4","null","<p> <font color=""red"" size=""5vw""> Wrong category! </font> <br> <br> <font color=""red"" size=""8vw""> - $0.05 </font> </p>","null","feedback","","","","","","","0.85"
"","","","","","html-keyboard-response","189","191844","0.0-7.51-0.51","64ecac30144d366de5ce9c03","6579d0c5e56c6e1626038f86","6579d115f58c244f51a95cc4","285","
            
        <div style=""text-align: center; position: fixed; top: 5vh; left: 40vw;"">
            <div style=""margin:0 auto; width: 20vw; top: 8vh; font-size: 2vw""> 
            <font color=""green""> Bonus : $0.85 </font>
            </div>
        </div>
    
            <div> Please press any key to continue to the next movie.</div>
        ","enter","ITI","","","","","","",""
"","","","","","html-keyboard-response","190","192186","0.0-7.51-1.51","64ecac30144d366de5ce9c03","6579d0c5e56c6e1626038f86","6579d115f58c244f51a95cc4","340","./stimuli//pack_morph_shapes_1/cat_2/diff_1/ex_2_1_15.mp4","arrowright","response","ArrowRight","15","2","1","test","true",""
"","","","","","html-keyboard-response","191","193690","0.0-7.51-2.51","64ecac30144d366de5ce9c03","6579d0c5e56c6e1626038f86","6579d115f58c244f51a95cc4","null","<p> <font color=""green"" size=""5vw""> Correct category! </font> <br> <br> <font color=""green"" size=""8vw""> + $0.09 </font> </p>","null","feedback","","","","","","","0.94"
"","","","","","html-keyboard-response","192","193780","0.0-7.52-0.52","64ecac30144d366de5ce9c03","6579d0c5e56c6e1626038f86","6579d115f58c244f51a95cc4","89","
            
        <div style=""text-align: center; position: fixed; top: 5vh; left: 40vw;"">
            <div style=""margin:0 auto; width: 20vw; top: 8vh; font-size: 2vw""> 
            <font color=""green""> Bonus : $0.94 </font>
            </div>
        </div>
    
            <div> Please press any key to continue to the next movie.</div>
        ","enter","ITI","","","","","","",""
"","","","","","html-keyboard-response","193","194036","0.0-7.52-1.52","64ecac30144d366de5ce9c03","6579d0c5e56c6e1626038f86","6579d115f58c244f51a95cc4","255","./stimuli//pack_morph_shapes_1/cat_2/diff_1/ex_2_1_5.mp4","arrowright","response","ArrowRight","5","2","1","test","true",""
"","","","","","html-keyboard-response","194","195544","0.0-7.52-2.52","64ecac30144d366de5ce9c03","6579d0c5e56c6e1626038f86","6579d115f58c244f51a95cc4","null","<p> <font color=""green"" size=""5vw""> Correct category! </font> <br> <br> <font color=""green"" size=""8vw""> + $0.1 </font> </p>","null","feedback","","","","","","","1.04"
"","","","","","html-keyboard-response","195","195676","0.0-7.53-0.53","64ecac30144d366de5ce9c03","6579d0c5e56c6e1626038f86","6579d115f58c244f51a95cc4","131","
            
        <div style=""text-align: center; position: fixed; top: 5vh; left: 40vw;"">
            <div style=""margin:0 auto; width: 20vw; top: 8vh; font-size: 2vw""> 
            <font color=""green""> Bonus : $1.04 </font>
            </div>
        </div>
    
            <div> Please press any key to continue to the next movie.</div>
        ","enter","ITI","","","","","","",""
"","","","","","html-keyboard-response","196","195948","0.0-7.53-1.53","64ecac30144d366de5ce9c03","6579d0c5e56c6e1626038f86","6579d115f58c244f51a95cc4","271","./stimuli//pack_morph_shapes_1/cat_1/diff_1/ex_1_1_11.mp4","arrowleft","response","ArrowLeft","11","1","1","test","true",""
"","","","","","html-keyboard-response","197","197454","0.0-7.53-2.53","64ecac30144d366de5ce9c03","6579d0c5e56c6e1626038f86","6579d115f58c244f51a95cc4","null","<p> <font color=""green"" size=""5vw""> Correct category! </font> <br> <br> <font color=""green"" size=""8vw""> + $0.09 </font> </p>","null","feedback","","","","","","","1.13"
"","","","","","html-keyboard-response","198","197596","0.0-7.54-0.54","64ecac30144d366de5ce9c03","6579d0c5e56c6e1626038f86","6579d115f58c244f51a95cc4","141","
            
        <div style=""text-align: center; position: fixed; top: 5vh; left: 40vw;"">
            <div style=""margin:0 auto; width: 20vw; top: 8vh; font-size: 2vw""> 
            <font color=""green""> Bonus : $1.13 </font>
            </div>
        </div>
    
            <div> Please press any key to continue to the next movie.</div>
        ","enter","ITI","","","","","","",""
"","","","","","html-keyboard-response","199","197796","0.0-7.54-1.54","64ecac30144d366de5ce9c03","6579d0c5e56c6e1626038f86","6579d115f58c244f51a95cc4","199","./stimuli//pack_morph_shapes_1/cat_2/diff_1/ex_2_1_16.mp4","arrowleft","response","ArrowRight","16","2","1","test","false",""
"","","","","","html-keyboard-response","200","199302","0.0-7.54-2.54","64ecac30144d366de5ce9c03","6579d0c5e56c6e1626038f86","6579d115f58c244f51a95cc4","null","<p> <font color=""red"" size=""5vw""> Wrong category! </font> <br> <br> <font color=""red"" size=""8vw""> - $0.05 </font> </p>","null","feedback","","","","","","","1.08"
"","","","","","html-keyboard-response","201","199396","0.0-7.55-0.55","64ecac30144d366de5ce9c03","6579d0c5e56c6e1626038f86","6579d115f58c244f51a95cc4","93","
            
        <div style=""text-align: center; position: fixed; top: 5vh; left: 40vw;"">
            <div style=""margin:0 auto; width: 20vw; top: 8vh; font-size: 2vw""> 
            <font color=""green""> Bonus : $1.08 </font>
            </div>
        </div>
    
            <div> Please press any key to continue to the next movie.</div>
        ","enter","ITI","","","","","","",""
"","","","","","html-keyboard-response","202","199668","0.0-7.55-1.55","64ecac30144d366de5ce9c03","6579d0c5e56c6e1626038f86","6579d115f58c244f51a95cc4","271","./stimuli//pack_morph_shapes_1/cat_1/diff_1/ex_1_1_4.mp4","arrowright","response","ArrowLeft","4","1","1","test","false",""
"","","","","","html-keyboard-response","203","201174","0.0-7.55-2.55","64ecac30144d366de5ce9c03","6579d0c5e56c6e1626038f86","6579d115f58c244f51a95cc4","null","<p> <font color=""red"" size=""5vw""> Wrong category! </font> <br> <br> <font color=""red"" size=""8vw""> - $0.05 </font> </p>","null","feedback","","","","","","","1.03"
"","","","","","html-keyboard-response","204","201347","0.0-7.56-0.56","64ecac30144d366de5ce9c03","6579d0c5e56c6e1626038f86","6579d115f58c244f51a95cc4","172","
            
        <div style=""text-align: center; position: fixed; top: 5vh; left: 40vw;"">
            <div style=""margin:0 auto; width: 20vw; top: 8vh; font-size: 2vw""> 
            <font color=""green""> Bonus : $1.03 </font>
            </div>
        </div>
    
            <div> Please press any key to continue to the next movie.</div>
        ","enter","ITI","","","","","","",""
"","","","","","html-keyboard-response","205","201596","0.0-7.56-1.56","64ecac30144d366de5ce9c03","6579d0c5e56c6e1626038f86","6579d115f58c244f51a95cc4","247","./stimuli//pack_morph_shapes_1/cat_1/diff_1/ex_1_1_17.mp4","arrowright","response","ArrowLeft","17","1","1","test","false",""
"","","","","","html-keyboard-response","206","203102","0.0-7.56-2.56","64ecac30144d366de5ce9c03","6579d0c5e56c6e1626038f86","6579d115f58c244f51a95cc4","null","<p> <font color=""red"" size=""5vw""> Wrong category! </font> <br> <br> <font color=""red"" size=""8vw""> - $0.05 </font> </p>","null","feedback","","","","","","","0.98"
"","","","","","html-keyboard-response","207","203252","0.0-7.57-0.57","64ecac30144d366de5ce9c03","6579d0c5e56c6e1626038f86","6579d115f58c244f51a95cc4","149","
            
        <div style=""text-align: center; position: fixed; top: 5vh; left: 40vw;"">
            <div style=""margin:0 auto; width: 20vw; top: 8vh; font-size: 2vw""> 
            <font color=""green""> Bonus : $0.98 </font>
            </div>
        </div>
    
            <div> Please press any key to continue to the next movie.</div>
        ","enter","ITI","","","","","","",""
"","","","","","html-keyboard-response","208","203444","0.0-7.57-1.57","64ecac30144d366de5ce9c03","6579d0c5e56c6e1626038f86","6579d115f58c244f51a95cc4","190","./stimuli//pack_morph_shapes_1/cat_1/diff_1/ex_1_1_3.mp4","arrowright","response","ArrowLeft","3","1","1","test","false",""
"","","","","","html-keyboard-response","209","204949","0.0-7.57-2.57","64ecac30144d366de5ce9c03","6579d0c5e56c6e1626038f86","6579d115f58c244f51a95cc4","null","<p> <font color=""red"" size=""5vw""> Wrong category! </font> <br> <br> <font color=""red"" size=""8vw""> - $0.05 </font> </p>","null","feedback","","","","","","","0.93"
"","","","","","html-keyboard-response","210","205044","0.0-7.58-0.58","64ecac30144d366de5ce9c03","6579d0c5e56c6e1626038f86","6579d115f58c244f51a95cc4","94","
            
        <div style=""text-align: center; position: fixed; top: 5vh; left: 40vw;"">
            <div style=""margin:0 auto; width: 20vw; top: 8vh; font-size: 2vw""> 
            <font color=""green""> Bonus : $0.93 </font>
            </div>
        </div>
    
            <div> Please press any key to continue to the next movie.</div>
        ","enter","ITI","","","","","","",""
"","","","","","html-keyboard-response","211","205276","0.0-7.58-1.58","64ecac30144d366de5ce9c03","6579d0c5e56c6e1626038f86","6579d115f58c244f51a95cc4","230","./stimuli//pack_morph_shapes_1/cat_1/diff_1/ex_1_1_5.mp4","arrowright","response","ArrowLeft","5","1","1","test","false",""
"","","","","","html-keyboard-response","212","206782","0.0-7.58-2.58","64ecac30144d366de5ce9c03","6579d0c5e56c6e1626038f86","6579d115f58c244f51a95cc4","null","<p> <font color=""red"" size=""5vw""> Wrong category! </font> <br> <br> <font color=""red"" size=""8vw""> - $0.05 </font> </p>","null","feedback","","","","","","","0.88"
"","","","","","html-keyboard-response","213","206859","0.0-7.59-0.59","64ecac30144d366de5ce9c03","6579d0c5e56c6e1626038f86","6579d115f58c244f51a95cc4","77","
            
        <div style=""text-align: center; position: fixed; top: 5vh; left: 40vw;"">
            <div style=""margin:0 auto; width: 20vw; top: 8vh; font-size: 2vw""> 
            <font color=""green""> Bonus : $0.88 </font>
            </div>
        </div>
    
            <div> Please press any key to continue to the next movie.</div>
        ","enter","ITI","","","","","","",""
"","","","","","html-keyboard-response","214","207116","0.0-7.59-1.59","64ecac30144d366de5ce9c03","6579d0c5e56c6e1626038f86","6579d115f58c244f51a95cc4","255","./stimuli//pack_morph_shapes_1/cat_2/diff_1/ex_2_1_5.mp4","arrowright","response","ArrowRight","5","2","1","test","true",""
"","","","","","html-keyboard-response","215","208622","0.0-7.59-2.59","64ecac30144d366de5ce9c03","6579d0c5e56c6e1626038f86","6579d115f58c244f51a95cc4","null","<p> <font color=""green"" size=""5vw""> Correct category! </font> <br> <br> <font color=""green"" size=""8vw""> + $0.1 </font> </p>","null","feedback","","","","","","","0.98"
"","","","","","html-keyboard-response","216","208915","0.0-7.60-0.60","64ecac30144d366de5ce9c03","6579d0c5e56c6e1626038f86","6579d115f58c244f51a95cc4","293","
            
        <div style=""text-align: center; position: fixed; top: 5vh; left: 40vw;"">
            <div style=""margin:0 auto; width: 20vw; top: 8vh; font-size: 2vw""> 
            <font color=""green""> Bonus : $0.98 </font>
            </div>
        </div>
    
            <div> Please press any key to continue to the next movie.</div>
        ","arrowleft","ITI","","","","","","",""
"","","","","","html-keyboard-response","217","209700","0.0-7.60-1.60","64ecac30144d366de5ce9c03","6579d0c5e56c6e1626038f86","6579d115f58c244f51a95cc4","782","./stimuli//pack_morph_shapes_1/cat_1/diff_1/ex_1_1_9.mp4","arrowleft","response","ArrowLeft","9","1","1","test","true",""
"","","","","","html-keyboard-response","218","211206","0.0-7.60-2.60","64ecac30144d366de5ce9c03","6579d0c5e56c6e1626038f86","6579d115f58c244f51a95cc4","null","<p> <font color=""green"" size=""5vw""> Correct category! </font> <br> <br> <font color=""green"" size=""8vw""> + $0.09 </font> </p>","null","feedback","","","","","","","1.07"
"","","","","","html-keyboard-response","219","211299","0.0-7.61-0.61","64ecac30144d366de5ce9c03","6579d0c5e56c6e1626038f86","6579d115f58c244f51a95cc4","93","
            
        <div style=""text-align: center; position: fixed; top: 5vh; left: 40vw;"">
            <div style=""margin:0 auto; width: 20vw; top: 8vh; font-size: 2vw""> 
            <font color=""green""> Bonus : $1.07 </font>
            </div>
        </div>
    
            <div> Please press any key to continue to the next movie.</div>
        ","enter","ITI","","","","","","",""
"","","","","","html-keyboard-response","220","211507","0.0-7.61-1.61","64ecac30144d366de5ce9c03","6579d0c5e56c6e1626038f86","6579d115f58c244f51a95cc4","207","./stimuli//pack_morph_shapes_1/cat_1/diff_1/ex_1_1_3.mp4","arrowleft","response","ArrowLeft","3","1","1","test","true",""
"","","","","","html-keyboard-response","221","213014","0.0-7.61-2.61","64ecac30144d366de5ce9c03","6579d0c5e56c6e1626038f86","6579d115f58c244f51a95cc4","null","<p> <font color=""green"" size=""5vw""> Correct category! </font> <br> <br> <font color=""green"" size=""8vw""> + $0.1 </font> </p>","null","feedback","","","","","","","1.17"
"","","","","","html-keyboard-response","222","213131","0.0-7.62-0.62","64ecac30144d366de5ce9c03","6579d0c5e56c6e1626038f86","6579d115f58c244f51a95cc4","117","
            
        <div style=""text-align: center; position: fixed; top: 5vh; left: 40vw;"">
            <div style=""margin:0 auto; width: 20vw; top: 8vh; font-size: 2vw""> 
            <font color=""green""> Bonus : $1.17 </font>
            </div>
        </div>
    
            <div> Please press any key to continue to the next movie.</div>
        ","enter","ITI","","","","","","",""
"","","","","","html-keyboard-response","223","213379","0.0-7.62-1.62","64ecac30144d366de5ce9c03","6579d0c5e56c6e1626038f86","6579d115f58c244f51a95cc4","247","./stimuli//pack_morph_shapes_1/cat_2/diff_1/ex_2_1_15.mp4","arrowright","response","ArrowRight","15","2","1","test","true",""
"","","","","","html-keyboard-response","224","214888","0.0-7.62-2.62","64ecac30144d366de5ce9c03","6579d0c5e56c6e1626038f86","6579d115f58c244f51a95cc4","null","<p> <font color=""green"" size=""5vw""> Correct category! </font> <br> <br> <font color=""green"" size=""8vw""> + $0.1 </font> </p>","null","feedback","","","","","","","1.27"
"","","","","","html-keyboard-response","225","215075","0.0-7.63-0.63","64ecac30144d366de5ce9c03","6579d0c5e56c6e1626038f86","6579d115f58c244f51a95cc4","187","
            
        <div style=""text-align: center; position: fixed; top: 5vh; left: 40vw;"">
            <div style=""margin:0 auto; width: 20vw; top: 8vh; font-size: 2vw""> 
            <font color=""green""> Bonus : $1.27 </font>
            </div>
        </div>
    
            <div> Please press any key to continue to the next movie.</div>
        ","enter","ITI","","","","","","",""
"","","","","","html-keyboard-response","226","215291","0.0-7.63-1.63","64ecac30144d366de5ce9c03","6579d0c5e56c6e1626038f86","6579d115f58c244f51a95cc4","214","./stimuli//pack_morph_shapes_1/cat_2/diff_2/ex_2_2_12.mp4","arrowright","response","ArrowRight","12","2","2","test","true",""
"","","","","","html-keyboard-response","227","216794","0.0-7.63-2.63","64ecac30144d366de5ce9c03","6579d0c5e56c6e1626038f86","6579d115f58c244f51a95cc4","null","<p> <font color=""green"" size=""5vw""> Correct category! </font> <br> <br> <font color=""green"" size=""8vw""> + $0.1 </font> </p>","null","feedback","","","","","","","1.37"
"","","","","","html-keyboard-response","228","216995","0.0-7.64-0.64","64ecac30144d366de5ce9c03","6579d0c5e56c6e1626038f86","6579d115f58c244f51a95cc4","201","
            
        <div style=""text-align: center; position: fixed; top: 5vh; left: 40vw;"">
            <div style=""margin:0 auto; width: 20vw; top: 8vh; font-size: 2vw""> 
            <font color=""green""> Bonus : $1.37 </font>
            </div>
        </div>
    
            <div> Please press any key to continue to the next movie.</div>
        ","enter","ITI","","","","","","",""
"","","","","","html-keyboard-response","229","217307","0.0-7.64-1.64","64ecac30144d366de5ce9c03","6579d0c5e56c6e1626038f86","6579d115f58c244f51a95cc4","311","./stimuli//pack_morph_shapes_1/cat_1/diff_2/ex_1_2_14.mp4","arrowleft","response","ArrowLeft","14","1","2","test","true",""
"","","","","","html-keyboard-response","230","218809","0.0-7.64-2.64","64ecac30144d366de5ce9c03","6579d0c5e56c6e1626038f86","6579d115f58c244f51a95cc4","null","<p> <font color=""green"" size=""5vw""> Correct category! </font> <br> <br> <font color=""green"" size=""8vw""> + $0.09 </font> </p>","null","feedback","","","","","","","1.46"
"","","","","","html-keyboard-response","231","218971","0.0-7.65-0.65","64ecac30144d366de5ce9c03","6579d0c5e56c6e1626038f86","6579d115f58c244f51a95cc4","162","
            
        <div style=""text-align: center; position: fixed; top: 5vh; left: 40vw;"">
            <div style=""margin:0 auto; width: 20vw; top: 8vh; font-size: 2vw""> 
            <font color=""green""> Bonus : $1.46 </font>
            </div>
        </div>
    
            <div> Please press any key to continue to the next movie.</div>
        ","enter","ITI","","","","","","",""
"","","","","","html-keyboard-response","232","219155","0.0-7.65-1.65","64ecac30144d366de5ce9c03","6579d0c5e56c6e1626038f86","6579d115f58c244f51a95cc4","183","./stimuli//pack_morph_shapes_1/cat_2/diff_2/ex_2_2_6.mp4","arrowleft","response","ArrowRight","6","2","2","test","false",""
"","","","","","html-keyboard-response","233","220662","0.0-7.65-2.65","64ecac30144d366de5ce9c03","6579d0c5e56c6e1626038f86","6579d115f58c244f51a95cc4","null","<p> <font color=""red"" size=""5vw""> Wrong category! </font> <br> <br> <font color=""red"" size=""8vw""> - $0.05 </font> </p>","null","feedback","","","","","","","1.41"
"","","","","","html-keyboard-response","234","220787","0.0-7.66-0.66","64ecac30144d366de5ce9c03","6579d0c5e56c6e1626038f86","6579d115f58c244f51a95cc4","124","
            
        <div style=""text-align: center; position: fixed; top: 5vh; left: 40vw;"">
            <div style=""margin:0 auto; width: 20vw; top: 8vh; font-size: 2vw""> 
            <font color=""green""> Bonus : $1.41 </font>
            </div>
        </div>
    
            <div> Please press any key to continue to the next movie.</div>
        ","enter","ITI","","","","","","",""
"","","","","","html-keyboard-response","235","221019","0.0-7.66-1.66","64ecac30144d366de5ce9c03","6579d0c5e56c6e1626038f86","6579d115f58c244f51a95cc4","231","./stimuli//pack_morph_shapes_1/cat_2/diff_2/ex_2_2_1.mp4","arrowright","response","ArrowRight","1","2","2","test","true",""
"","","","","","html-keyboard-response","236","222528","0.0-7.66-2.66","64ecac30144d366de5ce9c03","6579d0c5e56c6e1626038f86","6579d115f58c244f51a95cc4","null","<p> <font color=""green"" size=""5vw""> Correct category! </font> <br> <br> <font color=""green"" size=""8vw""> + $0.1 </font> </p>","null","feedback","","","","","","","1.51"
"","","","","","html-keyboard-response","237","222779","0.0-7.67-0.67","64ecac30144d366de5ce9c03","6579d0c5e56c6e1626038f86","6579d115f58c244f51a95cc4","250","
            
        <div style=""text-align: center; position: fixed; top: 5vh; left: 40vw;"">
            <div style=""margin:0 auto; width: 20vw; top: 8vh; font-size: 2vw""> 
            <font color=""green""> Bonus : $1.51 </font>
            </div>
        </div>
    
            <div> Please press any key to continue to the next movie.</div>
        ","enter","ITI","","","","","","",""
"","","","","","html-keyboard-response","238","223003","0.0-7.67-1.67","64ecac30144d366de5ce9c03","6579d0c5e56c6e1626038f86","6579d115f58c244f51a95cc4","223","./stimuli//pack_morph_shapes_1/cat_1/diff_2/ex_1_2_1.mp4","arrowright","response","ArrowLeft","1","1","2","test","false",""
"","","","","","html-keyboard-response","239","224510","0.0-7.67-2.67","64ecac30144d366de5ce9c03","6579d0c5e56c6e1626038f86","6579d115f58c244f51a95cc4","null","<p> <font color=""red"" size=""5vw""> Wrong category! </font> <br> <br> <font color=""red"" size=""8vw""> - $0.05 </font> </p>","null","feedback","","","","","","","1.46"
"","","","","","html-keyboard-response","240","224795","0.0-7.68-0.68","64ecac30144d366de5ce9c03","6579d0c5e56c6e1626038f86","6579d115f58c244f51a95cc4","284","
            
        <div style=""text-align: center; position: fixed; top: 5vh; left: 40vw;"">
            <div style=""margin:0 auto; width: 20vw; top: 8vh; font-size: 2vw""> 
            <font color=""green""> Bonus : $1.46 </font>
            </div>
        </div>
    
            <div> Please press any key to continue to the next movie.</div>
        ","enter","ITI","","","","","","",""
"","","","","","html-keyboard-response","241","225083","0.0-7.68-1.68","64ecac30144d366de5ce9c03","6579d0c5e56c6e1626038f86","6579d115f58c244f51a95cc4","287","./stimuli//pack_morph_shapes_1/cat_2/diff_1/ex_2_1_15.mp4","arrowright","response","ArrowRight","15","2","1","test","true",""
"","","","","","html-keyboard-response","242","226592","0.0-7.68-2.68","64ecac30144d366de5ce9c03","6579d0c5e56c6e1626038f86","6579d115f58c244f51a95cc4","null","<p> <font color=""green"" size=""5vw""> Correct category! </font> <br> <br> <font color=""green"" size=""8vw""> + $0.09 </font> </p>","null","feedback","","","","","","","1.55"
"","","","","","html-keyboard-response","243","226877","0.0-7.69-0.69","64ecac30144d366de5ce9c03","6579d0c5e56c6e1626038f86","6579d115f58c244f51a95cc4","284","
            
        <div style=""text-align: center; position: fixed; top: 5vh; left: 40vw;"">
            <div style=""margin:0 auto; width: 20vw; top: 8vh; font-size: 2vw""> 
            <font color=""green""> Bonus : $1.55 </font>
            </div>
        </div>
    
            <div> Please press any key to continue to the next movie.</div>
        ","enter","ITI","","","","","","",""
"","","","","","html-keyboard-response","244","227141","0.0-7.69-1.69","64ecac30144d366de5ce9c03","6579d0c5e56c6e1626038f86","6579d115f58c244f51a95cc4","263","./stimuli//pack_morph_shapes_1/cat_2/diff_1/ex_2_1_14.mp4","arrowright","response","ArrowRight","14","2","1","test","true",""
"","","","","","html-keyboard-response","245","228648","0.0-7.69-2.69","64ecac30144d366de5ce9c03","6579d0c5e56c6e1626038f86","6579d115f58c244f51a95cc4","null","<p> <font color=""green"" size=""5vw""> Correct category! </font> <br> <br> <font color=""green"" size=""8vw""> + $0.09 </font> </p>","null","feedback","","","","","","","1.64"
"","","","","","html-keyboard-response","246","228909","0.0-7.70-0.70","64ecac30144d366de5ce9c03","6579d0c5e56c6e1626038f86","6579d115f58c244f51a95cc4","260","
            
        <div style=""text-align: center; position: fixed; top: 5vh; left: 40vw;"">
            <div style=""margin:0 auto; width: 20vw; top: 8vh; font-size: 2vw""> 
            <font color=""green""> Bonus : $1.64 </font>
            </div>
        </div>
    
            <div> Please press any key to continue to the next movie.</div>
        ","enter","ITI","","","","","","",""
"","","","","","html-keyboard-response","247","229213","0.0-7.70-1.70","64ecac30144d366de5ce9c03","6579d0c5e56c6e1626038f86","6579d115f58c244f51a95cc4","302","./stimuli//pack_morph_shapes_1/cat_1/diff_1/ex_1_1_6.mp4","arrowright","response","ArrowLeft","6","1","1","test","false",""
"","","","","","html-keyboard-response","248","230720","0.0-7.70-2.70","64ecac30144d366de5ce9c03","6579d0c5e56c6e1626038f86","6579d115f58c244f51a95cc4","null","<p> <font color=""red"" size=""5vw""> Wrong category! </font> <br> <br> <font color=""red"" size=""8vw""> - $0.05 </font> </p>","null","feedback","","","","","","","1.59"
"","","","","","html-keyboard-response","249","230741","0.0-7.71-0.71","64ecac30144d366de5ce9c03","6579d0c5e56c6e1626038f86","6579d115f58c244f51a95cc4","20","
            
        <div style=""text-align: center; position: fixed; top: 5vh; left: 40vw;"">
            <div style=""margin:0 auto; width: 20vw; top: 8vh; font-size: 2vw""> 
            <font color=""green""> Bonus : $1.59 </font>
            </div>
        </div>
    
            <div> Please press any key to continue to the next movie.</div>
        ","enter","ITI","","","","","","",""
"","","","","","html-keyboard-response","250","231053","0.0-7.71-1.71","64ecac30144d366de5ce9c03","6579d0c5e56c6e1626038f86","6579d115f58c244f51a95cc4","311","./stimuli//pack_morph_shapes_1/cat_1/diff_1/ex_1_1_17.mp4","arrowleft","response","ArrowLeft","17","1","1","test","true",""
"","","","","","html-keyboard-response","251","232561","0.0-7.71-2.71","64ecac30144d366de5ce9c03","6579d0c5e56c6e1626038f86","6579d115f58c244f51a95cc4","null","<p> <font color=""green"" size=""5vw""> Correct category! </font> <br> <br> <font color=""green"" size=""8vw""> + $0.09 </font> </p>","null","feedback","","","","","","","1.68"
"","","","","","html-keyboard-response","252","232677","0.0-7.72-0.72","64ecac30144d366de5ce9c03","6579d0c5e56c6e1626038f86","6579d115f58c244f51a95cc4","115","
            
        <div style=""text-align: center; position: fixed; top: 5vh; left: 40vw;"">
            <div style=""margin:0 auto; width: 20vw; top: 8vh; font-size: 2vw""> 
            <font color=""green""> Bonus : $1.68 </font>
            </div>
        </div>
    
            <div> Please press any key to continue to the next movie.</div>
        ","enter","ITI","","","","","","",""
"","","","","","html-keyboard-response","253","232909","0.0-7.72-1.72","64ecac30144d366de5ce9c03","6579d0c5e56c6e1626038f86","6579d115f58c244f51a95cc4","230","./stimuli//pack_morph_shapes_1/cat_1/diff_1/ex_1_1_1.mp4","arrowleft","response","ArrowLeft","1","1","1","test","true",""
"","","","","","html-keyboard-response","254","234417","0.0-7.72-2.72","64ecac30144d366de5ce9c03","6579d0c5e56c6e1626038f86","6579d115f58c244f51a95cc4","null","<p> <font color=""green"" size=""5vw""> Correct category! </font> <br> <br> <font color=""green"" size=""8vw""> + $0.1 </font> </p>","null","feedback","","","","","","","1.78"
"","","","","","html-keyboard-response","255","234501","0.0-7.73-0.73","64ecac30144d366de5ce9c03","6579d0c5e56c6e1626038f86","6579d115f58c244f51a95cc4","84","
            
        <div style=""text-align: center; position: fixed; top: 5vh; left: 40vw;"">
            <div style=""margin:0 auto; width: 20vw; top: 8vh; font-size: 2vw""> 
            <font color=""green""> Bonus : $1.78 </font>
            </div>
        </div>
    
            <div> Please press any key to continue to the next movie.</div>
        ","enter","ITI","","","","","","",""
