"success","timeout","failed_images","failed_audio","failed_video","trial_type","trial_index","time_elapsed","internal_node_id","subject_id","study_id","session_id","rt","stimulus","response","task","correct_response","exemplar_ID","category","difficulty","phase","correct","bonus"
"true","false","[]","[]","[]","preload","0","2","0.0-0.0","5bfbf8f326e31d000104a6d3","6579d0c5e56c6e1626038f86","6579d16057927ffd4f12e87d","","","","","","","","","","",""
"","","","","","html-keyboard-response","1","4095","0.0-1.0","5bfbf8f326e31d000104a6d3","6579d0c5e56c6e1626038f86","6579d16057927ffd4f12e87d","4093","Welcome to the Category Learning experiment! Press any key to continue.","audiovolumeup","welcome","","","","","","",""
"","","","","","html-keyboard-response","2","25859","0.0-2.0","5bfbf8f326e31d000104a6d3","6579d0c5e56c6e1626038f86","6579d16057927ffd4f12e87d","21763","
            <p>You will be shown movies. Each movie contains a shape that initially is hidden and is gradually revealed. 
            <br> Some shapes are category A, some are category B.
            <br> You will not know in advance which category each shape belongs to.</p>
            <p> While you watch a movie, you have to guess the category that the shape you see belongs to <b>(left arrow for category A, right arrow for category B)</b></p>
            <p> After you choose, the screen will show you whether you were correct or not.</p>
            <p>Press any key to continue.</p>
            "," ","introduction_1","","","","","","",""
"","","","","","html-keyboard-response","3","41274","0.0-3.0","5bfbf8f326e31d000104a6d3","6579d0c5e56c6e1626038f86","6579d16057927ffd4f12e87d","15414","
              <p><b>You will receive a bonus payment for each correct answer! The faster you answer the higher the bonus will be!</b></p>
              <p> So you can increase your bonus by guessing as quickly and accurately as possible.</p>
              <p><b>You will lose $0.05 from your bonus payment for each incorrect answer! The bonus can not become less than $0.</b> </p>
              <p>Press any key to continue.</p>
              "," ","introduction_2","","","","","","",""
"","","","","","html-keyboard-response","4","52746","0.0-4.0","5bfbf8f326e31d000104a6d3","6579d0c5e56c6e1626038f86","6579d16057927ffd4f12e87d","11471","
            <p> <b>The first 10 movies are a practice round that will not count towards your bonus payment.</b></p>
            <p> You will be notified when practice finishes and the test begins. </p>
            <p> Press any key to begin the practice round.</p>
            "," ","introduction_3","","","","","","",""
"","","","","","html-keyboard-response","5","58663","0.0-5.0-0.0","5bfbf8f326e31d000104a6d3","6579d0c5e56c6e1626038f86","6579d16057927ffd4f12e87d","5918","
            
        <div style=""text-align: center; position: fixed; top: 5vh; left: 40vw;"">
            <div style=""margin:0 auto; width: 20vw; top: 8vh; font-size: 2vw""> 
            <font color=""green""> Bonus : $0 </font>
            </div>
        </div>
    
            <div> Please press any key to continue to the next movie.</div>
        "," ","ITI","","","","","","",""
"","","","","","html-keyboard-response","6","63680","0.0-5.0-1.0","5bfbf8f326e31d000104a6d3","6579d0c5e56c6e1626038f86","6579d16057927ffd4f12e87d","null","./stimuli//pack_morph_shapes_1/cat_2/diff_1/ex_2_1_13.mp4","null","response","ArrowRight","13","2","1","train","false",""
"","","","","","html-keyboard-response","7","65188","0.0-5.0-2.0","5bfbf8f326e31d000104a6d3","6579d0c5e56c6e1626038f86","6579d16057927ffd4f12e87d","null","<p> <font color=""red"" size=""5vw""> Time out! </font> <br> Please try to respond as quickly as possible. </p>","null","feedback","","","","","","","0"
"","","","","","html-keyboard-response","8","67373","0.0-5.0-0.1","5bfbf8f326e31d000104a6d3","6579d0c5e56c6e1626038f86","6579d16057927ffd4f12e87d","2184","
            
        <div style=""text-align: center; position: fixed; top: 5vh; left: 40vw;"">
            <div style=""margin:0 auto; width: 20vw; top: 8vh; font-size: 2vw""> 
            <font color=""green""> Bonus : $0 </font>
            </div>
        </div>
    
            <div> Please press any key to continue to the next movie.</div>
        ","arrowright","ITI","","","","","","",""
"","","","","","html-keyboard-response","9","72384","0.0-5.0-1.1","5bfbf8f326e31d000104a6d3","6579d0c5e56c6e1626038f86","6579d16057927ffd4f12e87d","null","./stimuli//pack_morph_shapes_1/cat_1/diff_2/ex_1_2_17.mp4","null","response","ArrowLeft","17","1","2","train","false",""
"","","","","","html-keyboard-response","10","73890","0.0-5.0-2.1","5bfbf8f326e31d000104a6d3","6579d0c5e56c6e1626038f86","6579d16057927ffd4f12e87d","null","<p> <font color=""red"" size=""5vw""> Time out! </font> <br> Please try to respond as quickly as possible. </p>","null","feedback","","","","","","","0"
"","","","","","html-keyboard-response","11","76347","0.0-5.0-0.2","5bfbf8f326e31d000104a6d3","6579d0c5e56c6e1626038f86","6579d16057927ffd4f12e87d","2456","
            
        <div style=""text-align: center; position: fixed; top: 5vh; left: 40vw;"">
            <div style=""margin:0 auto; width: 20vw; top: 8vh; font-size: 2vw""> 
            <font color=""green""> Bonus : $0 </font>
            </div>
        </div>
    
            <div> Please press any key to continue to the next movie.</div>
        ","arrowright","ITI","","","","","","",""
"","","","","","html-keyboard-response","12","81361","0.0-5.0-1.2","5bfbf8f326e31d000104a6d3","6579d0c5e56c6e1626038f86","6579d16057927ffd4f12e87d","null","./stimuli//pack_morph_shapes_1/cat_2/diff_1/ex_2_1_15.mp4","null","response","ArrowRight","15","2","1","train","false",""
"","","","","","html-keyboard-response","13","82864","0.0-5.0-2.2","5bfbf8f326e31d000104a6d3","6579d0c5e56c6e1626038f86","6579d16057927ffd4f12e87d","null","<p> <font color=""red"" size=""5vw""> Time out! </font> <br> Please try to respond as quickly as possible. </p>","null","feedback","","","","","","","0"
"","","","","","html-keyboard-response","14","83020","0.0-5.0-0.3","5bfbf8f326e31d000104a6d3","6579d0c5e56c6e1626038f86","6579d16057927ffd4f12e87d","155","
            
        <div style=""text-align: center; position: fixed; top: 5vh; left: 40vw;"">
            <div style=""margin:0 auto; width: 20vw; top: 8vh; font-size: 2vw""> 
            <font color=""green""> Bonus : $0 </font>
            </div>
        </div>
    
            <div> Please press any key to continue to the next movie.</div>
        ","arrowleft","ITI","","","","","","",""
"","","","","","html-keyboard-response","15","88028","0.0-5.0-1.3","5bfbf8f326e31d000104a6d3","6579d0c5e56c6e1626038f86","6579d16057927ffd4f12e87d","null","./stimuli//pack_morph_shapes_1/cat_1/diff_1/ex_1_1_13.mp4","null","response","ArrowLeft","13","1","1","train","false",""
"","","","","","html-keyboard-response","16","89530","0.0-5.0-2.3","5bfbf8f326e31d000104a6d3","6579d0c5e56c6e1626038f86","6579d16057927ffd4f12e87d","null","<p> <font color=""red"" size=""5vw""> Time out! </font> <br> Please try to respond as quickly as possible. </p>","null","feedback","","","","","","","0"
"","","","","","html-keyboard-response","17","92129","0.0-5.0-0.4","5bfbf8f326e31d000104a6d3","6579d0c5e56c6e1626038f86","6579d16057927ffd4f12e87d","2598","
            
        <div style=""text-align: center; position: fixed; top: 5vh; left: 40vw;"">
            <div style=""margin:0 auto; width: 20vw; top: 8vh; font-size: 2vw""> 
            <font color=""green""> Bonus : $0 </font>
            </div>
        </div>
    
            <div> Please press any key to continue to the next movie.</div>
        ","arrowleft","ITI","","","","","","",""
"","","","","","html-keyboard-response","18","97136","0.0-5.0-1.4","5bfbf8f326e31d000104a6d3","6579d0c5e56c6e1626038f86","6579d16057927ffd4f12e87d","null","./stimuli//pack_morph_shapes_1/cat_1/diff_2/ex_1_2_12.mp4","null","response","ArrowLeft","12","1","2","train","false",""
"","","","","","html-keyboard-response","19","98653","0.0-5.0-2.4","5bfbf8f326e31d000104a6d3","6579d0c5e56c6e1626038f86","6579d16057927ffd4f12e87d","null","<p> <font color=""red"" size=""5vw""> Time out! </font> <br> Please try to respond as quickly as possible. </p>","null","feedback","","","","","","","0"
"","","","","","html-keyboard-response","20","100130","0.0-5.0-0.5","5bfbf8f326e31d000104a6d3","6579d0c5e56c6e1626038f86","6579d16057927ffd4f12e87d","1477","
            
        <div style=""text-align: center; position: fixed; top: 5vh; left: 40vw;"">
            <div style=""margin:0 auto; width: 20vw; top: 8vh; font-size: 2vw""> 
            <font color=""green""> Bonus : $0 </font>
            </div>
        </div>
    
            <div> Please press any key to continue to the next movie.</div>
        ","arrowleft","ITI","","","","","","",""
"","","","","","html-keyboard-response","21","101653","0.0-5.0-1.5","5bfbf8f326e31d000104a6d3","6579d0c5e56c6e1626038f86","6579d16057927ffd4f12e87d","1521","./stimuli//pack_morph_shapes_1/cat_2/diff_1/ex_2_1_2.mp4","arrowleft","response","ArrowRight","2","2","1","train","false",""
"","","","","","html-keyboard-response","22","103163","0.0-5.0-2.5","5bfbf8f326e31d000104a6d3","6579d0c5e56c6e1626038f86","6579d16057927ffd4f12e87d","null","<p> <font color=""red"" size=""5vw""> Wrong category! </font> </p>","null","feedback","","","","","","","0"
"","","","","","html-keyboard-response","23","103957","0.0-5.0-0.6","5bfbf8f326e31d000104a6d3","6579d0c5e56c6e1626038f86","6579d16057927ffd4f12e87d","793","
            
        <div style=""text-align: center; position: fixed; top: 5vh; left: 40vw;"">
            <div style=""margin:0 auto; width: 20vw; top: 8vh; font-size: 2vw""> 
            <font color=""green""> Bonus : $0 </font>
            </div>
        </div>
    
            <div> Please press any key to continue to the next movie.</div>
        ","arrowright","ITI","","","","","","",""
"","","","","","html-keyboard-response","24","104873","0.0-5.0-1.6","5bfbf8f326e31d000104a6d3","6579d0c5e56c6e1626038f86","6579d16057927ffd4f12e87d","914","./stimuli//pack_morph_shapes_1/cat_1/diff_1/ex_1_1_16.mp4","arrowright","response","ArrowLeft","16","1","1","train","false",""
"","","","","","html-keyboard-response","25","106388","0.0-5.0-2.6","5bfbf8f326e31d000104a6d3","6579d0c5e56c6e1626038f86","6579d16057927ffd4f12e87d","null","<p> <font color=""red"" size=""5vw""> Wrong category! </font> </p>","null","feedback","","","","","","","0"
"","","","","","html-keyboard-response","26","106465","0.0-5.0-0.7","5bfbf8f326e31d000104a6d3","6579d0c5e56c6e1626038f86","6579d16057927ffd4f12e87d","76","
            
        <div style=""text-align: center; position: fixed; top: 5vh; left: 40vw;"">
            <div style=""margin:0 auto; width: 20vw; top: 8vh; font-size: 2vw""> 
            <font color=""green""> Bonus : $0 </font>
            </div>
        </div>
    
            <div> Please press any key to continue to the next movie.</div>
        ","arrowright","ITI","","","","","","",""
"","","","","","html-keyboard-response","27","107286","0.0-5.0-1.7","5bfbf8f326e31d000104a6d3","6579d0c5e56c6e1626038f86","6579d16057927ffd4f12e87d","819","./stimuli//pack_morph_shapes_1/cat_2/diff_2/ex_2_2_10.mp4","arrowright","response","ArrowRight","10","2","2","train","true",""
"","","","","","html-keyboard-response","28","108789","0.0-5.0-2.7","5bfbf8f326e31d000104a6d3","6579d0c5e56c6e1626038f86","6579d16057927ffd4f12e87d","null","<p> <font color=""green"" size=""5vw""> Correct category! </font> </p>","null","feedback","","","","","","","0"
"","","","","","html-keyboard-response","29","109549","0.0-5.0-0.8","5bfbf8f326e31d000104a6d3","6579d0c5e56c6e1626038f86","6579d16057927ffd4f12e87d","760","
            
        <div style=""text-align: center; position: fixed; top: 5vh; left: 40vw;"">
            <div style=""margin:0 auto; width: 20vw; top: 8vh; font-size: 2vw""> 
            <font color=""green""> Bonus : $0 </font>
            </div>
        </div>
    
            <div> Please press any key to continue to the next movie.</div>
        ","arrowleft","ITI","","","","","","",""
"","","","","","html-keyboard-response","30","110274","0.0-5.0-1.8","5bfbf8f326e31d000104a6d3","6579d0c5e56c6e1626038f86","6579d16057927ffd4f12e87d","723","./stimuli//pack_morph_shapes_1/cat_1/diff_1/ex_1_1_9.mp4","arrowleft","response","ArrowLeft","9","1","1","train","true",""
"","","","","","html-keyboard-response","31","111776","0.0-5.0-2.8","5bfbf8f326e31d000104a6d3","6579d0c5e56c6e1626038f86","6579d16057927ffd4f12e87d","null","<p> <font color=""green"" size=""5vw""> Correct category! </font> </p>","null","feedback","","","","","","","0"
"","","","","","html-keyboard-response","32","112519","0.0-5.0-0.9","5bfbf8f326e31d000104a6d3","6579d0c5e56c6e1626038f86","6579d16057927ffd4f12e87d","742","
            
        <div style=""text-align: center; position: fixed; top: 5vh; left: 40vw;"">
            <div style=""margin:0 auto; width: 20vw; top: 8vh; font-size: 2vw""> 
            <font color=""green""> Bonus : $0 </font>
            </div>
        </div>
    
            <div> Please press any key to continue to the next movie.</div>
        ","arrowleft","ITI","","","","","","",""
"","","","","","html-keyboard-response","33","113326","0.0-5.0-1.9","5bfbf8f326e31d000104a6d3","6579d0c5e56c6e1626038f86","6579d16057927ffd4f12e87d","805","./stimuli//pack_morph_shapes_1/cat_2/diff_2/ex_2_2_5.mp4","arrowleft","response","ArrowRight","5","2","2","train","false",""
"","","","","","html-keyboard-response","34","114826","0.0-5.0-2.9","5bfbf8f326e31d000104a6d3","6579d0c5e56c6e1626038f86","6579d16057927ffd4f12e87d","null","<p> <font color=""red"" size=""5vw""> Wrong category! </font> </p>","null","feedback","","","","","","","0"
"","","","","","html-keyboard-response","35","120477","0.0-6.0","5bfbf8f326e31d000104a6d3","6579d0c5e56c6e1626038f86","6579d16057927ffd4f12e87d","5649","
            <b> <p> The practice round has finished.</p>
            <b> <p> For the rest of the experiment you will receive a bonus payment for each correct answer, which will be higher the faster you answer!</b></p>
            <b> <p> Also you will lose $0.05 from your bonus payment for each incorrect answer!</p>
            <p> Press any key to begin the test. </p>
            ","arrowright","intermission","","","","","","",""
"","","","","","html-keyboard-response","36","122475","0.0-7.0-0.0","5bfbf8f326e31d000104a6d3","6579d0c5e56c6e1626038f86","6579d16057927ffd4f12e87d","1997","
            
        <div style=""text-align: center; position: fixed; top: 5vh; left: 40vw;"">
            <div style=""margin:0 auto; width: 20vw; top: 8vh; font-size: 2vw""> 
            <font color=""green""> Bonus : $0 </font>
            </div>
        </div>
    
            <div> Please press any key to continue to the next movie.</div>
        ","arrowright","ITI","","","","","","",""
"","","","","","html-keyboard-response","37","123019","0.0-7.0-1.0","5bfbf8f326e31d000104a6d3","6579d0c5e56c6e1626038f86","6579d16057927ffd4f12e87d","542","./stimuli//pack_morph_shapes_1/cat_1/diff_1/ex_1_1_4.mp4","arrowright","response","ArrowLeft","4","1","1","test","false",""
"","","","","","html-keyboard-response","38","124528","0.0-7.0-2.0","5bfbf8f326e31d000104a6d3","6579d0c5e56c6e1626038f86","6579d16057927ffd4f12e87d","null","<p> <font color=""red"" size=""5vw""> Wrong category! </font> </p>","null","feedback","","","","","","","0"
"","","","","","html-keyboard-response","39","124975","0.0-7.1-0.1","5bfbf8f326e31d000104a6d3","6579d0c5e56c6e1626038f86","6579d16057927ffd4f12e87d","446","
            
        <div style=""text-align: center; position: fixed; top: 5vh; left: 40vw;"">
            <div style=""margin:0 auto; width: 20vw; top: 8vh; font-size: 2vw""> 
            <font color=""green""> Bonus : $0 </font>
            </div>
        </div>
    
            <div> Please press any key to continue to the next movie.</div>
        ","arrowright","ITI","","","","","","",""
"","","","","","html-keyboard-response","40","125425","0.0-7.1-1.1","5bfbf8f326e31d000104a6d3","6579d0c5e56c6e1626038f86","6579d16057927ffd4f12e87d","449","./stimuli//pack_morph_shapes_1/cat_2/diff_1/ex_2_1_6.mp4","arrowright","response","ArrowRight","6","2","1","test","true",""
"","","","","","html-keyboard-response","41","126937","0.0-7.1-2.1","5bfbf8f326e31d000104a6d3","6579d0c5e56c6e1626038f86","6579d16057927ffd4f12e87d","null","<p> <font color=""green"" size=""5vw""> Correct category! </font> <br> <br> <font color=""green"" size=""8vw""> + $0.09 </font> </p>","null","feedback","","","","","","","0.09"
"","","","","","html-keyboard-response","42","127510","0.0-7.2-0.2","5bfbf8f326e31d000104a6d3","6579d0c5e56c6e1626038f86","6579d16057927ffd4f12e87d","572","
            
        <div style=""text-align: center; position: fixed; top: 5vh; left: 40vw;"">
            <div style=""margin:0 auto; width: 20vw; top: 8vh; font-size: 2vw""> 
            <font color=""green""> Bonus : $0.09 </font>
            </div>
        </div>
    
            <div> Please press any key to continue to the next movie.</div>
        ","arrowright","ITI","","","","","","",""
"","","","","","html-keyboard-response","43","128040","0.0-7.2-1.2","5bfbf8f326e31d000104a6d3","6579d0c5e56c6e1626038f86","6579d16057927ffd4f12e87d","529","./stimuli//pack_morph_shapes_1/cat_2/diff_1/ex_2_1_14.mp4","arrowright","response","ArrowRight","14","2","1","test","true",""
"","","","","","html-keyboard-response","44","129549","0.0-7.2-2.2","5bfbf8f326e31d000104a6d3","6579d0c5e56c6e1626038f86","6579d16057927ffd4f12e87d","null","<p> <font color=""green"" size=""5vw""> Correct category! </font> <br> <br> <font color=""green"" size=""8vw""> + $0.09 </font> </p>","null","feedback","","","","","","","0.18"
"","","","","","html-keyboard-response","45","130062","0.0-7.3-0.3","5bfbf8f326e31d000104a6d3","6579d0c5e56c6e1626038f86","6579d16057927ffd4f12e87d","507","
            
        <div style=""text-align: center; position: fixed; top: 5vh; left: 40vw;"">
            <div style=""margin:0 auto; width: 20vw; top: 8vh; font-size: 2vw""> 
            <font color=""green""> Bonus : $0.18 </font>
            </div>
        </div>
    
            <div> Please press any key to continue to the next movie.</div>
        ","arrowleft","ITI","","","","","","",""
"","","","","","html-keyboard-response","46","130619","0.0-7.3-1.3","5bfbf8f326e31d000104a6d3","6579d0c5e56c6e1626038f86","6579d16057927ffd4f12e87d","556","./stimuli//pack_morph_shapes_1/cat_2/diff_1/ex_2_1_11.mp4","arrowleft","response","ArrowRight","11","2","1","test","false",""
"","","","","","html-keyboard-response","47","132125","0.0-7.3-2.3","5bfbf8f326e31d000104a6d3","6579d0c5e56c6e1626038f86","6579d16057927ffd4f12e87d","null","<p> <font color=""red"" size=""5vw""> Wrong category! </font> <br> <br> <font color=""red"" size=""8vw""> - $0.05 </font> </p>","null","feedback","","","","","","","0.13"
"","","","","","html-keyboard-response","48","133044","0.0-7.4-0.4","5bfbf8f326e31d000104a6d3","6579d0c5e56c6e1626038f86","6579d16057927ffd4f12e87d","918","
            
        <div style=""text-align: center; position: fixed; top: 5vh; left: 40vw;"">
            <div style=""margin:0 auto; width: 20vw; top: 8vh; font-size: 2vw""> 
            <font color=""green""> Bonus : $0.13 </font>
            </div>
        </div>
    
            <div> Please press any key to continue to the next movie.</div>
        ","arrowleft","ITI","","","","","","",""
"","","","","","html-keyboard-response","49","133531","0.0-7.4-1.4","5bfbf8f326e31d000104a6d3","6579d0c5e56c6e1626038f86","6579d16057927ffd4f12e87d","485","./stimuli//pack_morph_shapes_1/cat_1/diff_1/ex_1_1_3.mp4","arrowleft","response","ArrowLeft","3","1","1","test","true",""
"","","","","","html-keyboard-response","50","135033","0.0-7.4-2.4","5bfbf8f326e31d000104a6d3","6579d0c5e56c6e1626038f86","6579d16057927ffd4f12e87d","null","<p> <font color=""green"" size=""5vw""> Correct category! </font> <br> <br> <font color=""green"" size=""8vw""> + $0.09 </font> </p>","null","feedback","","","","","","","0.22"
"","","","","","html-keyboard-response","51","135445","0.0-7.5-0.5","5bfbf8f326e31d000104a6d3","6579d0c5e56c6e1626038f86","6579d16057927ffd4f12e87d","411","
            
        <div style=""text-align: center; position: fixed; top: 5vh; left: 40vw;"">
            <div style=""margin:0 auto; width: 20vw; top: 8vh; font-size: 2vw""> 
            <font color=""green""> Bonus : $0.22 </font>
            </div>
        </div>
    
            <div> Please press any key to continue to the next movie.</div>
        ","arrowright","ITI","","","","","","",""
"","","","","","html-keyboard-response","52","135988","0.0-7.5-1.5","5bfbf8f326e31d000104a6d3","6579d0c5e56c6e1626038f86","6579d16057927ffd4f12e87d","542","./stimuli//pack_morph_shapes_1/cat_1/diff_1/ex_1_1_3.mp4","arrowright","response","ArrowLeft","3","1","1","test","false",""
"","","","","","html-keyboard-response","53","137504","0.0-7.5-2.5","5bfbf8f326e31d000104a6d3","6579d0c5e56c6e1626038f86","6579d16057927ffd4f12e87d","null","<p> <font color=""red"" size=""5vw""> Wrong category! </font> <br> <br> <font color=""red"" size=""8vw""> - $0.05 </font> </p>","null","feedback","","","","","","","0.17"
"","","","","","html-keyboard-response","54","138017","0.0-7.6-0.6","5bfbf8f326e31d000104a6d3","6579d0c5e56c6e1626038f86","6579d16057927ffd4f12e87d","512","
            
        <div style=""text-align: center; position: fixed; top: 5vh; left: 40vw;"">
            <div style=""margin:0 auto; width: 20vw; top: 8vh; font-size: 2vw""> 
            <font color=""green""> Bonus : $0.17 </font>
            </div>
        </div>
    
            <div> Please press any key to continue to the next movie.</div>
        ","arrowright","ITI","","","","","","",""
"","","","","","html-keyboard-response","55","138563","0.0-7.6-1.6","5bfbf8f326e31d000104a6d3","6579d0c5e56c6e1626038f86","6579d16057927ffd4f12e87d","544","./stimuli//pack_morph_shapes_1/cat_1/diff_1/ex_1_1_17.mp4","arrowright","response","ArrowLeft","17","1","1","test","false",""
"","","","","","html-keyboard-response","56","140072","0.0-7.6-2.6","5bfbf8f326e31d000104a6d3","6579d0c5e56c6e1626038f86","6579d16057927ffd4f12e87d","null","<p> <font color=""red"" size=""5vw""> Wrong category! </font> <br> <br> <font color=""red"" size=""8vw""> - $0.05 </font> </p>","null","feedback","","","","","","","0.12"
"","","","","","html-keyboard-response","57","140353","0.0-7.7-0.7","5bfbf8f326e31d000104a6d3","6579d0c5e56c6e1626038f86","6579d16057927ffd4f12e87d","280","
            
        <div style=""text-align: center; position: fixed; top: 5vh; left: 40vw;"">
            <div style=""margin:0 auto; width: 20vw; top: 8vh; font-size: 2vw""> 
            <font color=""green""> Bonus : $0.12 </font>
            </div>
        </div>
    
            <div> Please press any key to continue to the next movie.</div>
        ","arrowright","ITI","","","","","","",""
"","","","","","html-keyboard-response","58","140868","0.0-7.7-1.7","5bfbf8f326e31d000104a6d3","6579d0c5e56c6e1626038f86","6579d16057927ffd4f12e87d","513","./stimuli//pack_morph_shapes_1/cat_1/diff_1/ex_1_1_4.mp4","arrowright","response","ArrowLeft","4","1","1","test","false",""
"","","","","","html-keyboard-response","59","142379","0.0-7.7-2.7","5bfbf8f326e31d000104a6d3","6579d0c5e56c6e1626038f86","6579d16057927ffd4f12e87d","null","<p> <font color=""red"" size=""5vw""> Wrong category! </font> <br> <br> <font color=""red"" size=""8vw""> - $0.05 </font> </p>","null","feedback","","","","","","","0.07"
"","","","","","html-keyboard-response","60","142821","0.0-7.8-0.8","5bfbf8f326e31d000104a6d3","6579d0c5e56c6e1626038f86","6579d16057927ffd4f12e87d","441","
            
        <div style=""text-align: center; position: fixed; top: 5vh; left: 40vw;"">
            <div style=""margin:0 auto; width: 20vw; top: 8vh; font-size: 2vw""> 
            <font color=""green""> Bonus : $0.07 </font>
            </div>
        </div>
    
            <div> Please press any key to continue to the next movie.</div>
        ","arrowright","ITI","","","","","","",""
"","","","","","html-keyboard-response","61","143392","0.0-7.8-1.8","5bfbf8f326e31d000104a6d3","6579d0c5e56c6e1626038f86","6579d16057927ffd4f12e87d","569","./stimuli//pack_morph_shapes_1/cat_2/diff_1/ex_2_1_16.mp4","arrowright","response","ArrowRight","16","2","1","test","true",""
"","","","","","html-keyboard-response","62","144908","0.0-7.8-2.8","5bfbf8f326e31d000104a6d3","6579d0c5e56c6e1626038f86","6579d16057927ffd4f12e87d","null","<p> <font color=""green"" size=""5vw""> Correct category! </font> <br> <br> <font color=""green"" size=""8vw""> + $0.09 </font> </p>","null","feedback","","","","","","","0.16"
"","","","","","html-keyboard-response","63","146112","0.0-7.9-0.9","5bfbf8f326e31d000104a6d3","6579d0c5e56c6e1626038f86","6579d16057927ffd4f12e87d","1204","
            
        <div style=""text-align: center; position: fixed; top: 5vh; left: 40vw;"">
            <div style=""margin:0 auto; width: 20vw; top: 8vh; font-size: 2vw""> 
            <font color=""green""> Bonus : $0.16 </font>
            </div>
        </div>
    
            <div> Please press any key to continue to the next movie.</div>
        ","arrowleft","ITI","","","","","","",""
"","","","","","html-keyboard-response","64","146668","0.0-7.9-1.9","5bfbf8f326e31d000104a6d3","6579d0c5e56c6e1626038f86","6579d16057927ffd4f12e87d","554","./stimuli//pack_morph_shapes_1/cat_1/diff_1/ex_1_1_4.mp4","arrowleft","response","ArrowLeft","4","1","1","test","true",""
"","","","","","html-keyboard-response","65","148170","0.0-7.9-2.9","5bfbf8f326e31d000104a6d3","6579d0c5e56c6e1626038f86","6579d16057927ffd4f12e87d","null","<p> <font color=""green"" size=""5vw""> Correct category! </font> <br> <br> <font color=""green"" size=""8vw""> + $0.09 </font> </p>","null","feedback","","","","","","","0.25"
"","","","","","html-keyboard-response","66","148593","0.0-7.10-0.10","5bfbf8f326e31d000104a6d3","6579d0c5e56c6e1626038f86","6579d16057927ffd4f12e87d","422","
            
        <div style=""text-align: center; position: fixed; top: 5vh; left: 40vw;"">
            <div style=""margin:0 auto; width: 20vw; top: 8vh; font-size: 2vw""> 
            <font color=""green""> Bonus : $0.25 </font>
            </div>
        </div>
    
            <div> Please press any key to continue to the next movie.</div>
        ","arrowright","ITI","","","","","","",""
"","","","","","html-keyboard-response","67","149202","0.0-7.10-1.10","5bfbf8f326e31d000104a6d3","6579d0c5e56c6e1626038f86","6579d16057927ffd4f12e87d","608","./stimuli//pack_morph_shapes_1/cat_1/diff_1/ex_1_1_8.mp4","arrowright","response","ArrowLeft","8","1","1","test","false",""
"","","","","","html-keyboard-response","68","150705","0.0-7.10-2.10","5bfbf8f326e31d000104a6d3","6579d0c5e56c6e1626038f86","6579d16057927ffd4f12e87d","null","<p> <font color=""red"" size=""5vw""> Wrong category! </font> <br> <br> <font color=""red"" size=""8vw""> - $0.05 </font> </p>","null","feedback","","","","","","","0.2"
"","","","","","html-keyboard-response","69","151097","0.0-7.11-0.11","5bfbf8f326e31d000104a6d3","6579d0c5e56c6e1626038f86","6579d16057927ffd4f12e87d","391","
            
        <div style=""text-align: center; position: fixed; top: 5vh; left: 40vw;"">
            <div style=""margin:0 auto; width: 20vw; top: 8vh; font-size: 2vw""> 
            <font color=""green""> Bonus : $0.2 </font>
            </div>
        </div>
    
            <div> Please press any key to continue to the next movie.</div>
        ","arrowright","ITI","","","","","","",""
"","","","","","html-keyboard-response","70","151773","0.0-7.11-1.11","5bfbf8f326e31d000104a6d3","6579d0c5e56c6e1626038f86","6579d16057927ffd4f12e87d","674","./stimuli//pack_morph_shapes_1/cat_2/diff_1/ex_2_1_6.mp4","arrowright","response","ArrowRight","6","2","1","test","true",""
"","","","","","html-keyboard-response","71","153285","0.0-7.11-2.11","5bfbf8f326e31d000104a6d3","6579d0c5e56c6e1626038f86","6579d16057927ffd4f12e87d","null","<p> <font color=""green"" size=""5vw""> Correct category! </font> <br> <br> <font color=""green"" size=""8vw""> + $0.09 </font> </p>","null","feedback","","","","","","","0.29"
"","","","","","html-keyboard-response","72","154674","0.0-7.12-0.12","5bfbf8f326e31d000104a6d3","6579d0c5e56c6e1626038f86","6579d16057927ffd4f12e87d","1389","
            
        <div style=""text-align: center; position: fixed; top: 5vh; left: 40vw;"">
            <div style=""margin:0 auto; width: 20vw; top: 8vh; font-size: 2vw""> 
            <font color=""green""> Bonus : $0.29 </font>
            </div>
        </div>
    
            <div> Please press any key to continue to the next movie.</div>
        ","arrowleft","ITI","","","","","","",""
"","","","","","html-keyboard-response","73","155208","0.0-7.12-1.12","5bfbf8f326e31d000104a6d3","6579d0c5e56c6e1626038f86","6579d16057927ffd4f12e87d","531","./stimuli//pack_morph_shapes_1/cat_1/diff_1/ex_1_1_4.mp4","arrowleft","response","ArrowLeft","4","1","1","test","true",""
"","","","","","html-keyboard-response","74","156713","0.0-7.12-2.12","5bfbf8f326e31d000104a6d3","6579d0c5e56c6e1626038f86","6579d16057927ffd4f12e87d","null","<p> <font color=""green"" size=""5vw""> Correct category! </font> <br> <br> <font color=""green"" size=""8vw""> + $0.09 </font> </p>","null","feedback","","","","","","","0.38"
"","","","","","html-keyboard-response","75","157374","0.0-7.13-0.13","5bfbf8f326e31d000104a6d3","6579d0c5e56c6e1626038f86","6579d16057927ffd4f12e87d","660","
            
        <div style=""text-align: center; position: fixed; top: 5vh; left: 40vw;"">
            <div style=""margin:0 auto; width: 20vw; top: 8vh; font-size: 2vw""> 
            <font color=""green""> Bonus : $0.38 </font>
            </div>
        </div>
    
            <div> Please press any key to continue to the next movie.</div>
        ","arrowleft","ITI","","","","","","",""
"","","","","","html-keyboard-response","76","157919","0.0-7.13-1.13","5bfbf8f326e31d000104a6d3","6579d0c5e56c6e1626038f86","6579d16057927ffd4f12e87d","543","./stimuli//pack_morph_shapes_1/cat_1/diff_2/ex_1_2_2.mp4","arrowleft","response","ArrowLeft","2","1","2","test","true",""
"","","","","","html-keyboard-response","77","159428","0.0-7.13-2.13","5bfbf8f326e31d000104a6d3","6579d0c5e56c6e1626038f86","6579d16057927ffd4f12e87d","null","<p> <font color=""green"" size=""5vw""> Correct category! </font> <br> <br> <font color=""green"" size=""8vw""> + $0.09 </font> </p>","null","feedback","","","","","","","0.47"
"","","","","","html-keyboard-response","78","159680","0.0-7.14-0.14","5bfbf8f326e31d000104a6d3","6579d0c5e56c6e1626038f86","6579d16057927ffd4f12e87d","250","
            
        <div style=""text-align: center; position: fixed; top: 5vh; left: 40vw;"">
            <div style=""margin:0 auto; width: 20vw; top: 8vh; font-size: 2vw""> 
            <font color=""green""> Bonus : $0.47 </font>
            </div>
        </div>
    
            <div> Please press any key to continue to the next movie.</div>
        ","arrowright","ITI","","","","","","",""
"","","","","","html-keyboard-response","79","160179","0.0-7.14-1.14","5bfbf8f326e31d000104a6d3","6579d0c5e56c6e1626038f86","6579d16057927ffd4f12e87d","498","./stimuli//pack_morph_shapes_1/cat_2/diff_2/ex_2_2_4.mp4","arrowright","response","ArrowRight","4","2","2","test","true",""
"","","","","","html-keyboard-response","80","161682","0.0-7.14-2.14","5bfbf8f326e31d000104a6d3","6579d0c5e56c6e1626038f86","6579d16057927ffd4f12e87d","null","<p> <font color=""green"" size=""5vw""> Correct category! </font> <br> <br> <font color=""green"" size=""8vw""> + $0.09 </font> </p>","null","feedback","","","","","","","0.56"
"","","","","","html-keyboard-response","81","162114","0.0-7.15-0.15","5bfbf8f326e31d000104a6d3","6579d0c5e56c6e1626038f86","6579d16057927ffd4f12e87d","432","
            
        <div style=""text-align: center; position: fixed; top: 5vh; left: 40vw;"">
            <div style=""margin:0 auto; width: 20vw; top: 8vh; font-size: 2vw""> 
            <font color=""green""> Bonus : $0.56 </font>
            </div>
        </div>
    
            <div> Please press any key to continue to the next movie.</div>
        ","arrowright","ITI","","","","","","",""
"","","","","","html-keyboard-response","82","162510","0.0-7.15-1.15","5bfbf8f326e31d000104a6d3","6579d0c5e56c6e1626038f86","6579d16057927ffd4f12e87d","394","./stimuli//pack_morph_shapes_1/cat_2/diff_2/ex_2_2_9.mp4","arrowright","response","ArrowRight","9","2","2","test","true",""
"","","","","","html-keyboard-response","83","164011","0.0-7.15-2.15","5bfbf8f326e31d000104a6d3","6579d0c5e56c6e1626038f86","6579d16057927ffd4f12e87d","null","<p> <font color=""green"" size=""5vw""> Correct category! </font> <br> <br> <font color=""green"" size=""8vw""> + $0.09 </font> </p>","null","feedback","","","","","","","0.65"
"","","","","","html-keyboard-response","84","164504","0.0-7.16-0.16","5bfbf8f326e31d000104a6d3","6579d0c5e56c6e1626038f86","6579d16057927ffd4f12e87d","493","
            
        <div style=""text-align: center; position: fixed; top: 5vh; left: 40vw;"">
            <div style=""margin:0 auto; width: 20vw; top: 8vh; font-size: 2vw""> 
            <font color=""green""> Bonus : $0.65 </font>
            </div>
        </div>
    
            <div> Please press any key to continue to the next movie.</div>
        ","arrowright","ITI","","","","","","",""
"","","","","","html-keyboard-response","85","164976","0.0-7.16-1.16","5bfbf8f326e31d000104a6d3","6579d0c5e56c6e1626038f86","6579d16057927ffd4f12e87d","470","./stimuli//pack_morph_shapes_1/cat_1/diff_2/ex_1_2_13.mp4","arrowright","response","ArrowLeft","13","1","2","test","false",""
"","","","","","html-keyboard-response","86","166483","0.0-7.16-2.16","5bfbf8f326e31d000104a6d3","6579d0c5e56c6e1626038f86","6579d16057927ffd4f12e87d","null","<p> <font color=""red"" size=""5vw""> Wrong category! </font> <br> <br> <font color=""red"" size=""8vw""> - $0.05 </font> </p>","null","feedback","","","","","","","0.6"
"","","","","","html-keyboard-response","87","168167","0.0-7.17-0.17","5bfbf8f326e31d000104a6d3","6579d0c5e56c6e1626038f86","6579d16057927ffd4f12e87d","1683","
            
        <div style=""text-align: center; position: fixed; top: 5vh; left: 40vw;"">
            <div style=""margin:0 auto; width: 20vw; top: 8vh; font-size: 2vw""> 
            <font color=""green""> Bonus : $0.6 </font>
            </div>
        </div>
    
            <div> Please press any key to continue to the next movie.</div>
        ","arrowleft","ITI","","","","","","",""
"","","","","","html-keyboard-response","88","168689","0.0-7.17-1.17","5bfbf8f326e31d000104a6d3","6579d0c5e56c6e1626038f86","6579d16057927ffd4f12e87d","521","./stimuli//pack_morph_shapes_1/cat_1/diff_2/ex_1_2_7.mp4","arrowleft","response","ArrowLeft","7","1","2","test","true",""
"","","","","","html-keyboard-response","89","170201","0.0-7.17-2.17","5bfbf8f326e31d000104a6d3","6579d0c5e56c6e1626038f86","6579d16057927ffd4f12e87d","null","<p> <font color=""green"" size=""5vw""> Correct category! </font> <br> <br> <font color=""green"" size=""8vw""> + $0.09 </font> </p>","null","feedback","","","","","","","0.69"
"","","","","","html-keyboard-response","90","170709","0.0-7.18-0.18","5bfbf8f326e31d000104a6d3","6579d0c5e56c6e1626038f86","6579d16057927ffd4f12e87d","508","
            
        <div style=""text-align: center; position: fixed; top: 5vh; left: 40vw;"">
            <div style=""margin:0 auto; width: 20vw; top: 8vh; font-size: 2vw""> 
            <font color=""green""> Bonus : $0.69 </font>
            </div>
        </div>
    
            <div> Please press any key to continue to the next movie.</div>
        ","arrowleft","ITI","","","","","","",""
"","","","","","html-keyboard-response","91","171245","0.0-7.18-1.18","5bfbf8f326e31d000104a6d3","6579d0c5e56c6e1626038f86","6579d16057927ffd4f12e87d","535","./stimuli//pack_morph_shapes_1/cat_1/diff_3/ex_1_3_11.mp4","arrowleft","response","ArrowLeft","11","1","3","test","true",""
"","","","","","html-keyboard-response","92","172760","0.0-7.18-2.18","5bfbf8f326e31d000104a6d3","6579d0c5e56c6e1626038f86","6579d16057927ffd4f12e87d","null","<p> <font color=""green"" size=""5vw""> Correct category! </font> <br> <br> <font color=""green"" size=""8vw""> + $0.09 </font> </p>","null","feedback","","","","","","","0.78"
"","","","","","html-keyboard-response","93","173043","0.0-7.19-0.19","5bfbf8f326e31d000104a6d3","6579d0c5e56c6e1626038f86","6579d16057927ffd4f12e87d","282","
            
        <div style=""text-align: center; position: fixed; top: 5vh; left: 40vw;"">
            <div style=""margin:0 auto; width: 20vw; top: 8vh; font-size: 2vw""> 
            <font color=""green""> Bonus : $0.78 </font>
            </div>
        </div>
    
            <div> Please press any key to continue to the next movie.</div>
        ","arrowright","ITI","","","","","","",""
"","","","","","html-keyboard-response","94","173666","0.0-7.19-1.19","5bfbf8f326e31d000104a6d3","6579d0c5e56c6e1626038f86","6579d16057927ffd4f12e87d","621","./stimuli//pack_morph_shapes_1/cat_2/diff_3/ex_2_3_6.mp4","arrowright","response","ArrowRight","6","2","3","test","true",""
"","","","","","html-keyboard-response","95","175167","0.0-7.19-2.19","5bfbf8f326e31d000104a6d3","6579d0c5e56c6e1626038f86","6579d16057927ffd4f12e87d","null","<p> <font color=""green"" size=""5vw""> Correct category! </font> <br> <br> <font color=""green"" size=""8vw""> + $0.09 </font> </p>","null","feedback","","","","","","","0.87"
"","","","","","html-keyboard-response","96","176108","0.0-7.20-0.20","5bfbf8f326e31d000104a6d3","6579d0c5e56c6e1626038f86","6579d16057927ffd4f12e87d","940","
            
        <div style=""text-align: center; position: fixed; top: 5vh; left: 40vw;"">
            <div style=""margin:0 auto; width: 20vw; top: 8vh; font-size: 2vw""> 
            <font color=""green""> Bonus : $0.87 </font>
            </div>
        </div>
    
            <div> Please press any key to continue to the next movie.</div>
        ","arrowright","ITI","","","","","","",""
"","","","","","html-keyboard-response","97","176793","0.0-7.20-1.20","5bfbf8f326e31d000104a6d3","6579d0c5e56c6e1626038f86","6579d16057927ffd4f12e87d","683","./stimuli//pack_morph_shapes_1/cat_1/diff_3/ex_1_3_12.mp4","arrowright","response","ArrowLeft","12","1","3","test","false",""
"","","","","","html-keyboard-response","98","178304","0.0-7.20-2.20","5bfbf8f326e31d000104a6d3","6579d0c5e56c6e1626038f86","6579d16057927ffd4f12e87d","null","<p> <font color=""red"" size=""5vw""> Wrong category! </font> <br> <br> <font color=""red"" size=""8vw""> - $0.05 </font> </p>","null","feedback","","","","","","","0.82"
"","","","","","html-keyboard-response","99","178601","0.0-7.21-0.21","5bfbf8f326e31d000104a6d3","6579d0c5e56c6e1626038f86","6579d16057927ffd4f12e87d","296","
            
        <div style=""text-align: center; position: fixed; top: 5vh; left: 40vw;"">
            <div style=""margin:0 auto; width: 20vw; top: 8vh; font-size: 2vw""> 
            <font color=""green""> Bonus : $0.82 </font>
            </div>
        </div>
    
            <div> Please press any key to continue to the next movie.</div>
        ","arrowright","ITI","","","","","","",""
"","","","","","html-keyboard-response","100","179072","0.0-7.21-1.21","5bfbf8f326e31d000104a6d3","6579d0c5e56c6e1626038f86","6579d16057927ffd4f12e87d","469","./stimuli//pack_morph_shapes_1/cat_1/diff_3/ex_1_3_10.mp4","arrowright","response","ArrowLeft","10","1","3","test","false",""
"","","","","","html-keyboard-response","101","180565","0.0-7.21-2.21","5bfbf8f326e31d000104a6d3","6579d0c5e56c6e1626038f86","6579d16057927ffd4f12e87d","null","<p> <font color=""red"" size=""5vw""> Wrong category! </font> <br> <br> <font color=""red"" size=""8vw""> - $0.05 </font> </p>","null","feedback","","","","","","","0.77"
"","","","","","html-keyboard-response","102","180932","0.0-7.22-0.22","5bfbf8f326e31d000104a6d3","6579d0c5e56c6e1626038f86","6579d16057927ffd4f12e87d","366","
            
        <div style=""text-align: center; position: fixed; top: 5vh; left: 40vw;"">
            <div style=""margin:0 auto; width: 20vw; top: 8vh; font-size: 2vw""> 
            <font color=""green""> Bonus : $0.77 </font>
            </div>
        </div>
    
            <div> Please press any key to continue to the next movie.</div>
        ","arrowleft","ITI","","","","","","",""
"","","","","","html-keyboard-response","103","181583","0.0-7.22-1.22","5bfbf8f326e31d000104a6d3","6579d0c5e56c6e1626038f86","6579d16057927ffd4f12e87d","650","./stimuli//pack_morph_shapes_1/cat_1/diff_3/ex_1_3_16.mp4","arrowright","response","ArrowLeft","16","1","3","test","false",""
"","","","","","html-keyboard-response","104","183093","0.0-7.22-2.22","5bfbf8f326e31d000104a6d3","6579d0c5e56c6e1626038f86","6579d16057927ffd4f12e87d","null","<p> <font color=""red"" size=""5vw""> Wrong category! </font> <br> <br> <font color=""red"" size=""8vw""> - $0.05 </font> </p>","null","feedback","","","","","","","0.72"
"","","","","","html-keyboard-response","105","183392","0.0-7.23-0.23","5bfbf8f326e31d000104a6d3","6579d0c5e56c6e1626038f86","6579d16057927ffd4f12e87d","299","
            
        <div style=""text-align: center; position: fixed; top: 5vh; left: 40vw;"">
            <div style=""margin:0 auto; width: 20vw; top: 8vh; font-size: 2vw""> 
            <font color=""green""> Bonus : $0.72 </font>
            </div>
        </div>
    
            <div> Please press any key to continue to the next movie.</div>
        ","arrowleft","ITI","","","","","","",""
"","","","","","html-keyboard-response","106","183966","0.0-7.23-1.23","5bfbf8f326e31d000104a6d3","6579d0c5e56c6e1626038f86","6579d16057927ffd4f12e87d","572","./stimuli//pack_morph_shapes_1/cat_2/diff_2/ex_2_2_6.mp4","arrowright","response","ArrowRight","6","2","2","test","true",""
"","","","","","html-keyboard-response","107","185467","0.0-7.23-2.23","5bfbf8f326e31d000104a6d3","6579d0c5e56c6e1626038f86","6579d16057927ffd4f12e87d","null","<p> <font color=""green"" size=""5vw""> Correct category! </font> <br> <br> <font color=""green"" size=""8vw""> + $0.09 </font> </p>","null","feedback","","","","","","","0.81"
"","","","","","html-keyboard-response","108","185753","0.0-7.24-0.24","5bfbf8f326e31d000104a6d3","6579d0c5e56c6e1626038f86","6579d16057927ffd4f12e87d","285","
            
        <div style=""text-align: center; position: fixed; top: 5vh; left: 40vw;"">
            <div style=""margin:0 auto; width: 20vw; top: 8vh; font-size: 2vw""> 
            <font color=""green""> Bonus : $0.81 </font>
            </div>
        </div>
    
            <div> Please press any key to continue to the next movie.</div>
        ","arrowright","ITI","","","","","","",""
"","","","","","html-keyboard-response","109","186226","0.0-7.24-1.24","5bfbf8f326e31d000104a6d3","6579d0c5e56c6e1626038f86","6579d16057927ffd4f12e87d","472","./stimuli//pack_morph_shapes_1/cat_2/diff_2/ex_2_2_3.mp4","arrowright","response","ArrowRight","3","2","2","test","true",""
"","","","","","html-keyboard-response","110","187734","0.0-7.24-2.24","5bfbf8f326e31d000104a6d3","6579d0c5e56c6e1626038f86","6579d16057927ffd4f12e87d","null","<p> <font color=""green"" size=""5vw""> Correct category! </font> <br> <br> <font color=""green"" size=""8vw""> + $0.09 </font> </p>","null","feedback","","","","","","","0.9"
"","","","","","html-keyboard-response","111","187995","0.0-7.25-0.25","5bfbf8f326e31d000104a6d3","6579d0c5e56c6e1626038f86","6579d16057927ffd4f12e87d","261","
            
        <div style=""text-align: center; position: fixed; top: 5vh; left: 40vw;"">
            <div style=""margin:0 auto; width: 20vw; top: 8vh; font-size: 2vw""> 
            <font color=""green""> Bonus : $0.9 </font>
            </div>
        </div>
    
            <div> Please press any key to continue to the next movie.</div>
        ","arrowleft","ITI","","","","","","",""
"","","","","","html-keyboard-response","112","188434","0.0-7.25-1.25","5bfbf8f326e31d000104a6d3","6579d0c5e56c6e1626038f86","6579d16057927ffd4f12e87d","437","./stimuli//pack_morph_shapes_1/cat_1/diff_2/ex_1_2_2.mp4","arrowleft","response","ArrowLeft","2","1","2","test","true",""
"","","","","","html-keyboard-response","113","189937","0.0-7.25-2.25","5bfbf8f326e31d000104a6d3","6579d0c5e56c6e1626038f86","6579d16057927ffd4f12e87d","null","<p> <font color=""green"" size=""5vw""> Correct category! </font> <br> <br> <font color=""green"" size=""8vw""> + $0.09 </font> </p>","null","feedback","","","","","","","0.99"
"","","","","","html-keyboard-response","114","190248","0.0-7.26-0.26","5bfbf8f326e31d000104a6d3","6579d0c5e56c6e1626038f86","6579d16057927ffd4f12e87d","310","
            
        <div style=""text-align: center; position: fixed; top: 5vh; left: 40vw;"">
            <div style=""margin:0 auto; width: 20vw; top: 8vh; font-size: 2vw""> 
            <font color=""green""> Bonus : $0.99 </font>
            </div>
        </div>
    
            <div> Please press any key to continue to the next movie.</div>
        ","arrowleft","ITI","","","","","","",""
"","","","","","html-keyboard-response","115","190690","0.0-7.26-1.26","5bfbf8f326e31d000104a6d3","6579d0c5e56c6e1626038f86","6579d16057927ffd4f12e87d","439","./stimuli//pack_morph_shapes_1/cat_2/diff_2/ex_2_2_12.mp4","arrowleft","response","ArrowRight","12","2","2","test","false",""
"","","","","","html-keyboard-response","116","192203","0.0-7.26-2.26","5bfbf8f326e31d000104a6d3","6579d0c5e56c6e1626038f86","6579d16057927ffd4f12e87d","null","<p> <font color=""red"" size=""5vw""> Wrong category! </font> <br> <br> <font color=""red"" size=""8vw""> - $0.05 </font> </p>","null","feedback","","","","","","","0.94"
"","","","","","html-keyboard-response","117","192520","0.0-7.27-0.27","5bfbf8f326e31d000104a6d3","6579d0c5e56c6e1626038f86","6579d16057927ffd4f12e87d","317","
            
        <div style=""text-align: center; position: fixed; top: 5vh; left: 40vw;"">
            <div style=""margin:0 auto; width: 20vw; top: 8vh; font-size: 2vw""> 
            <font color=""green""> Bonus : $0.94 </font>
            </div>
        </div>
    
            <div> Please press any key to continue to the next movie.</div>
        ","arrowright","ITI","","","","","","",""
"","","","","","html-keyboard-response","118","193106","0.0-7.27-1.27","5bfbf8f326e31d000104a6d3","6579d0c5e56c6e1626038f86","6579d16057927ffd4f12e87d","584","./stimuli//pack_morph_shapes_1/cat_2/diff_2/ex_2_2_17.mp4","arrowleft","response","ArrowRight","17","2","2","test","false",""
"","","","","","html-keyboard-response","119","194607","0.0-7.27-2.27","5bfbf8f326e31d000104a6d3","6579d0c5e56c6e1626038f86","6579d16057927ffd4f12e87d","null","<p> <font color=""red"" size=""5vw""> Wrong category! </font> <br> <br> <font color=""red"" size=""8vw""> - $0.05 </font> </p>","null","feedback","","","","","","","0.89"
"","","","","","html-keyboard-response","120","194890","0.0-7.28-0.28","5bfbf8f326e31d000104a6d3","6579d0c5e56c6e1626038f86","6579d16057927ffd4f12e87d","282","
            
        <div style=""text-align: center; position: fixed; top: 5vh; left: 40vw;"">
            <div style=""margin:0 auto; width: 20vw; top: 8vh; font-size: 2vw""> 
            <font color=""green""> Bonus : $0.89 </font>
            </div>
        </div>
    
            <div> Please press any key to continue to the next movie.</div>
        ","arrowright","ITI","","","","","","",""
"","","","","","html-keyboard-response","121","195249","0.0-7.28-1.28","5bfbf8f326e31d000104a6d3","6579d0c5e56c6e1626038f86","6579d16057927ffd4f12e87d","357","./stimuli//pack_morph_shapes_1/cat_2/diff_1/ex_2_1_11.mp4","arrowright","response","ArrowRight","11","2","1","test","true",""
"","","","","","html-keyboard-response","122","196756","0.0-7.28-2.28","5bfbf8f326e31d000104a6d3","6579d0c5e56c6e1626038f86","6579d16057927ffd4f12e87d","null","<p> <font color=""green"" size=""5vw""> Correct category! </font> <br> <br> <font color=""green"" size=""8vw""> + $0.09 </font> </p>","null","feedback","","","","","","","0.98"
"","","","","","html-keyboard-response","123","197081","0.0-7.29-0.29","5bfbf8f326e31d000104a6d3","6579d0c5e56c6e1626038f86","6579d16057927ffd4f12e87d","325","
            
        <div style=""text-align: center; position: fixed; top: 5vh; left: 40vw;"">
            <div style=""margin:0 auto; width: 20vw; top: 8vh; font-size: 2vw""> 
            <font color=""green""> Bonus : $0.98 </font>
            </div>
        </div>
    
            <div> Please press any key to continue to the next movie.</div>
        ","arrowright","ITI","","","","","","",""
"","","","","","html-keyboard-response","124","197556","0.0-7.29-1.29","5bfbf8f326e31d000104a6d3","6579d0c5e56c6e1626038f86","6579d16057927ffd4f12e87d","474","./stimuli//pack_morph_shapes_1/cat_1/diff_1/ex_1_1_7.mp4","arrowright","response","ArrowLeft","7","1","1","test","false",""
"","","","","","html-keyboard-response","125","199061","0.0-7.29-2.29","5bfbf8f326e31d000104a6d3","6579d0c5e56c6e1626038f86","6579d16057927ffd4f12e87d","null","<p> <font color=""red"" size=""5vw""> Wrong category! </font> <br> <br> <font color=""red"" size=""8vw""> - $0.05 </font> </p>","null","feedback","","","","","","","0.93"
"","","","","","html-keyboard-response","126","199683","0.0-7.30-0.30","5bfbf8f326e31d000104a6d3","6579d0c5e56c6e1626038f86","6579d16057927ffd4f12e87d","622","
            
        <div style=""text-align: center; position: fixed; top: 5vh; left: 40vw;"">
            <div style=""margin:0 auto; width: 20vw; top: 8vh; font-size: 2vw""> 
            <font color=""green""> Bonus : $0.93 </font>
            </div>
        </div>
    
            <div> Please press any key to continue to the next movie.</div>
        ","arrowright","ITI","","","","","","",""
"","","","","","html-keyboard-response","127","200119","0.0-7.30-1.30","5bfbf8f326e31d000104a6d3","6579d0c5e56c6e1626038f86","6579d16057927ffd4f12e87d","435","./stimuli//pack_morph_shapes_1/cat_2/diff_1/ex_2_1_8.mp4","arrowright","response","ArrowRight","8","2","1","test","true",""
"","","","","","html-keyboard-response","128","201622","0.0-7.30-2.30","5bfbf8f326e31d000104a6d3","6579d0c5e56c6e1626038f86","6579d16057927ffd4f12e87d","null","<p> <font color=""green"" size=""5vw""> Correct category! </font> <br> <br> <font color=""green"" size=""8vw""> + $0.09 </font> </p>","null","feedback","","","","","","","1.02"
"","","","","","html-keyboard-response","129","201905","0.0-7.31-0.31","5bfbf8f326e31d000104a6d3","6579d0c5e56c6e1626038f86","6579d16057927ffd4f12e87d","283","
            
        <div style=""text-align: center; position: fixed; top: 5vh; left: 40vw;"">
            <div style=""margin:0 auto; width: 20vw; top: 8vh; font-size: 2vw""> 
            <font color=""green""> Bonus : $1.02 </font>
            </div>
        </div>
    
            <div> Please press any key to continue to the next movie.</div>
        ","arrowright","ITI","","","","","","",""
"","","","","","html-keyboard-response","130","203397","0.0-7.31-1.31","5bfbf8f326e31d000104a6d3","6579d0c5e56c6e1626038f86","6579d16057927ffd4f12e87d","1490","./stimuli//pack_morph_shapes_1/cat_1/diff_1/ex_1_1_4.mp4","arrowright","response","ArrowLeft","4","1","1","test","false",""
"","","","","","html-keyboard-response","131","204907","0.0-7.31-2.31","5bfbf8f326e31d000104a6d3","6579d0c5e56c6e1626038f86","6579d16057927ffd4f12e87d","null","<p> <font color=""red"" size=""5vw""> Wrong category! </font> <br> <br> <font color=""red"" size=""8vw""> - $0.05 </font> </p>","null","feedback","","","","","","","0.97"
"","","","","","html-keyboard-response","132","205356","0.0-7.32-0.32","5bfbf8f326e31d000104a6d3","6579d0c5e56c6e1626038f86","6579d16057927ffd4f12e87d","448","
            
        <div style=""text-align: center; position: fixed; top: 5vh; left: 40vw;"">
            <div style=""margin:0 auto; width: 20vw; top: 8vh; font-size: 2vw""> 
            <font color=""green""> Bonus : $0.97 </font>
            </div>
        </div>
    
            <div> Please press any key to continue to the next movie.</div>
        ","arrowleft","ITI","","","","","","",""
"","","","","","html-keyboard-response","133","205867","0.0-7.32-1.32","5bfbf8f326e31d000104a6d3","6579d0c5e56c6e1626038f86","6579d16057927ffd4f12e87d","508","./stimuli//pack_morph_shapes_1/cat_1/diff_1/ex_1_1_3.mp4","arrowleft","response","ArrowLeft","3","1","1","test","true",""
"","","","","","html-keyboard-response","134","207375","0.0-7.32-2.32","5bfbf8f326e31d000104a6d3","6579d0c5e56c6e1626038f86","6579d16057927ffd4f12e87d","null","<p> <font color=""green"" size=""5vw""> Correct category! </font> <br> <br> <font color=""green"" size=""8vw""> + $0.09 </font> </p>","null","feedback","","","","","","","1.06"
"","","","","","html-keyboard-response","135","208359","0.0-7.33-0.33","5bfbf8f326e31d000104a6d3","6579d0c5e56c6e1626038f86","6579d16057927ffd4f12e87d","983","
            
        <div style=""text-align: center; position: fixed; top: 5vh; left: 40vw;"">
            <div style=""margin:0 auto; width: 20vw; top: 8vh; font-size: 2vw""> 
            <font color=""green""> Bonus : $1.06 </font>
            </div>
        </div>
    
            <div> Please press any key to continue to the next movie.</div>
        ","arrowleft","ITI","","","","","","",""
"","","","","","html-keyboard-response","136","208780","0.0-7.33-1.33","5bfbf8f326e31d000104a6d3","6579d0c5e56c6e1626038f86","6579d16057927ffd4f12e87d","420","./stimuli//pack_morph_shapes_1/cat_1/diff_1/ex_1_1_14.mp4","arrowleft","response","ArrowLeft","14","1","1","test","true",""
"","","","","","html-keyboard-response","137","210282","0.0-7.33-2.33","5bfbf8f326e31d000104a6d3","6579d0c5e56c6e1626038f86","6579d16057927ffd4f12e87d","null","<p> <font color=""green"" size=""5vw""> Correct category! </font> <br> <br> <font color=""green"" size=""8vw""> + $0.09 </font> </p>","null","feedback","","","","","","","1.15"
"","","","","","html-keyboard-response","138","210651","0.0-7.34-0.34","5bfbf8f326e31d000104a6d3","6579d0c5e56c6e1626038f86","6579d16057927ffd4f12e87d","369","
            
        <div style=""text-align: center; position: fixed; top: 5vh; left: 40vw;"">
            <div style=""margin:0 auto; width: 20vw; top: 8vh; font-size: 2vw""> 
            <font color=""green""> Bonus : $1.15 </font>
            </div>
        </div>
    
            <div> Please press any key to continue to the next movie.</div>
        ","arrowright","ITI","","","","","","",""
"","","","","","html-keyboard-response","139","211129","0.0-7.34-1.34","5bfbf8f326e31d000104a6d3","6579d0c5e56c6e1626038f86","6579d16057927ffd4f12e87d","476","./stimuli//pack_morph_shapes_1/cat_2/diff_1/ex_2_1_5.mp4","arrowright","response","ArrowRight","5","2","1","test","true",""
"","","","","","html-keyboard-response","140","212630","0.0-7.34-2.34","5bfbf8f326e31d000104a6d3","6579d0c5e56c6e1626038f86","6579d16057927ffd4f12e87d","null","<p> <font color=""green"" size=""5vw""> Correct category! </font> <br> <br> <font color=""green"" size=""8vw""> + $0.09 </font> </p>","null","feedback","","","","","","","1.24"
"","","","","","html-keyboard-response","141","212851","0.0-7.35-0.35","5bfbf8f326e31d000104a6d3","6579d0c5e56c6e1626038f86","6579d16057927ffd4f12e87d","221","
            
        <div style=""text-align: center; position: fixed; top: 5vh; left: 40vw;"">
            <div style=""margin:0 auto; width: 20vw; top: 8vh; font-size: 2vw""> 
            <font color=""green""> Bonus : $1.24 </font>
            </div>
        </div>
    
            <div> Please press any key to continue to the next movie.</div>
        ","arrowright","ITI","","","","","","",""
"","","","","","html-keyboard-response","142","213223","0.0-7.35-1.35","5bfbf8f326e31d000104a6d3","6579d0c5e56c6e1626038f86","6579d16057927ffd4f12e87d","371","./stimuli//pack_morph_shapes_1/cat_1/diff_2/ex_1_2_9.mp4","arrowright","response","ArrowLeft","9","1","2","test","false",""
"","","","","","html-keyboard-response","143","214729","0.0-7.35-2.35","5bfbf8f326e31d000104a6d3","6579d0c5e56c6e1626038f86","6579d16057927ffd4f12e87d","null","<p> <font color=""red"" size=""5vw""> Wrong category! </font> <br> <br> <font color=""red"" size=""8vw""> - $0.05 </font> </p>","null","feedback","","","","","","","1.19"
"","","","","","html-keyboard-response","144","214977","0.0-7.36-0.36","5bfbf8f326e31d000104a6d3","6579d0c5e56c6e1626038f86","6579d16057927ffd4f12e87d","247","
            
        <div style=""text-align: center; position: fixed; top: 5vh; left: 40vw;"">
            <div style=""margin:0 auto; width: 20vw; top: 8vh; font-size: 2vw""> 
            <font color=""green""> Bonus : $1.19 </font>
            </div>
        </div>
    
            <div> Please press any key to continue to the next movie.</div>
        ","arrowright","ITI","","","","","","",""
"","","","","","html-keyboard-response","145","215296","0.0-7.36-1.36","5bfbf8f326e31d000104a6d3","6579d0c5e56c6e1626038f86","6579d16057927ffd4f12e87d","317","./stimuli//pack_morph_shapes_1/cat_1/diff_2/ex_1_2_3.mp4","arrowright","response","ArrowLeft","3","1","2","test","false",""
"","","","","","html-keyboard-response","146","216797","0.0-7.36-2.36","5bfbf8f326e31d000104a6d3","6579d0c5e56c6e1626038f86","6579d16057927ffd4f12e87d","null","<p> <font color=""red"" size=""5vw""> Wrong category! </font> <br> <br> <font color=""red"" size=""8vw""> - $0.05 </font> </p>","null","feedback","","","","","","","1.14"
"","","","","","html-keyboard-response","147","217126","0.0-7.37-0.37","5bfbf8f326e31d000104a6d3","6579d0c5e56c6e1626038f86","6579d16057927ffd4f12e87d","329","
            
        <div style=""text-align: center; position: fixed; top: 5vh; left: 40vw;"">
            <div style=""margin:0 auto; width: 20vw; top: 8vh; font-size: 2vw""> 
            <font color=""green""> Bonus : $1.14 </font>
            </div>
        </div>
    
            <div> Please press any key to continue to the next movie.</div>
        ","arrowright","ITI","","","","","","",""
"","","","","","html-keyboard-response","148","217466","0.0-7.37-1.37","5bfbf8f326e31d000104a6d3","6579d0c5e56c6e1626038f86","6579d16057927ffd4f12e87d","339","./stimuli//pack_morph_shapes_1/cat_1/diff_2/ex_1_2_4.mp4","arrowright","response","ArrowLeft","4","1","2","test","false",""
"","","","","","html-keyboard-response","149","218973","0.0-7.37-2.37","5bfbf8f326e31d000104a6d3","6579d0c5e56c6e1626038f86","6579d16057927ffd4f12e87d","null","<p> <font color=""red"" size=""5vw""> Wrong category! </font> <br> <br> <font color=""red"" size=""8vw""> - $0.05 </font> </p>","null","feedback","","","","","","","1.09"
"","","","","","html-keyboard-response","150","219276","0.0-7.38-0.38","5bfbf8f326e31d000104a6d3","6579d0c5e56c6e1626038f86","6579d16057927ffd4f12e87d","302","
            
        <div style=""text-align: center; position: fixed; top: 5vh; left: 40vw;"">
            <div style=""margin:0 auto; width: 20vw; top: 8vh; font-size: 2vw""> 
            <font color=""green""> Bonus : $1.09 </font>
            </div>
        </div>
    
            <div> Please press any key to continue to the next movie.</div>
        ","arrowright","ITI","","","","","","",""
"","","","","","html-keyboard-response","151","220178","0.0-7.38-1.38","5bfbf8f326e31d000104a6d3","6579d0c5e56c6e1626038f86","6579d16057927ffd4f12e87d","901","./stimuli//pack_morph_shapes_1/cat_2/diff_2/ex_2_2_17.mp4","arrowright","response","ArrowRight","17","2","2","test","true",""
"","","","","","html-keyboard-response","152","221683","0.0-7.38-2.38","5bfbf8f326e31d000104a6d3","6579d0c5e56c6e1626038f86","6579d16057927ffd4f12e87d","null","<p> <font color=""green"" size=""5vw""> Correct category! </font> <br> <br> <font color=""green"" size=""8vw""> + $0.08 </font> </p>","null","feedback","","","","","","","1.17"
"","","","","","html-keyboard-response","153","222226","0.0-7.39-0.39","5bfbf8f326e31d000104a6d3","6579d0c5e56c6e1626038f86","6579d16057927ffd4f12e87d","542","
            
        <div style=""text-align: center; position: fixed; top: 5vh; left: 40vw;"">
            <div style=""margin:0 auto; width: 20vw; top: 8vh; font-size: 2vw""> 
            <font color=""green""> Bonus : $1.17 </font>
            </div>
        </div>
    
            <div> Please press any key to continue to the next movie.</div>
        ","arrowright","ITI","","","","","","",""
"","","","","","html-keyboard-response","154","222761","0.0-7.39-1.39","5bfbf8f326e31d000104a6d3","6579d0c5e56c6e1626038f86","6579d16057927ffd4f12e87d","534","./stimuli//pack_morph_shapes_1/cat_2/diff_2/ex_2_2_15.mp4","arrowright","response","ArrowRight","15","2","2","test","true",""
"","","","","","html-keyboard-response","155","224267","0.0-7.39-2.39","5bfbf8f326e31d000104a6d3","6579d0c5e56c6e1626038f86","6579d16057927ffd4f12e87d","null","<p> <font color=""green"" size=""5vw""> Correct category! </font> <br> <br> <font color=""green"" size=""8vw""> + $0.09 </font> </p>","null","feedback","","","","","","","1.26"
"","","","","","html-keyboard-response","156","224382","0.0-7.40-0.40","5bfbf8f326e31d000104a6d3","6579d0c5e56c6e1626038f86","6579d16057927ffd4f12e87d","115","
            
        <div style=""text-align: center; position: fixed; top: 5vh; left: 40vw;"">
            <div style=""margin:0 auto; width: 20vw; top: 8vh; font-size: 2vw""> 
            <font color=""green""> Bonus : $1.26 </font>
            </div>
        </div>
    
            <div> Please press any key to continue to the next movie.</div>
        ","arrowleft","ITI","","","","","","",""
"","","","","","html-keyboard-response","157","224799","0.0-7.40-1.40","5bfbf8f326e31d000104a6d3","6579d0c5e56c6e1626038f86","6579d16057927ffd4f12e87d","415","./stimuli//pack_morph_shapes_1/cat_1/diff_1/ex_1_1_1.mp4","arrowleft","response","ArrowLeft","1","1","1","test","true",""
"","","","","","html-keyboard-response","158","226302","0.0-7.40-2.40","5bfbf8f326e31d000104a6d3","6579d0c5e56c6e1626038f86","6579d16057927ffd4f12e87d","null","<p> <font color=""green"" size=""5vw""> Correct category! </font> <br> <br> <font color=""green"" size=""8vw""> + $0.09 </font> </p>","null","feedback","","","","","","","1.35"
"","","","","","html-keyboard-response","159","226461","0.0-7.41-0.41","5bfbf8f326e31d000104a6d3","6579d0c5e56c6e1626038f86","6579d16057927ffd4f12e87d","158","
            
        <div style=""text-align: center; position: fixed; top: 5vh; left: 40vw;"">
            <div style=""margin:0 auto; width: 20vw; top: 8vh; font-size: 2vw""> 
            <font color=""green""> Bonus : $1.35 </font>
            </div>
        </div>
    
            <div> Please press any key to continue to the next movie.</div>
        ","arrowleft","ITI","","","","","","",""
"","","","","","html-keyboard-response","160","227533","0.0-7.41-1.41","5bfbf8f326e31d000104a6d3","6579d0c5e56c6e1626038f86","6579d16057927ffd4f12e87d","1070","./stimuli//pack_morph_shapes_1/cat_1/diff_1/ex_1_1_8.mp4","arrowleft","response","ArrowLeft","8","1","1","test","true",""
"","","","","","html-keyboard-response","161","229034","0.0-7.41-2.41","5bfbf8f326e31d000104a6d3","6579d0c5e56c6e1626038f86","6579d16057927ffd4f12e87d","null","<p> <font color=""green"" size=""5vw""> Correct category! </font> <br> <br> <font color=""green"" size=""8vw""> + $0.08 </font> </p>","null","feedback","","","","","","","1.43"
"","","","","","html-keyboard-response","162","229354","0.0-7.42-0.42","5bfbf8f326e31d000104a6d3","6579d0c5e56c6e1626038f86","6579d16057927ffd4f12e87d","319","
            
        <div style=""text-align: center; position: fixed; top: 5vh; left: 40vw;"">
            <div style=""margin:0 auto; width: 20vw; top: 8vh; font-size: 2vw""> 
            <font color=""green""> Bonus : $1.43 </font>
            </div>
        </div>
    
            <div> Please press any key to continue to the next movie.</div>
        ","arrowleft","ITI","","","","","","",""
"","","","","","html-keyboard-response","163","229804","0.0-7.42-1.42","5bfbf8f326e31d000104a6d3","6579d0c5e56c6e1626038f86","6579d16057927ffd4f12e87d","448","./stimuli//pack_morph_shapes_1/cat_1/diff_1/ex_1_1_1.mp4","arrowleft","response","ArrowLeft","1","1","1","test","true",""
"","","","","","html-keyboard-response","164","231319","0.0-7.42-2.42","5bfbf8f326e31d000104a6d3","6579d0c5e56c6e1626038f86","6579d16057927ffd4f12e87d","null","<p> <font color=""green"" size=""5vw""> Correct category! </font> <br> <br> <font color=""green"" size=""8vw""> + $0.09 </font> </p>","null","feedback","","","","","","","1.52"
"","","","","","html-keyboard-response","165","231581","0.0-7.43-0.43","5bfbf8f326e31d000104a6d3","6579d0c5e56c6e1626038f86","6579d16057927ffd4f12e87d","260","
            
        <div style=""text-align: center; position: fixed; top: 5vh; left: 40vw;"">
            <div style=""margin:0 auto; width: 20vw; top: 8vh; font-size: 2vw""> 
            <font color=""green""> Bonus : $1.52 </font>
            </div>
        </div>
    
            <div> Please press any key to continue to the next movie.</div>
        ","arrowright","ITI","","","","","","",""
"","","","","","html-keyboard-response","166","232014","0.0-7.43-1.43","5bfbf8f326e31d000104a6d3","6579d0c5e56c6e1626038f86","6579d16057927ffd4f12e87d","432","./stimuli//pack_morph_shapes_1/cat_1/diff_1/ex_1_1_2.mp4","arrowright","response","ArrowLeft","2","1","1","test","false",""
"","","","","","html-keyboard-response","167","233521","0.0-7.43-2.43","5bfbf8f326e31d000104a6d3","6579d0c5e56c6e1626038f86","6579d16057927ffd4f12e87d","null","<p> <font color=""red"" size=""5vw""> Wrong category! </font> <br> <br> <font color=""red"" size=""8vw""> - $0.05 </font> </p>","null","feedback","","","","","","","1.47"
"","","","","","html-keyboard-response","168","233811","0.0-7.44-0.44","5bfbf8f326e31d000104a6d3","6579d0c5e56c6e1626038f86","6579d16057927ffd4f12e87d","290","
            
        <div style=""text-align: center; position: fixed; top: 5vh; left: 40vw;"">
            <div style=""margin:0 auto; width: 20vw; top: 8vh; font-size: 2vw""> 
            <font color=""green""> Bonus : $1.47 </font>
            </div>
        </div>
    
            <div> Please press any key to continue to the next movie.</div>
        ","arrowright","ITI","","","","","","",""
"","","","","","html-keyboard-response","169","234220","0.0-7.44-1.44","5bfbf8f326e31d000104a6d3","6579d0c5e56c6e1626038f86","6579d16057927ffd4f12e87d","407","./stimuli//pack_morph_shapes_1/cat_2/diff_1/ex_2_1_16.mp4","arrowright","response","ArrowRight","16","2","1","test","true",""
"","","","","","html-keyboard-response","170","235723","0.0-7.44-2.44","5bfbf8f326e31d000104a6d3","6579d0c5e56c6e1626038f86","6579d16057927ffd4f12e87d","null","<p> <font color=""green"" size=""5vw""> Correct category! </font> <br> <br> <font color=""green"" size=""8vw""> + $0.09 </font> </p>","null","feedback","","","","","","","1.56"
"","","","","","html-keyboard-response","171","236029","0.0-7.45-0.45","5bfbf8f326e31d000104a6d3","6579d0c5e56c6e1626038f86","6579d16057927ffd4f12e87d","305","
            
        <div style=""text-align: center; position: fixed; top: 5vh; left: 40vw;"">
            <div style=""margin:0 auto; width: 20vw; top: 8vh; font-size: 2vw""> 
            <font color=""green""> Bonus : $1.56 </font>
            </div>
        </div>
    
            <div> Please press any key to continue to the next movie.</div>
        ","arrowright","ITI","","","","","","",""
"","","","","","html-keyboard-response","172","236447","0.0-7.45-1.45","5bfbf8f326e31d000104a6d3","6579d0c5e56c6e1626038f86","6579d16057927ffd4f12e87d","417","./stimuli//pack_morph_shapes_1/cat_2/diff_2/ex_2_2_1.mp4","arrowright","response","ArrowRight","1","2","2","test","true",""
"","","","","","html-keyboard-response","173","237952","0.0-7.45-2.45","5bfbf8f326e31d000104a6d3","6579d0c5e56c6e1626038f86","6579d16057927ffd4f12e87d","null","<p> <font color=""green"" size=""5vw""> Correct category! </font> <br> <br> <font color=""green"" size=""8vw""> + $0.09 </font> </p>","null","feedback","","","","","","","1.65"
"","","","","","html-keyboard-response","174","238245","0.0-7.46-0.46","5bfbf8f326e31d000104a6d3","6579d0c5e56c6e1626038f86","6579d16057927ffd4f12e87d","292","
            
        <div style=""text-align: center; position: fixed; top: 5vh; left: 40vw;"">
            <div style=""margin:0 auto; width: 20vw; top: 8vh; font-size: 2vw""> 
            <font color=""green""> Bonus : $1.65 </font>
            </div>
        </div>
    
            <div> Please press any key to continue to the next movie.</div>
        ","arrowleft","ITI","","","","","","",""
"","","","","","html-keyboard-response","175","238706","0.0-7.46-1.46","5bfbf8f326e31d000104a6d3","6579d0c5e56c6e1626038f86","6579d16057927ffd4f12e87d","460","./stimuli//pack_morph_shapes_1/cat_1/diff_2/ex_1_2_13.mp4","arrowleft","response","ArrowLeft","13","1","2","test","true",""
"","","","","","html-keyboard-response","176","240218","0.0-7.46-2.46","5bfbf8f326e31d000104a6d3","6579d0c5e56c6e1626038f86","6579d16057927ffd4f12e87d","null","<p> <font color=""green"" size=""5vw""> Correct category! </font> <br> <br> <font color=""green"" size=""8vw""> + $0.09 </font> </p>","null","feedback","","","","","","","1.74"
"","","","","","html-keyboard-response","177","240608","0.0-7.47-0.47","5bfbf8f326e31d000104a6d3","6579d0c5e56c6e1626038f86","6579d16057927ffd4f12e87d","388","
            
        <div style=""text-align: center; position: fixed; top: 5vh; left: 40vw;"">
            <div style=""margin:0 auto; width: 20vw; top: 8vh; font-size: 2vw""> 
            <font color=""green""> Bonus : $1.74 </font>
            </div>
        </div>
    
            <div> Please press any key to continue to the next movie.</div>
        ","arrowleft","ITI","","","","","","",""
"","","","","","html-keyboard-response","178","241053","0.0-7.47-1.47","5bfbf8f326e31d000104a6d3","6579d0c5e56c6e1626038f86","6579d16057927ffd4f12e87d","444","./stimuli//pack_morph_shapes_1/cat_2/diff_2/ex_2_2_12.mp4","arrowleft","response","ArrowRight","12","2","2","test","false",""
"","","","","","html-keyboard-response","179","242556","0.0-7.47-2.47","5bfbf8f326e31d000104a6d3","6579d0c5e56c6e1626038f86","6579d16057927ffd4f12e87d","null","<p> <font color=""red"" size=""5vw""> Wrong category! </font> <br> <br> <font color=""red"" size=""8vw""> - $0.05 </font> </p>","null","feedback","","","","","","","1.69"
"","","","","","html-keyboard-response","180","242726","0.0-7.48-0.48","5bfbf8f326e31d000104a6d3","6579d0c5e56c6e1626038f86","6579d16057927ffd4f12e87d","170","
            
        <div style=""text-align: center; position: fixed; top: 5vh; left: 40vw;"">
            <div style=""margin:0 auto; width: 20vw; top: 8vh; font-size: 2vw""> 
            <font color=""green""> Bonus : $1.69 </font>
            </div>
        </div>
    
            <div> Please press any key to continue to the next movie.</div>
        ","arrowleft","ITI","","","","","","",""
"","","","","","html-keyboard-response","181","243127","0.0-7.48-1.48","5bfbf8f326e31d000104a6d3","6579d0c5e56c6e1626038f86","6579d16057927ffd4f12e87d","400","./stimuli//pack_morph_shapes_1/cat_2/diff_2/ex_2_2_1.mp4","arrowleft","response","ArrowRight","1","2","2","test","false",""
"","","","","","html-keyboard-response","182","244635","0.0-7.48-2.48","5bfbf8f326e31d000104a6d3","6579d0c5e56c6e1626038f86","6579d16057927ffd4f12e87d","null","<p> <font color=""red"" size=""5vw""> Wrong category! </font> <br> <br> <font color=""red"" size=""8vw""> - $0.05 </font> </p>","null","feedback","","","","","","","1.64"
"","","","","","html-keyboard-response","183","244926","0.0-7.49-0.49","5bfbf8f326e31d000104a6d3","6579d0c5e56c6e1626038f86","6579d16057927ffd4f12e87d","290","
            
        <div style=""text-align: center; position: fixed; top: 5vh; left: 40vw;"">
            <div style=""margin:0 auto; width: 20vw; top: 8vh; font-size: 2vw""> 
            <font color=""green""> Bonus : $1.64 </font>
            </div>
        </div>
    
            <div> Please press any key to continue to the next movie.</div>
        ","arrowleft","ITI","","","","","","",""
"","","","","","html-keyboard-response","184","245322","0.0-7.49-1.49","5bfbf8f326e31d000104a6d3","6579d0c5e56c6e1626038f86","6579d16057927ffd4f12e87d","395","./stimuli//pack_morph_shapes_1/cat_2/diff_2/ex_2_2_4.mp4","arrowleft","response","ArrowRight","4","2","2","test","false",""
"","","","","","html-keyboard-response","185","246828","0.0-7.49-2.49","5bfbf8f326e31d000104a6d3","6579d0c5e56c6e1626038f86","6579d16057927ffd4f12e87d","null","<p> <font color=""red"" size=""5vw""> Wrong category! </font> <br> <br> <font color=""red"" size=""8vw""> - $0.05 </font> </p>","null","feedback","","","","","","","1.59"
"","","","","","html-keyboard-response","186","247157","0.0-7.50-0.50","5bfbf8f326e31d000104a6d3","6579d0c5e56c6e1626038f86","6579d16057927ffd4f12e87d","329","
            
        <div style=""text-align: center; position: fixed; top: 5vh; left: 40vw;"">
            <div style=""margin:0 auto; width: 20vw; top: 8vh; font-size: 2vw""> 
            <font color=""green""> Bonus : $1.59 </font>
            </div>
        </div>
    
            <div> Please press any key to continue to the next movie.</div>
        ","arrowleft","ITI","","","","","","",""
"","","","","","html-keyboard-response","187","247637","0.0-7.50-1.50","5bfbf8f326e31d000104a6d3","6579d0c5e56c6e1626038f86","6579d16057927ffd4f12e87d","478","./stimuli//pack_morph_shapes_1/cat_2/diff_1/ex_2_1_16.mp4","arrowleft","response","ArrowRight","16","2","1","test","false",""
"","","","","","html-keyboard-response","188","249139","0.0-7.50-2.50","5bfbf8f326e31d000104a6d3","6579d0c5e56c6e1626038f86","6579d16057927ffd4f12e87d","null","<p> <font color=""red"" size=""5vw""> Wrong category! </font> <br> <br> <font color=""red"" size=""8vw""> - $0.05 </font> </p>","null","feedback","","","","","","","1.54"
"","","","","","html-keyboard-response","189","249559","0.0-7.51-0.51","5bfbf8f326e31d000104a6d3","6579d0c5e56c6e1626038f86","6579d16057927ffd4f12e87d","419","
            
        <div style=""text-align: center; position: fixed; top: 5vh; left: 40vw;"">
            <div style=""margin:0 auto; width: 20vw; top: 8vh; font-size: 2vw""> 
            <font color=""green""> Bonus : $1.54 </font>
            </div>
        </div>
    
            <div> Please press any key to continue to the next movie.</div>
        ","arrowleft","ITI","","","","","","",""
"","","","","","html-keyboard-response","190","250010","0.0-7.51-1.51","5bfbf8f326e31d000104a6d3","6579d0c5e56c6e1626038f86","6579d16057927ffd4f12e87d","449","./stimuli//pack_morph_shapes_1/cat_1/diff_1/ex_1_1_11.mp4","arrowleft","response","ArrowLeft","11","1","1","test","true",""
"","","","","","html-keyboard-response","191","251521","0.0-7.51-2.51","5bfbf8f326e31d000104a6d3","6579d0c5e56c6e1626038f86","6579d16057927ffd4f12e87d","null","<p> <font color=""green"" size=""5vw""> Correct category! </font> <br> <br> <font color=""green"" size=""8vw""> + $0.09 </font> </p>","null","feedback","","","","","","","1.63"
"","","","","","html-keyboard-response","192","251765","0.0-7.52-0.52","5bfbf8f326e31d000104a6d3","6579d0c5e56c6e1626038f86","6579d16057927ffd4f12e87d","242","
            
        <div style=""text-align: center; position: fixed; top: 5vh; left: 40vw;"">
            <div style=""margin:0 auto; width: 20vw; top: 8vh; font-size: 2vw""> 
            <font color=""green""> Bonus : $1.63 </font>
            </div>
        </div>
    
            <div> Please press any key to continue to the next movie.</div>
        ","arrowleft","ITI","","","","","","",""
"","","","","","html-keyboard-response","193","252148","0.0-7.52-1.52","5bfbf8f326e31d000104a6d3","6579d0c5e56c6e1626038f86","6579d16057927ffd4f12e87d","381","./stimuli//pack_morph_shapes_1/cat_1/diff_1/ex_1_1_8.mp4","arrowleft","response","ArrowLeft","8","1","1","test","true",""
"","","","","","html-keyboard-response","194","253655","0.0-7.52-2.52","5bfbf8f326e31d000104a6d3","6579d0c5e56c6e1626038f86","6579d16057927ffd4f12e87d","null","<p> <font color=""green"" size=""5vw""> Correct category! </font> <br> <br> <font color=""green"" size=""8vw""> + $0.09 </font> </p>","null","feedback","","","","","","","1.72"
"","","","","","html-keyboard-response","195","253881","0.0-7.53-0.53","5bfbf8f326e31d000104a6d3","6579d0c5e56c6e1626038f86","6579d16057927ffd4f12e87d","226","
            
        <div style=""text-align: center; position: fixed; top: 5vh; left: 40vw;"">
            <div style=""margin:0 auto; width: 20vw; top: 8vh; font-size: 2vw""> 
            <font color=""green""> Bonus : $1.72 </font>
            </div>
        </div>
    
            <div> Please press any key to continue to the next movie.</div>
        ","arrowleft","ITI","","","","","","",""
"","","","","","html-keyboard-response","196","254278","0.0-7.53-1.53","5bfbf8f326e31d000104a6d3","6579d0c5e56c6e1626038f86","6579d16057927ffd4f12e87d","396","./stimuli//pack_morph_shapes_1/cat_1/diff_1/ex_1_1_15.mp4","arrowleft","response","ArrowLeft","15","1","1","test","true",""
"","","","","","html-keyboard-response","197","255790","0.0-7.53-2.53","5bfbf8f326e31d000104a6d3","6579d0c5e56c6e1626038f86","6579d16057927ffd4f12e87d","null","<p> <font color=""green"" size=""5vw""> Correct category! </font> <br> <br> <font color=""green"" size=""8vw""> + $0.09 </font> </p>","null","feedback","","","","","","","1.81"
"","","","","","html-keyboard-response","198","256112","0.0-7.54-0.54","5bfbf8f326e31d000104a6d3","6579d0c5e56c6e1626038f86","6579d16057927ffd4f12e87d","321","
            
        <div style=""text-align: center; position: fixed; top: 5vh; left: 40vw;"">
            <div style=""margin:0 auto; width: 20vw; top: 8vh; font-size: 2vw""> 
            <font color=""green""> Bonus : $1.81 </font>
            </div>
        </div>
    
            <div> Please press any key to continue to the next movie.</div>
        ","arrowright","ITI","","","","","","",""
"","","","","","html-keyboard-response","199","256619","0.0-7.54-1.54","5bfbf8f326e31d000104a6d3","6579d0c5e56c6e1626038f86","6579d16057927ffd4f12e87d","506","./stimuli//pack_morph_shapes_1/cat_1/diff_1/ex_1_1_3.mp4","arrowright","response","ArrowLeft","3","1","1","test","false",""
"","","","","","html-keyboard-response","200","258123","0.0-7.54-2.54","5bfbf8f326e31d000104a6d3","6579d0c5e56c6e1626038f86","6579d16057927ffd4f12e87d","null","<p> <font color=""red"" size=""5vw""> Wrong category! </font> <br> <br> <font color=""red"" size=""8vw""> - $0.05 </font> </p>","null","feedback","","","","","","","1.76"
"","","","","","html-keyboard-response","201","258163","0.0-7.55-0.55","5bfbf8f326e31d000104a6d3","6579d0c5e56c6e1626038f86","6579d16057927ffd4f12e87d","39","
            
        <div style=""text-align: center; position: fixed; top: 5vh; left: 40vw;"">
            <div style=""margin:0 auto; width: 20vw; top: 8vh; font-size: 2vw""> 
            <font color=""green""> Bonus : $1.76 </font>
            </div>
        </div>
    
            <div> Please press any key to continue to the next movie.</div>
        ","arrowright","ITI","","","","","","",""
"","","","","","html-keyboard-response","202","258499","0.0-7.55-1.55","5bfbf8f326e31d000104a6d3","6579d0c5e56c6e1626038f86","6579d16057927ffd4f12e87d","335","./stimuli//pack_morph_shapes_1/cat_1/diff_1/ex_1_1_10.mp4","arrowright","response","ArrowLeft","10","1","1","test","false",""
"","","","","","html-keyboard-response","203","260009","0.0-7.55-2.55","5bfbf8f326e31d000104a6d3","6579d0c5e56c6e1626038f86","6579d16057927ffd4f12e87d","null","<p> <font color=""red"" size=""5vw""> Wrong category! </font> <br> <br> <font color=""red"" size=""8vw""> - $0.05 </font> </p>","null","feedback","","","","","","","1.71"
"","","","","","html-keyboard-response","204","260061","0.0-7.56-0.56","5bfbf8f326e31d000104a6d3","6579d0c5e56c6e1626038f86","6579d16057927ffd4f12e87d","52","
            
        <div style=""text-align: center; position: fixed; top: 5vh; left: 40vw;"">
            <div style=""margin:0 auto; width: 20vw; top: 8vh; font-size: 2vw""> 
            <font color=""green""> Bonus : $1.71 </font>
            </div>
        </div>
    
            <div> Please press any key to continue to the next movie.</div>
        ","arrowright","ITI","","","","","","",""
"","","","","","html-keyboard-response","205","260380","0.0-7.56-1.56","5bfbf8f326e31d000104a6d3","6579d0c5e56c6e1626038f86","6579d16057927ffd4f12e87d","319","./stimuli//pack_morph_shapes_1/cat_1/diff_1/ex_1_1_2.mp4","arrowright","response","ArrowLeft","2","1","1","test","false",""
"","","","","","html-keyboard-response","206","261892","0.0-7.56-2.56","5bfbf8f326e31d000104a6d3","6579d0c5e56c6e1626038f86","6579d16057927ffd4f12e87d","null","<p> <font color=""red"" size=""5vw""> Wrong category! </font> <br> <br> <font color=""red"" size=""8vw""> - $0.05 </font> </p>","null","feedback","","","","","","","1.66"
"","","","","","html-keyboard-response","207","262372","0.0-7.57-0.57","5bfbf8f326e31d000104a6d3","6579d0c5e56c6e1626038f86","6579d16057927ffd4f12e87d","479","
            
        <div style=""text-align: center; position: fixed; top: 5vh; left: 40vw;"">
            <div style=""margin:0 auto; width: 20vw; top: 8vh; font-size: 2vw""> 
            <font color=""green""> Bonus : $1.66 </font>
            </div>
        </div>
    
            <div> Please press any key to continue to the next movie.</div>
        ","arrowright","ITI","","","","","","",""
"","","","","","html-keyboard-response","208","262838","0.0-7.57-1.57","5bfbf8f326e31d000104a6d3","6579d0c5e56c6e1626038f86","6579d16057927ffd4f12e87d","466","./stimuli//pack_morph_shapes_1/cat_2/diff_1/ex_2_1_4.mp4","arrowright","response","ArrowRight","4","2","1","test","true",""
"","","","","","html-keyboard-response","209","264344","0.0-7.57-2.57","5bfbf8f326e31d000104a6d3","6579d0c5e56c6e1626038f86","6579d16057927ffd4f12e87d","null","<p> <font color=""green"" size=""5vw""> Correct category! </font> <br> <br> <font color=""green"" size=""8vw""> + $0.09 </font> </p>","null","feedback","","","","","","","1.75"
"","","","","","html-keyboard-response","210","264929","0.0-7.58-0.58","5bfbf8f326e31d000104a6d3","6579d0c5e56c6e1626038f86","6579d16057927ffd4f12e87d","582","
            
        <div style=""text-align: center; position: fixed; top: 5vh; left: 40vw;"">
            <div style=""margin:0 auto; width: 20vw; top: 8vh; font-size: 2vw""> 
            <font color=""green""> Bonus : $1.75 </font>
            </div>
        </div>
    
            <div> Please press any key to continue to the next movie.</div>
        ","arrowright","ITI","","","","","","",""
"","","","","","html-keyboard-response","211","265513","0.0-7.58-1.58","5bfbf8f326e31d000104a6d3","6579d0c5e56c6e1626038f86","6579d16057927ffd4f12e87d","583","./stimuli//pack_morph_shapes_1/cat_1/diff_1/ex_1_1_1.mp4","arrowright","response","ArrowLeft","1","1","1","test","false",""
"","","","","","html-keyboard-response","212","267017","0.0-7.58-2.58","5bfbf8f326e31d000104a6d3","6579d0c5e56c6e1626038f86","6579d16057927ffd4f12e87d","null","<p> <font color=""red"" size=""5vw""> Wrong category! </font> <br> <br> <font color=""red"" size=""8vw""> - $0.05 </font> </p>","null","feedback","","","","","","","1.7"
"","","","","","html-keyboard-response","213","267285","0.0-7.59-0.59","5bfbf8f326e31d000104a6d3","6579d0c5e56c6e1626038f86","6579d16057927ffd4f12e87d","267","
            
        <div style=""text-align: center; position: fixed; top: 5vh; left: 40vw;"">
            <div style=""margin:0 auto; width: 20vw; top: 8vh; font-size: 2vw""> 
            <font color=""green""> Bonus : $1.7 </font>
            </div>
        </div>
    
            <div> Please press any key to continue to the next movie.</div>
        ","arrowright","ITI","","","","","","",""
"","","","","","html-keyboard-response","214","267765","0.0-7.59-1.59","5bfbf8f326e31d000104a6d3","6579d0c5e56c6e1626038f86","6579d16057927ffd4f12e87d","479","./stimuli//pack_morph_shapes_1/cat_1/diff_1/ex_1_1_14.mp4","arrowright","response","ArrowLeft","14","1","1","test","false",""
"","","","","","html-keyboard-response","215","269269","0.0-7.59-2.59","5bfbf8f326e31d000104a6d3","6579d0c5e56c6e1626038f86","6579d16057927ffd4f12e87d","null","<p> <font color=""red"" size=""5vw""> Wrong category! </font> <br> <br> <font color=""red"" size=""8vw""> - $0.05 </font> </p>","null","feedback","","","","","","","1.65"
"","","","","","html-keyboard-response","216","269565","0.0-7.60-0.60","5bfbf8f326e31d000104a6d3","6579d0c5e56c6e1626038f86","6579d16057927ffd4f12e87d","295","
            
        <div style=""text-align: center; position: fixed; top: 5vh; left: 40vw;"">
            <div style=""margin:0 auto; width: 20vw; top: 8vh; font-size: 2vw""> 
            <font color=""green""> Bonus : $1.65 </font>
            </div>
        </div>
    
            <div> Please press any key to continue to the next movie.</div>
        ","arrowright","ITI","","","","","","",""
"","","","","","html-keyboard-response","217","269977","0.0-7.60-1.60","5bfbf8f326e31d000104a6d3","6579d0c5e56c6e1626038f86","6579d16057927ffd4f12e87d","411","./stimuli//pack_morph_shapes_1/cat_2/diff_1/ex_2_1_8.mp4","arrowright","response","ArrowRight","8","2","1","test","true",""
"","","","","","html-keyboard-response","218","271481","0.0-7.60-2.60","5bfbf8f326e31d000104a6d3","6579d0c5e56c6e1626038f86","6579d16057927ffd4f12e87d","null","<p> <font color=""green"" size=""5vw""> Correct category! </font> <br> <br> <font color=""green"" size=""8vw""> + $0.09 </font> </p>","null","feedback","","","","","","","1.74"
"","","","","","html-keyboard-response","219","271698","0.0-7.61-0.61","5bfbf8f326e31d000104a6d3","6579d0c5e56c6e1626038f86","6579d16057927ffd4f12e87d","217","
            
        <div style=""text-align: center; position: fixed; top: 5vh; left: 40vw;"">
            <div style=""margin:0 auto; width: 20vw; top: 8vh; font-size: 2vw""> 
            <font color=""green""> Bonus : $1.74 </font>
            </div>
        </div>
    
            <div> Please press any key to continue to the next movie.</div>
        ","arrowright","ITI","","","","","","",""
"","","","","","html-keyboard-response","220","272178","0.0-7.61-1.61","5bfbf8f326e31d000104a6d3","6579d0c5e56c6e1626038f86","6579d16057927ffd4f12e87d","479","./stimuli//pack_morph_shapes_1/cat_1/diff_1/ex_1_1_3.mp4","arrowright","response","ArrowLeft","3","1","1","test","false",""
"","","","","","html-keyboard-response","221","273682","0.0-7.61-2.61","5bfbf8f326e31d000104a6d3","6579d0c5e56c6e1626038f86","6579d16057927ffd4f12e87d","null","<p> <font color=""red"" size=""5vw""> Wrong category! </font> <br> <br> <font color=""red"" size=""8vw""> - $0.05 </font> </p>","null","feedback","","","","","","","1.69"
"","","","","","html-keyboard-response","222","274031","0.0-7.62-0.62","5bfbf8f326e31d000104a6d3","6579d0c5e56c6e1626038f86","6579d16057927ffd4f12e87d","348","
            
        <div style=""text-align: center; position: fixed; top: 5vh; left: 40vw;"">
            <div style=""margin:0 auto; width: 20vw; top: 8vh; font-size: 2vw""> 
            <font color=""green""> Bonus : $1.69 </font>
            </div>
        </div>
    
            <div> Please press any key to continue to the next movie.</div>
        ","arrowright","ITI","","","","","","",""
"","","","","","html-keyboard-response","223","274490","0.0-7.62-1.62","5bfbf8f326e31d000104a6d3","6579d0c5e56c6e1626038f86","6579d16057927ffd4f12e87d","457","./stimuli//pack_morph_shapes_1/cat_2/diff_1/ex_2_1_6.mp4","arrowright","response","ArrowRight","6","2","1","test","true",""
"","","","","","html-keyboard-response","224","275999","0.0-7.62-2.62","5bfbf8f326e31d000104a6d3","6579d0c5e56c6e1626038f86","6579d16057927ffd4f12e87d","null","<p> <font color=""green"" size=""5vw""> Correct category! </font> <br> <br> <font color=""green"" size=""8vw""> + $0.09 </font> </p>","null","feedback","","","","","","","1.78"
"","","","","","html-keyboard-response","225","276341","0.0-7.63-0.63","5bfbf8f326e31d000104a6d3","6579d0c5e56c6e1626038f86","6579d16057927ffd4f12e87d","341","
            
        <div style=""text-align: center; position: fixed; top: 5vh; left: 40vw;"">
            <div style=""margin:0 auto; width: 20vw; top: 8vh; font-size: 2vw""> 
            <font color=""green""> Bonus : $1.78 </font>
            </div>
        </div>
    
            <div> Please press any key to continue to the next movie.</div>
        ","arrowleft","ITI","","","","","","",""
"","","","","","html-keyboard-response","226","276750","0.0-7.63-1.63","5bfbf8f326e31d000104a6d3","6579d0c5e56c6e1626038f86","6579d16057927ffd4f12e87d","408","./stimuli//pack_morph_shapes_1/cat_1/diff_1/ex_1_1_7.mp4","arrowleft","response","ArrowLeft","7","1","1","test","true",""
"","","","","","html-keyboard-response","227","278266","0.0-7.63-2.63","5bfbf8f326e31d000104a6d3","6579d0c5e56c6e1626038f86","6579d16057927ffd4f12e87d","null","<p> <font color=""green"" size=""5vw""> Correct category! </font> <br> <br> <font color=""green"" size=""8vw""> + $0.09 </font> </p>","null","feedback","","","","","","","1.87"
"","","","","","html-keyboard-response","228","278543","0.0-7.64-0.64","5bfbf8f326e31d000104a6d3","6579d0c5e56c6e1626038f86","6579d16057927ffd4f12e87d","276","
            
        <div style=""text-align: center; position: fixed; top: 5vh; left: 40vw;"">
            <div style=""margin:0 auto; width: 20vw; top: 8vh; font-size: 2vw""> 
            <font color=""green""> Bonus : $1.87 </font>
            </div>
        </div>
    
            <div> Please press any key to continue to the next movie.</div>
        ","arrowleft","ITI","","","","","","",""
"","","","","","html-keyboard-response","229","278955","0.0-7.64-1.64","5bfbf8f326e31d000104a6d3","6579d0c5e56c6e1626038f86","6579d16057927ffd4f12e87d","411","./stimuli//pack_morph_shapes_1/cat_1/diff_1/ex_1_1_3.mp4","arrowleft","response","ArrowLeft","3","1","1","test","true",""
"","","","","","html-keyboard-response","230","280469","0.0-7.64-2.64","5bfbf8f326e31d000104a6d3","6579d0c5e56c6e1626038f86","6579d16057927ffd4f12e87d","null","<p> <font color=""green"" size=""5vw""> Correct category! </font> <br> <br> <font color=""green"" size=""8vw""> + $0.09 </font> </p>","null","feedback","","","","","","","1.96"
"","","","","","html-keyboard-response","231","280933","0.0-7.65-0.65","5bfbf8f326e31d000104a6d3","6579d0c5e56c6e1626038f86","6579d16057927ffd4f12e87d","464","
            
        <div style=""text-align: center; position: fixed; top: 5vh; left: 40vw;"">
            <div style=""margin:0 auto; width: 20vw; top: 8vh; font-size: 2vw""> 
            <font color=""green""> Bonus : $1.96 </font>
            </div>
        </div>
    
            <div> Please press any key to continue to the next movie.</div>
        ","arrowright","ITI","","","","","","",""
"","","","","","html-keyboard-response","232","281341","0.0-7.65-1.65","5bfbf8f326e31d000104a6d3","6579d0c5e56c6e1626038f86","6579d16057927ffd4f12e87d","406","./stimuli//pack_morph_shapes_1/cat_2/diff_2/ex_2_2_1.mp4","arrowright","response","ArrowRight","1","2","2","test","true",""
"","","","","","html-keyboard-response","233","282844","0.0-7.65-2.65","5bfbf8f326e31d000104a6d3","6579d0c5e56c6e1626038f86","6579d16057927ffd4f12e87d","null","<p> <font color=""green"" size=""5vw""> Correct category! </font> <br> <br> <font color=""green"" size=""8vw""> + $0.09 </font> </p>","null","feedback","","","","","","","2.05"
"","","","","","html-keyboard-response","234","283126","0.0-7.66-0.66","5bfbf8f326e31d000104a6d3","6579d0c5e56c6e1626038f86","6579d16057927ffd4f12e87d","281","
            
        <div style=""text-align: center; position: fixed; top: 5vh; left: 40vw;"">
            <div style=""margin:0 auto; width: 20vw; top: 8vh; font-size: 2vw""> 
            <font color=""green""> Bonus : $2.05 </font>
            </div>
        </div>
    
            <div> Please press any key to continue to the next movie.</div>
        ","arrowright","ITI","","","","","","",""
"","","","","","html-keyboard-response","235","283507","0.0-7.66-1.66","5bfbf8f326e31d000104a6d3","6579d0c5e56c6e1626038f86","6579d16057927ffd4f12e87d","380","./stimuli//pack_morph_shapes_1/cat_2/diff_2/ex_2_2_11.mp4","arrowright","response","ArrowRight","11","2","2","test","true",""
"","","","","","html-keyboard-response","236","285020","0.0-7.66-2.66","5bfbf8f326e31d000104a6d3","6579d0c5e56c6e1626038f86","6579d16057927ffd4f12e87d","null","<p> <font color=""green"" size=""5vw""> Correct category! </font> <br> <br> <font color=""green"" size=""8vw""> + $0.09 </font> </p>","null","feedback","","","","","","","2.14"
"","","","","","html-keyboard-response","237","285310","0.0-7.67-0.67","5bfbf8f326e31d000104a6d3","6579d0c5e56c6e1626038f86","6579d16057927ffd4f12e87d","290","
            
        <div style=""text-align: center; position: fixed; top: 5vh; left: 40vw;"">
            <div style=""margin:0 auto; width: 20vw; top: 8vh; font-size: 2vw""> 
            <font color=""green""> Bonus : $2.14 </font>
            </div>
        </div>
    
            <div> Please press any key to continue to the next movie.</div>
        ","arrowleft","ITI","","","","","","",""
"","","","","","html-keyboard-response","238","285753","0.0-7.67-1.67","5bfbf8f326e31d000104a6d3","6579d0c5e56c6e1626038f86","6579d16057927ffd4f12e87d","441","./stimuli//pack_morph_shapes_1/cat_1/diff_2/ex_1_2_2.mp4","arrowleft","response","ArrowLeft","2","1","2","test","true",""
"","","","","","html-keyboard-response","239","287255","0.0-7.67-2.67","5bfbf8f326e31d000104a6d3","6579d0c5e56c6e1626038f86","6579d16057927ffd4f12e87d","null","<p> <font color=""green"" size=""5vw""> Correct category! </font> <br> <br> <font color=""green"" size=""8vw""> + $0.09 </font> </p>","null","feedback","","","","","","","2.23"
"","","","","","html-keyboard-response","240","287479","0.0-7.68-0.68","5bfbf8f326e31d000104a6d3","6579d0c5e56c6e1626038f86","6579d16057927ffd4f12e87d","223","
            
        <div style=""text-align: center; position: fixed; top: 5vh; left: 40vw;"">
            <div style=""margin:0 auto; width: 20vw; top: 8vh; font-size: 2vw""> 
            <font color=""green""> Bonus : $2.23 </font>
            </div>
        </div>
    
            <div> Please press any key to continue to the next movie.</div>
        ","arrowleft","ITI","","","","","","",""
"","","","","","html-keyboard-response","241","287850","0.0-7.68-1.68","5bfbf8f326e31d000104a6d3","6579d0c5e56c6e1626038f86","6579d16057927ffd4f12e87d","369","./stimuli//pack_morph_shapes_1/cat_1/diff_2/ex_1_2_7.mp4","arrowleft","response","ArrowLeft","7","1","2","test","true",""
"","","","","","html-keyboard-response","242","289356","0.0-7.68-2.68","5bfbf8f326e31d000104a6d3","6579d0c5e56c6e1626038f86","6579d16057927ffd4f12e87d","null","<p> <font color=""green"" size=""5vw""> Correct category! </font> <br> <br> <font color=""green"" size=""8vw""> + $0.09 </font> </p>","null","feedback","","","","","","","2.32"
"","","","","","html-keyboard-response","243","289580","0.0-7.69-0.69","5bfbf8f326e31d000104a6d3","6579d0c5e56c6e1626038f86","6579d16057927ffd4f12e87d","223","
            
        <div style=""text-align: center; position: fixed; top: 5vh; left: 40vw;"">
            <div style=""margin:0 auto; width: 20vw; top: 8vh; font-size: 2vw""> 
            <font color=""green""> Bonus : $2.32 </font>
            </div>
        </div>
    
            <div> Please press any key to continue to the next movie.</div>
        ","arrowright","ITI","","","","","","",""
"","","","","","html-keyboard-response","244","289925","0.0-7.69-1.69","5bfbf8f326e31d000104a6d3","6579d0c5e56c6e1626038f86","6579d16057927ffd4f12e87d","344","./stimuli//pack_morph_shapes_1/cat_2/diff_2/ex_2_2_14.mp4","arrowright","response","ArrowRight","14","2","2","test","true",""
"","","","","","html-keyboard-response","245","291439","0.0-7.69-2.69","5bfbf8f326e31d000104a6d3","6579d0c5e56c6e1626038f86","6579d16057927ffd4f12e87d","null","<p> <font color=""green"" size=""5vw""> Correct category! </font> <br> <br> <font color=""green"" size=""8vw""> + $0.09 </font> </p>","null","feedback","","","","","","","2.41"
"","","","","","html-keyboard-response","246","291714","0.0-7.70-0.70","5bfbf8f326e31d000104a6d3","6579d0c5e56c6e1626038f86","6579d16057927ffd4f12e87d","274","
            
        <div style=""text-align: center; position: fixed; top: 5vh; left: 40vw;"">
            <div style=""margin:0 auto; width: 20vw; top: 8vh; font-size: 2vw""> 
            <font color=""green""> Bonus : $2.41 </font>
            </div>
        </div>
    
            <div> Please press any key to continue to the next movie.</div>
        ","arrowright","ITI","","","","","","",""
"","","","","","html-keyboard-response","247","292115","0.0-7.70-1.70","5bfbf8f326e31d000104a6d3","6579d0c5e56c6e1626038f86","6579d16057927ffd4f12e87d","399","./stimuli//pack_morph_shapes_1/cat_2/diff_3/ex_2_3_6.mp4","arrowright","response","ArrowRight","6","2","3","test","true",""
"","","","","","html-keyboard-response","248","293618","0.0-7.70-2.70","5bfbf8f326e31d000104a6d3","6579d0c5e56c6e1626038f86","6579d16057927ffd4f12e87d","null","<p> <font color=""green"" size=""5vw""> Correct category! </font> <br> <br> <font color=""green"" size=""8vw""> + $0.09 </font> </p>","null","feedback","","","","","","","2.5"
"","","","","","html-keyboard-response","249","293840","0.0-7.71-0.71","5bfbf8f326e31d000104a6d3","6579d0c5e56c6e1626038f86","6579d16057927ffd4f12e87d","220","
            
        <div style=""text-align: center; position: fixed; top: 5vh; left: 40vw;"">
            <div style=""margin:0 auto; width: 20vw; top: 8vh; font-size: 2vw""> 
            <font color=""green""> Bonus : $2.5 </font>
            </div>
        </div>
    
            <div> Please press any key to continue to the next movie.</div>
        ","arrowleft","ITI","","","","","","",""
"","","","","","html-keyboard-response","250","294213","0.0-7.71-1.71","5bfbf8f326e31d000104a6d3","6579d0c5e56c6e1626038f86","6579d16057927ffd4f12e87d","372","./stimuli//pack_morph_shapes_1/cat_1/diff_3/ex_1_3_12.mp4","arrowleft","response","ArrowLeft","12","1","3","test","true",""
"","","","","","html-keyboard-response","251","295717","0.0-7.71-2.71","5bfbf8f326e31d000104a6d3","6579d0c5e56c6e1626038f86","6579d16057927ffd4f12e87d","null","<p> <font color=""green"" size=""5vw""> Correct category! </font> <br> <br> <font color=""green"" size=""8vw""> + $0.09 </font> </p>","null","feedback","","","","","","","2.59"
"","","","","","html-keyboard-response","252","295967","0.0-7.72-0.72","5bfbf8f326e31d000104a6d3","6579d0c5e56c6e1626038f86","6579d16057927ffd4f12e87d","249","
            
        <div style=""text-align: center; position: fixed; top: 5vh; left: 40vw;"">
            <div style=""margin:0 auto; width: 20vw; top: 8vh; font-size: 2vw""> 
            <font color=""green""> Bonus : $2.59 </font>
            </div>
        </div>
    
            <div> Please press any key to continue to the next movie.</div>
        ","arrowleft","ITI","","","","","","",""
"","","","","","html-keyboard-response","253","296304","0.0-7.72-1.72","5bfbf8f326e31d000104a6d3","6579d0c5e56c6e1626038f86","6579d16057927ffd4f12e87d","335","./stimuli//pack_morph_shapes_1/cat_1/diff_3/ex_1_3_13.mp4","arrowleft","response","ArrowLeft","13","1","3","test","true",""
