"success","timeout","failed_images","failed_audio","failed_video","trial_type","trial_index","time_elapsed","internal_node_id","subject_id","study_id","session_id","rt","stimulus","response","task","correct_response","exemplar_ID","category","difficulty","phase","correct","bonus"
"true","false","[]","[]","[]","preload","0","8","0.0-0.0","601e49453648f62b37f1b915","6579d0c5e56c6e1626038f86","6579d123e129ade90b8703bd","","","","","","","","","","",""
"","","","","","html-keyboard-response","1","4870","0.0-1.0","601e49453648f62b37f1b915","6579d0c5e56c6e1626038f86","6579d123e129ade90b8703bd","4858","Welcome to the Category Learning experiment! Press any key to continue.","h","welcome","","","","","","",""
"","","","","","html-keyboard-response","2","29275","0.0-2.0","601e49453648f62b37f1b915","6579d0c5e56c6e1626038f86","6579d123e129ade90b8703bd","24403","
            <p>You will be shown movies. Each movie contains a shape that initially is hidden and is gradually revealed. 
            <br> Some shapes are category A, some are category B.
            <br> You will not know in advance which category each shape belongs to.</p>
            <p> While you watch a movie, you have to guess the category that the shape you see belongs to <b>(left arrow for category A, right arrow for category B)</b></p>
            <p> After you choose, the screen will show you whether you were correct or not.</p>
            <p>Press any key to continue.</p>
            ","h","introduction_1","","","","","","",""
"","","","","","html-keyboard-response","3","49865","0.0-3.0","601e49453648f62b37f1b915","6579d0c5e56c6e1626038f86","6579d123e129ade90b8703bd","20588","
              <p><b>You will receive a bonus payment for each correct answer! The faster you answer the higher the bonus will be!</b></p>
              <p> So you can increase your bonus by guessing as quickly and accurately as possible.</p>
              <p><b>You will lose $0.05 from your bonus payment for each incorrect answer! The bonus can not become less than $0.</b> </p>
              <p>Press any key to continue.</p>
              ","j","introduction_2","","","","","","",""
"","","","","","html-keyboard-response","4","58456","0.0-4.0","601e49453648f62b37f1b915","6579d0c5e56c6e1626038f86","6579d123e129ade90b8703bd","8590","
            <p> <b>The first 10 movies are a practice round that will not count towards your bonus payment.</b></p>
            <p> You will be notified when practice finishes and the test begins. </p>
            <p> Press any key to begin the practice round.</p>
            ","j","introduction_3","","","","","","",""
"","","","","","html-keyboard-response","5","62935","0.0-5.0-0.0","601e49453648f62b37f1b915","6579d0c5e56c6e1626038f86","6579d123e129ade90b8703bd","4476","
            
        <div style=""text-align: center; position: fixed; top: 5vh; left: 40vw;"">
            <div style=""margin:0 auto; width: 20vw; top: 8vh; font-size: 2vw""> 
            <font color=""green""> Bonus : $0 </font>
            </div>
        </div>
    
            <div> Please press any key to continue to the next movie.</div>
        ","h","ITI","","","","","","",""
"","","","","","html-keyboard-response","6","67952","0.0-5.0-1.0","601e49453648f62b37f1b915","6579d0c5e56c6e1626038f86","6579d123e129ade90b8703bd","null","./stimuli//pack_morph_shapes_1/cat_2/diff_2/ex_2_2_9.mp4","null","response","ArrowRight","9","2","2","train","false",""
"","","","","","html-keyboard-response","7","69464","0.0-5.0-2.0","601e49453648f62b37f1b915","6579d0c5e56c6e1626038f86","6579d123e129ade90b8703bd","null","<p> <font color=""red"" size=""5vw""> Time out! </font> <br> Please try to respond as quickly as possible. </p>","null","feedback","","","","","","","0"
"","","","","","html-keyboard-response","8","72806","0.0-5.0-0.1","601e49453648f62b37f1b915","6579d0c5e56c6e1626038f86","6579d123e129ade90b8703bd","3340","
            
        <div style=""text-align: center; position: fixed; top: 5vh; left: 40vw;"">
            <div style=""margin:0 auto; width: 20vw; top: 8vh; font-size: 2vw""> 
            <font color=""green""> Bonus : $0 </font>
            </div>
        </div>
    
            <div> Please press any key to continue to the next movie.</div>
        ","b","ITI","","","","","","",""
"","","","","","html-keyboard-response","9","76926","0.0-5.0-1.1","601e49453648f62b37f1b915","6579d0c5e56c6e1626038f86","6579d123e129ade90b8703bd","4115","./stimuli//pack_morph_shapes_1/cat_1/diff_1/ex_1_1_12.mp4","arrowleft","response","ArrowLeft","12","1","1","train","true",""
"","","","","","html-keyboard-response","10","78429","0.0-5.0-2.1","601e49453648f62b37f1b915","6579d0c5e56c6e1626038f86","6579d123e129ade90b8703bd","null","<p> <font color=""green"" size=""5vw""> Correct category! </font> </p>","null","feedback","","","","","","","0"
"","","","","","html-keyboard-response","11","79318","0.0-5.0-0.2","601e49453648f62b37f1b915","6579d0c5e56c6e1626038f86","6579d123e129ade90b8703bd","886","
            
        <div style=""text-align: center; position: fixed; top: 5vh; left: 40vw;"">
            <div style=""margin:0 auto; width: 20vw; top: 8vh; font-size: 2vw""> 
            <font color=""green""> Bonus : $0 </font>
            </div>
        </div>
    
            <div> Please press any key to continue to the next movie.</div>
        ","arrowright","ITI","","","","","","",""
"","","","","","html-keyboard-response","12","83302","0.0-5.0-1.2","601e49453648f62b37f1b915","6579d0c5e56c6e1626038f86","6579d123e129ade90b8703bd","3979","./stimuli//pack_morph_shapes_1/cat_2/diff_1/ex_2_1_6.mp4","arrowright","response","ArrowRight","6","2","1","train","true",""
"","","","","","html-keyboard-response","13","84806","0.0-5.0-2.2","601e49453648f62b37f1b915","6579d0c5e56c6e1626038f86","6579d123e129ade90b8703bd","null","<p> <font color=""green"" size=""5vw""> Correct category! </font> </p>","null","feedback","","","","","","","0"
"","","","","","html-keyboard-response","14","87302","0.0-5.0-0.3","601e49453648f62b37f1b915","6579d0c5e56c6e1626038f86","6579d123e129ade90b8703bd","2494","
            
        <div style=""text-align: center; position: fixed; top: 5vh; left: 40vw;"">
            <div style=""margin:0 auto; width: 20vw; top: 8vh; font-size: 2vw""> 
            <font color=""green""> Bonus : $0 </font>
            </div>
        </div>
    
            <div> Please press any key to continue to the next movie.</div>
        ","shift","ITI","","","","","","",""
"","","","","","html-keyboard-response","15","91092","0.0-5.0-1.3","601e49453648f62b37f1b915","6579d0c5e56c6e1626038f86","6579d123e129ade90b8703bd","3784","./stimuli//pack_morph_shapes_1/cat_2/diff_2/ex_2_2_12.mp4","arrowright","response","ArrowRight","12","2","2","train","true",""
"","","","","","html-keyboard-response","16","92599","0.0-5.0-2.3","601e49453648f62b37f1b915","6579d0c5e56c6e1626038f86","6579d123e129ade90b8703bd","null","<p> <font color=""green"" size=""5vw""> Correct category! </font> </p>","null","feedback","","","","","","","0"
"","","","","","html-keyboard-response","17","95025","0.0-5.0-0.4","601e49453648f62b37f1b915","6579d0c5e56c6e1626038f86","6579d123e129ade90b8703bd","2424","
            
        <div style=""text-align: center; position: fixed; top: 5vh; left: 40vw;"">
            <div style=""margin:0 auto; width: 20vw; top: 8vh; font-size: 2vw""> 
            <font color=""green""> Bonus : $0 </font>
            </div>
        </div>
    
            <div> Please press any key to continue to the next movie.</div>
        ","f","ITI","","","","","","",""
"","","","","","html-keyboard-response","18","99835","0.0-5.0-1.4","601e49453648f62b37f1b915","6579d0c5e56c6e1626038f86","6579d123e129ade90b8703bd","4805","./stimuli//pack_morph_shapes_1/cat_2/diff_1/ex_2_1_16.mp4","arrowleft","response","ArrowRight","16","2","1","train","false",""
"","","","","","html-keyboard-response","19","101340","0.0-5.0-2.4","601e49453648f62b37f1b915","6579d0c5e56c6e1626038f86","6579d123e129ade90b8703bd","null","<p> <font color=""red"" size=""5vw""> Wrong category! </font> </p>","null","feedback","","","","","","","0"
"","","","","","html-keyboard-response","20","102557","0.0-5.0-0.5","601e49453648f62b37f1b915","6579d0c5e56c6e1626038f86","6579d123e129ade90b8703bd","1216","
            
        <div style=""text-align: center; position: fixed; top: 5vh; left: 40vw;"">
            <div style=""margin:0 auto; width: 20vw; top: 8vh; font-size: 2vw""> 
            <font color=""green""> Bonus : $0 </font>
            </div>
        </div>
    
            <div> Please press any key to continue to the next movie.</div>
        ","c","ITI","","","","","","",""
"","","","","","html-keyboard-response","21","106040","0.0-5.0-1.5","601e49453648f62b37f1b915","6579d0c5e56c6e1626038f86","6579d123e129ade90b8703bd","3477","./stimuli//pack_morph_shapes_1/cat_1/diff_2/ex_1_2_9.mp4","arrowleft","response","ArrowLeft","9","1","2","train","true",""
"","","","","","html-keyboard-response","22","107542","0.0-5.0-2.5","601e49453648f62b37f1b915","6579d0c5e56c6e1626038f86","6579d123e129ade90b8703bd","null","<p> <font color=""green"" size=""5vw""> Correct category! </font> </p>","null","feedback","","","","","","","0"
"","","","","","html-keyboard-response","23","109283","0.0-5.0-0.6","601e49453648f62b37f1b915","6579d0c5e56c6e1626038f86","6579d123e129ade90b8703bd","1739","
            
        <div style=""text-align: center; position: fixed; top: 5vh; left: 40vw;"">
            <div style=""margin:0 auto; width: 20vw; top: 8vh; font-size: 2vw""> 
            <font color=""green""> Bonus : $0 </font>
            </div>
        </div>
    
            <div> Please press any key to continue to the next movie.</div>
        ","c","ITI","","","","","","",""
"","","","","","html-keyboard-response","24","112256","0.0-5.0-1.6","601e49453648f62b37f1b915","6579d0c5e56c6e1626038f86","6579d123e129ade90b8703bd","2969","./stimuli//pack_morph_shapes_1/cat_2/diff_1/ex_2_1_11.mp4","arrowright","response","ArrowRight","11","2","1","train","true",""
"","","","","","html-keyboard-response","25","113761","0.0-5.0-2.6","601e49453648f62b37f1b915","6579d0c5e56c6e1626038f86","6579d123e129ade90b8703bd","null","<p> <font color=""green"" size=""5vw""> Correct category! </font> </p>","null","feedback","","","","","","","0"
"","","","","","html-keyboard-response","26","114728","0.0-5.0-0.7","601e49453648f62b37f1b915","6579d0c5e56c6e1626038f86","6579d123e129ade90b8703bd","966","
            
        <div style=""text-align: center; position: fixed; top: 5vh; left: 40vw;"">
            <div style=""margin:0 auto; width: 20vw; top: 8vh; font-size: 2vw""> 
            <font color=""green""> Bonus : $0 </font>
            </div>
        </div>
    
            <div> Please press any key to continue to the next movie.</div>
        ","c","ITI","","","","","","",""
"","","","","","html-keyboard-response","27","118343","0.0-5.0-1.7","601e49453648f62b37f1b915","6579d0c5e56c6e1626038f86","6579d123e129ade90b8703bd","3609","./stimuli//pack_morph_shapes_1/cat_1/diff_1/ex_1_1_9.mp4","arrowright","response","ArrowLeft","9","1","1","train","false",""
"","","","","","html-keyboard-response","28","119846","0.0-5.0-2.7","601e49453648f62b37f1b915","6579d0c5e56c6e1626038f86","6579d123e129ade90b8703bd","null","<p> <font color=""red"" size=""5vw""> Wrong category! </font> </p>","null","feedback","","","","","","","0"
"","","","","","html-keyboard-response","29","121664","0.0-5.0-0.8","601e49453648f62b37f1b915","6579d0c5e56c6e1626038f86","6579d123e129ade90b8703bd","1816","
            
        <div style=""text-align: center; position: fixed; top: 5vh; left: 40vw;"">
            <div style=""margin:0 auto; width: 20vw; top: 8vh; font-size: 2vw""> 
            <font color=""green""> Bonus : $0 </font>
            </div>
        </div>
    
            <div> Please press any key to continue to the next movie.</div>
        ","c","ITI","","","","","","",""
"","","","","","html-keyboard-response","30","125886","0.0-5.0-1.8","601e49453648f62b37f1b915","6579d0c5e56c6e1626038f86","6579d123e129ade90b8703bd","4217","./stimuli//pack_morph_shapes_1/cat_1/diff_1/ex_1_1_15.mp4","arrowright","response","ArrowLeft","15","1","1","train","false",""
"","","","","","html-keyboard-response","31","127396","0.0-5.0-2.8","601e49453648f62b37f1b915","6579d0c5e56c6e1626038f86","6579d123e129ade90b8703bd","null","<p> <font color=""red"" size=""5vw""> Wrong category! </font> </p>","null","feedback","","","","","","","0"
"","","","","","html-keyboard-response","32","128968","0.0-5.0-0.9","601e49453648f62b37f1b915","6579d0c5e56c6e1626038f86","6579d123e129ade90b8703bd","1570","
            
        <div style=""text-align: center; position: fixed; top: 5vh; left: 40vw;"">
            <div style=""margin:0 auto; width: 20vw; top: 8vh; font-size: 2vw""> 
            <font color=""green""> Bonus : $0 </font>
            </div>
        </div>
    
            <div> Please press any key to continue to the next movie.</div>
        ","c","ITI","","","","","","",""
"","","","","","html-keyboard-response","33","132447","0.0-5.0-1.9","601e49453648f62b37f1b915","6579d0c5e56c6e1626038f86","6579d123e129ade90b8703bd","3475","./stimuli//pack_morph_shapes_1/cat_1/diff_2/ex_1_2_3.mp4","arrowright","response","ArrowLeft","3","1","2","train","false",""
"","","","","","html-keyboard-response","34","133957","0.0-5.0-2.9","601e49453648f62b37f1b915","6579d0c5e56c6e1626038f86","6579d123e129ade90b8703bd","null","<p> <font color=""red"" size=""5vw""> Wrong category! </font> </p>","null","feedback","","","","","","","0"
"","","","","","html-keyboard-response","35","142173","0.0-6.0","601e49453648f62b37f1b915","6579d0c5e56c6e1626038f86","6579d123e129ade90b8703bd","8214","
            <b> <p> The practice round has finished.</p>
            <b> <p> For the rest of the experiment you will receive a bonus payment for each correct answer, which will be higher the faster you answer!</b></p>
            <b> <p> Also you will lose $0.05 from your bonus payment for each incorrect answer!</p>
            <p> Press any key to begin the test. </p>
            ","c","intermission","","","","","","",""
"","","","","","html-keyboard-response","36","144080","0.0-7.0-0.0","601e49453648f62b37f1b915","6579d0c5e56c6e1626038f86","6579d123e129ade90b8703bd","1906","
            
        <div style=""text-align: center; position: fixed; top: 5vh; left: 40vw;"">
            <div style=""margin:0 auto; width: 20vw; top: 8vh; font-size: 2vw""> 
            <font color=""green""> Bonus : $0 </font>
            </div>
        </div>
    
            <div> Please press any key to continue to the next movie.</div>
        ","d","ITI","","","","","","",""
"","","","","","html-keyboard-response","37","149093","0.0-7.0-1.0","601e49453648f62b37f1b915","6579d0c5e56c6e1626038f86","6579d123e129ade90b8703bd","null","./stimuli//pack_morph_shapes_1/cat_1/diff_1/ex_1_1_5.mp4","null","response","ArrowLeft","5","1","1","test","false",""
"","","","","","html-keyboard-response","38","150609","0.0-7.0-2.0","601e49453648f62b37f1b915","6579d0c5e56c6e1626038f86","6579d123e129ade90b8703bd","null","<p> <font color=""red"" size=""5vw""> Time out! </font> <br> <br> Please try to respond as quickly as possible. </p>","null","feedback","","","","","","","0"
"","","","","","html-keyboard-response","39","151773","0.0-7.1-0.1","601e49453648f62b37f1b915","6579d0c5e56c6e1626038f86","6579d123e129ade90b8703bd","1162","
            
        <div style=""text-align: center; position: fixed; top: 5vh; left: 40vw;"">
            <div style=""margin:0 auto; width: 20vw; top: 8vh; font-size: 2vw""> 
            <font color=""green""> Bonus : $0 </font>
            </div>
        </div>
    
            <div> Please press any key to continue to the next movie.</div>
        ","x","ITI","","","","","","",""
"","","","","","html-keyboard-response","40","153640","0.0-7.1-1.1","601e49453648f62b37f1b915","6579d0c5e56c6e1626038f86","6579d123e129ade90b8703bd","1862","./stimuli//pack_morph_shapes_1/cat_1/diff_1/ex_1_1_8.mp4","arrowright","response","ArrowLeft","8","1","1","test","false",""
"","","","","","html-keyboard-response","41","155145","0.0-7.1-2.1","601e49453648f62b37f1b915","6579d0c5e56c6e1626038f86","6579d123e129ade90b8703bd","null","<p> <font color=""red"" size=""5vw""> Wrong category! </font> </p>","null","feedback","","","","","","","0"
"","","","","","html-keyboard-response","42","155997","0.0-7.2-0.2","601e49453648f62b37f1b915","6579d0c5e56c6e1626038f86","6579d123e129ade90b8703bd","850","
            
        <div style=""text-align: center; position: fixed; top: 5vh; left: 40vw;"">
            <div style=""margin:0 auto; width: 20vw; top: 8vh; font-size: 2vw""> 
            <font color=""green""> Bonus : $0 </font>
            </div>
        </div>
    
            <div> Please press any key to continue to the next movie.</div>
        ","x","ITI","","","","","","",""
"","","","","","html-keyboard-response","43","157576","0.0-7.2-1.2","601e49453648f62b37f1b915","6579d0c5e56c6e1626038f86","6579d123e129ade90b8703bd","1573","./stimuli//pack_morph_shapes_1/cat_1/diff_1/ex_1_1_13.mp4","arrowleft","response","ArrowLeft","13","1","1","test","true",""
"","","","","","html-keyboard-response","44","159089","0.0-7.2-2.2","601e49453648f62b37f1b915","6579d0c5e56c6e1626038f86","6579d123e129ade90b8703bd","null","<p> <font color=""green"" size=""5vw""> Correct category! </font> <br> <br> <font color=""green"" size=""8vw""> + $0.07 </font> </p>","null","feedback","","","","","","","0.07"
"","","","","","html-keyboard-response","45","160051","0.0-7.3-0.3","601e49453648f62b37f1b915","6579d0c5e56c6e1626038f86","6579d123e129ade90b8703bd","960","
            
        <div style=""text-align: center; position: fixed; top: 5vh; left: 40vw;"">
            <div style=""margin:0 auto; width: 20vw; top: 8vh; font-size: 2vw""> 
            <font color=""green""> Bonus : $0.07 </font>
            </div>
        </div>
    
            <div> Please press any key to continue to the next movie.</div>
        ","arrowleft","ITI","","","","","","",""
"","","","","","html-keyboard-response","46","161856","0.0-7.3-1.3","601e49453648f62b37f1b915","6579d0c5e56c6e1626038f86","6579d123e129ade90b8703bd","1800","./stimuli//pack_morph_shapes_1/cat_1/diff_1/ex_1_1_16.mp4","arrowleft","response","ArrowLeft","16","1","1","test","true",""
"","","","","","html-keyboard-response","47","163372","0.0-7.3-2.3","601e49453648f62b37f1b915","6579d0c5e56c6e1626038f86","6579d123e129ade90b8703bd","null","<p> <font color=""green"" size=""5vw""> Correct category! </font> <br> <br> <font color=""green"" size=""8vw""> + $0.07 </font> </p>","null","feedback","","","","","","","0.14"
"","","","","","html-keyboard-response","48","165188","0.0-7.4-0.4","601e49453648f62b37f1b915","6579d0c5e56c6e1626038f86","6579d123e129ade90b8703bd","1792","
            
        <div style=""text-align: center; position: fixed; top: 5vh; left: 40vw;"">
            <div style=""margin:0 auto; width: 20vw; top: 8vh; font-size: 2vw""> 
            <font color=""green""> Bonus : $0.14 </font>
            </div>
        </div>
    
            <div> Please press any key to continue to the next movie.</div>
        ","arrowright","ITI","","","","","","",""
"","","","","","html-keyboard-response","49","166471","0.0-7.4-1.4","601e49453648f62b37f1b915","6579d0c5e56c6e1626038f86","6579d123e129ade90b8703bd","1281","./stimuli//pack_morph_shapes_1/cat_1/diff_1/ex_1_1_8.mp4","arrowright","response","ArrowLeft","8","1","1","test","false",""
"","","","","","html-keyboard-response","50","167985","0.0-7.4-2.4","601e49453648f62b37f1b915","6579d0c5e56c6e1626038f86","6579d123e129ade90b8703bd","null","<p> <font color=""red"" size=""5vw""> Wrong category! </font> <br> <br> <font color=""red"" size=""8vw""> - $0.05 </font> </p>","null","feedback","","","","","","","0.09"
"","","","","","html-keyboard-response","51","169368","0.0-7.5-0.5","601e49453648f62b37f1b915","6579d0c5e56c6e1626038f86","6579d123e129ade90b8703bd","1381","
            
        <div style=""text-align: center; position: fixed; top: 5vh; left: 40vw;"">
            <div style=""margin:0 auto; width: 20vw; top: 8vh; font-size: 2vw""> 
            <font color=""green""> Bonus : $0.09 </font>
            </div>
        </div>
    
            <div> Please press any key to continue to the next movie.</div>
        ","x","ITI","","","","","","",""
"","","","","","html-keyboard-response","52","172590","0.0-7.5-1.5","601e49453648f62b37f1b915","6579d0c5e56c6e1626038f86","6579d123e129ade90b8703bd","3218","./stimuli//pack_morph_shapes_1/cat_2/diff_1/ex_2_1_9.mp4","arrowright","response","ArrowRight","9","2","1","test","true",""
"","","","","","html-keyboard-response","53","174100","0.0-7.5-2.5","601e49453648f62b37f1b915","6579d0c5e56c6e1626038f86","6579d123e129ade90b8703bd","null","<p> <font color=""green"" size=""5vw""> Correct category! </font> <br> <br> <font color=""green"" size=""8vw""> + $0.05 </font> </p>","null","feedback","","","","","","","0.14"
"","","","","","html-keyboard-response","54","174979","0.0-7.6-0.6","601e49453648f62b37f1b915","6579d0c5e56c6e1626038f86","6579d123e129ade90b8703bd","878","
            
        <div style=""text-align: center; position: fixed; top: 5vh; left: 40vw;"">
            <div style=""margin:0 auto; width: 20vw; top: 8vh; font-size: 2vw""> 
            <font color=""green""> Bonus : $0.14 </font>
            </div>
        </div>
    
            <div> Please press any key to continue to the next movie.</div>
        ","x","ITI","","","","","","",""
"","","","","","html-keyboard-response","55","175967","0.0-7.6-1.6","601e49453648f62b37f1b915","6579d0c5e56c6e1626038f86","6579d123e129ade90b8703bd","982","./stimuli//pack_morph_shapes_1/cat_1/diff_1/ex_1_1_8.mp4","arrowright","response","ArrowLeft","8","1","1","test","false",""
"","","","","","html-keyboard-response","56","177481","0.0-7.6-2.6","601e49453648f62b37f1b915","6579d0c5e56c6e1626038f86","6579d123e129ade90b8703bd","null","<p> <font color=""red"" size=""5vw""> Wrong category! </font> <br> <br> <font color=""red"" size=""8vw""> - $0.05 </font> </p>","null","feedback","","","","","","","0.09"
"","","","","","html-keyboard-response","57","178226","0.0-7.7-0.7","601e49453648f62b37f1b915","6579d0c5e56c6e1626038f86","6579d123e129ade90b8703bd","744","
            
        <div style=""text-align: center; position: fixed; top: 5vh; left: 40vw;"">
            <div style=""margin:0 auto; width: 20vw; top: 8vh; font-size: 2vw""> 
            <font color=""green""> Bonus : $0.09 </font>
            </div>
        </div>
    
            <div> Please press any key to continue to the next movie.</div>
        ","x","ITI","","","","","","",""
"","","","","","html-keyboard-response","58","178966","0.0-7.7-1.7","601e49453648f62b37f1b915","6579d0c5e56c6e1626038f86","6579d123e129ade90b8703bd","736","./stimuli//pack_morph_shapes_1/cat_1/diff_1/ex_1_1_16.mp4","arrowleft","response","ArrowLeft","16","1","1","test","true",""
"","","","","","html-keyboard-response","59","180472","0.0-7.7-2.7","601e49453648f62b37f1b915","6579d0c5e56c6e1626038f86","6579d123e129ade90b8703bd","null","<p> <font color=""green"" size=""5vw""> Correct category! </font> <br> <br> <font color=""green"" size=""8vw""> + $0.09 </font> </p>","null","feedback","","","","","","","0.18"
"","","","","","html-keyboard-response","60","180872","0.0-7.8-0.8","601e49453648f62b37f1b915","6579d0c5e56c6e1626038f86","6579d123e129ade90b8703bd","398","
            
        <div style=""text-align: center; position: fixed; top: 5vh; left: 40vw;"">
            <div style=""margin:0 auto; width: 20vw; top: 8vh; font-size: 2vw""> 
            <font color=""green""> Bonus : $0.18 </font>
            </div>
        </div>
    
            <div> Please press any key to continue to the next movie.</div>
        ","x","ITI","","","","","","",""
"","","","","","html-keyboard-response","61","182217","0.0-7.8-1.8","601e49453648f62b37f1b915","6579d0c5e56c6e1626038f86","6579d123e129ade90b8703bd","1341","./stimuli//pack_morph_shapes_1/cat_1/diff_1/ex_1_1_3.mp4","arrowleft","response","ArrowLeft","3","1","1","test","true",""
"","","","","","html-keyboard-response","62","183724","0.0-7.8-2.8","601e49453648f62b37f1b915","6579d0c5e56c6e1626038f86","6579d123e129ade90b8703bd","null","<p> <font color=""green"" size=""5vw""> Correct category! </font> <br> <br> <font color=""green"" size=""8vw""> + $0.08 </font> </p>","null","feedback","","","","","","","0.26"
"","","","","","html-keyboard-response","63","184457","0.0-7.9-0.9","601e49453648f62b37f1b915","6579d0c5e56c6e1626038f86","6579d123e129ade90b8703bd","731","
            
        <div style=""text-align: center; position: fixed; top: 5vh; left: 40vw;"">
            <div style=""margin:0 auto; width: 20vw; top: 8vh; font-size: 2vw""> 
            <font color=""green""> Bonus : $0.26 </font>
            </div>
        </div>
    
            <div> Please press any key to continue to the next movie.</div>
        ","x","ITI","","","","","","",""
"","","","","","html-keyboard-response","64","185644","0.0-7.9-1.9","601e49453648f62b37f1b915","6579d0c5e56c6e1626038f86","6579d123e129ade90b8703bd","1185","./stimuli//pack_morph_shapes_1/cat_1/diff_1/ex_1_1_13.mp4","arrowleft","response","ArrowLeft","13","1","1","test","true",""
"","","","","","html-keyboard-response","65","187148","0.0-7.9-2.9","601e49453648f62b37f1b915","6579d0c5e56c6e1626038f86","6579d123e129ade90b8703bd","null","<p> <font color=""green"" size=""5vw""> Correct category! </font> <br> <br> <font color=""green"" size=""8vw""> + $0.08 </font> </p>","null","feedback","","","","","","","0.34"
"","","","","","html-keyboard-response","66","187851","0.0-7.10-0.10","601e49453648f62b37f1b915","6579d0c5e56c6e1626038f86","6579d123e129ade90b8703bd","701","
            
        <div style=""text-align: center; position: fixed; top: 5vh; left: 40vw;"">
            <div style=""margin:0 auto; width: 20vw; top: 8vh; font-size: 2vw""> 
            <font color=""green""> Bonus : $0.34 </font>
            </div>
        </div>
    
            <div> Please press any key to continue to the next movie.</div>
        ","x","ITI","","","","","","",""
"","","","","","html-keyboard-response","67","188653","0.0-7.10-1.10","601e49453648f62b37f1b915","6579d0c5e56c6e1626038f86","6579d123e129ade90b8703bd","798","./stimuli//pack_morph_shapes_1/cat_1/diff_2/ex_1_2_5.mp4","arrowright","response","ArrowLeft","5","1","2","test","false",""
"","","","","","html-keyboard-response","68","190159","0.0-7.10-2.10","601e49453648f62b37f1b915","6579d0c5e56c6e1626038f86","6579d123e129ade90b8703bd","null","<p> <font color=""red"" size=""5vw""> Wrong category! </font> <br> <br> <font color=""red"" size=""8vw""> - $0.05 </font> </p>","null","feedback","","","","","","","0.29"
"","","","","","html-keyboard-response","69","190869","0.0-7.11-0.11","601e49453648f62b37f1b915","6579d0c5e56c6e1626038f86","6579d123e129ade90b8703bd","709","
            
        <div style=""text-align: center; position: fixed; top: 5vh; left: 40vw;"">
            <div style=""margin:0 auto; width: 20vw; top: 8vh; font-size: 2vw""> 
            <font color=""green""> Bonus : $0.29 </font>
            </div>
        </div>
    
            <div> Please press any key to continue to the next movie.</div>
        ","x","ITI","","","","","","",""
"","","","","","html-keyboard-response","70","191620","0.0-7.11-1.11","601e49453648f62b37f1b915","6579d0c5e56c6e1626038f86","6579d123e129ade90b8703bd","745","./stimuli//pack_morph_shapes_1/cat_1/diff_2/ex_1_2_1.mp4","arrowright","response","ArrowLeft","1","1","2","test","false",""
"","","","","","html-keyboard-response","71","193134","0.0-7.11-2.11","601e49453648f62b37f1b915","6579d0c5e56c6e1626038f86","6579d123e129ade90b8703bd","null","<p> <font color=""red"" size=""5vw""> Wrong category! </font> <br> <br> <font color=""red"" size=""8vw""> - $0.05 </font> </p>","null","feedback","","","","","","","0.24"
"","","","","","html-keyboard-response","72","193854","0.0-7.12-0.12","601e49453648f62b37f1b915","6579d0c5e56c6e1626038f86","6579d123e129ade90b8703bd","718","
            
        <div style=""text-align: center; position: fixed; top: 5vh; left: 40vw;"">
            <div style=""margin:0 auto; width: 20vw; top: 8vh; font-size: 2vw""> 
            <font color=""green""> Bonus : $0.24 </font>
            </div>
        </div>
    
            <div> Please press any key to continue to the next movie.</div>
        ","x","ITI","","","","","","",""
"","","","","","html-keyboard-response","73","194665","0.0-7.12-1.12","601e49453648f62b37f1b915","6579d0c5e56c6e1626038f86","6579d123e129ade90b8703bd","806","./stimuli//pack_morph_shapes_1/cat_2/diff_2/ex_2_2_4.mp4","arrowleft","response","ArrowRight","4","2","2","test","false",""
"","","","","","html-keyboard-response","74","196173","0.0-7.12-2.12","601e49453648f62b37f1b915","6579d0c5e56c6e1626038f86","6579d123e129ade90b8703bd","null","<p> <font color=""red"" size=""5vw""> Wrong category! </font> <br> <br> <font color=""red"" size=""8vw""> - $0.05 </font> </p>","null","feedback","","","","","","","0.19"
"","","","","","html-keyboard-response","75","196796","0.0-7.13-0.13","601e49453648f62b37f1b915","6579d0c5e56c6e1626038f86","6579d123e129ade90b8703bd","620","
            
        <div style=""text-align: center; position: fixed; top: 5vh; left: 40vw;"">
            <div style=""margin:0 auto; width: 20vw; top: 8vh; font-size: 2vw""> 
            <font color=""green""> Bonus : $0.19 </font>
            </div>
        </div>
    
            <div> Please press any key to continue to the next movie.</div>
        ","x","ITI","","","","","","",""
"","","","","","html-keyboard-response","76","197276","0.0-7.13-1.13","601e49453648f62b37f1b915","6579d0c5e56c6e1626038f86","6579d123e129ade90b8703bd","476","./stimuli//pack_morph_shapes_1/cat_2/diff_2/ex_2_2_3.mp4","arrowleft","response","ArrowRight","3","2","2","test","false",""
"","","","","","html-keyboard-response","77","198787","0.0-7.13-2.13","601e49453648f62b37f1b915","6579d0c5e56c6e1626038f86","6579d123e129ade90b8703bd","null","<p> <font color=""red"" size=""5vw""> Wrong category! </font> <br> <br> <font color=""red"" size=""8vw""> - $0.05 </font> </p>","null","feedback","","","","","","","0.14"
"","","","","","html-keyboard-response","78","199195","0.0-7.14-0.14","601e49453648f62b37f1b915","6579d0c5e56c6e1626038f86","6579d123e129ade90b8703bd","405","
            
        <div style=""text-align: center; position: fixed; top: 5vh; left: 40vw;"">
            <div style=""margin:0 auto; width: 20vw; top: 8vh; font-size: 2vw""> 
            <font color=""green""> Bonus : $0.14 </font>
            </div>
        </div>
    
            <div> Please press any key to continue to the next movie.</div>
        ","x","ITI","","","","","","",""
"","","","","","html-keyboard-response","79","199818","0.0-7.14-1.14","601e49453648f62b37f1b915","6579d0c5e56c6e1626038f86","6579d123e129ade90b8703bd","619","./stimuli//pack_morph_shapes_1/cat_2/diff_2/ex_2_2_7.mp4","arrowleft","response","ArrowRight","7","2","2","test","false",""
"","","","","","html-keyboard-response","80","201328","0.0-7.14-2.14","601e49453648f62b37f1b915","6579d0c5e56c6e1626038f86","6579d123e129ade90b8703bd","null","<p> <font color=""red"" size=""5vw""> Wrong category! </font> <br> <br> <font color=""red"" size=""8vw""> - $0.05 </font> </p>","null","feedback","","","","","","","0.09"
"","","","","","html-keyboard-response","81","201882","0.0-7.15-0.15","601e49453648f62b37f1b915","6579d0c5e56c6e1626038f86","6579d123e129ade90b8703bd","552","
            
        <div style=""text-align: center; position: fixed; top: 5vh; left: 40vw;"">
            <div style=""margin:0 auto; width: 20vw; top: 8vh; font-size: 2vw""> 
            <font color=""green""> Bonus : $0.09 </font>
            </div>
        </div>
    
            <div> Please press any key to continue to the next movie.</div>
        ","x","ITI","","","","","","",""
"","","","","","html-keyboard-response","82","202364","0.0-7.15-1.15","601e49453648f62b37f1b915","6579d0c5e56c6e1626038f86","6579d123e129ade90b8703bd","477","./stimuli//pack_morph_shapes_1/cat_1/diff_1/ex_1_1_17.mp4","arrowright","response","ArrowLeft","17","1","1","test","false",""
"","","","","","html-keyboard-response","83","203867","0.0-7.15-2.15","601e49453648f62b37f1b915","6579d0c5e56c6e1626038f86","6579d123e129ade90b8703bd","null","<p> <font color=""red"" size=""5vw""> Wrong category! </font> <br> <br> <font color=""red"" size=""8vw""> - $0.05 </font> </p>","null","feedback","","","","","","","0.04"
"","","","","","html-keyboard-response","84","204484","0.0-7.16-0.16","601e49453648f62b37f1b915","6579d0c5e56c6e1626038f86","6579d123e129ade90b8703bd","616","
            
        <div style=""text-align: center; position: fixed; top: 5vh; left: 40vw;"">
            <div style=""margin:0 auto; width: 20vw; top: 8vh; font-size: 2vw""> 
            <font color=""green""> Bonus : $0.04 </font>
            </div>
        </div>
    
            <div> Please press any key to continue to the next movie.</div>
        ","f","ITI","","","","","","",""
"","","","","","html-keyboard-response","85","205066","0.0-7.16-1.16","601e49453648f62b37f1b915","6579d0c5e56c6e1626038f86","6579d123e129ade90b8703bd","579","./stimuli//pack_morph_shapes_1/cat_1/diff_1/ex_1_1_6.mp4","arrowright","response","ArrowLeft","6","1","1","test","false",""
"","","","","","html-keyboard-response","86","206568","0.0-7.16-2.16","601e49453648f62b37f1b915","6579d0c5e56c6e1626038f86","6579d123e129ade90b8703bd","null","<p> <font color=""red"" size=""5vw""> Wrong category! </font> <br> <br> <font color=""red"" size=""8vw""> - $0.05 </font> </p>","null","feedback","","","","","","","-0.01"
"","","","","","html-keyboard-response","87","207312","0.0-7.17-0.17","601e49453648f62b37f1b915","6579d0c5e56c6e1626038f86","6579d123e129ade90b8703bd","743","
            
        <div style=""text-align: center; position: fixed; top: 5vh; left: 40vw;"">
            <div style=""margin:0 auto; width: 20vw; top: 8vh; font-size: 2vw""> 
            <font color=""green""> Bonus : $-0.01 </font>
            </div>
        </div>
    
            <div> Please press any key to continue to the next movie.</div>
        ","h","ITI","","","","","","",""
"","","","","","html-keyboard-response","88","207704","0.0-7.17-1.17","601e49453648f62b37f1b915","6579d0c5e56c6e1626038f86","6579d123e129ade90b8703bd","385","./stimuli//pack_morph_shapes_1/cat_1/diff_1/ex_1_1_3.mp4","arrowleft","response","ArrowLeft","3","1","1","test","true",""
"","","","","","html-keyboard-response","89","209211","0.0-7.17-2.17","601e49453648f62b37f1b915","6579d0c5e56c6e1626038f86","6579d123e129ade90b8703bd","null","<p> <font color=""green"" size=""5vw""> Correct category! </font> <br> <br> <font color=""green"" size=""8vw""> + $0.09 </font> </p>","null","feedback","","","","","","","0.08"
"","","","","","html-keyboard-response","90","210067","0.0-7.18-0.18","601e49453648f62b37f1b915","6579d0c5e56c6e1626038f86","6579d123e129ade90b8703bd","854","
            
        <div style=""text-align: center; position: fixed; top: 5vh; left: 40vw;"">
            <div style=""margin:0 auto; width: 20vw; top: 8vh; font-size: 2vw""> 
            <font color=""green""> Bonus : $0.08 </font>
            </div>
        </div>
    
            <div> Please press any key to continue to the next movie.</div>
        ","h","ITI","","","","","","",""
"","","","","","html-keyboard-response","91","210457","0.0-7.18-1.18","601e49453648f62b37f1b915","6579d0c5e56c6e1626038f86","6579d123e129ade90b8703bd","383","./stimuli//pack_morph_shapes_1/cat_1/diff_1/ex_1_1_1.mp4","arrowleft","response","ArrowLeft","1","1","1","test","true",""
"","","","","","html-keyboard-response","92","211963","0.0-7.18-2.18","601e49453648f62b37f1b915","6579d0c5e56c6e1626038f86","6579d123e129ade90b8703bd","null","<p> <font color=""green"" size=""5vw""> Correct category! </font> <br> <br> <font color=""green"" size=""8vw""> + $0.09 </font> </p>","null","feedback","","","","","","","0.17"
"","","","","","html-keyboard-response","93","213277","0.0-7.19-0.19","601e49453648f62b37f1b915","6579d0c5e56c6e1626038f86","6579d123e129ade90b8703bd","1312","
            
        <div style=""text-align: center; position: fixed; top: 5vh; left: 40vw;"">
            <div style=""margin:0 auto; width: 20vw; top: 8vh; font-size: 2vw""> 
            <font color=""green""> Bonus : $0.17 </font>
            </div>
        </div>
    
            <div> Please press any key to continue to the next movie.</div>
        ","h","ITI","","","","","","",""
"","","","","","html-keyboard-response","94","213708","0.0-7.19-1.19","601e49453648f62b37f1b915","6579d0c5e56c6e1626038f86","6579d123e129ade90b8703bd","425","./stimuli//pack_morph_shapes_1/cat_2/diff_1/ex_2_1_15.mp4","arrowleft","response","ArrowRight","15","2","1","test","false",""
"","","","","","html-keyboard-response","95","215218","0.0-7.19-2.19","601e49453648f62b37f1b915","6579d0c5e56c6e1626038f86","6579d123e129ade90b8703bd","null","<p> <font color=""red"" size=""5vw""> Wrong category! </font> <br> <br> <font color=""red"" size=""8vw""> - $0.05 </font> </p>","null","feedback","","","","","","","0.12"
"","","","","","html-keyboard-response","96","215886","0.0-7.20-0.20","601e49453648f62b37f1b915","6579d0c5e56c6e1626038f86","6579d123e129ade90b8703bd","667","
            
        <div style=""text-align: center; position: fixed; top: 5vh; left: 40vw;"">
            <div style=""margin:0 auto; width: 20vw; top: 8vh; font-size: 2vw""> 
            <font color=""green""> Bonus : $0.12 </font>
            </div>
        </div>
    
            <div> Please press any key to continue to the next movie.</div>
        ","b","ITI","","","","","","",""
"","","","","","html-keyboard-response","97","216461","0.0-7.20-1.20","601e49453648f62b37f1b915","6579d0c5e56c6e1626038f86","6579d123e129ade90b8703bd","570","./stimuli//pack_morph_shapes_1/cat_2/diff_1/ex_2_1_2.mp4","arrowright","response","ArrowRight","2","2","1","test","true",""
"","","","","","html-keyboard-response","98","217970","0.0-7.20-2.20","601e49453648f62b37f1b915","6579d0c5e56c6e1626038f86","6579d123e129ade90b8703bd","null","<p> <font color=""green"" size=""5vw""> Correct category! </font> <br> <br> <font color=""green"" size=""8vw""> + $0.09 </font> </p>","null","feedback","","","","","","","0.21"
"","","","","","html-keyboard-response","99","218357","0.0-7.21-0.21","601e49453648f62b37f1b915","6579d0c5e56c6e1626038f86","6579d123e129ade90b8703bd","386","
            
        <div style=""text-align: center; position: fixed; top: 5vh; left: 40vw;"">
            <div style=""margin:0 auto; width: 20vw; top: 8vh; font-size: 2vw""> 
            <font color=""green""> Bonus : $0.21 </font>
            </div>
        </div>
    
            <div> Please press any key to continue to the next movie.</div>
        ","h","ITI","","","","","","",""
"","","","","","html-keyboard-response","100","218748","0.0-7.21-1.21","601e49453648f62b37f1b915","6579d0c5e56c6e1626038f86","6579d123e129ade90b8703bd","386","./stimuli//pack_morph_shapes_1/cat_2/diff_1/ex_2_1_9.mp4","arrowleft","response","ArrowRight","9","2","1","test","false",""
"","","","","","html-keyboard-response","101","220255","0.0-7.21-2.21","601e49453648f62b37f1b915","6579d0c5e56c6e1626038f86","6579d123e129ade90b8703bd","null","<p> <font color=""red"" size=""5vw""> Wrong category! </font> <br> <br> <font color=""red"" size=""8vw""> - $0.05 </font> </p>","null","feedback","","","","","","","0.16"
"","","","","","html-keyboard-response","102","220720","0.0-7.22-0.22","601e49453648f62b37f1b915","6579d0c5e56c6e1626038f86","6579d123e129ade90b8703bd","462","
            
        <div style=""text-align: center; position: fixed; top: 5vh; left: 40vw;"">
            <div style=""margin:0 auto; width: 20vw; top: 8vh; font-size: 2vw""> 
            <font color=""green""> Bonus : $0.16 </font>
            </div>
        </div>
    
            <div> Please press any key to continue to the next movie.</div>
        ","h","ITI","","","","","","",""
"","","","","","html-keyboard-response","103","221194","0.0-7.22-1.22","601e49453648f62b37f1b915","6579d0c5e56c6e1626038f86","6579d123e129ade90b8703bd","470","./stimuli//pack_morph_shapes_1/cat_1/diff_1/ex_1_1_11.mp4","arrowleft","response","ArrowLeft","11","1","1","test","true",""
"","","","","","html-keyboard-response","104","222699","0.0-7.22-2.22","601e49453648f62b37f1b915","6579d0c5e56c6e1626038f86","6579d123e129ade90b8703bd","null","<p> <font color=""green"" size=""5vw""> Correct category! </font> <br> <br> <font color=""green"" size=""8vw""> + $0.09 </font> </p>","null","feedback","","","","","","","0.25"
"","","","","","html-keyboard-response","105","223170","0.0-7.23-0.23","601e49453648f62b37f1b915","6579d0c5e56c6e1626038f86","6579d123e129ade90b8703bd","470","
            
        <div style=""text-align: center; position: fixed; top: 5vh; left: 40vw;"">
            <div style=""margin:0 auto; width: 20vw; top: 8vh; font-size: 2vw""> 
            <font color=""green""> Bonus : $0.25 </font>
            </div>
        </div>
    
            <div> Please press any key to continue to the next movie.</div>
        ","h","ITI","","","","","","",""
"","","","","","html-keyboard-response","106","223737","0.0-7.23-1.23","601e49453648f62b37f1b915","6579d0c5e56c6e1626038f86","6579d123e129ade90b8703bd","562","./stimuli//pack_morph_shapes_1/cat_2/diff_1/ex_2_1_8.mp4","arrowright","response","ArrowRight","8","2","1","test","true",""
"","","","","","html-keyboard-response","107","225240","0.0-7.23-2.23","601e49453648f62b37f1b915","6579d0c5e56c6e1626038f86","6579d123e129ade90b8703bd","null","<p> <font color=""green"" size=""5vw""> Correct category! </font> <br> <br> <font color=""green"" size=""8vw""> + $0.09 </font> </p>","null","feedback","","","","","","","0.34"
"","","","","","html-keyboard-response","108","225607","0.0-7.24-0.24","601e49453648f62b37f1b915","6579d0c5e56c6e1626038f86","6579d123e129ade90b8703bd","366","
            
        <div style=""text-align: center; position: fixed; top: 5vh; left: 40vw;"">
            <div style=""margin:0 auto; width: 20vw; top: 8vh; font-size: 2vw""> 
            <font color=""green""> Bonus : $0.34 </font>
            </div>
        </div>
    
            <div> Please press any key to continue to the next movie.</div>
        ","h","ITI","","","","","","",""
"","","","","","html-keyboard-response","109","226127","0.0-7.24-1.24","601e49453648f62b37f1b915","6579d0c5e56c6e1626038f86","6579d123e129ade90b8703bd","517","./stimuli//pack_morph_shapes_1/cat_2/diff_1/ex_2_1_17.mp4","arrowright","response","ArrowRight","17","2","1","test","true",""
"","","","","","html-keyboard-response","110","227630","0.0-7.24-2.24","601e49453648f62b37f1b915","6579d0c5e56c6e1626038f86","6579d123e129ade90b8703bd","null","<p> <font color=""green"" size=""5vw""> Correct category! </font> <br> <br> <font color=""green"" size=""8vw""> + $0.09 </font> </p>","null","feedback","","","","","","","0.43"
"","","","","","html-keyboard-response","111","228147","0.0-7.25-0.25","601e49453648f62b37f1b915","6579d0c5e56c6e1626038f86","6579d123e129ade90b8703bd","514","
            
        <div style=""text-align: center; position: fixed; top: 5vh; left: 40vw;"">
            <div style=""margin:0 auto; width: 20vw; top: 8vh; font-size: 2vw""> 
            <font color=""green""> Bonus : $0.43 </font>
            </div>
        </div>
    
            <div> Please press any key to continue to the next movie.</div>
        ","h","ITI","","","","","","",""
"","","","","","html-keyboard-response","112","228582","0.0-7.25-1.25","601e49453648f62b37f1b915","6579d0c5e56c6e1626038f86","6579d123e129ade90b8703bd","431","./stimuli//pack_morph_shapes_1/cat_2/diff_2/ex_2_2_17.mp4","arrowright","response","ArrowRight","17","2","2","test","true",""
"","","","","","html-keyboard-response","113","230093","0.0-7.25-2.25","601e49453648f62b37f1b915","6579d0c5e56c6e1626038f86","6579d123e129ade90b8703bd","null","<p> <font color=""green"" size=""5vw""> Correct category! </font> <br> <br> <font color=""green"" size=""8vw""> + $0.09 </font> </p>","null","feedback","","","","","","","0.52"
"","","","","","html-keyboard-response","114","230537","0.0-7.26-0.26","601e49453648f62b37f1b915","6579d0c5e56c6e1626038f86","6579d123e129ade90b8703bd","443","
            
        <div style=""text-align: center; position: fixed; top: 5vh; left: 40vw;"">
            <div style=""margin:0 auto; width: 20vw; top: 8vh; font-size: 2vw""> 
            <font color=""green""> Bonus : $0.52 </font>
            </div>
        </div>
    
            <div> Please press any key to continue to the next movie.</div>
        ","h","ITI","","","","","","",""
"","","","","","html-keyboard-response","115","230916","0.0-7.26-1.26","601e49453648f62b37f1b915","6579d0c5e56c6e1626038f86","6579d123e129ade90b8703bd","374","./stimuli//pack_morph_shapes_1/cat_1/diff_2/ex_1_2_11.mp4","arrowright","response","ArrowLeft","11","1","2","test","false",""
"","","","","","html-keyboard-response","116","232433","0.0-7.26-2.26","601e49453648f62b37f1b915","6579d0c5e56c6e1626038f86","6579d123e129ade90b8703bd","null","<p> <font color=""red"" size=""5vw""> Wrong category! </font> <br> <br> <font color=""red"" size=""8vw""> - $0.05 </font> </p>","null","feedback","","","","","","","0.47"
"","","","","","html-keyboard-response","117","232784","0.0-7.27-0.27","601e49453648f62b37f1b915","6579d0c5e56c6e1626038f86","6579d123e129ade90b8703bd","349","
            
        <div style=""text-align: center; position: fixed; top: 5vh; left: 40vw;"">
            <div style=""margin:0 auto; width: 20vw; top: 8vh; font-size: 2vw""> 
            <font color=""green""> Bonus : $0.47 </font>
            </div>
        </div>
    
            <div> Please press any key to continue to the next movie.</div>
        ","h","ITI","","","","","","",""
"","","","","","html-keyboard-response","118","233446","0.0-7.27-1.27","601e49453648f62b37f1b915","6579d0c5e56c6e1626038f86","6579d123e129ade90b8703bd","657","./stimuli//pack_morph_shapes_1/cat_2/diff_2/ex_2_2_5.mp4","arrowright","response","ArrowRight","5","2","2","test","true",""
"","","","","","html-keyboard-response","119","234962","0.0-7.27-2.27","601e49453648f62b37f1b915","6579d0c5e56c6e1626038f86","6579d123e129ade90b8703bd","null","<p> <font color=""green"" size=""5vw""> Correct category! </font> <br> <br> <font color=""green"" size=""8vw""> + $0.09 </font> </p>","null","feedback","","","","","","","0.56"
"","","","","","html-keyboard-response","120","235317","0.0-7.28-0.28","601e49453648f62b37f1b915","6579d0c5e56c6e1626038f86","6579d123e129ade90b8703bd","354","
            
        <div style=""text-align: center; position: fixed; top: 5vh; left: 40vw;"">
            <div style=""margin:0 auto; width: 20vw; top: 8vh; font-size: 2vw""> 
            <font color=""green""> Bonus : $0.56 </font>
            </div>
        </div>
    
            <div> Please press any key to continue to the next movie.</div>
        ","h","ITI","","","","","","",""
"","","","","","html-keyboard-response","121","236029","0.0-7.28-1.28","601e49453648f62b37f1b915","6579d0c5e56c6e1626038f86","6579d123e129ade90b8703bd","709","./stimuli//pack_morph_shapes_1/cat_1/diff_2/ex_1_2_11.mp4","arrowleft","response","ArrowLeft","11","1","2","test","true",""
"","","","","","html-keyboard-response","122","237542","0.0-7.28-2.28","601e49453648f62b37f1b915","6579d0c5e56c6e1626038f86","6579d123e129ade90b8703bd","null","<p> <font color=""green"" size=""5vw""> Correct category! </font> <br> <br> <font color=""green"" size=""8vw""> + $0.09 </font> </p>","null","feedback","","","","","","","0.65"
"","","","","","html-keyboard-response","123","237889","0.0-7.29-0.29","601e49453648f62b37f1b915","6579d0c5e56c6e1626038f86","6579d123e129ade90b8703bd","345","
            
        <div style=""text-align: center; position: fixed; top: 5vh; left: 40vw;"">
            <div style=""margin:0 auto; width: 20vw; top: 8vh; font-size: 2vw""> 
            <font color=""green""> Bonus : $0.65 </font>
            </div>
        </div>
    
            <div> Please press any key to continue to the next movie.</div>
        ","h","ITI","","","","","","",""
"","","","","","html-keyboard-response","124","238305","0.0-7.29-1.29","601e49453648f62b37f1b915","6579d0c5e56c6e1626038f86","6579d123e129ade90b8703bd","413","./stimuli//pack_morph_shapes_1/cat_2/diff_2/ex_2_2_5.mp4","arrowright","response","ArrowRight","5","2","2","test","true",""
"","","","","","html-keyboard-response","125","239808","0.0-7.29-2.29","601e49453648f62b37f1b915","6579d0c5e56c6e1626038f86","6579d123e129ade90b8703bd","null","<p> <font color=""green"" size=""5vw""> Correct category! </font> <br> <br> <font color=""green"" size=""8vw""> + $0.09 </font> </p>","null","feedback","","","","","","","0.74"
"","","","","","html-keyboard-response","126","240105","0.0-7.30-0.30","601e49453648f62b37f1b915","6579d0c5e56c6e1626038f86","6579d123e129ade90b8703bd","295","
            
        <div style=""text-align: center; position: fixed; top: 5vh; left: 40vw;"">
            <div style=""margin:0 auto; width: 20vw; top: 8vh; font-size: 2vw""> 
            <font color=""green""> Bonus : $0.74 </font>
            </div>
        </div>
    
            <div> Please press any key to continue to the next movie.</div>
        ","h","ITI","","","","","","",""
"","","","","","html-keyboard-response","127","240564","0.0-7.30-1.30","601e49453648f62b37f1b915","6579d0c5e56c6e1626038f86","6579d123e129ade90b8703bd","455","./stimuli//pack_morph_shapes_1/cat_1/diff_3/ex_1_3_3.mp4","arrowright","response","ArrowLeft","3","1","3","test","false",""
"","","","","","html-keyboard-response","128","242080","0.0-7.30-2.30","601e49453648f62b37f1b915","6579d0c5e56c6e1626038f86","6579d123e129ade90b8703bd","null","<p> <font color=""red"" size=""5vw""> Wrong category! </font> <br> <br> <font color=""red"" size=""8vw""> - $0.05 </font> </p>","null","feedback","","","","","","","0.69"
"","","","","","html-keyboard-response","129","242425","0.0-7.31-0.31","601e49453648f62b37f1b915","6579d0c5e56c6e1626038f86","6579d123e129ade90b8703bd","343","
            
        <div style=""text-align: center; position: fixed; top: 5vh; left: 40vw;"">
            <div style=""margin:0 auto; width: 20vw; top: 8vh; font-size: 2vw""> 
            <font color=""green""> Bonus : $0.69 </font>
            </div>
        </div>
    
            <div> Please press any key to continue to the next movie.</div>
        ","h","ITI","","","","","","",""
"","","","","","html-keyboard-response","130","242810","0.0-7.31-1.31","601e49453648f62b37f1b915","6579d0c5e56c6e1626038f86","6579d123e129ade90b8703bd","381","./stimuli//pack_morph_shapes_1/cat_2/diff_3/ex_2_3_2.mp4","arrowright","response","ArrowRight","2","2","3","test","true",""
"","","","","","html-keyboard-response","131","244314","0.0-7.31-2.31","601e49453648f62b37f1b915","6579d0c5e56c6e1626038f86","6579d123e129ade90b8703bd","null","<p> <font color=""green"" size=""5vw""> Correct category! </font> <br> <br> <font color=""green"" size=""8vw""> + $0.09 </font> </p>","null","feedback","","","","","","","0.78"
"","","","","","html-keyboard-response","132","244740","0.0-7.32-0.32","601e49453648f62b37f1b915","6579d0c5e56c6e1626038f86","6579d123e129ade90b8703bd","423","
            
        <div style=""text-align: center; position: fixed; top: 5vh; left: 40vw;"">
            <div style=""margin:0 auto; width: 20vw; top: 8vh; font-size: 2vw""> 
            <font color=""green""> Bonus : $0.78 </font>
            </div>
        </div>
    
            <div> Please press any key to continue to the next movie.</div>
        ","h","ITI","","","","","","",""
"","","","","","html-keyboard-response","133","245487","0.0-7.32-1.32","601e49453648f62b37f1b915","6579d0c5e56c6e1626038f86","6579d123e129ade90b8703bd","742","./stimuli//pack_morph_shapes_1/cat_1/diff_3/ex_1_3_5.mp4","arrowleft","response","ArrowLeft","5","1","3","test","true",""
"","","","","","html-keyboard-response","134","246990","0.0-7.32-2.32","601e49453648f62b37f1b915","6579d0c5e56c6e1626038f86","6579d123e129ade90b8703bd","null","<p> <font color=""green"" size=""5vw""> Correct category! </font> <br> <br> <font color=""green"" size=""8vw""> + $0.09 </font> </p>","null","feedback","","","","","","","0.87"
"","","","","","html-keyboard-response","135","247467","0.0-7.33-0.33","601e49453648f62b37f1b915","6579d0c5e56c6e1626038f86","6579d123e129ade90b8703bd","475","
            
        <div style=""text-align: center; position: fixed; top: 5vh; left: 40vw;"">
            <div style=""margin:0 auto; width: 20vw; top: 8vh; font-size: 2vw""> 
            <font color=""green""> Bonus : $0.87 </font>
            </div>
        </div>
    
            <div> Please press any key to continue to the next movie.</div>
        ","h","ITI","","","","","","",""
"","","","","","html-keyboard-response","136","247837","0.0-7.33-1.33","601e49453648f62b37f1b915","6579d0c5e56c6e1626038f86","6579d123e129ade90b8703bd","366","./stimuli//pack_morph_shapes_1/cat_1/diff_3/ex_1_3_6.mp4","arrowleft","response","ArrowLeft","6","1","3","test","true",""
"","","","","","html-keyboard-response","137","249340","0.0-7.33-2.33","601e49453648f62b37f1b915","6579d0c5e56c6e1626038f86","6579d123e129ade90b8703bd","null","<p> <font color=""green"" size=""5vw""> Correct category! </font> <br> <br> <font color=""green"" size=""8vw""> + $0.09 </font> </p>","null","feedback","","","","","","","0.96"
"","","","","","html-keyboard-response","138","249933","0.0-7.34-0.34","601e49453648f62b37f1b915","6579d0c5e56c6e1626038f86","6579d123e129ade90b8703bd","590","
            
        <div style=""text-align: center; position: fixed; top: 5vh; left: 40vw;"">
            <div style=""margin:0 auto; width: 20vw; top: 8vh; font-size: 2vw""> 
            <font color=""green""> Bonus : $0.96 </font>
            </div>
        </div>
    
            <div> Please press any key to continue to the next movie.</div>
        ","h","ITI","","","","","","",""
"","","","","","html-keyboard-response","139","250623","0.0-7.34-1.34","601e49453648f62b37f1b915","6579d0c5e56c6e1626038f86","6579d123e129ade90b8703bd","684","./stimuli//pack_morph_shapes_1/cat_2/diff_3/ex_2_3_2.mp4","arrowright","response","ArrowRight","2","2","3","test","true",""
"","","","","","html-keyboard-response","140","252130","0.0-7.34-2.34","601e49453648f62b37f1b915","6579d0c5e56c6e1626038f86","6579d123e129ade90b8703bd","null","<p> <font color=""green"" size=""5vw""> Correct category! </font> <br> <br> <font color=""green"" size=""8vw""> + $0.09 </font> </p>","null","feedback","","","","","","","1.05"
"","","","","","html-keyboard-response","141","252585","0.0-7.35-0.35","601e49453648f62b37f1b915","6579d0c5e56c6e1626038f86","6579d123e129ade90b8703bd","452","
            
        <div style=""text-align: center; position: fixed; top: 5vh; left: 40vw;"">
            <div style=""margin:0 auto; width: 20vw; top: 8vh; font-size: 2vw""> 
            <font color=""green""> Bonus : $1.05 </font>
            </div>
        </div>
    
            <div> Please press any key to continue to the next movie.</div>
        ","h","ITI","","","","","","",""
"","","","","","html-keyboard-response","142","253312","0.0-7.35-1.35","601e49453648f62b37f1b915","6579d0c5e56c6e1626038f86","6579d123e129ade90b8703bd","723","./stimuli//pack_morph_shapes_1/cat_1/diff_4/ex_1_4_16.mp4","arrowright","response","ArrowLeft","16","1","4","test","false",""
"","","","","","html-keyboard-response","143","254817","0.0-7.35-2.35","601e49453648f62b37f1b915","6579d0c5e56c6e1626038f86","6579d123e129ade90b8703bd","null","<p> <font color=""red"" size=""5vw""> Wrong category! </font> <br> <br> <font color=""red"" size=""8vw""> - $0.05 </font> </p>","null","feedback","","","","","","","1"
"","","","","","html-keyboard-response","144","255179","0.0-7.36-0.36","601e49453648f62b37f1b915","6579d0c5e56c6e1626038f86","6579d123e129ade90b8703bd","361","
            
        <div style=""text-align: center; position: fixed; top: 5vh; left: 40vw;"">
            <div style=""margin:0 auto; width: 20vw; top: 8vh; font-size: 2vw""> 
            <font color=""green""> Bonus : $1 </font>
            </div>
        </div>
    
            <div> Please press any key to continue to the next movie.</div>
        ","h","ITI","","","","","","",""
"","","","","","html-keyboard-response","145","255529","0.0-7.36-1.36","601e49453648f62b37f1b915","6579d0c5e56c6e1626038f86","6579d123e129ade90b8703bd","347","./stimuli//pack_morph_shapes_1/cat_1/diff_4/ex_1_4_7.mp4","arrowright","response","ArrowLeft","7","1","4","test","false",""
"","","","","","html-keyboard-response","146","257041","0.0-7.36-2.36","601e49453648f62b37f1b915","6579d0c5e56c6e1626038f86","6579d123e129ade90b8703bd","null","<p> <font color=""red"" size=""5vw""> Wrong category! </font> <br> <br> <font color=""red"" size=""8vw""> - $0.05 </font> </p>","null","feedback","","","","","","","0.95"
"","","","","","html-keyboard-response","147","257288","0.0-7.37-0.37","601e49453648f62b37f1b915","6579d0c5e56c6e1626038f86","6579d123e129ade90b8703bd","246","
            
        <div style=""text-align: center; position: fixed; top: 5vh; left: 40vw;"">
            <div style=""margin:0 auto; width: 20vw; top: 8vh; font-size: 2vw""> 
            <font color=""green""> Bonus : $0.95 </font>
            </div>
        </div>
    
            <div> Please press any key to continue to the next movie.</div>
        ","h","ITI","","","","","","",""
"","","","","","html-keyboard-response","148","257791","0.0-7.37-1.37","601e49453648f62b37f1b915","6579d0c5e56c6e1626038f86","6579d123e129ade90b8703bd","498","./stimuli//pack_morph_shapes_1/cat_1/diff_4/ex_1_4_5.mp4","arrowleft","response","ArrowLeft","5","1","4","test","true",""
"","","","","","html-keyboard-response","149","259300","0.0-7.37-2.37","601e49453648f62b37f1b915","6579d0c5e56c6e1626038f86","6579d123e129ade90b8703bd","null","<p> <font color=""green"" size=""5vw""> Correct category! </font> <br> <br> <font color=""green"" size=""8vw""> + $0.09 </font> </p>","null","feedback","","","","","","","1.04"
"","","","","","html-keyboard-response","150","259701","0.0-7.38-0.38","601e49453648f62b37f1b915","6579d0c5e56c6e1626038f86","6579d123e129ade90b8703bd","399","
            
        <div style=""text-align: center; position: fixed; top: 5vh; left: 40vw;"">
            <div style=""margin:0 auto; width: 20vw; top: 8vh; font-size: 2vw""> 
            <font color=""green""> Bonus : $1.04 </font>
            </div>
        </div>
    
            <div> Please press any key to continue to the next movie.</div>
        ","h","ITI","","","","","","",""
"","","","","","html-keyboard-response","151","260420","0.0-7.38-1.38","601e49453648f62b37f1b915","6579d0c5e56c6e1626038f86","6579d123e129ade90b8703bd","715","./stimuli//pack_morph_shapes_1/cat_2/diff_4/ex_2_4_6.mp4","arrowleft","response","ArrowRight","6","2","4","test","false",""
"","","","","","html-keyboard-response","152","261922","0.0-7.38-2.38","601e49453648f62b37f1b915","6579d0c5e56c6e1626038f86","6579d123e129ade90b8703bd","null","<p> <font color=""red"" size=""5vw""> Wrong category! </font> <br> <br> <font color=""red"" size=""8vw""> - $0.05 </font> </p>","null","feedback","","","","","","","0.99"
"","","","","","html-keyboard-response","153","262329","0.0-7.39-0.39","601e49453648f62b37f1b915","6579d0c5e56c6e1626038f86","6579d123e129ade90b8703bd","406","
            
        <div style=""text-align: center; position: fixed; top: 5vh; left: 40vw;"">
            <div style=""margin:0 auto; width: 20vw; top: 8vh; font-size: 2vw""> 
            <font color=""green""> Bonus : $0.99 </font>
            </div>
        </div>
    
            <div> Please press any key to continue to the next movie.</div>
        ","h","ITI","","","","","","",""
"","","","","","html-keyboard-response","154","262656","0.0-7.39-1.39","601e49453648f62b37f1b915","6579d0c5e56c6e1626038f86","6579d123e129ade90b8703bd","325","./stimuli//pack_morph_shapes_1/cat_1/diff_4/ex_1_4_1.mp4","arrowright","response","ArrowLeft","1","1","4","test","false",""
"","","","","","html-keyboard-response","155","264160","0.0-7.39-2.39","601e49453648f62b37f1b915","6579d0c5e56c6e1626038f86","6579d123e129ade90b8703bd","null","<p> <font color=""red"" size=""5vw""> Wrong category! </font> <br> <br> <font color=""red"" size=""8vw""> - $0.05 </font> </p>","null","feedback","","","","","","","0.94"
"","","","","","html-keyboard-response","156","264421","0.0-7.40-0.40","601e49453648f62b37f1b915","6579d0c5e56c6e1626038f86","6579d123e129ade90b8703bd","258","
            
        <div style=""text-align: center; position: fixed; top: 5vh; left: 40vw;"">
            <div style=""margin:0 auto; width: 20vw; top: 8vh; font-size: 2vw""> 
            <font color=""green""> Bonus : $0.94 </font>
            </div>
        </div>
    
            <div> Please press any key to continue to the next movie.</div>
        ","h","ITI","","","","","","",""
"","","","","","html-keyboard-response","157","265001","0.0-7.40-1.40","601e49453648f62b37f1b915","6579d0c5e56c6e1626038f86","6579d123e129ade90b8703bd","575","./stimuli//pack_morph_shapes_1/cat_1/diff_3/ex_1_3_8.mp4","arrowright","response","ArrowLeft","8","1","3","test","false",""
"","","","","","html-keyboard-response","158","266502","0.0-7.40-2.40","601e49453648f62b37f1b915","6579d0c5e56c6e1626038f86","6579d123e129ade90b8703bd","null","<p> <font color=""red"" size=""5vw""> Wrong category! </font> <br> <br> <font color=""red"" size=""8vw""> - $0.05 </font> </p>","null","feedback","","","","","","","0.89"
"","","","","","html-keyboard-response","159","266566","0.0-7.41-0.41","601e49453648f62b37f1b915","6579d0c5e56c6e1626038f86","6579d123e129ade90b8703bd","63","
            
        <div style=""text-align: center; position: fixed; top: 5vh; left: 40vw;"">
            <div style=""margin:0 auto; width: 20vw; top: 8vh; font-size: 2vw""> 
            <font color=""green""> Bonus : $0.89 </font>
            </div>
        </div>
    
            <div> Please press any key to continue to the next movie.</div>
        ","h","ITI","","","","","","",""
"","","","","","html-keyboard-response","160","267159","0.0-7.41-1.41","601e49453648f62b37f1b915","6579d0c5e56c6e1626038f86","6579d123e129ade90b8703bd","591","./stimuli//pack_morph_shapes_1/cat_1/diff_3/ex_1_3_11.mp4","arrowleft","response","ArrowLeft","11","1","3","test","true",""
"","","","","","html-keyboard-response","161","268674","0.0-7.41-2.41","601e49453648f62b37f1b915","6579d0c5e56c6e1626038f86","6579d123e129ade90b8703bd","null","<p> <font color=""green"" size=""5vw""> Correct category! </font> <br> <br> <font color=""green"" size=""8vw""> + $0.09 </font> </p>","null","feedback","","","","","","","0.98"
"","","","","","html-keyboard-response","162","269425","0.0-7.42-0.42","601e49453648f62b37f1b915","6579d0c5e56c6e1626038f86","6579d123e129ade90b8703bd","749","
            
        <div style=""text-align: center; position: fixed; top: 5vh; left: 40vw;"">
            <div style=""margin:0 auto; width: 20vw; top: 8vh; font-size: 2vw""> 
            <font color=""green""> Bonus : $0.98 </font>
            </div>
        </div>
    
            <div> Please press any key to continue to the next movie.</div>
        ","h","ITI","","","","","","",""
"","","","","","html-keyboard-response","163","269795","0.0-7.42-1.42","601e49453648f62b37f1b915","6579d0c5e56c6e1626038f86","6579d123e129ade90b8703bd","365","./stimuli//pack_morph_shapes_1/cat_2/diff_3/ex_2_3_1.mp4","arrowleft","response","ArrowRight","1","2","3","test","false",""
"","","","","","html-keyboard-response","164","271297","0.0-7.42-2.42","601e49453648f62b37f1b915","6579d0c5e56c6e1626038f86","6579d123e129ade90b8703bd","null","<p> <font color=""red"" size=""5vw""> Wrong category! </font> <br> <br> <font color=""red"" size=""8vw""> - $0.05 </font> </p>","null","feedback","","","","","","","0.93"
"","","","","","html-keyboard-response","165","271998","0.0-7.43-0.43","601e49453648f62b37f1b915","6579d0c5e56c6e1626038f86","6579d123e129ade90b8703bd","699","
            
        <div style=""text-align: center; position: fixed; top: 5vh; left: 40vw;"">
            <div style=""margin:0 auto; width: 20vw; top: 8vh; font-size: 2vw""> 
            <font color=""green""> Bonus : $0.93 </font>
            </div>
        </div>
    
            <div> Please press any key to continue to the next movie.</div>
        ","h","ITI","","","","","","",""
"","","","","","html-keyboard-response","166","272304","0.0-7.43-1.43","601e49453648f62b37f1b915","6579d0c5e56c6e1626038f86","6579d123e129ade90b8703bd","300","./stimuli//pack_morph_shapes_1/cat_1/diff_3/ex_1_3_8.mp4","arrowleft","response","ArrowLeft","8","1","3","test","true",""
"","","","","","html-keyboard-response","167","273805","0.0-7.43-2.43","601e49453648f62b37f1b915","6579d0c5e56c6e1626038f86","6579d123e129ade90b8703bd","null","<p> <font color=""green"" size=""5vw""> Correct category! </font> <br> <br> <font color=""green"" size=""8vw""> + $0.09 </font> </p>","null","feedback","","","","","","","1.02"
"","","","","","html-keyboard-response","168","274410","0.0-7.44-0.44","601e49453648f62b37f1b915","6579d0c5e56c6e1626038f86","6579d123e129ade90b8703bd","603","
            
        <div style=""text-align: center; position: fixed; top: 5vh; left: 40vw;"">
            <div style=""margin:0 auto; width: 20vw; top: 8vh; font-size: 2vw""> 
            <font color=""green""> Bonus : $1.02 </font>
            </div>
        </div>
    
            <div> Please press any key to continue to the next movie.</div>
        ","h","ITI","","","","","","",""
"","","","","","html-keyboard-response","169","274950","0.0-7.44-1.44","601e49453648f62b37f1b915","6579d0c5e56c6e1626038f86","6579d123e129ade90b8703bd","535","./stimuli//pack_morph_shapes_1/cat_1/diff_3/ex_1_3_6.mp4","arrowleft","response","ArrowLeft","6","1","3","test","true",""
"","","","","","html-keyboard-response","170","276464","0.0-7.44-2.44","601e49453648f62b37f1b915","6579d0c5e56c6e1626038f86","6579d123e129ade90b8703bd","null","<p> <font color=""green"" size=""5vw""> Correct category! </font> <br> <br> <font color=""green"" size=""8vw""> + $0.09 </font> </p>","null","feedback","","","","","","","1.11"
"","","","","","html-keyboard-response","171","277338","0.0-7.45-0.45","601e49453648f62b37f1b915","6579d0c5e56c6e1626038f86","6579d123e129ade90b8703bd","872","
            
        <div style=""text-align: center; position: fixed; top: 5vh; left: 40vw;"">
            <div style=""margin:0 auto; width: 20vw; top: 8vh; font-size: 2vw""> 
            <font color=""green""> Bonus : $1.11 </font>
            </div>
        </div>
    
            <div> Please press any key to continue to the next movie.</div>
        ","h","ITI","","","","","","",""
"","","","","","html-keyboard-response","172","277716","0.0-7.45-1.45","601e49453648f62b37f1b915","6579d0c5e56c6e1626038f86","6579d123e129ade90b8703bd","373","./stimuli//pack_morph_shapes_1/cat_1/diff_2/ex_1_2_8.mp4","arrowleft","response","ArrowLeft","8","1","2","test","true",""
"","","","","","html-keyboard-response","173","279220","0.0-7.45-2.45","601e49453648f62b37f1b915","6579d0c5e56c6e1626038f86","6579d123e129ade90b8703bd","null","<p> <font color=""green"" size=""5vw""> Correct category! </font> <br> <br> <font color=""green"" size=""8vw""> + $0.09 </font> </p>","null","feedback","","","","","","","1.2"
"","","","","","html-keyboard-response","174","280645","0.0-7.46-0.46","601e49453648f62b37f1b915","6579d0c5e56c6e1626038f86","6579d123e129ade90b8703bd","1424","
            
        <div style=""text-align: center; position: fixed; top: 5vh; left: 40vw;"">
            <div style=""margin:0 auto; width: 20vw; top: 8vh; font-size: 2vw""> 
            <font color=""green""> Bonus : $1.2 </font>
            </div>
        </div>
    
            <div> Please press any key to continue to the next movie.</div>
        ","h","ITI","","","","","","",""
"","","","","","html-keyboard-response","175","280973","0.0-7.46-1.46","601e49453648f62b37f1b915","6579d0c5e56c6e1626038f86","6579d123e129ade90b8703bd","324","./stimuli//pack_morph_shapes_1/cat_1/diff_2/ex_1_2_8.mp4","arrowleft","response","ArrowLeft","8","1","2","test","true",""
"","","","","","html-keyboard-response","176","282476","0.0-7.46-2.46","601e49453648f62b37f1b915","6579d0c5e56c6e1626038f86","6579d123e129ade90b8703bd","null","<p> <font color=""green"" size=""5vw""> Correct category! </font> <br> <br> <font color=""green"" size=""8vw""> + $0.09 </font> </p>","null","feedback","","","","","","","1.29"
"","","","","","html-keyboard-response","177","283123","0.0-7.47-0.47","601e49453648f62b37f1b915","6579d0c5e56c6e1626038f86","6579d123e129ade90b8703bd","646","
            
        <div style=""text-align: center; position: fixed; top: 5vh; left: 40vw;"">
            <div style=""margin:0 auto; width: 20vw; top: 8vh; font-size: 2vw""> 
            <font color=""green""> Bonus : $1.29 </font>
            </div>
        </div>
    
            <div> Please press any key to continue to the next movie.</div>
        ","h","ITI","","","","","","",""
"","","","","","html-keyboard-response","178","283527","0.0-7.47-1.47","601e49453648f62b37f1b915","6579d0c5e56c6e1626038f86","6579d123e129ade90b8703bd","400","./stimuli//pack_morph_shapes_1/cat_1/diff_2/ex_1_2_1.mp4","arrowleft","response","ArrowLeft","1","1","2","test","true",""
"","","","","","html-keyboard-response","179","285031","0.0-7.47-2.47","601e49453648f62b37f1b915","6579d0c5e56c6e1626038f86","6579d123e129ade90b8703bd","null","<p> <font color=""green"" size=""5vw""> Correct category! </font> <br> <br> <font color=""green"" size=""8vw""> + $0.09 </font> </p>","null","feedback","","","","","","","1.38"
"","","","","","html-keyboard-response","180","285538","0.0-7.48-0.48","601e49453648f62b37f1b915","6579d0c5e56c6e1626038f86","6579d123e129ade90b8703bd","506","
            
        <div style=""text-align: center; position: fixed; top: 5vh; left: 40vw;"">
            <div style=""margin:0 auto; width: 20vw; top: 8vh; font-size: 2vw""> 
            <font color=""green""> Bonus : $1.38 </font>
            </div>
        </div>
    
            <div> Please press any key to continue to the next movie.</div>
        ","h","ITI","","","","","","",""
"","","","","","html-keyboard-response","181","286152","0.0-7.48-1.48","601e49453648f62b37f1b915","6579d0c5e56c6e1626038f86","6579d123e129ade90b8703bd","607","./stimuli//pack_morph_shapes_1/cat_2/diff_2/ex_2_2_15.mp4","arrowleft","response","ArrowRight","15","2","2","test","false",""
"","","","","","html-keyboard-response","182","287653","0.0-7.48-2.48","601e49453648f62b37f1b915","6579d0c5e56c6e1626038f86","6579d123e129ade90b8703bd","null","<p> <font color=""red"" size=""5vw""> Wrong category! </font> <br> <br> <font color=""red"" size=""8vw""> - $0.05 </font> </p>","null","feedback","","","","","","","1.33"
"","","","","","html-keyboard-response","183","288595","0.0-7.49-0.49","601e49453648f62b37f1b915","6579d0c5e56c6e1626038f86","6579d123e129ade90b8703bd","941","
            
        <div style=""text-align: center; position: fixed; top: 5vh; left: 40vw;"">
            <div style=""margin:0 auto; width: 20vw; top: 8vh; font-size: 2vw""> 
            <font color=""green""> Bonus : $1.33 </font>
            </div>
        </div>
    
            <div> Please press any key to continue to the next movie.</div>
        ","h","ITI","","","","","","",""
"","","","","","html-keyboard-response","184","289025","0.0-7.49-1.49","601e49453648f62b37f1b915","6579d0c5e56c6e1626038f86","6579d123e129ade90b8703bd","428","./stimuli//pack_morph_shapes_1/cat_1/diff_2/ex_1_2_15.mp4","arrowright","response","ArrowLeft","15","1","2","test","false",""
"","","","","","html-keyboard-response","185","290530","0.0-7.49-2.49","601e49453648f62b37f1b915","6579d0c5e56c6e1626038f86","6579d123e129ade90b8703bd","null","<p> <font color=""red"" size=""5vw""> Wrong category! </font> <br> <br> <font color=""red"" size=""8vw""> - $0.05 </font> </p>","null","feedback","","","","","","","1.28"
"","","","","","html-keyboard-response","186","290852","0.0-7.50-0.50","601e49453648f62b37f1b915","6579d0c5e56c6e1626038f86","6579d123e129ade90b8703bd","320","
            
        <div style=""text-align: center; position: fixed; top: 5vh; left: 40vw;"">
            <div style=""margin:0 auto; width: 20vw; top: 8vh; font-size: 2vw""> 
            <font color=""green""> Bonus : $1.28 </font>
            </div>
        </div>
    
            <div> Please press any key to continue to the next movie.</div>
        ","h","ITI","","","","","","",""
"","","","","","html-keyboard-response","187","291298","0.0-7.50-1.50","601e49453648f62b37f1b915","6579d0c5e56c6e1626038f86","6579d123e129ade90b8703bd","441","./stimuli//pack_morph_shapes_1/cat_1/diff_1/ex_1_1_7.mp4","arrowright","response","ArrowLeft","7","1","1","test","false",""
"","","","","","html-keyboard-response","188","292809","0.0-7.50-2.50","601e49453648f62b37f1b915","6579d0c5e56c6e1626038f86","6579d123e129ade90b8703bd","null","<p> <font color=""red"" size=""5vw""> Wrong category! </font> <br> <br> <font color=""red"" size=""8vw""> - $0.05 </font> </p>","null","feedback","","","","","","","1.23"
"","","","","","html-keyboard-response","189","293197","0.0-7.51-0.51","601e49453648f62b37f1b915","6579d0c5e56c6e1626038f86","6579d123e129ade90b8703bd","387","
            
        <div style=""text-align: center; position: fixed; top: 5vh; left: 40vw;"">
            <div style=""margin:0 auto; width: 20vw; top: 8vh; font-size: 2vw""> 
            <font color=""green""> Bonus : $1.23 </font>
            </div>
        </div>
    
            <div> Please press any key to continue to the next movie.</div>
        ","h","ITI","","","","","","",""
"","","","","","html-keyboard-response","190","293990","0.0-7.51-1.51","601e49453648f62b37f1b915","6579d0c5e56c6e1626038f86","6579d123e129ade90b8703bd","791","./stimuli//pack_morph_shapes_1/cat_2/diff_1/ex_2_1_8.mp4","arrowleft","response","ArrowRight","8","2","1","test","false",""
"","","","","","html-keyboard-response","191","295491","0.0-7.51-2.51","601e49453648f62b37f1b915","6579d0c5e56c6e1626038f86","6579d123e129ade90b8703bd","null","<p> <font color=""red"" size=""5vw""> Wrong category! </font> <br> <br> <font color=""red"" size=""8vw""> - $0.05 </font> </p>","null","feedback","","","","","","","1.18"
"","","","","","html-keyboard-response","192","295892","0.0-7.52-0.52","601e49453648f62b37f1b915","6579d0c5e56c6e1626038f86","6579d123e129ade90b8703bd","399","
            
        <div style=""text-align: center; position: fixed; top: 5vh; left: 40vw;"">
            <div style=""margin:0 auto; width: 20vw; top: 8vh; font-size: 2vw""> 
            <font color=""green""> Bonus : $1.18 </font>
            </div>
        </div>
    
            <div> Please press any key to continue to the next movie.</div>
        ","h","ITI","","","","","","",""
"","","","","","html-keyboard-response","193","296259","0.0-7.52-1.52","601e49453648f62b37f1b915","6579d0c5e56c6e1626038f86","6579d123e129ade90b8703bd","360","./stimuli//pack_morph_shapes_1/cat_2/diff_1/ex_2_1_9.mp4","arrowleft","response","ArrowRight","9","2","1","test","false",""
"","","","","","html-keyboard-response","194","297776","0.0-7.52-2.52","601e49453648f62b37f1b915","6579d0c5e56c6e1626038f86","6579d123e129ade90b8703bd","null","<p> <font color=""red"" size=""5vw""> Wrong category! </font> <br> <br> <font color=""red"" size=""8vw""> - $0.05 </font> </p>","null","feedback","","","","","","","1.13"
"","","","","","html-keyboard-response","195","298351","0.0-7.53-0.53","601e49453648f62b37f1b915","6579d0c5e56c6e1626038f86","6579d123e129ade90b8703bd","572","
            
        <div style=""text-align: center; position: fixed; top: 5vh; left: 40vw;"">
            <div style=""margin:0 auto; width: 20vw; top: 8vh; font-size: 2vw""> 
            <font color=""green""> Bonus : $1.13 </font>
            </div>
        </div>
    
            <div> Please press any key to continue to the next movie.</div>
        ","h","ITI","","","","","","",""
"","","","","","html-keyboard-response","196","298879","0.0-7.53-1.53","601e49453648f62b37f1b915","6579d0c5e56c6e1626038f86","6579d123e129ade90b8703bd","524","./stimuli//pack_morph_shapes_1/cat_1/diff_1/ex_1_1_3.mp4","arrowleft","response","ArrowLeft","3","1","1","test","true",""
"","","","","","html-keyboard-response","197","300392","0.0-7.53-2.53","601e49453648f62b37f1b915","6579d0c5e56c6e1626038f86","6579d123e129ade90b8703bd","null","<p> <font color=""green"" size=""5vw""> Correct category! </font> <br> <br> <font color=""green"" size=""8vw""> + $0.09 </font> </p>","null","feedback","","","","","","","1.22"
"","","","","","html-keyboard-response","198","300813","0.0-7.54-0.54","601e49453648f62b37f1b915","6579d0c5e56c6e1626038f86","6579d123e129ade90b8703bd","419","
            
        <div style=""text-align: center; position: fixed; top: 5vh; left: 40vw;"">
            <div style=""margin:0 auto; width: 20vw; top: 8vh; font-size: 2vw""> 
            <font color=""green""> Bonus : $1.22 </font>
            </div>
        </div>
    
            <div> Please press any key to continue to the next movie.</div>
        ","h","ITI","","","","","","",""
"","","","","","html-keyboard-response","199","301717","0.0-7.54-1.54","601e49453648f62b37f1b915","6579d0c5e56c6e1626038f86","6579d123e129ade90b8703bd","899","./stimuli//pack_morph_shapes_1/cat_2/diff_1/ex_2_1_14.mp4","arrowright","response","ArrowRight","14","2","1","test","true",""
"","","","","","html-keyboard-response","200","303227","0.0-7.54-2.54","601e49453648f62b37f1b915","6579d0c5e56c6e1626038f86","6579d123e129ade90b8703bd","null","<p> <font color=""green"" size=""5vw""> Correct category! </font> <br> <br> <font color=""green"" size=""8vw""> + $0.08 </font> </p>","null","feedback","","","","","","","1.3"
"","","","","","html-keyboard-response","201","303662","0.0-7.55-0.55","601e49453648f62b37f1b915","6579d0c5e56c6e1626038f86","6579d123e129ade90b8703bd","434","
            
        <div style=""text-align: center; position: fixed; top: 5vh; left: 40vw;"">
            <div style=""margin:0 auto; width: 20vw; top: 8vh; font-size: 2vw""> 
            <font color=""green""> Bonus : $1.3 </font>
            </div>
        </div>
    
            <div> Please press any key to continue to the next movie.</div>
        ","h","ITI","","","","","","",""
"","","","","","html-keyboard-response","202","304833","0.0-7.55-1.55","601e49453648f62b37f1b915","6579d0c5e56c6e1626038f86","6579d123e129ade90b8703bd","1166","./stimuli//pack_morph_shapes_1/cat_2/diff_1/ex_2_1_15.mp4","arrowleft","response","ArrowRight","15","2","1","test","false",""
"","","","","","html-keyboard-response","203","306342","0.0-7.55-2.55","601e49453648f62b37f1b915","6579d0c5e56c6e1626038f86","6579d123e129ade90b8703bd","null","<p> <font color=""red"" size=""5vw""> Wrong category! </font> <br> <br> <font color=""red"" size=""8vw""> - $0.05 </font> </p>","null","feedback","","","","","","","1.25"
"","","","","","html-keyboard-response","204","306802","0.0-7.56-0.56","601e49453648f62b37f1b915","6579d0c5e56c6e1626038f86","6579d123e129ade90b8703bd","458","
            
        <div style=""text-align: center; position: fixed; top: 5vh; left: 40vw;"">
            <div style=""margin:0 auto; width: 20vw; top: 8vh; font-size: 2vw""> 
            <font color=""green""> Bonus : $1.25 </font>
            </div>
        </div>
    
            <div> Please press any key to continue to the next movie.</div>
        ","h","ITI","","","","","","",""
"","","","","","html-keyboard-response","205","307533","0.0-7.56-1.56","601e49453648f62b37f1b915","6579d0c5e56c6e1626038f86","6579d123e129ade90b8703bd","726","./stimuli//pack_morph_shapes_1/cat_1/diff_1/ex_1_1_2.mp4","arrowright","response","ArrowLeft","2","1","1","test","false",""
"","","","","","html-keyboard-response","206","309044","0.0-7.56-2.56","601e49453648f62b37f1b915","6579d0c5e56c6e1626038f86","6579d123e129ade90b8703bd","null","<p> <font color=""red"" size=""5vw""> Wrong category! </font> <br> <br> <font color=""red"" size=""8vw""> - $0.05 </font> </p>","null","feedback","","","","","","","1.2"
"","","","","","html-keyboard-response","207","309371","0.0-7.57-0.57","601e49453648f62b37f1b915","6579d0c5e56c6e1626038f86","6579d123e129ade90b8703bd","326","
            
        <div style=""text-align: center; position: fixed; top: 5vh; left: 40vw;"">
            <div style=""margin:0 auto; width: 20vw; top: 8vh; font-size: 2vw""> 
            <font color=""green""> Bonus : $1.2 </font>
            </div>
        </div>
    
            <div> Please press any key to continue to the next movie.</div>
        ","h","ITI","","","","","","",""
"","","","","","html-keyboard-response","208","309867","0.0-7.57-1.57","601e49453648f62b37f1b915","6579d0c5e56c6e1626038f86","6579d123e129ade90b8703bd","491","./stimuli//pack_morph_shapes_1/cat_1/diff_1/ex_1_1_6.mp4","arrowright","response","ArrowLeft","6","1","1","test","false",""
"","","","","","html-keyboard-response","209","311371","0.0-7.57-2.57","601e49453648f62b37f1b915","6579d0c5e56c6e1626038f86","6579d123e129ade90b8703bd","null","<p> <font color=""red"" size=""5vw""> Wrong category! </font> <br> <br> <font color=""red"" size=""8vw""> - $0.05 </font> </p>","null","feedback","","","","","","","1.15"
"","","","","","html-keyboard-response","210","311572","0.0-7.58-0.58","601e49453648f62b37f1b915","6579d0c5e56c6e1626038f86","6579d123e129ade90b8703bd","198","
            
        <div style=""text-align: center; position: fixed; top: 5vh; left: 40vw;"">
            <div style=""margin:0 auto; width: 20vw; top: 8vh; font-size: 2vw""> 
            <font color=""green""> Bonus : $1.15 </font>
            </div>
        </div>
    
            <div> Please press any key to continue to the next movie.</div>
        ","h","ITI","","","","","","",""
"","","","","","html-keyboard-response","211","312600","0.0-7.58-1.58","601e49453648f62b37f1b915","6579d0c5e56c6e1626038f86","6579d123e129ade90b8703bd","1024","./stimuli//pack_morph_shapes_1/cat_1/diff_1/ex_1_1_16.mp4","arrowleft","response","ArrowLeft","16","1","1","test","true",""
"","","","","","html-keyboard-response","212","314103","0.0-7.58-2.58","601e49453648f62b37f1b915","6579d0c5e56c6e1626038f86","6579d123e129ade90b8703bd","null","<p> <font color=""green"" size=""5vw""> Correct category! </font> <br> <br> <font color=""green"" size=""8vw""> + $0.08 </font> </p>","null","feedback","","","","","","","1.23"
"","","","","","html-keyboard-response","213","314494","0.0-7.59-0.59","601e49453648f62b37f1b915","6579d0c5e56c6e1626038f86","6579d123e129ade90b8703bd","389","
            
        <div style=""text-align: center; position: fixed; top: 5vh; left: 40vw;"">
            <div style=""margin:0 auto; width: 20vw; top: 8vh; font-size: 2vw""> 
            <font color=""green""> Bonus : $1.23 </font>
            </div>
        </div>
    
            <div> Please press any key to continue to the next movie.</div>
        ","h","ITI","","","","","","",""
"","","","","","html-keyboard-response","214","314908","0.0-7.59-1.59","601e49453648f62b37f1b915","6579d0c5e56c6e1626038f86","6579d123e129ade90b8703bd","412","./stimuli//pack_morph_shapes_1/cat_1/diff_1/ex_1_1_6.mp4","arrowleft","response","ArrowLeft","6","1","1","test","true",""
"","","","","","html-keyboard-response","215","316416","0.0-7.59-2.59","601e49453648f62b37f1b915","6579d0c5e56c6e1626038f86","6579d123e129ade90b8703bd","null","<p> <font color=""green"" size=""5vw""> Correct category! </font> <br> <br> <font color=""green"" size=""8vw""> + $0.09 </font> </p>","null","feedback","","","","","","","1.32"
"","","","","","html-keyboard-response","216","316727","0.0-7.60-0.60","601e49453648f62b37f1b915","6579d0c5e56c6e1626038f86","6579d123e129ade90b8703bd","309","
            
        <div style=""text-align: center; position: fixed; top: 5vh; left: 40vw;"">
            <div style=""margin:0 auto; width: 20vw; top: 8vh; font-size: 2vw""> 
            <font color=""green""> Bonus : $1.32 </font>
            </div>
        </div>
    
            <div> Please press any key to continue to the next movie.</div>
        ","h","ITI","","","","","","",""
"","","","","","html-keyboard-response","217","317128","0.0-7.60-1.60","601e49453648f62b37f1b915","6579d0c5e56c6e1626038f86","6579d123e129ade90b8703bd","396","./stimuli//pack_morph_shapes_1/cat_2/diff_1/ex_2_1_5.mp4","arrowleft","response","ArrowRight","5","2","1","test","false",""
"","","","","","html-keyboard-response","218","318636","0.0-7.60-2.60","601e49453648f62b37f1b915","6579d0c5e56c6e1626038f86","6579d123e129ade90b8703bd","null","<p> <font color=""red"" size=""5vw""> Wrong category! </font> <br> <br> <font color=""red"" size=""8vw""> - $0.05 </font> </p>","null","feedback","","","","","","","1.27"
"","","","","","html-keyboard-response","219","319050","0.0-7.61-0.61","601e49453648f62b37f1b915","6579d0c5e56c6e1626038f86","6579d123e129ade90b8703bd","411","
            
        <div style=""text-align: center; position: fixed; top: 5vh; left: 40vw;"">
            <div style=""margin:0 auto; width: 20vw; top: 8vh; font-size: 2vw""> 
            <font color=""green""> Bonus : $1.27 </font>
            </div>
        </div>
    
            <div> Please press any key to continue to the next movie.</div>
        ","h","ITI","","","","","","",""
"","","","","","html-keyboard-response","220","319839","0.0-7.61-1.61","601e49453648f62b37f1b915","6579d0c5e56c6e1626038f86","6579d123e129ade90b8703bd","785","./stimuli//pack_morph_shapes_1/cat_1/diff_1/ex_1_1_1.mp4","arrowleft","response","ArrowLeft","1","1","1","test","true",""
"","","","","","html-keyboard-response","221","321354","0.0-7.61-2.61","601e49453648f62b37f1b915","6579d0c5e56c6e1626038f86","6579d123e129ade90b8703bd","null","<p> <font color=""green"" size=""5vw""> Correct category! </font> <br> <br> <font color=""green"" size=""8vw""> + $0.09 </font> </p>","null","feedback","","","","","","","1.36"
"","","","","","html-keyboard-response","222","321769","0.0-7.62-0.62","601e49453648f62b37f1b915","6579d0c5e56c6e1626038f86","6579d123e129ade90b8703bd","414","
            
        <div style=""text-align: center; position: fixed; top: 5vh; left: 40vw;"">
            <div style=""margin:0 auto; width: 20vw; top: 8vh; font-size: 2vw""> 
            <font color=""green""> Bonus : $1.36 </font>
            </div>
        </div>
    
            <div> Please press any key to continue to the next movie.</div>
        ","h","ITI","","","","","","",""
"","","","","","html-keyboard-response","223","322223","0.0-7.62-1.62","601e49453648f62b37f1b915","6579d0c5e56c6e1626038f86","6579d123e129ade90b8703bd","449","./stimuli//pack_morph_shapes_1/cat_2/diff_1/ex_2_1_3.mp4","arrowright","response","ArrowRight","3","2","1","test","true",""
"","","","","","html-keyboard-response","224","323727","0.0-7.62-2.62","601e49453648f62b37f1b915","6579d0c5e56c6e1626038f86","6579d123e129ade90b8703bd","null","<p> <font color=""green"" size=""5vw""> Correct category! </font> <br> <br> <font color=""green"" size=""8vw""> + $0.09 </font> </p>","null","feedback","","","","","","","1.45"
"","","","","","html-keyboard-response","225","324170","0.0-7.63-0.63","601e49453648f62b37f1b915","6579d0c5e56c6e1626038f86","6579d123e129ade90b8703bd","441","
            
        <div style=""text-align: center; position: fixed; top: 5vh; left: 40vw;"">
            <div style=""margin:0 auto; width: 20vw; top: 8vh; font-size: 2vw""> 
            <font color=""green""> Bonus : $1.45 </font>
            </div>
        </div>
    
            <div> Please press any key to continue to the next movie.</div>
        ","h","ITI","","","","","","",""
"","","","","","html-keyboard-response","226","325072","0.0-7.63-1.63","601e49453648f62b37f1b915","6579d0c5e56c6e1626038f86","6579d123e129ade90b8703bd","897","./stimuli//pack_morph_shapes_1/cat_2/diff_2/ex_2_2_10.mp4","arrowright","response","ArrowRight","10","2","2","test","true",""
"","","","","","html-keyboard-response","227","326574","0.0-7.63-2.63","601e49453648f62b37f1b915","6579d0c5e56c6e1626038f86","6579d123e129ade90b8703bd","null","<p> <font color=""green"" size=""5vw""> Correct category! </font> <br> <br> <font color=""green"" size=""8vw""> + $0.08 </font> </p>","null","feedback","","","","","","","1.53"
"","","","","","html-keyboard-response","228","327066","0.0-7.64-0.64","601e49453648f62b37f1b915","6579d0c5e56c6e1626038f86","6579d123e129ade90b8703bd","490","
            
        <div style=""text-align: center; position: fixed; top: 5vh; left: 40vw;"">
            <div style=""margin:0 auto; width: 20vw; top: 8vh; font-size: 2vw""> 
            <font color=""green""> Bonus : $1.53 </font>
            </div>
        </div>
    
            <div> Please press any key to continue to the next movie.</div>
        ","h","ITI","","","","","","",""
"","","","","","html-keyboard-response","229","327478","0.0-7.64-1.64","601e49453648f62b37f1b915","6579d0c5e56c6e1626038f86","6579d123e129ade90b8703bd","406","./stimuli//pack_morph_shapes_1/cat_2/diff_2/ex_2_2_7.mp4","arrowleft","response","ArrowRight","7","2","2","test","false",""
"","","","","","html-keyboard-response","230","328979","0.0-7.64-2.64","601e49453648f62b37f1b915","6579d0c5e56c6e1626038f86","6579d123e129ade90b8703bd","null","<p> <font color=""red"" size=""5vw""> Wrong category! </font> <br> <br> <font color=""red"" size=""8vw""> - $0.05 </font> </p>","null","feedback","","","","","","","1.48"
"","","","","","html-keyboard-response","231","329352","0.0-7.65-0.65","601e49453648f62b37f1b915","6579d0c5e56c6e1626038f86","6579d123e129ade90b8703bd","370","
            
        <div style=""text-align: center; position: fixed; top: 5vh; left: 40vw;"">
            <div style=""margin:0 auto; width: 20vw; top: 8vh; font-size: 2vw""> 
            <font color=""green""> Bonus : $1.48 </font>
            </div>
        </div>
    
            <div> Please press any key to continue to the next movie.</div>
        ","h","ITI","","","","","","",""
"","","","","","html-keyboard-response","232","330214","0.0-7.65-1.65","601e49453648f62b37f1b915","6579d0c5e56c6e1626038f86","6579d123e129ade90b8703bd","856","./stimuli//pack_morph_shapes_1/cat_1/diff_2/ex_1_2_4.mp4","arrowleft","response","ArrowLeft","4","1","2","test","true",""
"","","","","","html-keyboard-response","233","331716","0.0-7.65-2.65","601e49453648f62b37f1b915","6579d0c5e56c6e1626038f86","6579d123e129ade90b8703bd","null","<p> <font color=""green"" size=""5vw""> Correct category! </font> <br> <br> <font color=""green"" size=""8vw""> + $0.08 </font> </p>","null","feedback","","","","","","","1.56"
"","","","","","html-keyboard-response","234","332225","0.0-7.66-0.66","601e49453648f62b37f1b915","6579d0c5e56c6e1626038f86","6579d123e129ade90b8703bd","508","
            
        <div style=""text-align: center; position: fixed; top: 5vh; left: 40vw;"">
            <div style=""margin:0 auto; width: 20vw; top: 8vh; font-size: 2vw""> 
            <font color=""green""> Bonus : $1.56 </font>
            </div>
        </div>
    
            <div> Please press any key to continue to the next movie.</div>
        ","h","ITI","","","","","","",""
"","","","","","html-keyboard-response","235","333070","0.0-7.66-1.66","601e49453648f62b37f1b915","6579d0c5e56c6e1626038f86","6579d123e129ade90b8703bd","840","./stimuli//pack_morph_shapes_1/cat_1/diff_2/ex_1_2_2.mp4","arrowright","response","ArrowLeft","2","1","2","test","false",""
"","","","","","html-keyboard-response","236","334582","0.0-7.66-2.66","601e49453648f62b37f1b915","6579d0c5e56c6e1626038f86","6579d123e129ade90b8703bd","null","<p> <font color=""red"" size=""5vw""> Wrong category! </font> <br> <br> <font color=""red"" size=""8vw""> - $0.05 </font> </p>","null","feedback","","","","","","","1.51"
"","","","","","html-keyboard-response","237","334969","0.0-7.67-0.67","601e49453648f62b37f1b915","6579d0c5e56c6e1626038f86","6579d123e129ade90b8703bd","385","
            
        <div style=""text-align: center; position: fixed; top: 5vh; left: 40vw;"">
            <div style=""margin:0 auto; width: 20vw; top: 8vh; font-size: 2vw""> 
            <font color=""green""> Bonus : $1.51 </font>
            </div>
        </div>
    
            <div> Please press any key to continue to the next movie.</div>
        ","h","ITI","","","","","","",""
"","","","","","html-keyboard-response","238","335320","0.0-7.67-1.67","601e49453648f62b37f1b915","6579d0c5e56c6e1626038f86","6579d123e129ade90b8703bd","348","./stimuli//pack_morph_shapes_1/cat_2/diff_2/ex_2_2_5.mp4","arrowright","response","ArrowRight","5","2","2","test","true",""
"","","","","","html-keyboard-response","239","336835","0.0-7.67-2.67","601e49453648f62b37f1b915","6579d0c5e56c6e1626038f86","6579d123e129ade90b8703bd","null","<p> <font color=""green"" size=""5vw""> Correct category! </font> <br> <br> <font color=""green"" size=""8vw""> + $0.09 </font> </p>","null","feedback","","","","","","","1.6"
"","","","","","html-keyboard-response","240","337355","0.0-7.68-0.68","601e49453648f62b37f1b915","6579d0c5e56c6e1626038f86","6579d123e129ade90b8703bd","518","
            
        <div style=""text-align: center; position: fixed; top: 5vh; left: 40vw;"">
            <div style=""margin:0 auto; width: 20vw; top: 8vh; font-size: 2vw""> 
            <font color=""green""> Bonus : $1.6 </font>
            </div>
        </div>
    
            <div> Please press any key to continue to the next movie.</div>
        ","h","ITI","","","","","","",""
"","","","","","html-keyboard-response","241","338099","0.0-7.68-1.68","601e49453648f62b37f1b915","6579d0c5e56c6e1626038f86","6579d123e129ade90b8703bd","741","./stimuli//pack_morph_shapes_1/cat_1/diff_1/ex_1_1_3.mp4","arrowleft","response","ArrowLeft","3","1","1","test","true",""
"","","","","","html-keyboard-response","242","339601","0.0-7.68-2.68","601e49453648f62b37f1b915","6579d0c5e56c6e1626038f86","6579d123e129ade90b8703bd","null","<p> <font color=""green"" size=""5vw""> Correct category! </font> <br> <br> <font color=""green"" size=""8vw""> + $0.09 </font> </p>","null","feedback","","","","","","","1.69"
"","","","","","html-keyboard-response","243","340038","0.0-7.69-0.69","601e49453648f62b37f1b915","6579d0c5e56c6e1626038f86","6579d123e129ade90b8703bd","435","
            
        <div style=""text-align: center; position: fixed; top: 5vh; left: 40vw;"">
            <div style=""margin:0 auto; width: 20vw; top: 8vh; font-size: 2vw""> 
            <font color=""green""> Bonus : $1.69 </font>
            </div>
        </div>
    
            <div> Please press any key to continue to the next movie.</div>
        ","h","ITI","","","","","","",""
"","","","","","html-keyboard-response","244","340379","0.0-7.69-1.69","601e49453648f62b37f1b915","6579d0c5e56c6e1626038f86","6579d123e129ade90b8703bd","337","./stimuli//pack_morph_shapes_1/cat_2/diff_1/ex_2_1_17.mp4","arrowleft","response","ArrowRight","17","2","1","test","false",""
"","","","","","html-keyboard-response","245","341882","0.0-7.69-2.69","601e49453648f62b37f1b915","6579d0c5e56c6e1626038f86","6579d123e129ade90b8703bd","null","<p> <font color=""red"" size=""5vw""> Wrong category! </font> <br> <br> <font color=""red"" size=""8vw""> - $0.05 </font> </p>","null","feedback","","","","","","","1.64"
"","","","","","html-keyboard-response","246","342268","0.0-7.70-0.70","601e49453648f62b37f1b915","6579d0c5e56c6e1626038f86","6579d123e129ade90b8703bd","385","
            
        <div style=""text-align: center; position: fixed; top: 5vh; left: 40vw;"">
            <div style=""margin:0 auto; width: 20vw; top: 8vh; font-size: 2vw""> 
            <font color=""green""> Bonus : $1.64 </font>
            </div>
        </div>
    
            <div> Please press any key to continue to the next movie.</div>
        ","h","ITI","","","","","","",""
"","","","","","html-keyboard-response","247","342558","0.0-7.70-1.70","601e49453648f62b37f1b915","6579d0c5e56c6e1626038f86","6579d123e129ade90b8703bd","285","./stimuli//pack_morph_shapes_1/cat_1/diff_1/ex_1_1_16.mp4","arrowleft","response","ArrowLeft","16","1","1","test","true",""
"","","","","","html-keyboard-response","248","344076","0.0-7.70-2.70","601e49453648f62b37f1b915","6579d0c5e56c6e1626038f86","6579d123e129ade90b8703bd","null","<p> <font color=""green"" size=""5vw""> Correct category! </font> <br> <br> <font color=""green"" size=""8vw""> + $0.09 </font> </p>","null","feedback","","","","","","","1.73"
"","","","","","html-keyboard-response","249","344529","0.0-7.71-0.71","601e49453648f62b37f1b915","6579d0c5e56c6e1626038f86","6579d123e129ade90b8703bd","451","
            
        <div style=""text-align: center; position: fixed; top: 5vh; left: 40vw;"">
            <div style=""margin:0 auto; width: 20vw; top: 8vh; font-size: 2vw""> 
            <font color=""green""> Bonus : $1.73 </font>
            </div>
        </div>
    
            <div> Please press any key to continue to the next movie.</div>
        ","h","ITI","","","","","","",""
"","","","","","html-keyboard-response","250","345297","0.0-7.71-1.71","601e49453648f62b37f1b915","6579d0c5e56c6e1626038f86","6579d123e129ade90b8703bd","764","./stimuli//pack_morph_shapes_1/cat_2/diff_1/ex_2_1_15.mp4","arrowright","response","ArrowRight","15","2","1","test","true",""
"","","","","","html-keyboard-response","251","346805","0.0-7.71-2.71","601e49453648f62b37f1b915","6579d0c5e56c6e1626038f86","6579d123e129ade90b8703bd","null","<p> <font color=""green"" size=""5vw""> Correct category! </font> <br> <br> <font color=""green"" size=""8vw""> + $0.09 </font> </p>","null","feedback","","","","","","","1.82"
"","","","","","html-keyboard-response","252","347180","0.0-7.72-0.72","601e49453648f62b37f1b915","6579d0c5e56c6e1626038f86","6579d123e129ade90b8703bd","373","
            
        <div style=""text-align: center; position: fixed; top: 5vh; left: 40vw;"">
            <div style=""margin:0 auto; width: 20vw; top: 8vh; font-size: 2vw""> 
            <font color=""green""> Bonus : $1.82 </font>
            </div>
        </div>
    
            <div> Please press any key to continue to the next movie.</div>
        ","h","ITI","","","","","","",""
"","","","","","html-keyboard-response","253","347453","0.0-7.72-1.72","601e49453648f62b37f1b915","6579d0c5e56c6e1626038f86","6579d123e129ade90b8703bd","268","./stimuli//pack_morph_shapes_1/cat_2/diff_1/ex_2_1_5.mp4","arrowright","response","ArrowRight","5","2","1","test","true",""
"","","","","","html-keyboard-response","254","348957","0.0-7.72-2.72","601e49453648f62b37f1b915","6579d0c5e56c6e1626038f86","6579d123e129ade90b8703bd","null","<p> <font color=""green"" size=""5vw""> Correct category! </font> <br> <br> <font color=""green"" size=""8vw""> + $0.09 </font> </p>","null","feedback","","","","","","","1.91"
"","","","","","html-keyboard-response","255","349410","0.0-7.73-0.73","601e49453648f62b37f1b915","6579d0c5e56c6e1626038f86","6579d123e129ade90b8703bd","450","
            
        <div style=""text-align: center; position: fixed; top: 5vh; left: 40vw;"">
            <div style=""margin:0 auto; width: 20vw; top: 8vh; font-size: 2vw""> 
            <font color=""green""> Bonus : $1.91 </font>
            </div>
        </div>
    
            <div> Please press any key to continue to the next movie.</div>
        ","h","ITI","","","","","","",""
