thisRow.t,notes,response,correct,correct_response,response_time,difficulty,category,phase,stimulus_ID,stim presentation time,delay presentation time,AB presentation time,debugging_time,feedback presentation time,ITI presentation time,ITI response time,participant,session,date,
,,8,0,['9'],0.40434554099920206,1,1,train,,,,,,,,,,,2023-12-13_11h15.12.221,
,,9,0,"['5', '6', '7', '8']",0.7089022080035647,2,2,train,,,,,,,,,,,2023-12-13_11h15.12.221,
,,8,1,"['5', '6', '7', '8']",0.3019597080128733,1,2,train,,,,,,,,,,,2023-12-13_11h15.12.221,
,,8,1,"['5', '6', '7', '8']",0.3503895830071997,1,2,train,,,,,,,,,,,2023-12-13_11h15.12.221,
,,8,1,"['5', '6', '7', '8']",0.7037778750091093,2,2,train,,,,,,,,,,,2023-12-13_11h15.12.221,
,,8,0,['9'],0.3616326659976039,1,1,train,,,,,,,,,,,2023-12-13_11h15.12.221,
,,9,1,['9'],0.32468354199954774,2,1,train,,,,,,,,,,,2023-12-13_11h15.12.221,
,,9,1,['9'],0.43160849998821504,2,1,train,,,,,,,,,,,2023-12-13_11h15.12.221,
,,9,1,['9'],0.31836745800683275,1,1,train,,,,,,,,,,,2023-12-13_11h15.12.221,
,,8,1,"['5', '6', '7', '8']",0.2929542079946259,1,2,train,,,,,,,,,,,2023-12-13_11h15.12.221,
,,9,1,['9'],0.3918388739984948,1,1,test,2,0.01046829199185595,0.6136871670023538,1.6211223749996861,1.6210748749872437,2.1759396669949638,3.1778018750046613,1.4022823330014944,,,2023-12-13_11h15.12.221,
,,8,1,"['5', '6', '7', '8']",0.2627414989983663,1,2,test,2,4.772295874994597,5.374704582995037,6.37926724999852,1.6182672499999171,6.803160291994573,7.805132499997853,0.7031283749965951,,,2023-12-13_11h15.12.221,
,,9,1,['9'],0.2651795830024639,1,1,test,2,8.657968375002383,9.260594042003504,10.26517558300111,1.61409362500126,10.674115083005745,11.676047457993263,0.9761957489972701,,,2023-12-13_11h15.12.221,
,,9,1,['9'],0.2924784159986302,1,1,test,6,12.793613375004497,13.39592187499511,14.404600042005768,1.6214774580002995,14.83907645799627,15.840974167003878,0.5914002920035273,,,2023-12-13_11h15.12.221,
,,8,1,"['5', '6', '7', '8']",0.2962809169985121,1,2,test,18,16.591046250003274,17.19341424999584,18.197665500003495,1.6135661250009434,18.62882458299282,19.630613749992335,0.6700230410060612,,,2023-12-13_11h15.12.221,
,,8,1,"['5', '6', '7', '8']",0.37884516699705273,2,2,test,1,20.45941870799288,21.061870707999333,22.06621633299801,1.6120063330017729,22.60426729200117,23.60610554199957,0.641238666998106,,,2023-12-13_11h15.12.221,
,,9,0,"['5', '6', '7', '8']",0.3228547499893466,2,2,test,7,24.43213783300598,25.034575166995637,26.039253958006157,1.612026832997799,26.521464000004926,27.523388250003336,0.5382167079951614,,,2023-12-13_11h15.12.221,
,,8,1,"['5', '6', '7', '8']",0.22690570799750276,2,2,test,10,28.210735582993948,28.813357874998474,29.817319624999072,1.6120486250001704,30.190390207993914,31.192240958000184,0.5163829160010209,,,2023-12-13_11h15.12.221,
,,8,1,"['5', '6', '7', '8']",0.47087562500382774,2,2,test,5,31.859228166998946,32.46192191699811,33.46638066699961,1.612035416008439,34.085984916993766,35.08779454199248,0.28901587399013806,,,2023-12-13_11h15.12.221,
,,9,1,['9'],0.20937583300110418,2,1,test,2,35.5127322920016,36.1148936249956,37.11896079199505,1.6106412910012295,37.539840083001764,38.541725250004674,0.4920183740032371,,,2023-12-13_11h15.12.221,
,,9,1,['9'],0.30555791601364035,3,1,test,8,39.18979333300376,39.79247212500195,40.7969434169936,1.61550879200513,41.27448762499262,42.27644737499941,0.7572970000037458,,,2023-12-13_11h15.12.221,
,,9,1,['9'],0.3510589159996016,3,1,test,5,43.22243412499665,43.82506104199274,44.82923829200445,1.616860333000659,45.309849166995264,46.31187049999426,0.6178114580106921,,,2023-12-13_11h15.12.221,
,,9,1,['9'],0.23785824900551233,3,1,test,18,47.08725645800587,47.68982733300072,48.694415999998455,1.6128028329985682,49.104559625004185,50.106408249994274,0.3416056239948375,,,2023-12-13_11h15.12.221,
,,9,1,['9'],0.22832179100078065,3,1,test,11,50.60857016699447,51.21092529200541,52.215118666994385,1.6145818749937462,52.61295824999979,53.61480875000416,0.37202204098866787,,,2023-12-13_11h15.12.221,
,,9,1,['9'],0.1159293329983484,3,1,test,8,54.11022120800044,54.71267504199932,55.72147037499235,1.614900917003979,55.973476375002065,56.97540854199906,0.46233699898584746,,,2023-12-13_11h15.12.221,
,,9,1,['9'],0.245776998999645,4,1,test,4,57.604843624998466,58.21017129199754,59.21462945800158,1.6180216670036316,59.62715200000093,60.62903749999532,0.4231622499937657,,,2023-12-13_11h15.12.221,
,,9,0,"['5', '6', '7', '8']",0.21608699999342207,4,2,test,11,61.20890291700198,61.81138374999864,62.815463292005006,1.6108763749944046,63.19231437500275,64.1940394580015,0.35599666699999943,,,2023-12-13_11h15.12.221,
,,8,0,['9'],0.08380658300302457,4,1,test,18,64.72743108299619,65.32975983299548,66.33868833299493,1.6150541659881128,66.5605094999919,67.56238120800117,0.37765416598995216,,,2023-12-13_11h15.12.221,
,,9,1,['9'],0.4464373329974478,4,1,test,4,68.10846462499467,68.71101533299952,69.71515241700399,1.6112637909973273,70.2920002079918,71.2937543750013,0.37431383300281595,,,2023-12-13_11h15.12.221,
,,9,1,['9'],0.1411683749902295,4,1,test,9,71.86361791699892,72.4659800829977,73.4724280829978,1.6127393750066403,73.79323287500301,74.79504829199868,0.3909351250040345,,,2023-12-13_11h15.12.221,
,,9,1,['9'],0.21404454098956194,3,1,test,10,75.35502866699244,75.95736437500454,76.96172958299576,1.6139776250056457,77.323907375001,78.32564795800135,0.3644234990060795,,,2023-12-13_11h15.12.221,
,,9,0,"['5', '6', '7', '8']",0.25951854200684465,3,2,test,3,78.8160841249919,79.42263800000364,80.42749050000566,1.6157173749961657,80.82942708299379,81.83120016699831,0.43697229100507684,,,2023-12-13_11h15.12.221,
,,9,0,"['5', '6', '7', '8']",0.19634183299785946,3,2,test,3,82.4595996249991,83.06214462500066,84.06633716699434,1.6124105829949258,84.41573866699764,85.41769016699982,0.3394914160016924,,,2023-12-13_11h15.12.221,
,,9,1,['9'],0.23626729199895635,3,1,test,16,85.94293537500198,86.54539995800587,87.54952004199731,1.6116069160052575,87.93571108300239,88.93746787500277,0.3391824580030516,,,2023-12-13_11h15.12.221,
,,9,1,['9'],0.21180466700752731,3,1,test,11,89.44139883300522,90.04384241699881,91.04795508300595,1.6139846250007395,91.41012708299968,92.41187541700492,0.3572878330014646,,,2023-12-13_11h15.12.221,
,,9,1,['9'],0.24823087500408292,2,1,test,1,92.9273135830008,93.52943675000279,94.53357879200485,1.6113512500014622,94.93937991699204,95.9411305829999,0.3520397919928655,,,2023-12-13_11h15.12.221,
,,9,1,['9'],0.20341158300288953,2,1,test,13,96.462211207996,97.06434812500083,98.06848762500158,1.6104824159992859,98.4416579999961,99.44345037499443,0.32814179100387264,,,2023-12-13_11h15.12.221,
,,9,0,"['5', '6', '7', '8']",0.26081704199896194,2,2,test,16,99.95016908299294,100.55430158300442,101.55915724999795,1.6129763329954585,101.98137483300525,102.98329391700099,0.3659171250037616,,,2023-12-13_11h15.12.221,
,,9,1,['9'],0.22824395800125785,2,1,test,10,103.5241227499937,104.12620250000327,105.13085145800142,1.6175977499951841,105.5251087499928,106.52691833299468,0.36168879200704396,,,2023-12-13_11h15.12.221,
,,9,1,['9'],0.22012212399567943,2,1,test,18,107.03905449999729,107.64165245799813,108.64587374999246,1.6106993339926703,109.01097920800385,110.01276641699951,0.2767840410087956,,,2023-12-13_11h15.12.221,
,,9,1,['9'],0.307816583008389,3,1,test,1,110.4498505829979,111.05208508299256,112.05620424999506,1.6110020829946734,112.53919666699949,113.5409616669931,0.3586779160104925,,,2023-12-13_11h15.12.221,
,,9,1,['9'],0.29235891699499916,3,1,test,11,114.05219720800233,114.65577537499485,115.65987062499335,1.6126459579973016,116.09963516700373,117.10161991699715,0.39957895800762344,,,2023-12-13_11h15.12.221,
,,9,0,"['5', '6', '7', '8']",0.23205041600158438,3,2,test,3,117.69225754200306,118.2947019580024,119.29905600000347,1.6127892920048907,119.71776866700384,120.71956929199223,0.2551945409941254,,,2023-12-13_11h15.12.221,
,,9,1,['9'],0.21208229099283926,3,1,test,11,121.17980679200264,121.78198474999226,122.7860469169973,1.6107371660036733,123.13110416699783,124.13293862499995,0.34679808300279547,,,2023-12-13_11h15.12.221,
,,9,1,['9'],0.20627179100119974,3,1,test,11,124.6405472500046,125.24342829200032,126.24796208299813,1.61547433398664,126.60888645799423,127.61068016699573,0.36799337399133947,,,2023-12-13_11h15.12.221,
,,9,1,['9'],0.28978662501322106,4,1,test,4,128.12914370799263,128.73172120799427,129.73961208299443,1.6151019169919891,130.1931041249918,131.1948997080035,0.36784691699722316,,,2023-12-13_11h15.12.221,
,,9,1,['9'],0.3686742080026306,4,1,test,3,131.74180575000355,132.34420474999934,133.3486520830047,1.6160824999969918,133.86642320800456,134.86824137499207,0.28252020801301114,,,2023-12-13_11h15.12.221,
,,9,1,['9'],0.26398974999028724,4,1,test,9,135.30872404199908,135.91108641699248,136.91548304200114,1.6150430419947952,137.32215974999417,138.3239539579954,0.27800066700729076,,,2023-12-13_11h15.12.221,
,,9,1,['9'],0.1713680000102613,4,1,test,6,138.74587591699674,139.3479681250028,140.35631358300452,1.6148192919936264,140.65863383299438,141.6604905419954,0.3543877500051167,,,2023-12-13_11h15.12.221,
,,9,1,['9'],0.0008267919911304489,4,1,test,5,142.15051412499452,142.75637858299888,143.7606269579992,1.6140881249884842,143.93371962499805,144.9355295419955,0.32821404200512916,,,2023-12-13_11h15.12.221,
,,8,1,"['5', '6', '7', '8']",0.2501092080055969,5,2,test,8,145.42523370799609,146.02737637500104,147.0314342920028,1.6127560409950092,147.42473037500167,148.4265500420006,0.39740987500408664,,,2023-12-13_11h15.12.221,
,,9,0,"['5', '6', '7', '8']",0.2029072500008624,5,2,test,12,148.96005466699717,149.5622374999948,150.56688841700088,1.6112428750057006,150.900100999992,151.9020109999983,0.2980040830007056,,,2023-12-13_11h15.12.221,
,,8,1,"['5', '6', '7', '8']",0.2479085000086343,5,2,test,6,152.34102566700312,152.94330058299238,153.9476054169936,1.614917791011976,154.32938958299928,155.33122199999343,0.5417942499916535,,,2023-12-13_11h15.12.221,
,,9,1,['9'],0.030579833008232526,5,1,test,2,156.02119379199576,156.62391383299837,157.6279416670004,1.6111073339998256,157.8159529580007,158.81795145799697,0.32915566700103227,,,2023-12-13_11h15.12.221,
,,9,0,"['5', '6', '7', '8']",0.277341166001861,5,2,test,13,159.29308654200577,159.89592266699765,160.90025204200356,1.6154732090071775,161.34287374999258,162.34484866699495,0.25727799999003764,,,2023-12-13_11h15.12.221,
,,9,1,['9'],0.5245850829960546,4,1,test,9,162.76553124999919,163.3676387500018,164.3741912080004,1.613277125012246,165.027185458006,166.02914458299347,0.27882341599615756,,,2023-12-13_11h15.12.221,
,,9,1,['9'],0.422877040997264,4,1,test,15,166.47752200000104,167.07966474999557,168.08384166700125,1.6110409999964759,168.64961166700232,169.6514154579927,0.25907570800336543,,,2023-12-13_11h15.12.221,
,,9,0,"['5', '6', '7', '8']",0.14732083299895748,4,2,test,6,170.07802570800413,170.68012062499474,171.68448695799452,1.610631250005099,171.99620429199422,172.99800533299276,0.21427908301120624,,,2023-12-13_11h15.12.221,
,,9,1,['9'],0.21442899899557233,4,1,test,1,173.3760365420021,173.9782759170048,174.98231795799802,1.610403665996273,175.34422320799786,176.34602183300012,0.3604040409991285,,,2023-12-13_11h15.12.221,
,,8,1,"['5', '6', '7', '8']",0.09676162399409804,4,2,test,4,176.81242266700428,177.41452591700363,178.42203895800048,1.614056749996962,178.65882370799955,179.66069695800252,0.43966804099909496,,,2023-12-13_11h15.12.221,
,,8,1,"['5', '6', '7', '8']",0.2085920410027029,5,2,test,3,180.25671383300505,180.85927479200473,181.86344074999215,1.6144101250101812,182.18768341699615,183.18941525000264,0.350733790997765,,,2023-12-13_11h15.12.221,
,,9,1,['9'],0.021829999997862615,5,1,test,3,183.71037987500313,184.31262275000336,185.317020167,1.6119781250017695,185.52809649999836,186.5300203749939,0.4782031659997301,,,2023-12-13_11h15.12.221,
,,8,0,['9'],0.23215808300301433,5,1,test,15,187.16469179200067,187.76720758300507,188.77371116699942,1.6134694170032162,189.1340826670057,190.1358889999974,0.33553524999297224,,,2023-12-13_11h15.12.221,
,,9,1,['9'],0.21913866700197104,5,1,test,4,190.64742729200225,191.24965033300396,192.25687650000327,1.613766124995891,192.61001154199766,193.61193391699635,0.32840887500788085,,,2023-12-13_11h15.12.221,
,,9,0,"['5', '6', '7', '8']",0.23657325000385754,5,2,test,19,194.10176841699285,194.707383749992,195.71149400000286,1.6133807909936877,196.11373395800183,197.1155389170017,0.3349199160002172,,,2023-12-13_11h15.12.221,
,,9,0,"['5', '6', '7', '8']",0.23816754200379364,4,2,test,16,197.5926805420022,198.19487862499955,199.19884962499782,1.6106627080007456,199.62635299999965,200.6281549580017,0.30072066700086,,,2023-12-13_11h15.12.221,
,,9,0,"['5', '6', '7', '8']",0.2840703330002725,4,2,test,10,201.0996012079995,201.70173854200402,202.70700087500154,1.6117557499965187,203.14607529199566,204.14785399999528,0.3757432080019498,,,2023-12-13_11h15.12.221,
,,9,1,['9'],0.0814065419981489,4,1,test,3,204.6593092080002,205.26166583299346,206.26587854200625,1.614565166993998,206.49345483300567,207.49537324999983,0.2723237909958698,,,2023-12-13_11h15.12.221,
,,9,1,['9'],0.020285207996494137,4,1,test,18,207.9224732080038,208.52470841699687,209.5289732079982,1.610466792000807,209.75164050000603,210.75353470799746,0.30537958299100865,,,2023-12-13_11h15.12.221,
,,9,1,['9'],0.2502329160051886,4,1,test,9,211.2270221249928,211.82944158300234,212.83402679199935,1.6147268329950748,213.24968116699893,214.25162266699772,0.24353624999639578,,,2023-12-13_11h15.12.221,
,,9,0,"['5', '6', '7', '8']",0.21162270801141858,3,2,test,11,214.68439333299466,215.2900787499966,216.29461324999284,1.619208707998041,216.6617889170011,217.66375074999814,0.3020275420130929,,,2023-12-13_11h15.12.221,
,,8,1,"['5', '6', '7', '8']",0.2900150829955237,3,2,test,7,218.135546666992,218.74048591700557,219.74535879200266,1.6149215000041295,220.16574233300344,221.16759308299515,0.42529774899594486,,,2023-12-13_11h15.12.221,
,,9,1,['9'],0.18822345799708273,3,1,test,8,221.752540417001,222.35496254199825,223.3592687079945,1.6117027909931494,223.70730308299244,224.70912008300365,0.42865529099071864,,,2023-12-13_11h15.12.221,
,,8,1,"['5', '6', '7', '8']",0.20132116600871086,3,2,test,9,225.30177299999923,225.90399608299776,226.90816516699851,1.6115024169994285,227.26397904199257,228.2657527919946,0.41804541599412914,,,2023-12-13_11h15.12.221,
,,8,1,"['5', '6', '7', '8']",0.40433087400742806,3,2,test,16,228.84991329199693,229.45189145799668,230.45634037499258,1.6108137499977602,231.02267424999445,232.02449341700412,0.38266612398729194,,,2023-12-13_11h15.12.221,
,,9,1,['9'],0.20199491700623184,4,1,test,4,232.55820512499486,233.16040479199728,234.16446766699664,1.6098314590053633,234.53410512499977,235.5358830000041,0.39312620800046716,,,2023-12-13_11h15.12.221,
,,8,1,"['5', '6', '7', '8']",0.20151787500071805,4,2,test,6,236.1337771249964,236.735963041996,237.74002699999255,1.6104002500069328,238.08204358299554,239.08384016700438,0.3372772500006249,,,2023-12-13_11h15.12.221,
,,9,1,['9'],0.3273128330038162,4,1,test,14,239.5838352080027,240.1862414579955,241.1902926670009,1.6106338749959832,241.66524795799342,242.66696754199802,0.3302369580051163,,,2023-12-13_11h15.12.221,
,,9,0,"['5', '6', '7', '8']",0.17904433299554512,4,2,test,14,243.15339054199285,243.7555761669937,244.75969004200306,1.6099010000034468,245.10520583299513,246.1072067500063,0.24886799899104517,,,2023-12-13_11h15.12.221,
,,8,1,"['5', '6', '7', '8']",0.2069347079959698,4,2,test,9,246.5323031250009,247.13443220799672,248.13866441699793,1.6108798750065034,248.49190766700485,249.49368608300574,0.6043862489896128,,,2023-12-13_11h15.12.221,
,,9,0,"['5', '6', '7', '8']",0.37955483299447224,5,2,test,2,250.2404556669935,250.84297720799805,251.84711466700537,1.6113104159885552,252.35198525000305,253.35375037499762,0.2144453750079265,,,2023-12-13_11h15.12.221,
,,9,0,"['5', '6', '7', '8']",0.03179366599943023,5,2,test,1,253.71229024999775,254.31467570799578,255.31908029199985,1.6112062080064788,255.49015395800234,256.4919419170037,0.3353623329894617,,,2023-12-13_11h15.12.221,
,,9,0,"['5', '6', '7', '8']",0.19664300000295043,5,2,test,19,256.9769337500038,257.5790165829967,258.58312945799844,1.6102669579995563,258.9285627920035,259.93028220800625,0.3239454580034362,,,2023-12-13_11h15.12.221,
,,9,1,['9'],0.12616933300159872,5,1,test,9,260.39264083300077,260.9951152499998,261.9995981249958,1.6116235410008812,262.2672542920045,263.2690401250002,0.2752189989987528,,,2023-12-13_11h15.12.221,
,,9,1,['9'],0.24022724998940248,5,1,test,4,263.6948485419998,264.2970586250012,265.3016000829957,1.6104791249963455,265.6876803750056,266.6895160830027,0.3469617499940796,,,2023-12-13_11h15.12.221,
,,9,1,['9'],0.22332945799280424,4,1,test,3,267.195917457997,267.79839787499805,268.802562375,1.6103893340041395,269.14870920800604,270.15049741699477,1.486873291010852,,,2023-12-13_11h15.12.221,
,,8,1,"['5', '6', '7', '8']",0.5227247910079313,4,2,test,7,271.7671466669999,272.3693112500041,273.37336545799917,1.612329250012408,274.0238822919928,275.02563362500223,0.21081912399677094,,,2023-12-13_11h15.12.221,
,,8,1,"['5', '6', '7', '8']",0.020157624006969854,4,2,test,17,275.3963742079941,275.9985752499924,277.0027940419968,1.6106851669901516,277.37769062499865,278.379457499992,0.3670915410039015,,,2023-12-13_11h15.12.221,
,,8,1,"['5', '6', '7', '8']",0.047489041011431254,4,2,test,6,278.88097370800097,279.4834043330047,280.4887925829971,1.6124952499958454,280.7261066249921,281.7279329169978,0.2525847079959931,,,2023-12-13_11h15.12.221,
,,8,1,"['5', '6', '7', '8']",0.20347070800198708,4,2,test,5,282.0980206249951,282.7004517919995,283.70558587499545,1.6113885829981882,284.0386565420049,285.0404209999979,0.3450828740024008,,,2023-12-13_11h15.12.221,
,,8,0,['9'],0.2424889579997398,5,1,test,16,285.52194304199656,286.12440170800255,287.1285788749956,1.6122228330059443,287.4625973749935,288.4644987079955,0.2559779580042232,,,2023-12-13_11h15.12.221,
,,9,1,['9'],0.44149829099478666,5,1,test,5,288.85095900000306,289.4534404580045,290.4583379169926,1.61200970900245,291.0034938750032,292.005270499998,0.2567823749996023,,,2023-12-13_11h15.12.221,
,,9,0,"['5', '6', '7', '8']",0.23700691599515267,5,2,test,15,292.3723242499982,292.9744751249964,293.97916762500245,1.610696541989455,294.3460711249936,295.3479480419919,0.3396708330110414,,,2023-12-13_11h15.12.221,
,,8,0,['9'],0.16175625000323635,5,1,test,12,295.8103756670025,296.41243949999625,297.4164447499934,1.6101198749965988,297.6945162500051,298.6963736250036,0.2503421250003157,,,2023-12-13_11h15.12.221,
,,9,0,"['5', '6', '7', '8']",0.21763295801065397,5,2,test,12,299.0844854169991,299.6866665419948,300.6910512500035,1.6106666249979753,301.0437484580034,302.04555949999485,0.2493367080023745,,,2023-12-13_11h15.12.221,
,,9,1,['9'],0.35697754099965096,4,1,test,18,302.4240291669994,303.0261800830049,304.030322666993,1.6109592920111027,304.5362345829926,305.53816716700385,0.23550174900447018,,,2023-12-13_11h15.12.221,
,,9,1,['9'],0.2155315830023028,4,1,test,9,305.9393026250036,306.5416995419946,307.54578312499507,1.6112596249877242,307.8906120000029,308.8923310829996,0.26445641600003,,,2023-12-13_11h15.12.221,
,,9,1,['9'],0.23606720799580216,4,1,test,15,309.29294229199877,309.89524391699524,310.89935900000273,1.6098655829991912,311.2624343329953,312.26419333300146,0.3037512080045417,,,2023-12-13_11h15.12.221,
,,9,1,['9'],0.23385833299835213,4,1,test,4,312.725270541996,313.32758970800205,314.33159849999356,1.611003833997529,314.7136152500025,315.7153773329919,0.28746858300291933,,,2023-12-13_11h15.12.221,
,,9,1,['9'],0.0042477490060264245,4,1,test,1,316.17595520800387,316.77803966699867,317.78224866700475,1.611630832994706,317.9823725000024,318.98416675000044,0.2488601669901982,,,2023-12-13_11h15.12.221,
,,8,1,"['5', '6', '7', '8']",0.2125522499991348,5,2,test,8,319.35857012499764,319.9609140829998,320.9649449169956,1.6112669590074802,321.3035930000042,322.30533541699697,0.260745790990768,,,2023-12-13_11h15.12.221,
,,8,0,['9'],0.22880574999726377,5,1,test,17,322.71727187499346,323.31951354199555,324.32371850000345,1.6109094169951277,324.67167700000573,325.6735358750011,0.4053104580088984,,,2023-12-13_11h15.12.221,
,,8,0,['9'],0.28845037399150897,5,1,test,11,326.1989964999957,326.80107137499726,327.80516441700456,1.6102988329948857,328.22214437500224,329.2240330420027,0.3169815000001108,,,2023-12-13_11h15.12.221,
,,9,0,"['5', '6', '7', '8']",0.09592662499926519,5,2,test,5,329.6672957499977,330.26966799999354,331.2736938330054,1.610972499998752,331.5376527079934,332.53942225000355,0.2648997490032343,,,2023-12-13_11h15.12.221,
,,9,0,"['5', '6', '7', '8']",0.07015033299103379,5,2,test,14,332.9641915419925,333.5663528330042,334.57048387499526,1.6106816250103293,334.77689958299743,335.778655083006,0.29358887499256525,,,2023-12-13_11h15.12.221,
,,9,1,['9'],0.21153854099975433,4,1,test,5,336.2370907500008,336.83919091700227,337.8432152500027,1.6103114169964101,338.1745542080025,339.1765575000027,0.28450429100485053,,,2023-12-13_11h15.12.221,
,,9,0,"['5', '6', '7', '8']",0.23728483299782965,4,2,test,13,339.61862733299495,340.22139108300325,341.22548879199894,1.6115886670013424,341.6254657919926,342.6272570000001,0.3001035409979522,,,2023-12-13_11h15.12.221,
,,9,1,['9'],0.16143537499010563,4,1,test,15,343.05485800000315,343.6572445000056,344.6613954170025,1.610328374998062,344.95653004199266,345.95846949999395,0.30665375001262873,,,2023-12-13_11h15.12.221,
,,9,0,"['5', '6', '7', '8']",0.15061637500184588,4,2,test,15,346.46567079199303,347.0681209579925,348.07718216700596,1.6162557089992333,348.33452400000533,349.3364750829933,0.25235487399913836,,,2023-12-13_11h15.12.221,
,,9,0,"['5', '6', '7', '8']",0.140784708011779,4,2,test,10,349.70654549999745,350.30898216700007,351.3131007500051,1.6121274170000106,351.5897586670035,352.5915643329936,0.3009226669964846,,,2023-12-13_11h15.12.221,
,,9,1,['9'],0.2211040830006823,3,1,test,3,353.0256289579993,353.62771245799377,354.6318692079949,1.6108135000104085,354.97785770799965,355.979807124997,0.2304863750032382,,,2023-12-13_11h15.12.221,
,,9,1,['9'],0.20100470799661707,3,1,test,11,356.3256819579983,356.92784999999276,357.93205925000075,1.6110355419950793,358.25265787499666,359.25443200000154,0.24425679200794548,,,2023-12-13_11h15.12.221,
,,9,1,['9'],0.18351158300356474,3,1,test,9,359.6208980829979,360.22333120800613,361.2274500000058,1.610299624997424,361.55522891700093,362.5570100000041,0.30847941599495243,,,2023-12-13_11h15.12.221,
,,9,1,['9'],0.16933104199415538,3,1,test,19,362.99825925000187,363.60053429199615,364.60468575000414,1.6105199999874458,364.9007615830051,365.9026506670052,0.20569858299859334,,,2023-12-13_11h15.12.221,
,,9,1,['9'],0.18631091600400396,3,1,test,4,366.23683949999395,366.8389169580041,367.842908666993,1.610665665997658,368.1554386249918,369.15716400000383,0.26430804100527894,,,2023-12-13_11h15.12.221,
,,8,1,"['5', '6', '7', '8']",0.6943236669903854,4,2,test,7,369.5433963329997,370.14573170800577,371.1498352500057,1.6105552910012193,372.00162841699785,373.0034129169944,0.2842582909943303,,,2023-12-13_11h15.12.221,
,,8,1,"['5', '6', '7', '8']",0.25725608300126623,4,2,test,7,373.43760775000555,374.0398847920005,375.0440457079967,1.6108322079962818,375.4166829580063,376.4184459169919,0.3342961249873042,,,2023-12-13_11h15.12.221,
,,8,1,"['5', '6', '7', '8']",0.22590233299706597,4,2,test,9,376.889686333001,377.4920726669952,378.4962696250004,1.6109966249932768,378.8512335419946,379.85307266699965,0.32883291599864606,,,2023-12-13_11h15.12.221,
,,9,1,['9'],0.05016054199950304,4,1,test,18,380.3367195419996,380.9388656670053,381.9430416249961,1.6106450829975074,382.1322889580042,383.1340736669954,0.23388095801055897,,,2023-12-13_11h15.12.221,
,,9,1,['9'],0.06283220800105482,4,1,test,2,383.51956800000335,384.1216409579938,385.125613917,1.611185583009501,385.33314879199315,386.3349066249939,0.1639493740076432,,,2023-12-13_11h15.12.221,
,,8,0,['9'],0.04699333300231956,5,1,test,16,386.66174008300004,387.26397716699285,388.26831091700296,1.6108634160045767,388.4697436669958,389.4715849579952,0.3644742079923162,,,2023-12-13_11h15.12.221,
,,9,1,['9'],0.4155235409998568,5,1,test,16,389.98125425000035,390.58367599999474,391.5877898750041,1.611316959009855,392.11192337499233,393.1137260419928,0.23327295800845604,,,2023-12-13_11h15.12.221,
,,9,0,"['5', '6', '7', '8']",0.1349060000065947,5,2,test,3,393.48554904200137,394.0875827080017,395.0916719579982,1.6100607920088805,395.375809249992,396.37754758300434,0.2605002079944825,,,2023-12-13_11h15.12.221,
,,9,1,['9'],0.07213958298962098,5,1,test,1,396.76520554200397,397.36734362499556,398.3713007920014,1.6096766669943463,398.593367124995,399.59534091700334,0.2950805830041645,,,2023-12-13_11h15.12.221,
,,9,0,"['5', '6', '7', '8']",0.21527854200394358,5,2,test,14,400.03521416700096,400.63773329199466,401.64219545800006,1.6115982089977479,401.99496066699794,402.99677304200304,0.20816504099639133,,,2023-12-13_11h15.12.221,
,,8,1,"['5', '6', '7', '8']",1.423791875000461,4,2,test,1,403.35191154200584,403.95435741699475,404.95889641699614,1.6112477919959929,406.53044545800367,407.53228462500556,0.348623249999946,,,2023-12-13_11h15.12.221,
,,9,1,['9'],0.18260374999954365,4,1,test,14,408.0268573749927,408.6289858329983,409.632980082999,1.6111359170026844,409.96573174999503,410.9675398749969,0.21565124900371302,,,2023-12-13_11h15.12.221,
,,9,1,['9'],0.13844537500699516,4,1,test,16,411.3257939579926,411.927913624997,412.9321710420045,1.6104799169988837,413.2067506250023,414.20851470799244,0.3425773740018485,,,2023-12-13_11h15.12.221,
,,9,1,['9'],0.025745833001565188,4,1,test,2,414.7238448749995,415.3259907920001,416.33005891699577,1.6102575410041027,416.4957414579985,417.49769950000336,0.3212707920029061,,,2023-12-13_11h15.12.221,
,,8,1,"['5', '6', '7', '8']",0.21311999901081435,4,2,test,16,417.95931858300173,418.5614499999938,419.5656038750021,1.6107699160056654,419.91413175000343,420.9159656249976,0.3623139160044957,,,2023-12-13_11h15.12.221,
,,8,1,"['5', '6', '7', '8']",0.2543822919978993,5,2,test,17,421.4185641249933,422.021138666998,423.0253575829993,1.610507207995397,423.3921311669983,424.3941060829966,0.24287062500661705,,,2023-12-13_11h15.12.221,
,,9,1,['9'],0.22543816598772537,5,1,test,12,424.7767384579929,425.37881945799745,426.3833394579997,1.6104689170024358,426.75263554199773,427.75443479200476,0.27984312499756925,,,2023-12-13_11h15.12.221,
,,8,0,['9'],0.22748541600594763,5,1,test,5,428.18515958299395,428.7872904169926,429.79143720799766,1.6104742089955835,430.1541301669931,431.15584912500344,0.04647895800007973,,,2023-12-13_11h15.12.221,
,,8,1,"['5', '6', '7', '8']",0.2211738750047516,5,2,test,13,431.34940004200325,431.9515680420009,432.95583491699654,1.6108653749979567,433.30507058299554,434.30678612500196,0.26852837500337046,,,2023-12-13_11h15.12.221,
,,9,1,['9'],0.1863543329964159,5,1,test,17,434.6984225829947,435.30057066699374,436.30467962499824,1.61063154200383,436.62572654199903,437.6275042500056,0.07701525000447873,,,2023-12-13_11h15.12.221,
,,8,1,"['5', '6', '7', '8']",0.18737254099687561,5,2,test,14,437.8481832079997,438.4505234579992,439.4545508750016,1.6094266659929417,439.74994866699853,440.75175054199644,0.32777237400296144,,,2023-12-13_11h15.12.221,
,,8,0,['9'],0.2364563330047531,5,1,test,7,441.2223585419997,441.82448383299925,442.82855383299466,1.6103231250017416,443.17187462499714,444.1736930420011,0.2809995409916155,,,2023-12-13_11h15.12.221,
,,8,1,"['5', '6', '7', '8']",0.12152491600136273,4,2,test,10,444.58264729200164,445.18481233299826,446.1895342920034,1.610411125002429,446.4347667499969,447.4365022080019,0.37312029099848587,,,2023-12-13_11h15.12.221,
,,8,1,"['5', '6', '7', '8']",0.17020662401046138,4,2,test,9,447.9177792499977,448.51995116699254,449.5240106669953,1.6098407080135075,449.8057315000042,450.80750891700154,0.25917195799411274,,,2023-12-13_11h15.12.221,
,,9,1,['9'],0.27170741600275505,4,1,test,5,451.1869349579938,451.78939725000237,452.79353766699205,1.6102534590027062,453.19166512499214,454.19345820799936,0.25219795800512657,,,2023-12-13_11h15.12.221,
,,9,0,"['5', '6', '7', '8']",0.8642990829976043,4,2,test,2,454.5996092919959,455.20180037499813,456.2058578330034,1.6106008329952601,457.1739181669982,458.1756757080002,0.43904683299479075,,,2023-12-13_11h15.12.221,
,,8,1,"['5', '6', '7', '8']",0.27662945799238514,4,2,test,6,458.71470012499776,459.31741395799327,460.32181624999794,1.6114746249950258,460.693867916998,461.6957233330031,0.2651067080005305,,,2023-12-13_11h15.12.221,
,,9,0,"['5', '6', '7', '8']",0.352372875000583,5,2,test,9,462.1202672079962,462.72239954199176,463.7268530000001,1.6104509579890873,464.17231866699876,465.174108332998,0.26558070800092537,,,2023-12-13_11h15.12.221,
,,8,1,"['5', '6', '7', '8']",0.17313412399380468,5,2,test,17,465.57184337500075,466.1740958750015,467.17823445799877,1.6106279170053313,467.48691504199815,468.48866237500624,0.2860240410082042,,,2023-12-13_11h15.12.221,
,,9,0,"['5', '6', '7', '8']",0.1873526249983115,5,2,test,1,468.9067157919926,469.50886112499575,470.5134545000037,1.6108434999914607,470.82090520800557,471.8226859580027,0.2121670409978833,,,2023-12-13_11h15.12.221,
,,8,1,"['5', '6', '7', '8']",0.18503812499693595,5,2,test,17,472.1579885419924,472.76014970800315,473.7642690829962,1.61078204200021,474.06547404199955,475.0674700420059,0.20245937501022127,,,2023-12-13_11h15.12.221,
,,8,1,"['5', '6', '7', '8']",0.19193095799710136,5,2,test,16,475.40734841699305,476.0095590830024,477.0136293749965,1.6110899999912363,477.3485314999998,478.3502651250019,0.2486994990031235,,,2023-12-13_11h15.12.221,
,,8,1,"['5', '6', '7', '8']",0.1420368750113994,4,2,test,3,478.73198716700426,479.3343339999992,480.33886654200614,1.6111681659967871,480.6242675829999,481.6260923749942,0.2829244160093367,,,2023-12-13_11h15.12.221,
,,8,1,"['5', '6', '7', '8']",0.2441613329865504,4,2,test,7,482.0144004169997,482.6168912919966,483.62129995800206,1.6106213340099202,484.01520295800583,485.01693045800494,0.3390654579998227,,,2023-12-13_11h15.12.221,
,,9,1,['9'],0.41292629099916667,4,1,test,10,485.4982113330043,486.1006666250032,487.10475762499846,1.6110559590015328,487.625095957992,488.6269069580012,0.014196375006577,,,2023-12-13_11h15.12.221,
,,8,1,"['5', '6', '7', '8']",0.17634399999224115,4,2,test,16,488.8130518329999,489.41508954200253,490.41950795799494,1.6107320000010077,490.69900554200285,491.70095429199864,0.07899404100317042,,,2023-12-13_11h15.12.221,
,,9,0,"['5', '6', '7', '8']",0.5373892500065267,4,2,test,2,491.9215824999992,492.5267926249944,493.5311962499982,1.6144364580104593,494.19930487500096,495.2013036249991,0.20183670800179243,,,2023-12-13_11h15.12.221,
,,9,0,"['5', '6', '7', '8']",0.16616008299752139,5,2,test,7,495.5326611670025,496.13501329200517,497.139441124993,1.613669917001971,497.42098774999613,498.4229277919949,0.2389499160053674,,,2023-12-13_11h15.12.221,
,,8,0,['9'],0.0032022079976741225,5,1,test,15,498.78578191700217,499.3881689580012,500.39379558300425,1.6119261249987176,500.5229168749938,501.5271820420021,0.21396624900808092,,,2023-12-13_11h15.12.221,
,,8,0,['9'],0.11301099999400321,5,1,test,4,501.87013762499555,502.47239724999235,503.4778399999923,1.6129695830022683,503.6911417920055,504.6930327919981,0.2243030420067953,,,2023-12-13_11h15.12.221,
,,9,1,['9'],0.05710129100771155,5,1,test,9,505.0415054579935,505.6436967920017,506.64782708299754,1.6109546670049895,506.80012812500354,507.8020264999941,0.20816129101149272,,,2023-12-13_11h15.12.221,
,,9,1,['9'],0.02087162499083206,5,1,test,14,508.1205329999939,508.7225925829989,509.7268965830008,1.6108795839973027,509.8860356249934,510.88784454199777,0.20153449999634176,,,2023-12-13_11h15.12.221,
,,8,1,"['5', '6', '7', '8']",0.17247775000578258,4,2,test,14,511.22320249999757,511.8263151669962,512.8303864579939,1.6113768750074087,513.1185324169928,514.1202899170021,0.2511170000070706,,,2023-12-13_11h15.12.221,
,,9,1,['9'],0.1923388739960501,4,1,test,14,514.483053582997,515.0851313750027,516.0895912499982,1.610626042005606,516.4066307500034,517.4084049579978,0.14341558300657198,,,2023-12-13_11h15.12.221,
,,8,1,"['5', '6', '7', '8']",0.23014866599987727,4,2,test,9,517.6964282919944,518.2985633749922,519.3027800830023,1.610580458000186,519.6577894170041,520.659516832995,0.2549172080034623,,,2023-12-13_11h15.12.221,
,,9,1,['9'],0.23424912500195205,4,1,test,7,521.0434571670048,521.6455941669992,522.6496689170017,1.6105494579969672,522.994947500003,523.9969534580014,0.21450795799319167,,,2023-12-13_11h15.12.221,
,,9,1,['9'],0.27638249899609946,4,1,test,1,524.3449828750017,524.9474145830027,525.9517904999957,1.6144751250103582,526.3281260420044,527.3299337920034,0.2987676670018118,,,2023-12-13_11h15.12.221,
,,8,1,"['5', '6', '7', '8']",0.16229629200825002,5,2,test,15,527.7861182920024,528.3881854170031,529.3927185420034,1.6103778749966295,529.6798886250035,530.6816689999978,0.15985554100188892,,,2023-12-13_11h15.12.221,
,,8,1,"['5', '6', '7', '8']",0.2578200829884736,5,2,test,9,530.9829116670007,531.585244707996,532.5893011669978,1.6100538750033593,532.9812715000007,533.9832547499973,0.061164875005488284,,,2023-12-13_11h15.12.221,
,,8,1,"['5', '6', '7', '8']",0.2608750829967903,5,2,test,5,534.1910116249928,534.7931673330022,535.7973774580023,1.6101528340077493,536.1813960830041,537.1833391249966,0.24811095799668692,,,2023-12-13_11h15.12.221,
,,8,1,"['5', '6', '7', '8']",0.11709495799732395,5,2,test,6,537.5513723329932,538.1535549999971,539.1590327080048,1.6117499999963911,539.3903665830003,540.3922120420029,0.248548125004163,,,2023-12-13_11h15.12.221,
,,8,0,['9'],0.44053383299615234,5,1,test,17,540.7652914999926,541.3674795419938,542.3716589579999,1.6102326670079492,542.8981516670028,543.9000318329927,0.06982645799871534,,,2023-12-13_11h15.12.221,
,,8,1,"['5', '6', '7', '8']",0.4079410830017878,5,2,test,15,544.1096427500015,544.7119081249984,545.7164163330017,1.611048666993156,546.2082283329946,547.2100325420033,0.2366587080032332,,,2023-12-13_11h15.12.221,
,,8,0,['9'],0.2579862919956213,5,1,test,14,547.5759633330017,548.1781785420026,549.1823235829943,1.609795958007453,549.5715097920038,550.5733264580049,0.22550300000875723,,,2023-12-13_11h15.12.221,
,,8,1,"['5', '6', '7', '8']",0.22093020800093655,4,2,test,13,550.9162927080033,551.5185129169986,552.5225602919963,1.6100479590095347,552.856763792006,553.8587337920035,0.4172426250006538,,,2023-12-13_11h15.12.221,
,,9,1,['9'],0.02973045800172258,4,1,test,12,554.4026220829983,555.0048503330036,556.009651291999,1.6111741249915212,556.2283584169927,557.2300948750053,0.3948926669982029,,,2023-12-13_11h15.12.221,
,,9,1,['9'],0.18220754100184422,4,1,test,16,557.7528913330025,558.3548523749923,559.3642147079954,1.6156898340123007,559.7027582500014,560.704470208002,0.26049212500220165,,,2023-12-13_11h15.12.221,
,,8,1,"['5', '6', '7', '8']",0.1024282490106998,4,2,test,9,561.0991577919922,561.70158275,562.7060618749965,1.6113032499997644,562.9474394169956,563.9494204999937,0.4394020420004381,,,2023-12-13_11h15.12.221,
,,9,1,['9'],0.10959383299632464,4,1,test,7,564.5202614580048,565.122518499993,566.1270741250046,1.6114782090007793,566.4501560000062,567.4519547920063,0.2862371250084834,,,2023-12-13_11h15.12.221,
,,9,0,"['5', '6', '7', '8']",0.11913583299610764,5,2,test,9,567.8444369579956,568.4466004580026,569.4505487080023,1.609909750011866,569.7031289580045,570.704870667003,0.2184390420006821,,,2023-12-13_11h15.12.221,
,,9,1,['9'],0.05096845800289884,5,1,test,7,571.049550124997,571.6519462080032,572.656562832999,1.6107646659947932,572.8539516250021,573.8558249170019,0.21748404200479854,,,2023-12-13_11h15.12.221,
,,9,0,"['5', '6', '7', '8']",0.22344295799848624,5,2,test,14,574.1856282499939,574.7877822919982,575.796168832996,1.6144421250064624,576.125901708001,577.1278783330054,0.14506533299572766,,,2023-12-13_11h15.12.221,
,,8,1,"['5', '6', '7', '8']",0.25186995799595024,5,2,test,12,577.4134620830009,578.0156795829971,579.0197765000048,1.6100167080003303,579.3922048749955,580.394139541997,0.19579145799798425,,,2023-12-13_11h15.12.221,
,,8,0,['9'],0.21331516600912437,5,1,test,14,580.7276634580048,581.3299272500008,582.3344828749978,1.610689833003562,582.6667355829995,583.6685201670043,0.14073133299825713,,,2023-12-13_11h15.12.221,
,,9,1,['9'],0.4079305409977678,4,1,test,17,583.9577493329998,584.5602009169961,585.5659147499973,1.612004207985592,586.0644663330022,587.0662769170012,0.18685087499034125,,,2023-12-13_11h15.12.221,
,,9,1,['9'],0.2364704579958925,4,1,test,9,587.3990777080035,588.0011951250053,589.0053396669973,1.6104013750009472,589.3465624579985,590.3483376249933,0.05589366600906942,,,2023-12-13_11h15.12.221,
,,9,1,['9'],0.19766487399465404,4,1,test,17,590.5399200829997,591.1420954579953,592.1462223330018,1.6102717080066213,592.472491374996,593.4743476250005,0.2318446249992121,,,2023-12-13_11h15.12.221,
,,8,1,"['5', '6', '7', '8']",0.20672604099672753,4,2,test,13,593.8107353329979,594.4130318749958,595.4172765419935,1.6113207919988781,595.7489832919964,596.7507850419934,0.42189620800490957,,,2023-12-13_11h15.12.221,
,,8,1,"['5', '6', '7', '8']",0.19169725000392646,4,2,test,10,597.2840314170026,597.8861504170054,598.8902337920008,1.6110866669914685,599.2067265829974,600.2085110000044,0.22901083300530445,,,2023-12-13_11h15.12.221,
,,8,1,"['5', '6', '7', '8']",0.09368624900525901,5,2,test,15,600.5710424580029,601.1730827919964,602.1772222500003,1.6099629999953322,602.3655919580051,603.3673849170009,0.26064812400727533,,,2023-12-13_11h15.12.221,
,,9,1,['9'],0.18541400000685826,5,1,test,11,603.7379229579965,604.3400547920028,605.3447326669993,1.6106229170109145,605.669850833001,606.6720312919933,0.19731829200463835,,,2023-12-13_11h15.12.221,
,,9,1,['9'],0.29338187399844173,5,1,test,5,607.0104902919993,607.6126842920057,608.6167208330007,1.6104348750086501,609.0852959579934,610.0870632500009,0.21039637499779928,,,2023-12-13_11h15.12.221,
,,9,1,['9'],0.20392845800961368,5,1,test,7,610.4458975419984,611.0479842079949,612.0521198329952,1.609917541994946,612.3633380829997,613.3650879170018,0.21575433301040903,,,2023-12-13_11h15.12.221,
,,9,0,"['5', '6', '7', '8']",0.09678504199837334,5,2,test,17,613.698253583003,614.300396791994,615.304294667003,1.609918000001926,615.5320004999958,616.5337257079955,0.1350462079863064,,,2023-12-13_11h15.12.221,
,,8,1,"['5', '6', '7', '8']",0.03875233299913816,5,2,test,8,616.8039766250004,617.4061712080002,618.4104174999957,1.6101252920052502,618.6162464579975,619.6179425000009,0.0077533330040751025,,,2023-12-13_11h15.12.221,
,,8,1,"['5', '6', '7', '8']",0.2483437920018332,5,2,test,18,619.769631749994,620.3718704999919,621.3758651669923,1.6095141249970766,621.7198090830061,622.7217254999996,0.10985754200373776,,,2023-12-13_11h15.12.221,
,,8,0,['9'],0.20345112500945106,5,1,test,8,622.9785457919934,623.5806665830023,624.5848270419956,1.6104805840004701,624.9129604170012,625.9149096250039,0.1715994579863036,,,2023-12-13_11h15.12.221,
,,8,1,"['5', '6', '7', '8']",0.10482570799649693,4,2,test,15,626.2233564170019,626.8256267499964,627.8296255419991,1.610191042011138,628.0594031670043,629.0611322079931,0.23087499999383,,,2023-12-13_11h15.12.221,
,,9,1,['9'],0.14796462400408927,4,1,test,5,629.4328264579963,630.0351840829971,631.0394124580052,1.6100181249930756,631.2842311249988,632.2860167500039,0.12282608299574349,,,2023-12-13_11h15.12.221,
,,8,1,"['5', '6', '7', '8']",0.02981858300336171,4,2,test,17,632.5962574169971,633.1983684169973,634.2024778329942,1.6099958749982761,634.3588936250017,635.360637167003,0.28767925000283867,,,2023-12-13_11h15.12.221,
,,9,1,['9'],0.13530850000097416,4,1,test,11,635.7669585419935,636.3691307499976,637.3732420830056,1.6135899999935646,637.603603333002,638.6053434999922,0.04576500000257511,,,2023-12-13_11h15.12.221,
,,9,1,['9'],0.13557833300728817,4,1,test,14,638.7711561670003,639.373278250001,640.3780844580033,1.6105717080063187,640.6238865829946,641.625687666994,0.22915329098759685,,,2023-12-13_11h15.12.221,
,,8,0,['9'],0.016370707991882227,5,1,test,14,641.9634224170004,642.5656538329931,643.5701039169944,1.610394167000777,643.7004499579925,644.702455666993,0.04143583300174214,,,2023-12-13_11h15.12.221,
,,9,0,"['5', '6', '7', '8']",0.7958073329937179,5,2,test,18,644.8659841250046,645.4685120420036,646.4727024169988,1.6109447080089012,647.4244758749992,648.4262242080003,0.22589408299245406,,,2023-12-13_11h15.12.221,
,,8,1,"['5', '6', '7', '8']",0.1660396240040427,5,2,test,3,648.7573336250061,649.3594648330036,650.3639479999983,1.6103045829950133,650.6277237500035,651.6298841249954,0.0539649160054978,,,2023-12-13_11h15.12.221,
,,8,1,"['5', '6', '7', '8']",0.19240508299844805,5,2,test,12,651.8317497079988,652.4338935830019,653.4383159580029,1.6104442920041038,653.7495375419967,654.7512873329979,0.19695625000167638,,,2023-12-13_11h15.12.221,
,,8,0,['9'],0.2142886660003569,5,1,test,6,655.0880212500051,655.6901367919927,656.694365916992,1.610420625002007,657.0445297499973,658.0462968749925,0.10586787499778438,,,2023-12-13_11h15.12.221,
,,8,0,['9'],0.2410400000080699,4,1,test,15,658.3034314999968,658.9055033329932,659.9099193750008,1.6101357500010636,660.2704290419933,661.2720989999943,0.08808054198743775,,,2023-12-13_11h15.12.221,
,,8,1,"['5', '6', '7', '8']",0.13688716599426698,4,2,test,2,661.5185250420036,662.1206507500028,663.1247895419947,1.6099147499917308,663.3566705419944,664.3584054999956,0.08302841600379907,,,2023-12-13_11h15.12.221,
,,8,1,"['5', '6', '7', '8']",0.08033412499935366,4,2,test,1,664.5856166669982,665.1877738329931,666.1924548749957,1.6105869579914724,666.3779905830015,667.3798224170023,0.16075933299725875,,,2023-12-13_11h15.12.221,
,,9,1,['9'],0.08506720799778122,4,1,test,7,667.6656023749965,668.267720667005,669.2717003750004,1.609766416993807,669.4687312500027,670.4705080419953,0.24688099899503868,,,2023-12-13_11h15.12.221,
,,8,1,"['5', '6', '7', '8']",0.01276808300463017,4,2,test,16,670.8278621670033,671.4299812079989,672.4340066669974,1.610067124987836,672.5597285830008,673.5614629170013,0.20714158299961127,,,2023-12-13_11h15.12.221,
,,8,1,"['5', '6', '7', '8']",0.06677258299896494,5,2,test,7,673.9079557499936,674.5101715420024,675.5142240419955,1.6101201249985024,675.6996194999956,676.7014194999938,0.029015791005804203,,,2023-12-13_11h15.12.221,
,,8,1,"['5', '6', '7', '8']",1.058114832994761,5,2,test,16,676.8414096670022,677.4437333749956,678.4478198330035,1.6096398340014275,679.6098605830048,680.6117408749997,0.3224539999937406,,,2023-12-13_11h15.12.221,
,,9,1,['9'],0.2187918750132667,5,1,test,9,681.0409963749989,681.6431382500014,682.6472143749997,1.6101489159918856,682.9825620829943,683.9842894169997,0.24921783301397227,,,2023-12-13_11h15.12.221,
,,8,1,"['5', '6', '7', '8']",0.045337249990552664,5,2,test,12,684.3438850829989,684.9461435830017,685.9507900000026,1.6105180000013206,686.1080567919998,687.1098684169992,0.33588508299726527,,,2023-12-13_11h15.12.221,
,,9,0,"['5', '6', '7', '8']",0.12370299900067039,5,2,test,7,687.5740863329993,688.1762072919955,689.1803151670028,1.6100092499982566,689.4080985829933,690.4098119169939,0.1746780410030624,,,2023-12-13_11h15.12.221,
,,8,1,"['5', '6', '7', '8']",0.12122666600043885,5,2,test,12,690.7258117080055,691.328261542003,692.3328436669981,1.6106748750025872,692.5542119169986,693.5559551670012,0.5108542079979088,,,2023-12-13_11h15.12.221,
,,9,0,"['5', '6', '7', '8']",0.004015500002424233,5,2,test,2,694.1852739580063,694.787538250006,695.792027250005,1.6106663749960717,695.905105458005,696.9068672499998,0.2691477079933975,,,2023-12-13_11h15.12.221,
,,9,1,['9'],0.09845333300472703,4,1,test,5,697.2896909999981,697.8917025419942,698.895651208004,1.6093985829938902,699.1260165419953,700.1277658750041,0.2499614160042256,,,2023-12-13_11h15.12.221,
,,9,1,['9'],0.4362276239990024,4,1,test,1,700.4799534579943,701.0821069170051,702.0861563329963,1.6097075840079924,702.6004695830052,703.6022544169973,0.208553958000266,,,2023-12-13_11h15.12.221,
,,9,1,['9'],0.24516016700363252,4,1,test,5,703.9302215829957,704.5323520420061,705.537094750005,1.6107219159894157,705.915274250001,706.9170561249921,0.2637600830057636,,,2023-12-13_11h15.12.221,
,,8,1,"['5', '6', '7', '8']",0.08967104098701384,4,2,test,12,707.3215634579974,707.923748250003,708.9276735000021,1.6101662919973023,709.1439742920047,710.1457464999985,0.2803290829906473,,,2023-12-13_11h15.12.221,
,,9,1,['9'],0.15784029100905173,4,1,test,12,710.5473400829942,711.1495829170017,712.1536136670038,1.6102226249931846,712.4652387079987,713.467162083005,0.21266037499299273,,,2023-12-13_11h15.12.221,
,,8,0,['9'],0.23671191600442398,5,1,test,4,713.789652958003,714.3917589170014,715.395800541999,1.6102896249940386,715.7722018749919,716.7739810420026,0.22213558299699798,,,2023-12-13_11h15.12.221,
,,8,0,['9'],0.19866699900012463,5,1,test,15,717.1253953749983,717.729485792006,718.7336902919924,1.613041249991511,719.081070375003,720.0830157080054,0.23673908300406765,,,2023-12-13_11h15.12.221,
