thisRow.t,notes,response,correct,correct_response,response_time,difficulty,category,phase,stimulus_ID,stim presentation time,delay presentation time,AB presentation time,debugging_time,feedback presentation time,ITI presentation time,ITI response time,participant,session,date,
,,6,0,['9'],0.30411120799544733,1,1,train,,,,,,,,,,,2023-12-14_10h58.35.284,
,,9,1,['9'],0.23633308299758937,1,1,train,,,,,,,,,,,2023-12-14_10h58.35.284,
,,9,1,['9'],0.2367618330026744,1,1,train,,,,,,,,,,,2023-12-14_10h58.35.284,
,,6,1,"['5', '6', '7', '8']",0.29332695799530484,2,2,train,,,,,,,,,,,2023-12-14_10h58.35.284,
,,9,1,['9'],0.22171087400056422,2,1,train,,,,,,,,,,,2023-12-14_10h58.35.284,
,,6,1,"['5', '6', '7', '8']",0.25834100000793114,1,2,train,,,,,,,,,,,2023-12-14_10h58.35.284,
,,6,1,"['5', '6', '7', '8']",0.2492058320058277,2,2,train,,,,,,,,,,,2023-12-14_10h58.35.284,
,,6,1,"['5', '6', '7', '8']",0.25481641599617433,1,2,train,,,,,,,,,,,2023-12-14_10h58.35.284,
,,9,1,['9'],0.21986854099668562,2,1,train,,,,,,,,,,,2023-12-14_10h58.35.284,
,,6,1,"['5', '6', '7', '8']",0.35897087400371674,1,2,train,,,,,,,,,,,2023-12-14_10h58.35.284,
,,6,1,"['5', '6', '7', '8']",0.008418957004323602,1,2,test,1,0.005970915997750126,0.6084882079885574,1.612630415998865,1.6126167079928564,1.736183582994272,2.737979957993957,0.03070266600116156,,,2023-12-14_10h58.35.284,
,,6,1,"['5', '6', '7', '8']",0.134690541002783,1,2,test,1,2.8890826659917366,3.4912044999946374,4.495408999995561,1.6101564170094207,4.7189409579877974,5.720751499990001,0.17094416600593831,,,2023-12-14_10h58.35.284,
,,9,1,['9'],0.11848283300059848,1,1,test,15,5.996139124996262,6.598333832997014,7.6024915000016335,1.610406875013723,7.84401641599834,8.845769832987571,0.30191187500895467,,,2023-12-14_10h58.35.284,
,,9,1,['9'],0.10081704099138733,1,1,test,18,9.251884915996925,9.854242332992726,10.85841358298785,1.6101585830037948,11.068262957996922,12.070070457994007,0.066917916003149,,,2023-12-14_10h58.35.284,
,,6,1,"['5', '6', '7', '8']",0.07532954101043288,1,2,test,15,12.261482999994769,12.863642374999472,13.867776332990616,1.6095797499874607,14.019107249987428,15.020895041001495,0.37610945699270815,,,2023-12-14_10h58.35.284,
,,9,1,['9'],0.13399729099182878,2,1,test,15,15.494829457995365,16.09699329099385,17.101226374987164,1.6110141670069424,17.336467540997546,18.33826241600036,0.09357999899657443,,,2023-12-14_10h58.35.284,
,,6,1,"['5', '6', '7', '8']",0.07746737399429549,2,2,test,13,18.524469874988426,19.12666108299163,20.131079832994146,1.6108055410004454,20.30977670798893,21.31159029099217,0.41633183299563825,,,2023-12-14_10h58.35.284,
,,9,1,['9'],0.030813124001724645,2,1,test,6,21.827892332992633,22.430461124997237,23.434507665995625,1.6112104580097366,23.575164875001065,24.57695291598793,0.2610037489939714,,,2023-12-14_10h58.35.284,
,,6,1,"['5', '6', '7', '8']",0.09082591600599699,2,2,test,5,24.952757457998814,25.555253749989788,26.559583915994153,1.6122546249971492,26.730939916000352,27.73273762498866,0.1509613740054192,,,2023-12-14_10h58.35.284,
,,9,1,['9'],0.11013299899059348,2,1,test,3,27.993587249991833,28.595769082996412,29.600091957996483,1.610688916000072,29.811009582990664,30.81282520799141,0.06427987400093116,,,2023-12-14_10h58.35.284,
,,6,1,"['5', '6', '7', '8']",0.04847154099843465,3,2,test,15,30.98770599999989,31.589733249988058,32.5938391249947,1.610257125008502,32.731282957989606,33.73309275000065,0.35985558200627565,,,2023-12-14_10h58.35.284,
,,6,1,"['5', '6', '7', '8']",0.035097707994282246,3,2,test,13,34.1938580829883,34.796003582989215,35.800255040987395,1.610783166004694,35.937563499988755,36.93934774999798,0.2707980410050368,,,2023-12-14_10h58.35.284,
,,9,1,['9'],0.060585457002162,3,1,test,13,37.33339058299316,37.93541320798977,38.93993262499862,1.6104327499924693,39.09150154099916,40.0932536659966,0.2011910830042325,,,2023-12-14_10h58.35.284,
,,6,1,"['5', '6', '7', '8']",0.0749417490005726,3,2,test,3,40.40322433300025,41.00534274999518,42.009444249997614,1.6098998749948805,42.17413829099678,43.17609912499029,0.22818987400387414,,,2023-12-14_10h58.35.284,
,,6,1,"['5', '6', '7', '8']",0.07966208299330901,3,2,test,8,43.534487207987695,44.13669062498957,45.14082599998801,1.611067332996754,45.32164808300149,46.32353533299465,0.30545254099706654,,,2023-12-14_10h58.35.284,
,,9,0,"['5', '6', '7', '8']",0.15178124900558032,4,2,test,11,46.72638070800167,47.32866670799558,48.332742624988896,1.611157583000022,48.50472433299001,49.506507457990665,0.22696795700176153,,,2023-12-14_10h58.35.284,
,,9,1,['9'],0.11672379101219121,4,1,test,12,49.853583207994234,50.45570041600149,51.459822541000904,1.6111447080038488,51.68424279100145,52.68594858299184,0.14729629100474995,,,2023-12-14_10h58.35.284,
,,6,1,"['5', '6', '7', '8']",0.14131629100302234,4,2,test,9,52.93490379099967,53.53713087498909,54.54139354098879,1.610706791994744,54.78112116600096,55.78290595799626,0.26128662399423774,,,2023-12-14_10h58.35.284,
,,6,1,"['5', '6', '7', '8']",0.1721197070000926,4,2,test,2,56.152068040988524,56.75415216598776,57.75851958298881,1.6107956249907147,58.03357162499742,59.03533979099302,0.29872258300019894,,,2023-12-14_10h58.35.284,
,,6,0,['9'],0.05685637400893029,4,1,test,15,59.45032174998778,60.0527570409904,61.056809665999026,1.610895582998637,61.209376707993215,62.21116679099214,0.2574939159967471,,,2023-12-14_10h58.35.284,
,,9,1,['9'],0.0007018330070422962,3,1,test,10,62.59544995799661,63.19762495798932,64.20194862499193,1.6111446249997243,64.29724458299461,65.2990320409881,0.1115780830004951,,,2023-12-14_10h58.35.284,
,,6,1,"['5', '6', '7', '8']",0.10284845800197218,3,2,test,14,65.53487408299407,66.13698645799013,67.14105145799113,1.6102012920018751,67.33734962499875,68.33914687499055,0.042394541000248864,,,2023-12-14_10h58.35.284,
,,9,1,['9'],0.18092062399955466,3,1,test,4,68.50093779098825,69.10306812499766,70.10822824999923,1.611157291001291,70.39198633299384,71.39376358299342,0.39429520699195564,,,2023-12-14_10h58.35.284,
,,9,1,['9'],0.146497374997125,3,1,test,1,71.91001287499967,72.51212320799823,73.51626779099752,1.6103588749974733,73.77044454099087,74.77221345799626,0.012232499007950537,,,2023-12-14_10h58.35.284,
,,9,1,['9'],0.007966958000906743,3,1,test,8,74.87920620798832,75.48126287499326,76.48581437498797,1.6098775419959566,76.60534333299438,77.60744974999398,0.2561769580061082,,,2023-12-14_10h58.35.284,
,,9,1,['9'],0.08716237400949467,4,1,test,16,77.95964929099136,78.56211945800169,79.56668366599479,1.6116462079953635,79.7548055829975,80.75661570800003,0.2437934579938883,,,2023-12-14_10h58.35.284,
,,9,1,['9'],0.08812395700078923,4,1,test,7,81.1144896249898,81.71671224999591,82.72081662499113,1.6107515830080956,82.9175245410006,83.91926529099874,0.05640904100437183,,,2023-12-14_10h58.35.284,
,,6,1,"['5', '6', '7', '8']",0.004845749994274229,4,2,test,9,84.08651470798941,84.68873079099285,85.69309066599817,1.610919708997244,85.79657558299368,86.79837362498802,0.054196290991967544,,,2023-12-14_10h58.35.284,
,,9,1,['9'],0.09400483200442977,4,1,test,6,86.9397387499921,87.54190979099076,88.5459967909992,1.6097348339972086,88.75495808299456,89.75690174999181,0.05761374899884686,,,2023-12-14_10h58.35.284,
,,6,1,"['5', '6', '7', '8']",0.028673499007709324,4,2,test,4,89.92796499999531,90.53012270799081,91.53435666600126,1.611151457997039,91.65776920798817,92.65950129099656,0.23433216600096785,,,2023-12-14_10h58.35.284,
,,9,0,"['5', '6', '7', '8']",0.11711624899180606,5,2,test,15,93.03557895799167,93.6379025829956,94.64209899998968,1.6108885830035433,94.85283979099768,95.85457341599977,0.1300678749976214,,,2023-12-14_10h58.35.284,
,,6,0,['9'],0.04240325000137091,5,1,test,11,96.11403224999958,96.71635204099584,97.72076591599034,1.6145515410025837,97.85676354099996,98.85850962498807,0.2153607489890419,,,2023-12-14_10h58.35.284,
,,9,0,"['5', '6', '7', '8']",0.060555791002116166,5,2,test,17,99.20360974999494,99.80572362498788,100.81097041600151,1.6124963750044117,100.97876337499474,101.98054754099576,0.12599020698689856,,,2023-12-14_10h58.35.284,
,,6,1,"['5', '6', '7', '8']",0.07812199898762628,5,2,test,1,102.22771245799959,102.8297257499944,103.83423454099102,1.6108058339887066,104.0097192079993,105.01156737499696,0.31440304100397043,,,2023-12-14_10h58.35.284,
,,6,0,['9'],0.07650254099280573,5,1,test,15,105.4353655409941,106.03752558300039,107.04168229099014,1.6103197499905946,107.2306898329989,108.2325116659922,0.2473051239940105,,,2023-12-14_10h58.35.284,
,,9,1,['9'],0.020407625008374453,4,1,test,18,108.60638704099983,109.20855295799265,110.21319799999765,1.6107868330000201,110.34401795799204,111.34584741599974,0.22937416599597782,,,2023-12-14_10h58.35.284,
,,6,1,"['5', '6', '7', '8']",0.14565904100891203,4,2,test,2,111.69139324998832,112.29358766599034,113.29777166599524,1.610331749994657,113.55967033299385,114.5614519160008,0.08960970699263271,,,2023-12-14_10h58.35.284,
,,6,0,['9'],0.005014706999645568,4,1,test,16,114.75010741599544,115.35231787498924,116.3564749579964,1.610036707992549,116.48746029099857,117.48925970798882,0.1630064999917522,,,2023-12-14_10h58.35.284,
,,9,0,"['5', '6', '7', '8']",0.07909749999816995,4,2,test,13,117.76908012499916,118.37124445800146,119.37533424999856,1.6108927500026766,119.56042349999188,120.56216208299156,0.14167424899642356,,,2023-12-14_10h58.35.284,
,,6,1,"['5', '6', '7', '8']",0.01764862399431877,4,2,test,13,120.81420495799102,121.41634633298963,122.42072312498931,1.611104499999783,122.53288912499556,123.5347674999939,0.17843795800581574,,,2023-12-14_10h58.35.284,
,,9,1,['9'],0.17653224999958184,3,1,test,19,123.8445694999973,124.44691724999575,125.45106187499186,1.6104799999884563,125.74535208298767,126.74713854098809,0.18786558300780598,,,2023-12-14_10h58.35.284,
,,9,1,['9'],0.24594091600738466,3,1,test,11,127.04546179099998,127.64761729098973,128.65168712499144,1.6099489580083173,129.01710845799244,130.01884716599307,0.2611633740016259,,,2023-12-14_10h58.35.284,
,,9,1,['9'],0.16340099899389315,3,1,test,10,130.39088049999555,130.99305029099924,131.99713487499685,1.6104298749996815,132.34996145799232,133.35173912499158,0.28029683300701436,,,2023-12-14_10h58.35.284,
,,9,1,['9'],0.1347810000006575,3,1,test,6,133.7414505409979,134.3436403329979,135.3479559999978,1.6110715000104392,135.60873312498734,136.61050066599273,0.010575249005341902,,,2023-12-14_10h58.35.284,
,,6,1,"['5', '6', '7', '8']",0.1646630820032442,3,2,test,4,136.70942737499718,137.3116083329951,138.3159660409874,1.6102831669995794,138.60704629099928,139.6088190409937,0.19860504099051468,,,2023-12-14_10h58.35.284,
,,6,1,"['5', '6', '7', '8']",0.11330795800313354,4,2,test,15,139.96200541598955,140.56430129100045,141.568303166001,1.610555250008474,141.79978612498962,142.8015713749919,0.29552620800677687,,,2023-12-14_10h58.35.284,
,,6,1,"['5', '6', '7', '8']",0.12950879099662416,4,2,test,7,143.210916290991,143.81309491599677,144.8172185000003,1.6104949169966858,145.05976812499284,146.06153537498903,0.23000045800290536,,,2023-12-14_10h58.35.284,
,,6,1,"['5', '6', '7', '8']",0.06511829100782052,4,2,test,14,146.41332533299283,147.01538991599227,148.01957133298856,1.6107125830021687,148.19821916599176,149.2001817499986,0.14186008299293462,,,2023-12-14_10h58.35.284,
,,6,1,"['5', '6', '7', '8']",0.18283033299667295,4,2,test,8,149.4723478329979,150.07478154099954,151.07893158298975,1.6108696659939596,151.38663949999318,152.38843537498906,0.5019951659924118,,,2023-12-14_10h58.35.284,
,,6,1,"['5', '6', '7', '8']",0.035134791003656574,4,2,test,13,152.95160829099768,153.55366674999823,154.55781999998726,1.6107480829959968,154.7038921249914,155.70567712499178,0.05696458200691268,,,2023-12-14_10h58.35.284,
,,9,1,['9'],0.7977068749896716,5,1,test,10,155.90086045800126,156.50305149999622,157.5072579159896,1.610245208008564,158.45851487499021,159.46044779098884,0.11871341599908192,,,2023-12-14_10h58.35.284,
,,6,1,"['5', '6', '7', '8']",0.20822512499580625,5,2,test,6,159.72342241599108,160.32573237500037,161.32984420799767,1.6106320830003824,161.6942179579928,162.69598354099435,0.22249941600603051,,,2023-12-14_10h58.35.284,
,,9,1,['9'],0.21531016600783914,5,1,test,14,163.0632517079939,163.6657231249992,164.6697618749895,1.6105899999965914,165.06973512499826,166.07148341598804,0.22710262499458622,,,2023-12-14_10h58.35.284,
,,9,0,"['5', '6', '7', '8']",0.119024083003751,5,2,test,6,166.41155716599314,167.01369058300043,168.01794691599207,1.6108897090016399,168.27337312499003,169.27513779098808,0.5236038739967626,,,2023-12-14_10h58.35.284,
,,9,1,['9'],0.08536108299449552,5,1,test,7,169.89827333299036,170.50068991599255,171.5048444999993,1.611515792013961,171.72077787500166,172.72250933299074,0.0010498320043552667,,,2023-12-14_10h58.35.284,
,,9,0,"['5', '6', '7', '8']",0.18291066600068007,5,2,test,1,172.83178820800094,173.4339465410012,174.4381633749872,1.6100127090030583,174.7449927909911,175.74679933299194,0.18968629100709222,,,2023-12-14_10h58.35.284,
,,6,1,"['5', '6', '7', '8']",0.056926625009509735,4,2,test,12,176.07386345799023,176.6760844579985,177.68019699999422,1.6109299169911537,177.86286595799902,178.86462891599513,0.016923457995289937,,,2023-12-14_10h58.35.284,
,,6,1,"['5', '6', '7', '8']",0.03715904100681655,4,2,test,16,179.01154349998978,179.61373179098882,180.6182000409899,1.6109589590050746,180.7899788749928,181.7917440829915,0.06293191599252168,,,2023-12-14_10h58.35.284,
,,6,0,['9'],0.3351187910011504,4,1,test,8,181.99208379098854,182.59418141598871,183.5982011659944,1.609696041996358,184.04260124999564,185.04436837499088,0.10735679099161644,,,2023-12-14_10h58.35.284,
,,6,1,"['5', '6', '7', '8']",0.5412321659969166,4,2,test,5,185.30695683299564,185.90905416599708,186.91295804099354,1.609635666012764,187.5837397909927,188.5854604579945,0.15627004101406783,,,2023-12-14_10h58.35.284,
,,6,1,"['5', '6', '7', '8']",0.15624020701216068,4,2,test,14,188.87780383299105,189.4799047080014,190.48446654099098,1.6110595829959493,190.79643229099747,191.79819987498922,0.14302320701244753,,,2023-12-14_10h58.35.284,
,,6,0,['9'],0.5409952080080984,5,1,test,16,192.10396108299028,192.70611199999985,193.7103556660004,1.6108939169935184,194.35733770798834,195.3591078749887,0.0647311240027193,,,2023-12-14_10h58.35.284,
,,6,1,"['5', '6', '7', '8']",0.07179899999755435,5,2,test,13,195.58746233298734,196.18957891598984,197.19363737499225,1.6100110829866026,197.4490626659972,198.45079908298794,0.246207415999379,,,2023-12-14_10h58.35.284,
,,9,0,"['5', '6', '7', '8']",0.022812291004811414,5,2,test,6,198.8470779999916,199.44924304098822,200.45380629099964,1.6113084579992574,200.69644733300083,201.69824691599933,0.23181449899857398,,,2023-12-14_10h58.35.284,
,,9,1,['9'],0.06370108299597632,5,1,test,7,202.04339341599552,202.64557220799907,203.64976575000037,1.6100732080085436,203.8364128749963,204.83825704098854,0.030043916005524807,,,2023-12-14_10h58.35.284,
,,6,1,"['5', '6', '7', '8']",0.1784209580073366,5,2,test,9,205.01464370799658,205.61703333299374,206.6211707499897,1.6104784170020139,206.93748329099617,207.93918770799064,0.1350261240004329,,,2023-12-14_10h58.35.284,
,,6,1,"['5', '6', '7', '8']",0.15571416600141674,4,2,test,5,208.18634954099252,208.788523582989,209.7927417079918,1.6109785000007832,210.08092791598756,211.08271283299837,0.19334445700224023,,,2023-12-14_10h58.35.284,
,,9,1,['9'],0.0315584990021307,4,1,test,1,211.39499533300113,211.99709733299096,213.00110937499267,1.6113072919979459,213.15527045799536,214.15703920798842,0.08260620800137985,,,2023-12-14_10h58.35.284,
,,6,1,"['5', '6', '7', '8']",0.26782858300430235,4,2,test,13,214.35560854099458,214.95767524999974,215.96175520798715,1.6098792080010753,216.34896987499087,217.35071770798822,0.11638049999601208,,,2023-12-14_10h58.35.284,
,,9,1,['9'],0.08048554099514149,4,1,test,4,217.57292674999917,218.17497249999724,219.17913679099001,1.6104252920049476,219.35314716599532,220.35488679099944,0.4032448330108309,,,2023-12-14_10h58.35.284,
,,6,1,"['5', '6', '7', '8']",0.15933045800193213,4,2,test,8,220.85526137499255,221.45734516599623,222.46149279100064,1.610597749997396,222.73665258300025,223.73864570799924,0.17458420799812302,,,2023-12-14_10h58.35.284,
,,6,1,"['5', '6', '7', '8']",0.1326303740061121,5,2,test,13,224.02257179099252,224.62472329099546,225.6291281659942,1.611372500003199,225.89601250000123,226.89775774998998,0.14665958199475426,,,2023-12-14_10h58.35.284,
,,6,1,"['5', '6', '7', '8']",0.20579824900778476,5,2,test,5,227.15810354099085,227.76031066599535,228.76608424998994,1.6120629999932135,229.10706187499454,230.10883733299852,0.015404706995468587,,,2023-12-14_10h58.35.284,
,,9,0,"['5', '6', '7', '8']",0.22089116599818226,5,2,test,8,230.28473804099485,230.88687774998834,231.89091691598878,1.6098573330091313,232.27717899999698,233.27897224998742,0.5495029579906259,,,2023-12-14_10h58.35.284,
,,9,1,['9'],0.2173737489938503,5,1,test,9,233.96754995798983,234.57016399998975,235.57463550000102,1.611707292002393,235.92807495799207,236.92984116599837,0.24068295799952466,,,2023-12-14_10h58.35.284,
,,9,1,['9'],0.19550116600294132,5,1,test,10,237.30600570800016,237.90821833298833,238.9123247499956,1.610187207988929,239.28142870799638,240.28318299999228,0.19934579099935945,,,2023-12-14_10h58.35.284,
,,9,1,['9'],0.09838658300577663,5,1,test,6,240.64138812499004,241.24351566599216,242.24765345799096,1.6104802079935325,242.47742466599448,243.4791938749986,0.25022066599922255,,,2023-12-14_10h58.35.284,
,,6,1,"['5', '6', '7', '8']",0.12649491599586327,5,2,test,19,243.853241290999,244.45545262499945,245.45943995799462,1.6103414579993114,245.70333529099298,246.7050794159877,0.025368082002387382,,,2023-12-14_10h58.35.284,
,,6,1,"['5', '6', '7', '8']",0.00010679099068511277,5,2,test,10,246.82170799998858,247.4237352499913,248.42779904099007,1.6095579999964684,248.566251790995,249.56794324998918,0.01687733300786931,,,2023-12-14_10h58.35.284,
,,6,1,"['5', '6', '7', '8']",0.010882457994739525,5,2,test,8,249.72937045799335,250.33187183299742,251.33616358299332,1.6110021249915008,251.44670954099274,252.4484886249993,0.12386541601154022,,,2023-12-14_10h58.35.284,
,,6,1,"['5', '6', '7', '8']",0.11506554100196809,5,2,test,12,252.66886762499053,253.27101274998859,254.2750930829934,1.609785834007198,254.5367089999927,255.53847570798825,0.062157331994967535,,,2023-12-14_10h58.35.284,
,,6,0,['9'],0.11237895699741784,5,1,test,15,255.7074733329937,256.30959479098965,257.3138532909943,1.6095400839985814,257.53539254098723,258.5371819159918,0.21050479100085795,,,2023-12-14_10h58.35.284,
,,6,0,['9'],0.16879591598990373,5,1,test,13,258.90332374999707,259.50548095798877,260.50977908298955,1.6104945419938304,260.80989529099315,261.8116981249914,0.3840357080043759,,,2023-12-14_10h58.35.284,
,,6,1,"['5', '6', '7', '8']",0.007627708007930778,4,2,test,9,262.3082202079968,262.9103902499919,263.9145139159955,1.6102077499963343,264.05271916599304,265.0545375410002,0.11127554099948611,,,2023-12-14_10h58.35.284,
,,6,1,"['5', '6', '7', '8']",0.21250049900845625,4,2,test,10,265.312744165989,265.9147374579916,266.91885062499205,1.6103486669890117,267.2761155409971,268.27789362499607,0.26689954099128954,,,2023-12-14_10h58.35.284,
,,6,1,"['5', '6', '7', '8']",0.0171233329892857,4,2,test,6,268.64970466599334,269.2519950829883,270.2564172079874,1.6108905419969233,270.42174174998945,271.4234892499953,0.04765620800026227,,,2023-12-14_10h58.35.284,
,,9,1,['9'],0.1055997070070589,4,1,test,2,271.5624687499949,272.1646415409923,273.16871420799,1.6102296669996576,273.3994912499911,274.4013188329991,0.3855499159981264,,,2023-12-14_10h58.35.284,
,,6,1,"['5', '6', '7', '8']",0.09374029100581538,4,2,test,12,274.8723234999925,275.4744656249968,276.47856704099104,1.611003707992495,276.6830591659964,277.68483087499044,0.00906949900672771,,,2023-12-14_10h58.35.284,
,,6,1,"['5', '6', '7', '8']",0.21722462499747053,5,2,test,12,277.8189452079969,278.42098270799033,279.42511666599603,1.6094251659960719,279.7713844999962,280.7731092499889,0.34975645699887536,,,2023-12-14_10h58.35.284,
,,6,1,"['5', '6', '7', '8']",0.10657683199679013,5,2,test,5,281.2462811659934,281.84835954099253,282.8528244999907,1.6111483749991748,283.1097059159947,284.11166591598885,0.08219016600924078,,,2023-12-14_10h58.35.284,
,,6,0,['9'],0.11453191599866841,5,1,test,5,284.343675540993,284.94587799999863,285.9500527909986,1.6104158340021968,286.2017606659938,287.20373166599893,0.07999374900828116,,,2023-12-14_10h58.35.284,
,,6,0,['9'],0.022717498999554664,5,1,test,10,287.45636687499064,288.05845845799195,289.0627626659989,1.6099537080008304,289.25235104099556,290.2541028330015,0.06996237399289384,,,2023-12-14_10h58.35.284,
,,6,1,"['5', '6', '7', '8']",0.1940930829878198,5,2,test,3,290.4741466659907,291.0762837499933,292.08044937498926,1.6107872090069577,292.4133812079963,293.41521033299796,0.4128304159967229,,,2023-12-14_10h58.35.284,
,,6,1,"['5', '6', '7', '8']",0.2991218749957625,4,2,test,6,293.9561134579999,294.5583198329987,295.56244024999614,1.6106412500084843,295.99210358299024,296.9939233749901,0.20728845799749251,,,2023-12-14_10h58.35.284,
,,6,1,"['5', '6', '7', '8']",0.11897275000228547,4,2,test,11,297.3314354579925,297.9336707499897,298.9376997079962,1.6098780410102336,299.1640091659938,300.1657582909975,0.20160237498930655,,,2023-12-14_10h58.35.284,
,,6,0,['9'],0.23293787401053123,4,1,test,11,300.48814504098846,301.0905722079915,302.09484954099753,1.6111064590077149,302.4499397909967,303.4516962499911,0.3065551659965422,,,2023-12-14_10h58.35.284,
,,9,1,['9'],0.10677320799732115,4,1,test,13,303.8353388329997,304.43753583299986,305.44187608300126,1.6108556250110269,305.66643170799944,306.66818054098985,0.09335754100175109,,,2023-12-14_10h58.35.284,
,,6,1,"['5', '6', '7', '8']",0.131387874003849,4,2,test,17,306.89236645799247,307.49449641599494,308.4984757909988,1.6096247500099707,308.7406955829938,309.7424287909962,0.3867751660000067,,,2023-12-14_10h58.35.284,
,,9,1,['9'],0.07327799900667742,5,1,test,11,310.2393127079995,310.8413999579934,311.8455670830008,1.6106187910045264,312.10942624999734,313.11120129100163,0.1473526240006322,,,2023-12-14_10h58.35.284,
,,6,1,"['5', '6', '7', '8']",0.04608612500305753,5,2,test,9,313.36865529099305,313.9707391659904,314.9747765829961,1.609836040996015,315.0925524159975,316.09434737499396,0.06939437400433235,,,2023-12-14_10h58.35.284,
,,6,1,"['5', '6', '7', '8']",0.042196166003122926,5,2,test,13,316.27548433298944,316.87749412500125,317.8816151659994,1.6095950829912908,318.0103957909887,319.01213029099745,0.27537299900723156,,,2023-12-14_10h58.35.284,
,,6,0,['9'],0.3899516660021618,5,1,test,2,319.38542616598716,319.98783870799525,320.9919482499972,1.6118903750029858,321.4949419159966,322.4967728329939,0.1496154159976868,,,2023-12-14_10h58.35.284,
,,6,0,['9'],0.009729333003633656,5,1,test,16,322.7719502079999,323.37400808298844,324.3782617909892,1.6101311249949504,324.4736608749954,325.47539987499476,0.10650883299240377,,,2023-12-14_10h58.35.284,
,,9,1,['9'],0.08965187400463037,4,1,test,13,325.711779958001,326.3139089999895,327.3183379580005,1.6110958749923157,327.50416612499976,328.5059555409971,0.11998541600769386,,,2023-12-14_10h58.35.284,
,,6,0,['9'],0.062419291003607213,4,1,test,13,328.7352182909963,329.3374037909962,330.34180083299,1.610517000008258,330.5076507079939,331.5094820410013,0.04734104099043179,,,2023-12-14_10h58.35.284,
,,9,1,['9'],0.22359016600239556,4,1,test,9,331.66492145799566,332.26716833299724,333.27142083299987,1.6100833749951562,333.61349937498744,334.61524241599545,0.062249124006484635,,,2023-12-14_10h58.35.284,
,,6,0,['9'],0.08485166600439698,4,1,test,1,334.8020308749983,335.4041314999922,336.40821479099395,1.6100208339921664,336.5808806659916,337.58261604099243,0.08971387399651576,,,2023-12-14_10h58.35.284,
,,6,0,['9'],0.3232287080027163,4,1,test,6,337.7948672909988,338.39687612499984,339.4010324159899,1.6105968339979881,339.85227245799615,340.85405058298784,0.007498581995605491,,,2023-12-14_10h58.35.284,
,,9,1,['9'],0.07598041598976124,3,1,test,8,341.00091170798987,341.6029974159901,342.60728504099825,1.6100328329921467,342.78497791598784,343.78671549999854,0.04830574999505188,,,2023-12-14_10h58.35.284,
,,6,1,"['5', '6', '7', '8']",0.044971916009671986,3,2,test,14,343.9466652080009,344.5490722079994,345.55338262498844,1.6100562919891672,345.6922693749948,346.6940957909974,0.16007262498897035,,,2023-12-14_10h58.35.284,
,,6,1,"['5', '6', '7', '8']",0.1695100830111187,3,2,test,12,346.9843105829932,347.58645904099103,348.5906914579973,1.6103281249961583,348.836766249995,349.8385092499957,0.0561629159928998,,,2023-12-14_10h58.35.284,
,,6,1,"['5', '6', '7', '8']",0.053196291002677754,3,2,test,12,350.00582187499094,350.6079306249885,351.61221066598955,1.6096607079962268,351.75584004099073,352.7576239579939,0.0745964579982683,,,2023-12-14_10h58.35.284,
,,6,1,"['5', '6', '7', '8']",0.09630008299427573,3,2,test,4,352.9634737909946,353.5654301659961,354.5699903329951,1.6103916249994654,354.75798179100093,355.7599019999907,0.575285332990461,,,2023-12-14_10h58.35.284,
,,9,1,['9'],0.04088191600749269,4,1,test,5,356.43971879099263,357.0422256659949,358.04643841600046,1.6118229589919792,358.1958151659928,359.1976833749941,0.41458758199587464,,,2023-12-14_10h58.35.284,
,,6,1,"['5', '6', '7', '8']",0.10774604098696727,4,2,test,11,359.6770060409908,360.27950008299376,361.2836134579993,1.610962709004525,361.49652704098844,362.4983394999872,0.30671466600324493,,,2023-12-14_10h58.35.284,
,,9,1,['9'],0.04860441599157639,4,1,test,3,362.89242608299537,363.49457258298935,364.4988182909874,1.610305916008656,364.6456877079909,365.6474650409946,0.28757049998966977,,,2023-12-14_10h58.35.284,
,,6,1,"['5', '6', '7', '8']",0.14031629099918064,4,2,test,8,366.02971999999136,366.631947249989,367.6361700409907,1.6103969999967376,367.8571800829959,368.8589284579939,0.048047583011793904,,,2023-12-14_10h58.35.284,
,,6,1,"['5', '6', '7', '8']",0.11846574899391271,4,2,test,15,368.9928540409892,369.594848290988,370.5993550409912,1.6096459169930313,370.80860583299363,371.81034612499934,0.44269783300114796,,,2023-12-14_10h58.35.284,
,,6,1,"['5', '6', '7', '8']",0.13047570799244568,5,2,test,5,372.332987582995,372.935047957988,373.9391912909923,1.6105413749901345,374.15925250000146,375.1609947909892,0.4562666249985341,,,2023-12-14_10h58.35.284,
,,6,1,"['5', '6', '7', '8']",0.01567004100070335,5,2,test,3,375.7343619999883,376.3367799159896,377.34100154098996,1.6111507500027074,377.4362682499923,378.43804254099086,0.17501025000819936,,,2023-12-14_10h58.35.284,
,,9,1,['9'],0.12880408301134594,5,1,test,17,378.74663541599875,379.3487477079907,380.35312208299,1.6103544579964364,380.57587966599385,381.5776477499894,0.08492083298915531,,,2023-12-14_10h58.35.284,
,,9,0,"['5', '6', '7', '8']",0.07704708199889865,5,2,test,18,381.7903448329889,382.3925259159878,383.396749749998,1.6109065839991672,383.58946758299135,384.5912927909958,0.18196645700663794,,,2023-12-14_10h58.35.284,
,,6,1,"['5', '6', '7', '8']",0.6036755829991307,5,2,test,11,384.8886215409875,385.4908997909952,386.4950635409914,1.611082625007839,387.1618317909888,388.1636262079992,0.15777191599772777,,,2023-12-14_10h58.35.284,
,,9,0,"['5', '6', '7', '8']",0.1619717489957111,5,2,test,19,388.4467085409997,389.04884254100034,390.05318949998764,1.6103234589973,390.3177281659882,391.31948262499645,0.5017827910050983,,,2023-12-14_10h58.35.284,
,,6,1,"['5', '6', '7', '8']",0.0006128329987404868,4,2,test,4,391.93503662500007,392.5371558749903,393.5412929999875,1.610215334003442,393.63572279099026,394.6374647079938,0.17433399899164215,,,2023-12-14_10h58.35.284,
,,6,1,"['5', '6', '7', '8']",0.007641958000021987,4,2,test,3,394.94203587499214,395.54413495799236,396.5482307499915,1.6102020830003312,396.662381874994,397.66413395799464,0.16256020800210536,,,2023-12-14_10h58.35.284,
,,9,0,"['5', '6', '7', '8']",0.3503618329996243,4,2,test,16,397.9491616250016,398.55138433299726,399.5554814999923,1.6104090000008,400.04824266598735,401.04998608298774,0.16351449899957515,,,2023-12-14_10h58.35.284,
,,6,1,"['5', '6', '7', '8']",0.09256191599706654,4,2,test,12,401.3540665409964,401.95622816598916,402.96036662498955,1.6101868749974528,403.1617533749959,404.16353783299564,0.025290999008575454,,,2023-12-14_10h58.35.284,
,,6,1,"['5', '6', '7', '8']",0.09885641599248629,4,2,test,5,404.2934947499889,404.89587574999314,405.9001584159996,1.609952250000788,406.09521666599903,407.0969550000009,0.154496040995582,,,2023-12-14_10h58.35.284,
,,6,1,"['5', '6', '7', '8']",0.0037272500048857182,5,2,test,5,407.33869270799914,407.94115583298844,408.945392499998,1.6112173330038786,409.04543441599526,410.04723174999526,0.10770208200847264,,,2023-12-14_10h58.35.284,
,,9,1,['9'],0.22163204099342693,5,1,test,6,410.2442081659974,410.8463802079932,411.85047937498894,1.6101902500085998,412.2248720829957,413.22664304099453,0.03591000000596978,,,2023-12-14_10h58.35.284,
,,9,1,['9'],0.07624637499975506,5,1,test,4,413.3698302499979,413.9718472079985,414.9759607499873,1.609794125004555,415.14781420800136,416.14956325000094,0.032908665991271846,,,2023-12-14_10h58.35.284,
,,9,1,['9'],0.11980149999726564,5,1,test,5,416.2738984579919,416.8759811659984,417.88046254099754,1.610043874999974,418.09095308299584,419.0927040409879,0.07222495799942408,,,2023-12-14_10h58.35.284,
,,6,1,"['5', '6', '7', '8']",0.061886331997811794,5,2,test,1,419.2737622909917,419.8762618749897,420.88037162499677,1.6109919590089703,421.0277904999966,422.0295130829909,0.12248699899646454,,,2023-12-14_10h58.35.284,
,,6,1,"['5', '6', '7', '8']",0.18250537500716746,5,2,test,7,422.2445239160006,422.8466373330011,423.8507340829965,1.6104370419925544,424.1292845829885,425.1310185409966,0.16869791600038297,,,2023-12-14_10h58.35.284,
,,6,1,"['5', '6', '7', '8']",0.17960158300411422,5,2,test,10,425.40854958299315,426.0106259579916,427.01476483298757,1.6103918330045417,427.28746745799435,428.2892385409941,0.018546082006650977,,,2023-12-14_10h58.35.284,
,,9,1,['9'],0.05415766600344796,5,1,test,13,428.4127756659873,429.0149153749953,430.01932341599604,1.609971375000896,430.1716497909947,431.17335845799244,0.014861500007100403,,,2023-12-14_10h58.35.284,
,,9,1,['9'],0.055753124004695565,5,1,test,14,431.27233029098716,431.87441091598885,432.8785084580013,1.6101486249972368,433.04819566599326,434.04993174999254,0.482388249001815,,,2023-12-14_10h58.35.284,
,,6,0,['9'],0.1127684569946723,5,1,test,16,434.62607791599294,435.22840508299123,436.232532790993,1.6110750829975586,436.4359478749975,437.43768704099057,0.005383540992625058,,,2023-12-14_10h58.35.284,
,,9,0,"['5', '6', '7', '8']",0.15991462400415912,5,2,test,1,437.58412708299875,438.18638049998845,439.19044766599836,1.6099047500028973,439.44700154098973,440.44883579100133,0.11732979099906515,,,2023-12-14_10h58.35.284,
,,9,1,['9'],0.1445329989946913,4,1,test,1,440.67474433299503,441.27679079098743,442.280995832989,1.61039020800672,442.52308866599924,443.52487229098915,0.08810320800694171,,,2023-12-14_10h58.35.284,
,,6,1,"['5', '6', '7', '8']",0.004771958003402688,4,2,test,15,443.71718654099095,444.3194258329895,445.3236403329938,1.6099350410077022,445.4462704579928,446.44801633300085,0.4743877489963779,,,2023-12-14_10h58.35.284,
,,6,1,"['5', '6', '7', '8']",0.015230707998853177,4,2,test,13,447.0046576659952,447.6069007079932,448.6112097909936,1.6105623329931404,448.7279532909888,449.7297388329898,0.06653987399477046,,,2023-12-14_10h58.35.284,
,,9,0,"['5', '6', '7', '8']",0.07347858299908694,4,2,test,2,449.92867795799975,450.53084879099333,451.535064124997,1.610405166997225,451.70315762500104,452.70488287499757,0.1661953330039978,,,2023-12-14_10h58.35.284,
,,6,1,"['5', '6', '7', '8']",0.1092156660015462,4,2,test,10,452.97509191599966,453.57720274999156,454.5814121250005,1.6105866249999963,454.7792528329883,455.78104175000044,0.006168749008793384,,,2023-12-14_10h58.35.284,
,,9,0,"['5', '6', '7', '8']",0.08381029100564774,5,2,test,5,455.88446179099265,456.4866530409927,457.49074783299875,1.6100147919933079,457.67706670799816,458.6788317079918,0.06852670799707994,,,2023-12-14_10h58.35.284,
,,9,1,['9'],0.15995629099779762,5,1,test,11,458.8664429579949,459.4685929999978,460.4729127499886,1.6101599579997128,460.73169087499264,461.73359395799343,0.4085064159880858,,,2023-12-14_10h58.35.284,
,,9,1,['9'],0.048483374004717916,5,1,test,16,462.2330148329929,462.8351661659981,463.83915645799425,1.610360042002867,463.97742708299484,464.9794072079967,0.1549965829908615,,,2023-12-14_10h58.35.284,
,,6,1,"['5', '6', '7', '8']",0.0084300830058055,5,2,test,16,465.22507804099587,465.82710424999823,466.831258124992,1.6104193329956615,466.9447442909877,467.9465740000014,0.06087683200894389,,,2023-12-14_10h58.35.284,
,,9,1,['9'],0.15651141600392293,5,1,test,15,468.1260034159932,468.72810354099784,469.7323882079945,1.6103850419895025,470.00094462498964,471.00274287498905,0.14750433299923316,,,2023-12-14_10h58.35.284,
,,9,1,['9'],0.016996499005472288,5,1,test,15,471.239603790993,471.84174437499314,472.84576820798975,1.610723792007775,472.9533829159918,473.95512170800066,0.10646199999609962,,,2023-12-14_10h58.35.284,
,,6,1,"['5', '6', '7', '8']",0.17463779100216925,5,2,test,4,474.16255366599944,474.7649801249936,475.769194374996,1.6101847090030788,476.03536779098795,477.03712358299526,0.05534766599885188,,,2023-12-14_10h58.35.284,
,,6,1,"['5', '6', '7', '8']",0.007490082993172109,5,2,test,15,477.220404415988,477.82241058300133,478.8265463329881,1.6095705409970833,478.9474177079974,479.94917945799534,0.10163129100692458,,,2023-12-14_10h58.35.284,
,,9,1,['9'],0.08282199999666773,5,1,test,11,480.1505047499959,480.7526997909881,481.757017625001,1.610860708009568,481.94552100000146,482.9472717079916,0.11046370799886063,,,2023-12-14_10h58.35.284,
,,9,1,['9'],0.06990487399161793,5,1,test,16,483.1701075829915,483.77211766599794,484.7760469579953,1.6099568749923492,484.94003891600005,485.94181645799836,0.1038808320008684,,,2023-12-14_10h58.35.284,
,,6,0,['9'],0.01363462398876436,5,1,test,4,486.1540802499949,486.75605566598824,487.7603177909914,1.6101408329996048,487.87053354099044,488.87231587499264,0.07645341599709354,,,2023-12-14_10h58.35.284,
,,6,1,"['5', '6', '7', '8']",0.16501174900622573,5,2,test,11,489.07184537500143,489.6739054579957,490.67839716598974,1.6101417500030948,490.94022895798844,491.941960540993,0.32546654099132866,,,2023-12-14_10h58.35.284,
,,9,0,"['5', '6', '7', '8']",0.03621479100547731,5,2,test,1,492.37567087500065,492.97771141599515,493.9818343329971,1.6106201250076992,494.1234161659959,495.125210290993,0.032237082996289246,,,2023-12-14_10h58.35.284,
,,6,0,['9'],0.052378458000021055,4,1,test,2,495.26742124999873,495.8693775829888,496.87368354099453,1.610328374998062,497.0249383749906,498.0267071249982,0.4543459160049679,,,2023-12-14_10h58.35.284,
,,9,1,['9'],0.032831916003488004,4,1,test,4,498.59073262498714,499.1931919579947,500.19759962499666,1.6113473750010598,500.3256020830013,501.3273364159977,0.15977850000490434,,,2023-12-14_10h58.35.284,
,,6,1,"['5', '6', '7', '8']",0.08354437399248127,4,2,test,14,501.5994853750017,502.20162999999593,503.20567458299047,1.6103229999862378,503.39130879098957,504.39310170798854,0.44886116599082015,,,2023-12-14_10h58.35.284,
,,6,1,"['5', '6', '7', '8']",0.08668745800969191,4,2,test,14,504.94410620800045,505.5463509580004,506.55051224998897,1.6141363750066375,506.7536769579892,507.75544341599743,0.040368000001762994,,,2023-12-14_10h58.35.284,
,,6,1,"['5', '6', '7', '8']",0.11789758299710229,4,2,test,14,507.9201199999952,508.52211762499064,509.5263168329984,1.6097535419976339,509.7446931250015,510.74643962499977,0.37827749899588525,,,2023-12-14_10h58.35.284,
,,9,1,['9'],0.17757645800884347,5,1,test,13,511.2317189999885,511.83382633299334,512.8378725829971,1.610358375008218,513.1144218749978,514.1161842909933,0.083747750002658,,,2023-12-14_10h58.35.284,
,,9,1,['9'],0.06790712398651522,5,1,test,15,514.3250454999943,514.9272784579953,515.931392457991,1.609787209003116,516.0990508749965,517.1007739999914,0.007463832997018471,,,2023-12-14_10h58.35.284,
,,6,0,['9'],0.07614204099809285,5,1,test,2,517.2321038329974,517.834230583001,518.8383027909877,1.6097179159987718,519.0240904999955,520.0258776249975,0.07196250000561122,,,2023-12-14_10h58.35.284,
,,6,1,"['5', '6', '7', '8']",0.013675540991243906,5,2,test,16,520.2303132909874,520.8325560410012,521.8366877499939,1.6101230420026695,521.9476650829893,522.949403999999,0.1570385829982115,,,2023-12-14_10h58.35.284,
,,6,1,"['5', '6', '7', '8']",0.7423489990032976,5,2,test,5,523.2210167500016,523.8231125829916,524.8271914579964,1.6105501249985537,525.6836734999961,526.6854809999932,0.03452024899888784,,,2023-12-14_10h58.35.284,
,,6,1,"['5', '6', '7', '8']",0.1696377080079401,5,2,test,16,526.8395769999916,527.4417023329879,528.4458360409917,1.6101239999989048,528.7164995829953,529.718280999994,0.04695958299271297,,,2023-12-14_10h58.35.284,
,,9,1,['9'],0.08961383199493866,5,1,test,12,529.8415447079897,530.4437204159913,531.4479592079879,1.6103047079959651,531.6427091249934,532.6444715409889,0.1186674570053583,,,2023-12-14_10h58.35.284,
,,6,1,"['5', '6', '7', '8']",0.07361070800106972,5,2,test,7,532.8758244579949,533.477974333,534.4821492499905,1.6104180840047775,534.6567267499922,535.6584603329975,0.29860783299955074,,,2023-12-14_10h58.35.284,
,,6,0,['9'],0.038121375007904135,5,1,test,5,536.0543706249882,536.6564412500011,537.6606538329943,1.6109935419954127,537.806388500001,538.8081155409891,0.004855332008446567,,,2023-12-14_10h58.35.284,
,,6,1,"['5', '6', '7', '8']",0.11245770700043067,5,2,test,18,538.9229399579926,539.5250405830011,540.5295768329961,1.6098155419895193,540.7303376249911,541.7321358749905,0.051127915998222306,,,2023-12-14_10h58.35.284,
,,6,0,['9'],0.1289783739921404,5,1,test,4,541.9306218749989,542.5327184999915,543.5368372079975,1.6099051669880282,543.7739382909931,544.775709124995,0.4947018740058411,,,2023-12-14_10h58.35.284,
,,6,1,"['5', '6', '7', '8']",0.10994724999181926,4,2,test,2,545.3614478329982,545.9636002079933,546.9678018330014,1.6108210840029642,547.1687627079955,548.1705554579967,0.09972087400092278,,,2023-12-14_10h58.35.284,
,,6,0,['9'],0.15351962400018238,4,1,test,5,548.3947561249952,548.9969816660014,550.0015117079893,1.6106078750017332,550.2697609579918,551.2715207079891,0.5007517080084654,,,2023-12-14_10h58.35.284,
,,9,1,['9'],0.04245416600315366,4,1,test,14,551.8559170410008,552.4583862500003,553.4623603329965,1.6102629579982022,553.60210525,554.6039048329985,0.11069933298858814,,,2023-12-14_10h58.35.284,
,,9,1,['9'],0.1494789989956189,4,1,test,8,554.8279031659913,555.4301307499991,556.4343131659989,1.6101807079976425,556.6939578329911,557.6957730409922,0.2907354570052121,,,2023-12-14_10h58.35.284,
,,6,1,"['5', '6', '7', '8']",0.059816123990458436,4,2,test,14,558.1078419159894,558.7098627909872,559.7140207499906,1.609874999994645,559.8808138749882,560.8825804160006,0.2952227909991052,,,2023-12-14_10h58.35.284,
,,6,1,"['5', '6', '7', '8']",0.11301641599857248,5,2,test,9,561.2846607079991,561.8866305409902,562.8908524579892,1.6098318329895847,563.1059971249924,564.1078092499956,0.06597104099637363,,,2023-12-14_10h58.35.284,
,,9,1,['9'],0.11774883199541364,5,1,test,13,564.2859664579883,564.8880313749978,565.8921759579971,1.609945999996853,566.1069911249942,567.1087399159878,0.21298683200438973,,,2023-12-14_10h58.35.284,
,,6,0,['9'],0.02318312400893774,5,1,test,17,567.4314601660008,568.033628374993,569.0377839579887,1.6105139160063118,569.1471241249965,570.1488923750003,0.08784424899204168,,,2023-12-14_10h58.35.284,
,,6,0,['9'],0.032285749999573454,5,1,test,6,570.3812529999996,570.9834225829982,571.987698500001,1.6103936250001425,572.1326000830013,573.1343478749914,0.17840258299838752,,,2023-12-14_10h58.35.284,
,,6,0,['9'],0.15546629100572318,5,1,test,6,573.4512217909942,574.0534451249987,575.0576840409922,1.6105276669986779,575.3278356660012,576.3296228749969,0.24900758199510165,,,2023-12-14_10h58.35.284,
,,6,1,"['5', '6', '7', '8']",0.1396737079921877,4,2,test,2,576.6723042910016,577.2743686249887,578.278557957994,1.6101418329926673,578.5109837909986,579.5127275409905,0.4282204159972025,,,2023-12-14_10h58.35.284,
,,6,1,"['5', '6', '7', '8']",0.1171308329940075,4,2,test,3,580.0401389159961,580.6427202499908,581.6470560000016,1.6117573749943404,581.8612750829925,582.8630822499981,0.023547583012259565,,,2023-12-14_10h58.35.284,
,,9,1,['9'],0.2530682079959661,4,1,test,9,582.9929963749892,583.595141999991,584.5991710410017,1.6097176659968682,584.9594830829883,585.9613957909896,0.4043183739995584,,,2023-12-14_10h58.35.284,
,,9,1,['9'],0.09721824900771026,4,1,test,14,586.454944290992,587.0569732079894,588.0610811249935,1.6107195410004351,588.2754956249992,589.277199499993,0.1755761660024291,,,2023-12-14_10h58.35.284,
,,9,1,['9'],0.03453454100235831,4,1,test,12,589.5722423749976,590.174723374992,591.1787132909958,1.6102895840012934,591.3036094579875,592.3053479579976,0.15281595799024217,,,2023-12-14_10h58.35.284,
,,6,0,['9'],0.01634133300103713,5,1,test,17,592.5615510409989,593.1636477499997,594.1679242499958,1.6103177920012968,594.2996802909911,595.3014560829906,0.04892666600062512,,,2023-12-14_10h58.35.284,
,,6,1,"['5', '6', '7', '8']",0.07447554101236165,5,2,test,5,595.480510333,596.0826165409962,597.0868403749919,1.6102384999976493,597.2660382499889,598.2677599999879,0.40750258199113887,,,2023-12-14_10h58.35.284,
,,6,1,"['5', '6', '7', '8']",0.1579897910123691,5,2,test,3,598.758134165997,599.3602768329874,600.3646644580003,1.6110232079954585,600.6521157079987,601.6539196249942,0.15922354100621305,,,2023-12-14_10h58.35.284,
,,6,1,"['5', '6', '7', '8']",0.13272966600197833,5,2,test,9,601.9306731249962,602.5327045829908,603.5368467910012,1.6101721250015544,603.7807345409965,604.7825649159931,0.2893629580066772,,,2023-12-14_10h58.35.284,
,,6,1,"['5', '6', '7', '8']",0.16923583298921585,5,2,test,18,605.1861734159902,605.7883390829957,606.7923615829932,1.6107651250058552,607.0705235829955,608.0722648329975,0.01961124899389688,,,2023-12-14_10h58.35.284,
,,6,1,"['5', '6', '7', '8']",0.560395915992558,5,2,test,8,608.2131977079989,608.8152139579906,609.8193055409938,1.6097130840062164,610.4727854579978,611.4745744999964,0.12034416600363329,,,2023-12-14_10h58.35.284,
,,9,1,['9'],0.268227916007163,5,1,test,16,611.7260948329931,612.328346957991,613.3323349579878,1.6105001249961788,613.7230713329918,614.7248142909957,0.1714434989989968,,,2023-12-14_10h58.35.284,
,,6,1,"['5', '6', '7', '8']",0.14032720700197387,5,2,test,11,614.989206082988,615.5912680409965,616.5953259579983,1.6096197909937473,616.8607347910001,617.8624847499887,0.35861862399906386,,,2023-12-14_10h58.35.284,
,,6,1,"['5', '6', '7', '8']",0.05874408199451864,5,2,test,11,618.3554778749967,618.9576176249975,619.9621172499901,1.6103320840047672,620.1272597909992,621.1289812909963,0.20039824899868108,,,2023-12-14_10h58.35.284,
,,6,0,['9'],0.09205012400343549,5,1,test,9,621.4364044999966,622.0384491250006,623.0425912499923,1.6097972499992466,623.2309400829981,624.2327382499934,0.03786049901100341,,,2023-12-14_10h58.35.284,
,,6,1,"['5', '6', '7', '8']",0.07306920699193142,5,2,test,2,624.4054662909912,625.0075424159877,626.0116571249964,1.6098402499919757,626.1927916249988,627.1945825000003,0.18063304098905064,,,2023-12-14_10h58.35.284,
,,6,0,['9'],0.11856079100107308,5,1,test,3,627.5102148750011,628.1126843329985,629.1171787499916,1.6112534160056384,629.3352169999998,630.3370263749966,0.3094021240103757,,,2023-12-14_10h58.35.284,
,,9,1,['9'],0.09258383300038986,4,1,test,6,630.7799949999899,631.3821314160014,632.3861761250009,1.6101882080110954,632.5926379159937,633.5943795829953,0.1373294579971116,,,2023-12-14_10h58.35.284,
,,9,1,['9'],0.05114791600499302,4,1,test,11,633.8594330829947,634.4615044579987,635.4656702909997,1.6097300419933163,635.6217405409989,636.6234682079958,0.023887374001787975,,,2023-12-14_10h58.35.284,
,,9,1,['9'],0.08732012499240227,4,1,test,3,636.7803028749913,637.3823978329892,638.3865204579924,1.6093437910021748,638.5889127499977,639.5906476659875,0.02219091598817613,,,2023-12-14_10h58.35.284,
,,9,1,['9'],0.016976123995846137,4,1,test,9,639.72111941599,640.323449915988,641.3279282500007,1.610926458000904,641.4748051249917,642.4765873329889,0.3722077080019517,,,2023-12-14_10h58.35.284,
,,6,1,"['5', '6', '7', '8']",0.1486937910085544,4,2,test,5,642.9652468329878,643.5672443749936,644.5713714159938,1.6102360829972895,644.834830790991,645.8368036249885,0.06103037399589084,,,2023-12-14_10h58.35.284,
,,9,1,['9'],0.015277582002454437,5,1,test,4,646.0232917909889,646.6255318329931,647.6297376250004,1.6105907919991296,647.7529924159899,648.7547452079889,0.02917999900819268,,,2023-12-14_10h58.35.284,
,,9,0,"['5', '6', '7', '8']",0.053418458002852276,5,2,test,4,648.9193611249939,649.5215612079919,650.5259059999953,1.609805125001003,650.6851200829988,651.6869349999906,0.08687904100224841,,,2023-12-14_10h58.35.284,
,,9,1,['9'],0.014507373998640105,5,1,test,5,651.890314874996,652.4924282499996,653.4966007499897,1.6102206659998046,653.6196135409991,654.621337915989,0.3016350410034647,,,2023-12-14_10h58.35.284,
,,9,1,['9'],0.06065712399140466,5,1,test,9,655.0161133329966,655.61832137499,656.6224541659903,1.6100872920069378,656.791102749994,657.7928609160008,0.39495079100015573,,,2023-12-14_10h58.35.284,
,,9,1,['9'],0.11556287499843165,5,1,test,15,658.3195258749911,658.9215031249914,659.9259737909888,1.610610165997059,660.1649187500007,661.1666243749933,0.17141445800371002,,,2023-12-14_10h58.35.284,
