thisRow.t,notes,response,correct,correct_response,response_time,difficulty,category,phase,stimulus_ID,stim presentation time,delay presentation time,AB presentation time,debugging_time,feedback presentation time,ITI presentation time,ITI response time,participant,session,date,
,,8,1,"['5', '6', '7', '8']",0.30689099899609573,2,2,train,,,,,,,,,,,2023-12-13_09h28.10.480,
,,9,1,['9'],0.1930830409983173,2,1,train,,,,,,,,,,,2023-12-13_09h28.10.480,
,,9,1,['9'],0.10074358299607411,1,1,train,,,,,,,,,,,2023-12-13_09h28.10.480,
,,9,1,['9'],0.26780645801045466,2,1,train,,,,,,,,,,,2023-12-13_09h28.10.480,
,,8,1,"['5', '6', '7', '8']",0.012862415998824872,2,2,train,,,,,,,,,,,2023-12-13_09h28.10.480,
,,9,1,['9'],0.18257529100810643,1,1,train,,,,,,,,,,,2023-12-13_09h28.10.480,
,,8,1,"['5', '6', '7', '8']",0.07725174899678677,1,2,train,,,,,,,,,,,2023-12-13_09h28.10.480,
,,8,1,"['5', '6', '7', '8']",0.06194866599980742,1,2,train,,,,,,,,,,,2023-12-13_09h28.10.480,
,,9,1,['9'],0.0945185830059927,1,1,train,,,,,,,,,,,2023-12-13_09h28.10.480,
,,8,1,"['5', '6', '7', '8']",0.29846270800044294,1,2,train,,,,,,,,,,,2023-12-13_09h28.10.480,
,,9,1,['9'],0.2504874159931205,1,1,test,10,0.007255332995555364,0.6100662079988979,1.6143390409997664,1.6143303339922568,2.1320285410038196,3.1339025830093306,0.4016249160049483,,,2023-12-13_09h28.10.480,
,,8,1,"['5', '6', '7', '8']",0.31542833299317863,1,2,test,7,3.7904662500077393,4.393058750007185,5.3984227500041015,1.613280500008841,5.931287458006409,6.933070708008017,0.27550270801293664,,,2023-12-13_09h28.10.480,
,,8,1,"['5', '6', '7', '8']",0.24579191599332262,1,2,test,14,7.448745250003412,8.050920291003422,9.055281416003709,1.6110492500010878,9.494959874995402,10.49678600000334,0.3318313749914523,,,2023-12-13_09h28.10.480,
,,8,1,"['5', '6', '7', '8']",0.10766795800009277,1,2,test,7,11.097384041000623,11.700018625007942,12.704257083008997,1.61116766599298,13.061603958005435,14.063454415998422,0.3342353329935577,,,2023-12-13_09h28.10.480,
,,8,1,"['5', '6', '7', '8']",0.26047687498794403,1,2,test,9,14.609062500006985,15.211948249998386,16.21652383300534,1.612247541997931,16.698812000002363,17.700784000000567,0.018840499003999867,,,2023-12-13_09h28.10.480,
,,9,1,['9'],0.2649322920042323,2,1,test,17,17.95648112500203,18.558723166002892,19.56356108300679,1.6112199159979355,20.053041666003992,21.05487829100457,0.0037800410063937306,,,2023-12-13_09h28.10.480,
,,9,1,['9'],0.12215616600587964,2,1,test,15,21.306473916003597,21.908601333008846,22.91294579100213,1.6105466250010068,23.293840416008607,24.29567112500081,0.019841000001179054,,,2023-12-13_09h28.10.480,
,,8,1,"['5', '6', '7', '8']",0.16037591599160805,2,2,test,15,24.56146495800931,25.163632666008198,26.167757250004797,1.6104034169984516,26.567038749999483,27.568897832999937,0.4516781239944976,,,2023-12-13_09h28.10.480,
,,8,1,"['5', '6', '7', '8']",0.03081337500771042,2,2,test,12,28.24590370799706,28.84917933300312,29.85376825000276,1.6124067500059027,30.137544583005365,31.13931270800822,0.02951308300544042,,,2023-12-13_09h28.10.480,
,,9,1,['9'],0.0719607079954585,2,1,test,12,31.377256916006445,31.979606416003662,32.98430687500513,1.6117942499986384,33.29314320800768,34.29496862500673,0.45712987500883173,,,2023-12-13_09h28.10.480,
,,9,1,['9'],0.12887912499718368,3,1,test,16,34.95705316599924,35.55939875000331,36.56357754100463,1.6109997500025202,36.93349404100445,37.935306083003525,0.3265998330025468,,,2023-12-13_09h28.10.480,
,,9,1,['9'],0.1906902490009088,3,1,test,16,38.49506216599548,39.09744095800852,40.10196112500853,1.6115362090058625,40.52635604100942,41.52816924999934,0.3528607920015929,,,2023-12-13_09h28.10.480,
,,9,1,['9'],0.1787408329983009,3,1,test,12,42.14037929099868,42.74339604099805,43.74778845800029,1.6122605420096079,44.17542312500882,45.177269833002356,0.006668250003713183,,,2023-12-13_09h28.10.480,
,,8,1,"['5', '6', '7', '8']",0.14478645799681544,3,2,test,2,45.42470037500607,46.026928082996164,47.03163458300696,1.6109003339952324,47.39897633300279,48.40079133299878,0.3762448750057956,,,2023-12-13_09h28.10.480,
,,8,1,"['5', '6', '7', '8']",0.26833079200878274,3,2,test,18,48.97263883300184,49.575706582996645,50.58033691599849,1.6125817499996629,51.05983504100004,52.0617032910086,0.26419541699578986,,,2023-12-13_09h28.10.480,
,,9,1,['9'],0.08026166599302087,4,1,test,4,52.5027833750064,53.10502087500936,54.10928674999741,1.6106468749931082,54.41645537500153,55.418290750007145,0.3088252080051461,,,2023-12-13_09h28.10.480,
,,9,1,['9'],0.01592166601039935,4,1,test,18,55.97900729099638,56.581405999997514,57.585593541007256,1.6108787919947645,57.835430416002055,58.83728350000456,0.3530878739984473,,,2023-12-13_09h28.10.480,
,,8,1,"['5', '6', '7', '8']",0.11402958301187027,4,2,test,17,59.43937237499631,60.042154666007264,61.046566832999815,1.6118188749969704,61.37681283299753,62.37857462500688,0.31862216599984095,,,2023-12-13_09h28.10.480,
,,9,1,['9'],0.2680707079998683,4,1,test,14,62.909763874995406,63.5123583329987,64.51662483300606,1.6116885829978855,65.02208470800542,66.02382087500882,0.3713593329885043,,,2023-12-13_09h28.10.480,
,,9,1,['9'],0.22781470799236558,4,1,test,6,66.62939595800708,67.23158379099914,68.23588525000378,1.6108845830021892,68.70890970800247,69.71089166600723,0.43026470800396055,,,2023-12-13_09h28.10.480,
,,8,0,['9'],0.2615854999894509,5,1,test,5,70.37284520799585,70.97515850000491,71.97933729100623,1.611235874996055,72.45429466600763,73.4561601250025,0.17413720799959265,,,2023-12-13_09h28.10.480,
,,9,0,"['5', '6', '7', '8']",0.12468383299710695,5,2,test,5,73.8726275000081,74.4747927080025,75.47927887500555,1.6111873330082744,75.83748841600027,76.83927670800767,0.317070416000206,,,2023-12-13_09h28.10.480,
,,9,1,['9'],0.67547945799015,5,1,test,4,77.40711500000907,78.00913766599842,79.01358904100198,1.610511332997703,79.95347837499867,80.95534379100718,0.2160307910089614,,,2023-12-13_09h28.10.480,
,,8,1,"['5', '6', '7', '8']",0.08625224999559578,5,2,test,8,81.42921941600798,82.03127754099842,83.03577504100394,1.6107337499997811,83.34342699999979,84.34515608299989,0.16768183298700023,,,2023-12-13_09h28.10.480,
,,8,0,['9'],0.11877845799608622,5,1,test,14,84.72115887500695,85.32327875000192,86.32739029100048,1.6101103340042755,86.62140862499655,87.62321291600529,0.3126038330083247,,,2023-12-13_09h28.10.480,
,,9,1,['9'],1.2000700830103597,4,1,test,8,88.15658033300133,88.75886770800571,89.76328445800755,1.6111830000008922,91.22474941599648,92.22651570799644,0.26311670799623244,,,2023-12-13_09h28.10.480,
,,9,1,['9'],0.1921944159985287,4,1,test,12,92.73839908299851,93.34066245800932,94.3448400000052,1.610476292000385,94.81166945800942,95.81342158300686,0.047130000006291084,,,2023-12-13_09h28.10.480,
,,8,1,"['5', '6', '7', '8']",0.003294875001301989,4,2,test,17,96.10868099999789,96.71070166600111,97.71477079100441,1.6104192090133438,97.94531112500408,98.94711562500743,0.2924813739955425,,,2023-12-13_09h28.10.480,
,,9,1,['9'],0.06965504099207465,4,1,test,16,99.43423166600405,100.03697883299901,101.04066841599706,1.6122377499996219,101.3733045830013,102.37506587500684,0.2477219579886878,,,2023-12-13_09h28.10.480,
,,9,1,['9'],0.4704498750070343,4,1,test,17,102.89202733300044,103.49453491599706,104.49891995800135,1.6124963329930324,105.20296833300381,106.20480208299705,0.22601583300274797,,,2023-12-13_09h28.10.480,
,,9,1,['9'],0.3093092500057537,5,1,test,11,106.69906912499573,107.3013371660054,108.3060775000049,1.6116069160052575,108.87217366600817,109.87398899999971,0.2720076249970589,,,2023-12-13_09h28.10.480,
,,9,1,['9'],0.255924083001446,5,1,test,12,110.40896037500352,111.01115325000137,112.01642662500672,1.6119062079960713,112.52000000000407,113.5218330409989,0.5001564999984112,,,2023-12-13_09h28.10.480,
,,9,1,['9'],0.2335159990034299,5,1,test,16,114.2881488330022,114.89063837499998,115.8948273749993,1.6111825830012094,116.3783465000015,117.38012850000814,0.11177779200079385,,,2023-12-13_09h28.10.480,
,,8,1,"['5', '6', '7', '8']",0.3607584580022376,5,2,test,15,117.72715950000565,118.3292372910073,119.33362575000501,1.6110816660075216,119.996762958006,120.99851512500027,0.29334608299541287,,,2023-12-13_09h28.10.480,
,,9,0,"['5', '6', '7', '8']",0.39614641599473543,5,2,test,8,121.53753166600654,122.13992100000905,123.14431195800717,1.6105730419949396,123.77421116600453,124.77596187499876,0.24600504200498108,,,2023-12-13_09h28.10.480,
,,8,1,"['5', '6', '7', '8']",0.4181649170059245,5,2,test,9,125.28990299999714,125.8920334160066,126.8965414580016,1.6109149999974761,127.55407445800665,128.55583549999574,0.17930583300767466,,,2023-12-13_09h28.10.480,
,,8,0,['9'],0.4116248740028823,5,1,test,11,128.95529158299905,129.55771454100613,130.5621062499995,1.6113365419878392,131.1958436660061,132.1976490829984,0.3006364999891957,,,2023-12-13_09h28.10.480,
,,9,1,['9'],0.12356350000482053,4,1,test,9,132.72487933300727,133.32692958299594,134.33103575000132,1.610289083007956,134.6942629999976,135.69599929099786,0.05816633299400564,,,2023-12-13_09h28.10.480,
,,8,1,"['5', '6', '7', '8']",0.2831325829902198,4,2,test,17,135.97951708300388,136.58163924999826,137.5856759580056,1.6097509999963222,138.09246754100604,139.09424179099733,0.16006095800548792,,,2023-12-13_09h28.10.480,
,,9,1,['9'],0.225752290993114,4,1,test,15,139.47804712499783,140.08067858300637,141.0851116249978,1.6122902499919292,141.55946016599773,142.56121183300274,0.16905683300865348,,,2023-12-13_09h28.10.480,
,,9,1,['9'],0.07246100000338629,4,1,test,16,142.9918963329983,143.59407312500116,144.5984607910068,1.6103719169914257,144.92639433300064,145.9281804580096,0.41911679100303445,,,2023-12-13_09h28.10.480,
,,8,1,"['5', '6', '7', '8']",0.19560912500310224,4,2,test,12,146.58585958300682,147.18801900000835,148.19239708299574,1.6113024999940535,148.6348882500024,149.6367223749985,0.310655167006189,,,2023-12-13_09h28.10.480,
,,8,1,"['5', '6', '7', '8']",0.3692569580016425,5,2,test,18,150.14927495800657,150.75135720800608,151.75559770800464,1.6104696249967674,152.3376136250008,153.33941508299904,0.09693649900145829,,,2023-12-13_09h28.10.480,
,,8,1,"['5', '6', '7', '8']",0.02487545799522195,5,2,test,14,153.62961762500345,154.2317488330009,155.23599533300148,1.610938375000842,155.4709451660019,156.47270004100574,0.25616049898962956,,,2023-12-13_09h28.10.480,
,,8,1,"['5', '6', '7', '8']",0.005150416007381864,5,2,test,7,156.96263404100318,157.56468008299998,158.5689544580091,1.6107495420001214,158.7701436250063,159.77193220800837,0.363062541000545,,,2023-12-13_09h28.10.480,
,,8,1,"['5', '6', '7', '8']",0.17136279100668617,5,2,test,7,160.3554030410014,160.95750058299745,161.9616219580057,1.610360833001323,162.34414804099652,163.34606245800387,0.3364293749909848,,,2023-12-13_09h28.10.480,
,,8,0,['9'],0.0004699160053860396,5,1,test,14,163.91409537500294,164.51630850000947,165.5206127499987,1.6103030829981435,165.71687866600405,166.71864770799584,0.02619658299954608,,,2023-12-13_09h28.10.480,
,,9,1,['9'],0.15087491599842906,5,1,test,12,166.91086200000427,167.51309720800782,168.51735833300336,1.6100723749987083,168.89271079099854,169.89447829099663,0.12019954099378083,,,2023-12-13_09h28.10.480,
,,9,1,['9'],0.17262058299093042,5,1,test,10,170.26424629100075,170.86644095800875,171.87060920799559,1.6103439579892438,172.29461683300906,173.29639591599698,0.1084347500000149,,,2023-12-13_09h28.10.480,
,,8,1,"['5', '6', '7', '8']",0.2010718329984229,5,2,test,7,173.66258079100226,174.26469941600226,175.269174208006,1.6108277500024997,175.75214070800575,176.75390625,0.2997477919998346,,,2023-12-13_09h28.10.480,
,,8,0,['9'],0.11609987499832641,5,1,test,8,177.27599820800242,177.87804224999854,178.88227679100237,1.6107282080047298,179.16984508300084,180.17159166600322,0.15616758300166111,,,2023-12-13_09h28.10.480,
,,9,1,['9'],0.14978366599825677,4,1,test,15,180.46313474999624,181.06536945799598,182.06945983300102,1.6099987500056159,182.43233304099704,183.43410387499898,0.4159082080004737,,,2023-12-13_09h28.10.480,
,,8,1,"['5', '6', '7', '8']",0.4123219580069417,4,2,test,12,184.13436904099945,184.73682733300666,185.74097320799774,1.6113886249950156,186.39139483300096,187.39316070800123,0.3017610410024645,,,2023-12-13_09h28.10.480,
,,8,1,"['5', '6', '7', '8']",0.23167608299991116,4,2,test,6,187.88643837500422,188.488599874996,189.49266462500964,1.610005041002296,189.93743991600059,190.93919945800735,0.22377425000013318,,,2023-12-13_09h28.10.480,
,,9,1,['9'],0.17893129198637325,4,1,test,4,191.31008979100443,191.9121717079979,192.9165613750083,1.6108735839952715,193.31660750000447,194.31835812500503,0.028699916001642123,,,2023-12-13_09h28.10.480,
,,8,1,"['5', '6', '7', '8']",0.28497987501032185,4,2,test,16,194.57921495800838,195.18131562499912,196.18563520800672,1.6108882499975152,196.6855980830005,197.6873985830025,0.2984766659938032,,,2023-12-13_09h28.10.480,
,,8,1,"['5', '6', '7', '8']",0.12290383300569374,5,2,test,16,198.194876249996,198.79695208300836,199.80176783300703,1.6109362909919582,200.12994633300696,201.13176904100692,0.3462474160041893,,,2023-12-13_09h28.10.480,
,,8,1,"['5', '6', '7', '8']",0.1620852080086479,5,2,test,8,201.69720066600712,202.29923041599977,203.30350037499738,1.6106505829957314,203.64630979100184,204.64807908299554,0.3461105000023963,,,2023-12-13_09h28.10.480,
,,9,1,['9'],0.18471595799201168,5,1,test,1,205.21826716599753,205.82045387499966,206.82505908299936,1.6112164999940433,207.25044733300456,208.25227466599608,0.33669450000161305,,,2023-12-13_09h28.10.480,
,,9,1,['9'],0.3256055829988327,5,1,test,10,208.8514442910091,209.45376175000274,210.45831491600256,1.6115154590079328,211.01091108300898,212.0126522500068,0.024614248992293142,,,2023-12-13_09h28.10.480,
,,8,1,"['5', '6', '7', '8']",0.31094270800531376,5,2,test,7,212.27348158300447,212.87564829099574,213.87994845800858,1.6099728340050206,214.42975904099876,215.43159274999925,0.0708645830018213,,,2023-12-13_09h28.10.480,
,,9,1,['9'],0.008581874004448764,5,1,test,10,215.70678433300054,216.30890250000812,217.3131787910097,1.6102797919884324,217.55082908300392,218.55262583300646,0.4336403750057798,,,2023-12-13_09h28.10.480,
,,8,1,"['5', '6', '7', '8']",0.04441375000169501,5,2,test,10,219.23839749999752,219.8409668749955,220.84537295800692,1.6113606250000885,221.14348412500112,222.14526041600038,0.21935358298651408,,,2023-12-13_09h28.10.480,
,,8,1,"['5', '6', '7', '8']",0.03215833300782833,5,2,test,2,222.59446195799683,223.19655554099882,224.20069416600745,1.610726999992039,224.43558412500715,225.43732337500842,0.09603520800010301,,,2023-12-13_09h28.10.480,
,,9,1,['9'],0.08991691599658225,5,1,test,4,225.728602083007,226.33077858299657,227.33496820800065,1.6107749160000822,227.66391758300597,228.66572895800346,0.012704124994343147,,,2023-12-13_09h28.10.480,
,,8,1,"['5', '6', '7', '8']",0.03382454099482857,5,2,test,6,228.89872395800194,229.50092183300876,230.50543091600412,1.6112001250003232,230.76385562500218,231.7656543750054,0.11085995800385717,,,2023-12-13_09h28.10.480,
,,8,1,"['5', '6', '7', '8']",0.2979081239900552,5,2,test,2,232.09576420800295,232.6980155409983,233.70206687500468,1.6108774169988465,234.22518033300003,235.22692312499566,0.2905387909995625,,,2023-12-13_09h28.10.480,
,,8,1,"['5', '6', '7', '8']",0.256614540994633,5,2,test,10,235.72617375000846,236.32837516600557,237.3325566249987,1.6103421250008978,237.81734283300466,238.81910916599736,0.28053874999750406,,,2023-12-13_09h28.10.480,
,,9,0,"['5', '6', '7', '8']",0.07083045800391119,5,2,test,16,239.3075995830004,239.91002720799588,240.9143318330025,1.6109791659982875,241.2588760409999,242.260639250002,0.48711520800134167,,,2023-12-13_09h28.10.480,
,,9,1,['9'],0.42375141599040944,5,1,test,14,243.05087179099792,243.65332162499544,244.65757154099992,1.6112615409947466,245.33865791599965,246.34042691600916,0.30936729098903015,,,2023-12-13_09h28.10.480,
,,9,1,['9'],0.18772437500592787,5,1,test,6,246.94235350000963,247.54441775000305,248.54860645800363,1.611141333996784,249.02173750000657,250.02349750000576,0.17856912499701139,,,2023-12-13_09h28.10.480,
,,8,1,"['5', '6', '7', '8']",0.009628875006455928,5,2,test,8,250.46442383300746,251.06640708300984,252.0705872910039,1.6100960000039777,252.2801604999986,253.28194516600342,0.0561785830068402,,,2023-12-13_09h28.10.480,
,,8,1,"['5', '6', '7', '8']",0.021057249992736615,5,2,test,5,253.5269241250062,254.1289569579967,255.13318362500286,1.6098227500042412,255.36820208300196,256.37014170800103,0.1749750829912955,,,2023-12-13_09h28.10.480,
,,8,1,"['5', '6', '7', '8']",0.1643340410082601,5,2,test,14,256.72673416600446,257.328828083002,258.3330110829993,1.6104259999992792,258.7050980000058,259.70683166600065,0.05920116700872313,,,2023-12-13_09h28.10.480,
,,9,1,['9'],0.3620357489999151,5,1,test,13,259.9355228330096,260.53797404099896,261.5423724160064,1.6108627089997754,262.12157804099843,263.123352583003,0.08699908301059622,,,2023-12-13_09h28.10.480,
,,8,1,"['5', '6', '7', '8']",0.06279024999821559,5,2,test,4,263.43426333300886,264.03633887499745,265.04062495799735,1.611089792000712,265.2823793330026,266.2843947500078,0.29733037400001194,,,2023-12-13_09h28.10.480,
,,8,1,"['5', '6', '7', '8']",0.20644479100883473,5,2,test,9,266.8110227910074,267.4135057500098,268.4180574159982,1.6123342079954455,268.81214158299554,269.81402520800475,0.031761374993948266,,,2023-12-13_09h28.10.480,
,,8,1,"['5', '6', '7', '8']",0.2858534580009291,5,2,test,15,269.98506041600194,270.58729183299874,271.591699541008,1.610159207994002,272.089808625009,273.09158500000194,0.16554674999497365,,,2023-12-13_09h28.10.480,
,,8,1,"['5', '6', '7', '8']",0.25776095800392795,5,2,test,13,273.43797133299813,274.0401102909964,275.0447697500058,1.6108819170040078,275.51834995800164,276.5200778750004,0.12218158299219795,,,2023-12-13_09h28.10.480,
,,9,1,['9'],0.29324408300453797,5,1,test,1,276.81116995800403,277.41320733299654,278.4173515000002,1.6105453750060406,278.9637234999973,279.9655596250086,0.014580542003386654,,,2023-12-13_09h28.10.480,
,,9,1,['9'],0.33643991699500475,5,1,test,12,280.23751562500547,280.8398500409967,281.844168333002,1.6112723749974975,282.42067920800764,283.42246258299565,0.15001254199887626,,,2023-12-13_09h28.10.480,
,,9,1,['9'],0.040614458004711196,5,1,test,5,283.82372666599986,284.4258522080054,285.43005741600064,1.6101017500041053,285.73813858300855,286.7398827500001,0.43449874900397845,,,2023-12-13_09h28.10.480,
,,8,1,"['5', '6', '7', '8']",0.2788092489936389,5,2,test,5,287.4721414579981,288.07430875000136,289.07893995800987,1.6120486250001704,289.5731324579974,290.57496720799827,0.020344624994322658,,,2023-12-13_09h28.10.480,
,,9,1,['9'],0.2433741669956362,5,1,test,13,290.8104603749962,291.41288129100576,292.4175464160071,1.6116132910101442,292.8933843749983,293.8953610000026,0.1287593739980366,,,2023-12-13_09h28.10.480,
,,9,1,['9'],0.1799877080047736,5,1,test,12,294.31244012500974,294.91458599999896,295.91886087499734,1.6107935830077622,296.3618253750028,297.3635903329996,0.07963416600250639,,,2023-12-13_09h28.10.480,
,,8,1,"['5', '6', '7', '8']",0.9188670829898911,5,2,test,16,297.7104937910044,298.3126093750034,299.3169944580004,1.6108267079980578,300.44868650000717,301.4504917500017,0.25785304099554196,,,2023-12-13_09h28.10.480,
,,8,1,"['5', '6', '7', '8']",0.07831087399972603,5,2,test,7,301.9303011250013,302.5325007909996,303.5367834579956,1.6106374590017367,303.81398183300917,304.815731708004,0.2706498330080649,,,2023-12-13_09h28.10.480,
,,9,0,"['5', '6', '7', '8']",0.2518144579953514,5,2,test,19,305.242685833,305.8449032080098,306.8493753750081,1.6102953330118908,307.3294383750035,308.3312210830045,0.3033489169902168,,,2023-12-13_09h28.10.480,
,,8,1,"['5', '6', '7', '8']",0.23813970798801165,5,2,test,16,308.84773095800483,309.44986104100826,310.45435458300926,1.6110591660108184,310.9238949999999,311.92569420799555,0.29309937500511296,,,2023-12-13_09h28.10.480,
,,9,1,['9'],0.187220708001405,5,1,test,8,312.4059187910025,313.00832074999926,314.0128612910048,1.6115089999948395,314.41781995800557,315.41964133300644,0.34085658300318755,,,2023-12-13_09h28.10.480,
,,8,0,['9'],0.09116687400091905,5,1,test,16,315.98133137500554,316.5835171660001,317.58811541600153,1.610858708008891,317.8695432079985,318.8713060410082,0.1514853749977192,,,2023-12-13_09h28.10.480,
,,8,1,"['5', '6', '7', '8']",0.16313991601055022,4,2,test,4,319.231417832998,319.8338357080065,320.8382217909966,1.6109899579896592,321.16124545800267,322.163070124996,0.261730832993635,,,2023-12-13_09h28.10.480,
,,8,1,"['5', '6', '7', '8']",0.03552304100594483,4,2,test,1,322.6241098330065,323.22633545800636,324.2307115000003,1.6111976669926662,324.4510871250095,325.4528793329955,0.262059416010743,,,2023-12-13_09h28.10.480,
,,8,1,"['5', '6', '7', '8']",0.10517608300142456,4,2,test,7,325.88301937500364,326.48507974999666,327.4890634159965,1.6106712920009159,327.77610566600924,328.7778748749988,0.21722633299941663,,,2023-12-13_09h28.10.480,
,,9,1,['9'],0.24529099999926984,4,1,test,15,329.2145698749955,329.8171343330032,330.8212013750017,1.6107553329929942,331.28907987500133,332.29087920799793,0.31898037499922793,,,2023-12-13_09h28.10.480,
,,9,1,['9'],0.1878874999965774,4,1,test,15,332.83312920799654,333.4353269580024,334.43947966600535,1.6108672500122339,334.82250612499774,335.8243824999954,0.37564383300195914,,,2023-12-13_09h28.10.480,
,,9,1,['9'],0.1451549579942366,5,1,test,13,336.40712583300774,337.00924187499913,338.01333308299945,1.6106715829955647,338.39402575000713,339.3957804579986,0.03002862499852199,,,2023-12-13_09h28.10.480,
,,9,1,['9'],1.081859040990821,5,1,test,1,339.6463893330074,340.2483534159983,341.25259879100486,1.6098582090053242,342.5508764999977,343.55270154100435,0.17150833299092483,,,2023-12-13_09h28.10.480,
,,9,1,['9'],0.031463874998735264,5,1,test,13,343.9593478330062,344.56157462499687,345.56607066599827,1.6104347919899737,345.79938425,346.8011777500069,0.3507168739888584,,,2023-12-13_09h28.10.480,
,,9,1,['9'],0.3579076659952989,5,1,test,7,347.38630837500386,347.9886875410011,348.99384412499785,1.612154874994303,349.57873537500564,350.58055129100103,0.08668750000651926,,,2023-12-13_09h28.10.480,
,,8,1,"['5', '6', '7', '8']",1.3192483330058167,5,2,test,18,350.9100453330029,351.5120995830075,352.51635387500573,1.6105552079970948,354.1078737909993,355.1096625000064,0.11442891600017902,,,2023-12-13_09h28.10.480,
,,8,1,"['5', '6', '7', '8']",0.15699608300928958,5,2,test,13,355.43808883300517,356.0403699580056,357.0447021660075,1.6108848750009201,357.38248441599717,358.38425920800364,0.1290116659947671,,,2023-12-13_09h28.10.480,
,,8,1,"['5', '6', '7', '8']",0.16104058299970347,5,2,test,9,358.71138475000043,359.31351979100145,360.3181435410079,1.6112755409994861,360.6489048329968,361.65066645800835,0.2536462910065893,,,2023-12-13_09h28.10.480,
,,8,0,['9'],0.18757754199032206,5,1,test,13,362.13888741600385,362.74108033299854,363.74534125000355,1.610265958996024,364.123379666009,365.12514066600124,0.07809662500221748,,,2023-12-13_09h28.10.480,
,,8,1,"['5', '6', '7', '8']",0.11265008299960755,5,2,test,3,365.3880013750022,365.9900750829984,366.99414933299704,1.6100708340090932,367.2903975829977,368.2922081660072,0.03440925000177231,,,2023-12-13_09h28.10.480,
,,9,0,"['5', '6', '7', '8']",0.0913442489982117,5,2,test,19,368.4815534579975,369.0835705829959,370.0879605000082,1.6098149169993121,370.40314841600775,371.40496891600196,0.3043749159987783,,,2023-12-13_09h28.10.480,
,,8,1,"['5', '6', '7', '8']",0.21201445799670182,4,2,test,12,371.9435998330009,372.5457020409958,373.5499196250021,1.6099027500022203,373.96382029099914,374.96555762500793,0.09498795800027438,,,2023-12-13_09h28.10.480,
,,8,1,"['5', '6', '7', '8']",0.11889895799686201,4,2,test,7,375.24961412500124,375.8517303330009,376.8560378749971,1.6109072499966715,377.1353642500035,378.1371789160039,0.025346624999656342,,,2023-12-13_09h28.10.480,
,,8,1,"['5', '6', '7', '8']",0.14405237400205806,4,2,test,13,378.2976898330089,378.8998404580052,379.90437166600896,1.610204500000691,380.1914651249972,381.19336679100525,0.21917079099512193,,,2023-12-13_09h28.10.480,
,,9,1,['9'],0.2522465420042863,4,1,test,1,381.5974497910065,382.19953483300924,383.20796083300957,1.6146689169981983,383.6776246250083,384.6793947499973,0.2863064989942359,,,2023-12-13_09h28.10.480,
,,9,1,['9'],0.11207383299188223,4,1,test,2,385.2108035830024,385.81293658299546,386.8171492499969,1.615913499990711,387.1462823750044,388.1480740410043,0.013499373992090113,,,2023-12-13_09h28.10.480,
,,8,1,"['5', '6', '7', '8']",0.01927233301103115,5,2,test,13,388.3913080409984,388.9935628329986,389.9981370000023,1.6108263339992845,390.2386222080095,391.24045741600276,0.2643744160013739,,,2023-12-13_09h28.10.480,
,,8,1,"['5', '6', '7', '8']",0.08621616700838786,5,2,test,7,391.71489437500713,392.3169832499989,393.3209550409956,1.609607500009588,393.57016550000117,394.57194662500115,0.17776799999410287,,,2023-12-13_09h28.10.480,
,,8,0,['9'],0.1905472080106847,5,1,test,15,394.9212071660004,395.5233874999976,396.5276390000072,1.610136125003919,396.91392541599635,397.9157136249996,0.01709487500193063,,,2023-12-13_09h28.10.480,
,,8,1,"['5', '6', '7', '8']",0.0008584989991504699,5,2,test,17,398.0992229160038,398.70132645800186,399.70570950000547,1.610328541995841,399.89590041599877,400.89768087500124,0.07315666700014845,,,2023-12-13_09h28.10.480,
,,8,1,"['5', '6', '7', '8']",0.26775833300780505,5,2,test,11,401.13918937499693,401.7412815410062,402.7456711249979,1.6101865419914247,403.2111317910021,404.212884958004,0.2860614160017576,,,2023-12-13_09h28.10.480,
,,8,0,['9'],0.36262129100214224,5,1,test,15,404.701452541005,405.3036443750025,406.3077698749985,1.610155250004027,406.8481930410053,407.8499631250015,0.024839792007696815,,,2023-12-13_09h28.10.480,
,,9,1,['9'],0.2497277079964988,4,1,test,6,408.02871275000507,408.63082420799765,409.63512945800903,1.6105036250082776,410.0645662909956,411.066354458002,0.13644854100130033,,,2023-12-13_09h28.10.480,
,,9,1,['9'],0.20414975000312552,4,1,test,4,411.3956025829975,411.99772204100736,413.00232583300385,1.6107760420127306,413.4005225410074,414.40245470800437,0.17576225000084378,,,2023-12-13_09h28.10.480,
,,9,1,['9'],0.22513295800308697,4,1,test,14,414.7902275410015,415.3924221250054,416.39651354099624,1.6128782919986406,416.8337440000032,417.8355125829985,0.29051074899325613,,,2023-12-13_09h28.10.480,
,,9,1,['9'],0.26280808298906777,4,1,test,16,418.35747479100246,418.9598109159997,419.9644015410013,1.610752666994813,420.41952308300824,421.42127537500346,0.2257715830055531,,,2023-12-13_09h28.10.480,
,,8,1,"['5', '6', '7', '8']",0.2530963739991421,4,2,test,9,421.8482278750016,422.4503947500052,423.4544685000001,1.6106133749999572,423.9228091660043,424.9246758329973,0.28549404100340325,,,2023-12-13_09h28.10.480,
,,9,0,"['5', '6', '7', '8']",0.5562875829928089,5,2,test,19,425.4131225000019,426.01522137499705,427.0194134159974,1.6104972080065636,427.8182000829984,428.81994258300983,0.15525491599692032,,,2023-12-13_09h28.10.480,
,,8,1,"['5', '6', '7', '8']",0.15878079099638853,5,2,test,3,429.1724987500056,429.77479679099633,430.778949790998,1.6100564160005888,431.11763204100134,432.1193915830081,0.027865373995155096,,,2023-12-13_09h28.10.480,
,,8,1,"['5', '6', '7', '8']",0.23066324899264146,5,2,test,1,432.30994216600084,432.9121094580041,433.91609741600405,1.6100649170111865,434.3149537080026,435.3167583750037,0.22547479100467172,,,2023-12-13_09h28.10.480,
,,8,1,"['5', '6', '7', '8']",0.2209531240077922,5,2,test,8,435.7356374160008,436.33772725000745,437.341842875001,1.6098483329988085,437.73026308300905,438.73201925000467,0.23748254201200325,,,2023-12-13_09h28.10.480,
,,9,1,['9'],0.20704304100945592,5,1,test,3,439.1169634580001,439.7194141660002,440.7237996250042,1.61085945800005,441.1660754159966,442.16793870800757,0.22358854200865608,,,2023-12-13_09h28.10.480,
,,9,1,['9'],0.030145625001750886,5,1,test,9,442.62260204099584,443.22468412500166,444.22881445800886,1.6107733750104671,444.4534215830063,445.45524254100746,0.2075219999969704,,,2023-12-13_09h28.10.480,
,,8,1,"['5', '6', '7', '8']",0.18893658299930394,5,2,test,18,445.8846615000075,446.4867132500076,447.4911209999991,1.6110009589901892,447.8909807500022,448.89292404100706,0.130277541000396,,,2023-12-13_09h28.10.480,
,,9,1,['9'],0.12851037399377674,5,1,test,3,449.2028402910073,449.80523700000776,450.80965904099867,1.6105691249977099,451.14515662500344,452.14696379100496,0.20143637398723513,,,2023-12-13_09h28.10.480,
,,8,1,"['5', '6', '7', '8']",0.08304158299870323,5,2,test,6,452.580676166006,453.18278324999847,454.18703562500014,1.6107568750012433,454.4316785830015,455.43354158299917,0.006075333003536798,,,2023-12-13_09h28.10.480,
,,9,1,['9'],0.43205899999884423,5,1,test,1,455.62167483300436,456.22382116600056,457.22814641600417,1.609938791996683,457.8582007500081,458.8599897910026,0.07604004099266604,,,2023-12-13_09h28.10.480,
,,9,1,['9'],0.25988574999792036,5,1,test,6,459.14726937499654,459.74965549999615,460.7541835830052,1.610806999990018,461.214179875009,462.21607537500677,0.20758941701205913,,,2023-12-13_09h28.10.480,
,,8,0,['9'],0.6902094580000266,5,1,test,11,462.6286967909982,463.23077475000173,464.2349748330016,1.6107202090061037,465.110604875008,466.11239387500973,0.24028320799698122,,,2023-12-13_09h28.10.480,
,,8,1,"['5', '6', '7', '8']",0.14889983300236054,5,2,test,10,466.51781000000483,467.1199212500069,468.1243449159956,1.6108740420022514,468.4254515829962,469.42726983300236,0.18465362400456797,,,2023-12-13_09h28.10.480,
,,8,1,"['5', '6', '7', '8']",0.1364881659974344,5,2,test,5,469.75230358300905,470.3545049999957,471.35875741600466,1.6112437910051085,471.62760191599955,472.62939679100236,0.2316666659899056,,,2023-12-13_09h28.10.480,
,,8,1,"['5', '6', '7', '8']",0.13710137399903033,5,2,test,14,472.9978890830098,473.59994958300376,474.6041577080032,1.610614125005668,474.9106193750049,475.9123619160091,0.1806833329901565,,,2023-12-13_09h28.10.480,
,,8,1,"['5', '6', '7', '8']",0.10096274899842683,5,2,test,6,476.23896012500336,476.84104687500803,477.8453433329996,1.6108497499953955,478.0933702080074,479.0951615829981,0.081975583001622,,,2023-12-13_09h28.10.480,
,,8,1,"['5', '6', '7', '8']",0.1683686670003226,5,2,test,9,479.32691920800426,479.92937937499664,480.93415341600485,1.6114570420031669,481.2626845830091,482.26446679100627,0.47650462499586865,,,2023-12-13_09h28.10.480,
,,8,1,"['5', '6', '7', '8']",0.28123358300945256,5,2,test,10,482.92497712500335,483.5271866660041,484.5313337910047,1.612766374993953,484.98019025000394,485.9820537909982,0.28297695799847133,,,2023-12-13_09h28.10.480,
,,8,1,"['5', '6', '7', '8']",0.2842258330056211,5,2,test,17,486.4160806250002,487.0182268329954,488.02231491600105,1.610606166999787,488.43379424999875,489.43562041599944,0.04865662500378676,,,2023-12-13_09h28.10.480,
,,8,1,"['5', '6', '7', '8']",0.04725420799513813,5,2,test,15,489.6117917500087,490.21391766599845,491.2192540830001,1.6116957500053104,491.4051439159957,492.4069161660009,0.035653208004077896,,,2023-12-13_09h28.10.480,
,,9,1,['9'],0.06460495801002253,5,1,test,15,492.5862072910095,493.18873062499915,494.193100125005,1.6103729590104194,494.4944364999974,495.49629399999685,0.06627091699920129,,,2023-12-13_09h28.10.480,
,,9,1,['9'],0.18135670800984371,5,1,test,7,495.75369958300143,496.3560749160097,497.3602270410047,1.6103259999945294,497.7387925829971,498.7405869159993,0.0495014159969287,,,2023-12-13_09h28.10.480,
,,8,1,"['5', '6', '7', '8']",0.09579074900830165,5,2,test,15,498.99842045799596,499.6008678750077,500.6050094579987,1.6102176249987679,500.8928095410083,501.8947827910015,0.3674658329982776,,,2023-12-13_09h28.10.480,
,,9,1,['9'],0.021916749989031814,5,1,test,8,502.4503200409963,503.05243970800075,504.0568337910081,1.6108921660052147,504.28167562499584,505.2834777079988,0.14999245799845085,,,2023-12-13_09h28.10.480,
,,8,1,"['5', '6', '7', '8']",0.25391037500230595,5,2,test,10,505.6623711660068,506.2644260829984,507.26892312499695,1.610877041995991,507.7017528330034,508.7036215830012,0.10763529100222513,,,2023-12-13_09h28.10.480,
,,8,1,"['5', '6', '7', '8']",0.14145254199684132,5,2,test,13,508.94156604100135,509.54407245799666,510.54838316600944,1.6113219169928925,510.83011233300203,511.83190604099946,0.021640958002535626,,,2023-12-13_09h28.10.480,
,,9,1,['9'],0.02479487498931121,5,1,test,7,511.96764966599585,512.5697944999993,513.5740006660053,1.6100261670071632,513.7974438329984,514.7992412500025,0.03462174900050741,,,2023-12-13_09h28.10.480,
,,9,1,['9'],0.26649608300067484,5,1,test,5,515.0292884160008,515.6313589159981,516.6354317910009,1.6102659999887692,517.085402458004,518.0871543329995,0.08936479200201575,,,2023-12-13_09h28.10.480,
,,9,1,['9'],0.21068737500172574,5,1,test,2,518.372222207996,518.9742542500026,519.9786353750096,1.610449832995073,520.3778505000082,521.3796666249982,0.009654333000071347,,,2023-12-13_09h28.10.480,
,,9,1,['9'],0.008856417000060901,5,1,test,16,521.5800092080026,522.182094541,523.1861962080002,1.6099331250006799,523.4026209580043,524.4043989159982,0.07308220799313858,,,2023-12-13_09h28.10.480,
,,8,1,"['5', '6', '7', '8']",0.17666033300338313,5,2,test,9,524.6658666250005,525.2680091250077,526.2723534999968,1.6100283750129165,526.6477913330018,527.6495699160005,0.21798662400397006,,,2023-12-13_09h28.10.480,
,,8,1,"['5', '6', '7', '8']",0.08515095799521077,5,2,test,19,528.0518398330023,528.6540492500062,529.6583112500084,1.6109859169955598,529.9090507500077,530.9108439580014,0.2500252910103882,,,2023-12-13_09h28.10.480,
,,9,1,['9'],0.5614961660030531,5,1,test,15,531.2958678750001,531.8980020000017,532.9026454580016,1.6112731670000358,533.6748970409972,534.6766944999981,0.0492022079997696,,,2023-12-13_09h28.10.480,
,,9,1,['9'],0.621256208003615,5,1,test,15,534.8989288330049,535.5010350410012,536.505081166004,1.609781416002079,537.3324780830008,538.334243749996,0.08144283299043309,,,2023-12-13_09h28.10.480,
,,8,1,"['5', '6', '7', '8']",0.19454749900614843,5,2,test,18,538.6085818749998,539.2106643750012,540.215114000006,1.6107692080113338,540.6109831659996,541.6127540000016,0.5208992499974556,,,2023-12-13_09h28.10.480,
,,9,1,['9'],0.06874291600252036,5,1,test,16,542.2610935830016,542.8633793330082,543.8674902909988,1.6100350830092793,544.1545517909981,545.1563382500026,0.07031733299663756,,,2023-12-13_09h28.10.480,
,,9,1,['9'],0.01857012399705127,5,1,test,15,545.453614500002,546.0557319579966,547.0596937500086,1.6100951669941423,547.297709749997,548.2995113750076,0.09267824899870902,,,2023-12-13_09h28.10.480,
,,8,1,"['5', '6', '7', '8']",0.1246921249985462,5,2,test,13,548.5935055000009,549.1956103330012,550.199938040998,1.6104995829955442,550.4870658330037,551.4889067500044,0.0019191659957868978,,,2023-12-13_09h28.10.480,
,,8,1,"['5', '6', '7', '8']",0.0605727499932982,5,2,test,8,551.652466665997,552.2546184999956,553.258952958,1.6102438750094734,553.4683773750003,554.4701787079975,0.22172341600526124,,,2023-12-13_09h28.10.480,
,,9,1,['9'],0.2805562490102602,5,1,test,12,554.8605963330047,555.4626154160069,556.4668535410019,1.6101760000019567,556.9478435000055,557.9496187909972,0.0763047080108663,,,2023-12-13_09h28.10.480,
,,9,1,['9'],0.008861624999553896,5,1,test,6,558.2422405830002,558.8443661250058,559.8488630829961,1.6100472079997417,560.0380448750075,561.0397954579967,0.043647083002724685,,,2023-12-13_09h28.10.480,
,,9,1,['9'],0.2536719159979839,5,1,test,4,561.2932664160035,561.8956757080014,562.9000294580037,1.610233291008626,563.3481658329983,564.349987708003,0.061946540998178534,,,2023-12-13_09h28.10.480,
,,8,1,"['5', '6', '7', '8']",0.15627783301169984,5,2,test,5,564.6106323749991,565.2126908329956,566.2174289579998,1.6105449999886332,566.5272072910011,567.5289510000002,0.0830019160057418,,,2023-12-13_09h28.10.480,
,,9,1,['9'],0.02291754199541174,5,1,test,2,567.7694340000016,568.3715991659992,569.3756685410044,1.6099586250056745,569.6069124159985,570.6087199159956,0.035587332997238263,,,2023-12-13_09h28.10.480,
,,9,0,"['5', '6', '7', '8']",0.1817570830025943,5,2,test,3,570.8415706250089,571.4436527910002,572.4478977499966,1.6099535409884993,572.8311397910002,573.8329499579995,0.0920924990059575,,,2023-12-13_09h28.10.480,
,,8,1,"['5', '6', '7', '8']",0.05390162399271503,5,2,test,19,574.1554945000098,574.7582540000003,575.7628588750085,1.6109792080096668,575.9691885829961,576.9709925829957,0.24044654100725893,,,2023-12-13_09h28.10.480,
,,9,1,['9'],0.14540845798910595,5,1,test,11,577.4239087909955,578.0258985830005,579.0302911659965,1.6102176249987679,579.3923960410029,580.3941770000092,0.11017695801274385,,,2023-12-13_09h28.10.480,
,,9,1,['9'],0.1320251239958452,5,1,test,10,580.7135455829994,581.3157948330045,582.3199398750003,1.6099442499980796,582.6602390409971,583.6619795830047,0.05274262500461191,,,2023-12-13_09h28.10.480,
,,9,1,['9'],0.2385803329962073,5,1,test,8,583.925722208005,584.5279420000006,585.532342874998,1.610233374987729,586.0148286250042,587.0167045410053,0.2547236250102287,,,2023-12-13_09h28.10.480,
,,8,0,['9'],0.48051429199404083,5,1,test,2,587.4919384579989,588.0941803750029,589.0985230000078,1.6113496659963857,589.7454460000008,590.7472115410055,0.059093582996865734,,,2023-12-13_09h28.10.480,
,,9,1,['9'],0.16656075000355486,5,1,test,16,590.9849884160067,591.5870008750062,592.5913345830049,1.6101421249913983,592.9799332080001,593.9817387910007,0.08703008299926296,,,2023-12-13_09h28.10.480,
,,8,1,"['5', '6', '7', '8']",0.16480858299473766,5,2,test,5,594.2808899160009,594.8830319999979,595.8871336660086,1.6099965000030352,596.2249280830001,597.2267793329956,0.2926873329997761,,,2023-12-13_09h28.10.480,
,,8,1,"['5', '6', '7', '8']",0.12114045800990425,5,2,test,12,597.6885471249989,598.2905735000095,599.2948498330079,1.6106702090037288,599.5451871660043,600.5470713749964,0.2643928750039777,,,2023-12-13_09h28.10.480,
,,9,1,['9'],0.0027130410016980022,5,1,test,10,600.9979319999984,601.600015457996,602.6043525410059,1.611000333999982,602.8370260829979,603.838826207997,0.1299789159966167,,,2023-12-13_09h28.10.480,
,,8,1,"['5', '6', '7', '8']",0.2592061250034021,5,2,test,7,604.1675156660058,604.7697631659976,605.7739200409997,1.6105169170041336,606.1992145830009,607.2009633749985,0.19883045798633248,,,2023-12-13_09h28.10.480,
,,9,1,['9'],0.24935549999645445,5,1,test,3,607.5385332910082,608.140585333007,609.1449492079992,1.6105687500094064,609.6372660000052,610.6390265000082,0.08855258299445268,,,2023-12-13_09h28.10.480,
,,8,1,"['5', '6', '7', '8']",0.12481504199968185,5,2,test,1,610.9503687499964,611.5524298329983,612.5565568330057,1.6100530000112485,612.8713937080029,613.8731425830047,0.2376904990087496,,,2023-12-13_09h28.10.480,
,,8,1,"['5', '6', '7', '8']",0.15401620799093507,5,2,test,10,614.2983017500082,614.9003845830011,615.9044312500046,1.6099496669921791,616.1881935410056,617.1898975000076,0.0671423329913523,,,2023-12-13_09h28.10.480,
,,9,1,['9'],0.01791958299872931,5,1,test,15,617.4088483329979,618.0109067080048,619.0153404160083,1.6098739160079276,619.2319296250062,620.2336629159981,0.12856595798803028,,,2023-12-13_09h28.10.480,
,,8,1,"['5', '6', '7', '8']",0.10806316600064747,5,2,test,15,620.5765944580053,621.1786621250067,622.1832341249974,1.6107180420076475,622.4706325830048,623.4724393329961,0.3195274580066325,,,2023-12-13_09h28.10.480,
,,8,1,"['5', '6', '7', '8']",0.2183587909967173,5,2,test,15,623.9327242910076,624.5347865410004,625.5390885410015,1.6103944999922533,625.9124191250012,626.9141685000068,0.2766566240024986,,,2023-12-13_09h28.10.480,
,,8,1,"['5', '6', '7', '8']",0.18052220800018404,5,2,test,7,627.3754310829972,627.9774641660042,628.9818821250083,1.6102979590068571,629.3233894160076,630.3251439160085,0.18581133300904185,,,2023-12-13_09h28.10.480,
,,9,1,['9'],0.0449066250002943,5,1,test,11,630.6984278330056,631.300511791007,632.3045407080062,1.6097820419963682,632.536473375003,633.5382714580046,0.29128720800508745,,,2023-12-13_09h28.10.480,
,,9,1,['9'],0.1661600420047762,5,1,test,3,634.0225060000084,634.6249040410039,635.6293917500007,1.6107735420082463,635.9783619160007,636.980105708004,0.2780903330130968,,,2023-12-13_09h28.10.480,
,,9,1,['9'],0.11715674999868497,5,1,test,9,637.4457642080088,638.0479392499983,639.0524401250004,1.6105903329880675,639.3746135830006,640.3764414580073,0.005041374999564141,,,2023-12-13_09h28.10.480,
,,8,1,"['5', '6', '7', '8']",0.2472124170017196,5,2,test,10,640.572410000008,641.1744405000063,642.1785740409978,1.6098559590027435,642.6406339999958,643.6424427500024,0.3247028330079047,,,2023-12-13_09h28.10.480,
,,8,1,"['5', '6', '7', '8']",0.09055770799750462,5,2,test,5,644.0868935000035,644.6890592910058,645.6931645410077,1.6101820829935605,645.9212307499984,646.9232243330043,0.22838758300349582,,,2023-12-13_09h28.10.480,
,,9,1,['9'],0.18687766599759925,5,1,test,5,647.3126376250002,647.914682165996,648.9189972080057,1.6109454999968875,649.2897787910042,650.2915117079974,0.06684887400479056,,,2023-12-13_09h28.10.480,
,,8,1,"['5', '6', '7', '8']",0.19626616599271074,5,2,test,7,650.5554608329985,651.1575122079958,652.1616776660085,1.6097635829937644,652.5076753330068,653.5094554579991,0.19302479100588243,,,2023-12-13_09h28.10.480,
,,9,1,['9'],0.013594625008408912,5,1,test,12,653.8699564999988,654.4721135,655.4761670000007,1.6101207910105586,655.6647741659981,656.6665176250099,0.011086333004641347,,,2023-12-13_09h28.10.480,
,,8,1,"['5', '6', '7', '8']",0.01057345799927134,5,2,test,3,656.8699555000057,657.4721082909964,658.4763654160051,1.6103640420042211,658.6516517499986,659.6533980410022,0.26037891599116847,,,2023-12-13_09h28.10.480,
,,9,1,['9'],0.020515041003818624,5,1,test,10,660.0930633749958,660.695202582996,661.6993795000017,1.6102457079978194,661.9025307499978,662.9043626250059,0.28312866599299014,,,2023-12-13_09h28.10.480,
,,9,1,['9'],0.22483974900387693,5,1,test,6,663.3850470000034,663.9871074580005,664.9911031660013,1.6098420420021284,665.4123147500068,666.4140733329987,0.10749766600201838,,,2023-12-13_09h28.10.480,
