"success","timeout","failed_images","failed_audio","failed_video","trial_type","trial_index","time_elapsed","internal_node_id","subject_id","study_id","session_id","rt","stimulus","response","task","correct_response","exemplar_ID","category","correct"
"true","false","[]","[]","[]","preload","0","2","0.0-0.0","","","","","","","","","","",""
"","","","","","html-keyboard-response","1","2070","0.0-1.0","","","","2068","Welcome to the Category Learning experiment! Press any key to continue."," ","welcome","","","",""
"","","","","","html-keyboard-response","2","18981","0.0-2.0","","","","16911","<p>You will be shown images and each image will contain a set of black dots. Each image will belong to one of two categories: category A or category B.
            <br>You will not know in advance which category the given collection of dots belongs to.</p>
            <p>After you see an image you will be asked to categorize it into <b>category A (by pressing the left arrow key)</b> or <b>category B (by pressing the right arrow key)</b>
            as quickly as possible.</p>
            <p>After you make a choice you will receive feedback telling you whether you matched the image to the correct category or not.</p>
            <p>Your goal is to categorize as many sets of dots correctly as possible.</p>
            <p>Press any key to begin.</p>"," ","introduction","","","",""
"","","","","","html-keyboard-response","3","19336","0.0-3.0-0.0","","","","null","
            
        <div style=""text-align: center; position: fixed; top: 5vh; left: 40vw;"">
            <div style=""margin:0 auto; width: 20vw; top: 8vh; font-size: 1vw""> 
                Current score : <font color=""green""> 0 points </font>
            </div>
        </div>
    
            <div style=""font-size:60px;"">+</div>
        ","null","ITI","","","",""
"","","","","","html-keyboard-response","4","20341","0.0-3.0-1.0","","","","null","
        
        <div style=""text-align: center; position: fixed; top: 5vh; left: 40vw;"">
            <div style=""margin:0 auto; width: 20vw; top: 8vh; font-size: 1vw""> 
                Current score : <font color=""green""> 0 points </font>
            </div>
        </div>
    
        <img class=""stim"" src=./stimuli//pack_easy/cat_1/ex_1_63.png></img>
    ","null","stimulus","","","",""
"","","","","","html-keyboard-response","5","21345","0.0-3.0-2.0","","","","null","
        <div style=""text-align: center; position: fixed; top: 5vh; left: 40vw;"">
            <div style=""margin:0 auto; width: 20vw; top: 8vh; font-size: 1vw""> 
                Current score : <font color=""green""> 0 points </font>
            </div>
        </div>
    ","null","","","","",""
"","","","","","html-keyboard-response","6","22453","0.0-3.0-3.0","","","","1106","./stimuli//pack_easy/cat_1/ex_1_63.png","arrowright","response","ArrowLeft","63","1","false"
"","","","","","html-keyboard-response","7","23957","0.0-3.0-4.0","","","","null","<p> <font color=""red"" size=""4vw""> Wrong category! </font> </p>","null","feedback","","","",""
"","","","","","html-keyboard-response","8","24308","0.0-3.0-0.1","","","","null","
            
        <div style=""text-align: center; position: fixed; top: 5vh; left: 40vw;"">
            <div style=""margin:0 auto; width: 20vw; top: 8vh; font-size: 1vw""> 
                Current score : <font color=""green""> 0 points </font>
            </div>
        </div>
    
            <div style=""font-size:60px;"">+</div>
        ","null","ITI","","","",""
"","","","","","html-keyboard-response","9","25311","0.0-3.0-1.1","","","","null","
        
        <div style=""text-align: center; position: fixed; top: 5vh; left: 40vw;"">
            <div style=""margin:0 auto; width: 20vw; top: 8vh; font-size: 1vw""> 
                Current score : <font color=""green""> 0 points </font>
            </div>
        </div>
    
        <img class=""stim"" src=./stimuli//pack_easy/cat_2/ex_2_45.png></img>
    ","null","stimulus","","","",""
"","","","","","html-keyboard-response","10","26312","0.0-3.0-2.1","","","","null","
        <div style=""text-align: center; position: fixed; top: 5vh; left: 40vw;"">
            <div style=""margin:0 auto; width: 20vw; top: 8vh; font-size: 1vw""> 
                Current score : <font color=""green""> 0 points </font>
            </div>
        </div>
    ","null","","","","",""
"","","","","","html-keyboard-response","11","26597","0.0-3.0-3.1","","","","285","./stimuli//pack_easy/cat_2/ex_2_45.png","arrowleft","response","ArrowRight","45","2","false"
"","","","","","html-keyboard-response","12","28099","0.0-3.0-4.1","","","","null","<p> <font color=""red"" size=""4vw""> Wrong category! </font> </p>","null","feedback","","","",""
"","","","","","html-keyboard-response","13","28450","0.0-3.0-0.2","","","","null","
            
        <div style=""text-align: center; position: fixed; top: 5vh; left: 40vw;"">
            <div style=""margin:0 auto; width: 20vw; top: 8vh; font-size: 1vw""> 
                Current score : <font color=""green""> 0 points </font>
            </div>
        </div>
    
            <div style=""font-size:60px;"">+</div>
        ","null","ITI","","","",""
"","","","","","html-keyboard-response","14","29452","0.0-3.0-1.2","","","","null","
        
        <div style=""text-align: center; position: fixed; top: 5vh; left: 40vw;"">
            <div style=""margin:0 auto; width: 20vw; top: 8vh; font-size: 1vw""> 
                Current score : <font color=""green""> 0 points </font>
            </div>
        </div>
    
        <img class=""stim"" src=./stimuli//pack_easy/cat_1/ex_1_20.png></img>
    ","null","stimulus","","","",""
"","","","","","html-keyboard-response","15","30458","0.0-3.0-2.2","","","","null","
        <div style=""text-align: center; position: fixed; top: 5vh; left: 40vw;"">
            <div style=""margin:0 auto; width: 20vw; top: 8vh; font-size: 1vw""> 
                Current score : <font color=""green""> 0 points </font>
            </div>
        </div>
    ","null","","","","",""
"","","","","","html-keyboard-response","16","30877","0.0-3.0-3.2","","","","418","./stimuli//pack_easy/cat_1/ex_1_20.png","arrowleft","response","ArrowLeft","20","1","true"
"","","","","","html-keyboard-response","17","32378","0.0-3.0-4.2","","","","null","<p> <font color=""green"" size=""4vw""> Correct category! </font> <br> <br> <font color=""green"" size=""7vw""> +10 points </font> </p>","null","feedback","","","",""
"","","","","","html-keyboard-response","18","32729","0.0-3.0-0.3","","","","null","
            
        <div style=""text-align: center; position: fixed; top: 5vh; left: 40vw;"">
            <div style=""margin:0 auto; width: 20vw; top: 8vh; font-size: 1vw""> 
                Current score : <font color=""green""> 10 points </font>
            </div>
        </div>
    
            <div style=""font-size:60px;"">+</div>
        ","null","ITI","","","",""
"","","","","","html-keyboard-response","19","33735","0.0-3.0-1.3","","","","null","
        
        <div style=""text-align: center; position: fixed; top: 5vh; left: 40vw;"">
            <div style=""margin:0 auto; width: 20vw; top: 8vh; font-size: 1vw""> 
                Current score : <font color=""green""> 10 points </font>
            </div>
        </div>
    
        <img class=""stim"" src=./stimuli//pack_easy/cat_2/ex_2_29.png></img>
    ","null","stimulus","","","",""
"","","","","","html-keyboard-response","20","34740","0.0-3.0-2.3","","","","null","
        <div style=""text-align: center; position: fixed; top: 5vh; left: 40vw;"">
            <div style=""margin:0 auto; width: 20vw; top: 8vh; font-size: 1vw""> 
                Current score : <font color=""green""> 10 points </font>
            </div>
        </div>
    ","null","","","","",""
"","","","","","html-keyboard-response","21","35037","0.0-3.0-3.3","","","","297","./stimuli//pack_easy/cat_2/ex_2_29.png","arrowright","response","ArrowRight","29","2","true"
"","","","","","html-keyboard-response","22","36541","0.0-3.0-4.3","","","","null","<p> <font color=""green"" size=""4vw""> Correct category! </font> <br> <br> <font color=""green"" size=""7vw""> +10 points </font> </p>","null","feedback","","","",""
"","","","","","html-keyboard-response","23","36893","0.0-3.0-0.4","","","","null","
            
        <div style=""text-align: center; position: fixed; top: 5vh; left: 40vw;"">
            <div style=""margin:0 auto; width: 20vw; top: 8vh; font-size: 1vw""> 
                Current score : <font color=""green""> 20 points </font>
            </div>
        </div>
    
            <div style=""font-size:60px;"">+</div>
        ","null","ITI","","","",""
"","","","","","html-keyboard-response","24","37895","0.0-3.0-1.4","","","","null","
        
        <div style=""text-align: center; position: fixed; top: 5vh; left: 40vw;"">
            <div style=""margin:0 auto; width: 20vw; top: 8vh; font-size: 1vw""> 
                Current score : <font color=""green""> 20 points </font>
            </div>
        </div>
    
        <img class=""stim"" src=./stimuli//pack_easy/cat_2/ex_2_3.png></img>
    ","null","stimulus","","","",""
"","","","","","html-keyboard-response","25","38897","0.0-3.0-2.4","","","","null","
        <div style=""text-align: center; position: fixed; top: 5vh; left: 40vw;"">
            <div style=""margin:0 auto; width: 20vw; top: 8vh; font-size: 1vw""> 
                Current score : <font color=""green""> 20 points </font>
            </div>
        </div>
    ","null","","","","",""
"","","","","","html-keyboard-response","26","39173","0.0-3.0-3.4","","","","275","./stimuli//pack_easy/cat_2/ex_2_3.png","arrowleft","response","ArrowRight","3","2","false"
"","","","","","html-keyboard-response","27","40674","0.0-3.0-4.4","","","","null","<p> <font color=""red"" size=""4vw""> Wrong category! </font> </p>","null","feedback","","","",""
"","","","","","html-keyboard-response","28","41026","0.0-3.0-0.5","","","","null","
            
        <div style=""text-align: center; position: fixed; top: 5vh; left: 40vw;"">
            <div style=""margin:0 auto; width: 20vw; top: 8vh; font-size: 1vw""> 
                Current score : <font color=""green""> 20 points </font>
            </div>
        </div>
    
            <div style=""font-size:60px;"">+</div>
        ","null","ITI","","","",""
"","","","","","html-keyboard-response","29","42031","0.0-3.0-1.5","","","","null","
        
        <div style=""text-align: center; position: fixed; top: 5vh; left: 40vw;"">
            <div style=""margin:0 auto; width: 20vw; top: 8vh; font-size: 1vw""> 
                Current score : <font color=""green""> 20 points </font>
            </div>
        </div>
    
        <img class=""stim"" src=./stimuli//pack_easy/cat_1/ex_1_5.png></img>
    ","null","stimulus","","","",""
"","","","","","html-keyboard-response","30","43032","0.0-3.0-2.5","","","","null","
        <div style=""text-align: center; position: fixed; top: 5vh; left: 40vw;"">
            <div style=""margin:0 auto; width: 20vw; top: 8vh; font-size: 1vw""> 
                Current score : <font color=""green""> 20 points </font>
            </div>
        </div>
    ","null","","","","",""
"","","","","","html-keyboard-response","31","43998","0.0-3.0-3.5","","","","965","./stimuli//pack_easy/cat_1/ex_1_5.png","arrowright","response","ArrowLeft","5","1","false"
"","","","","","html-keyboard-response","32","45500","0.0-3.0-4.5","","","","null","<p> <font color=""red"" size=""4vw""> Wrong category! </font> </p>","null","feedback","","","",""
"","","","","","html-keyboard-response","33","45855","0.0-3.0-0.6","","","","null","
            
        <div style=""text-align: center; position: fixed; top: 5vh; left: 40vw;"">
            <div style=""margin:0 auto; width: 20vw; top: 8vh; font-size: 1vw""> 
                Current score : <font color=""green""> 20 points </font>
            </div>
        </div>
    
            <div style=""font-size:60px;"">+</div>
        ","null","ITI","","","",""
"","","","","","html-keyboard-response","34","46858","0.0-3.0-1.6","","","","null","
        
        <div style=""text-align: center; position: fixed; top: 5vh; left: 40vw;"">
            <div style=""margin:0 auto; width: 20vw; top: 8vh; font-size: 1vw""> 
                Current score : <font color=""green""> 20 points </font>
            </div>
        </div>
    
        <img class=""stim"" src=./stimuli//pack_easy/cat_1/ex_1_36.png></img>
    ","null","stimulus","","","",""
"","","","","","html-keyboard-response","35","47861","0.0-3.0-2.6","","","","null","
        <div style=""text-align: center; position: fixed; top: 5vh; left: 40vw;"">
            <div style=""margin:0 auto; width: 20vw; top: 8vh; font-size: 1vw""> 
                Current score : <font color=""green""> 20 points </font>
            </div>
        </div>
    ","null","","","","",""
"","","","","","html-keyboard-response","36","48189","0.0-3.0-3.6","","","","328","./stimuli//pack_easy/cat_1/ex_1_36.png","arrowleft","response","ArrowLeft","36","1","true"
"","","","","","html-keyboard-response","37","49692","0.0-3.0-4.6","","","","null","<p> <font color=""green"" size=""4vw""> Correct category! </font> <br> <br> <font color=""green"" size=""7vw""> +10 points </font> </p>","null","feedback","","","",""
"","","","","","html-keyboard-response","38","50043","0.0-3.0-0.7","","","","null","
            
        <div style=""text-align: center; position: fixed; top: 5vh; left: 40vw;"">
            <div style=""margin:0 auto; width: 20vw; top: 8vh; font-size: 1vw""> 
                Current score : <font color=""green""> 30 points </font>
            </div>
        </div>
    
            <div style=""font-size:60px;"">+</div>
        ","null","ITI","","","",""
"","","","","","html-keyboard-response","39","51044","0.0-3.0-1.7","","","","null","
        
        <div style=""text-align: center; position: fixed; top: 5vh; left: 40vw;"">
            <div style=""margin:0 auto; width: 20vw; top: 8vh; font-size: 1vw""> 
                Current score : <font color=""green""> 30 points </font>
            </div>
        </div>
    
        <img class=""stim"" src=./stimuli//pack_easy/cat_2/ex_2_11.png></img>
    ","null","stimulus","","","",""
"","","","","","html-keyboard-response","40","52046","0.0-3.0-2.7","","","","null","
        <div style=""text-align: center; position: fixed; top: 5vh; left: 40vw;"">
            <div style=""margin:0 auto; width: 20vw; top: 8vh; font-size: 1vw""> 
                Current score : <font color=""green""> 30 points </font>
            </div>
        </div>
    ","null","","","","",""
"","","","","","html-keyboard-response","41","52350","0.0-3.0-3.7","","","","303","./stimuli//pack_easy/cat_2/ex_2_11.png","arrowleft","response","ArrowRight","11","2","false"
"","","","","","html-keyboard-response","42","53855","0.0-3.0-4.7","","","","null","<p> <font color=""red"" size=""4vw""> Wrong category! </font> </p>","null","feedback","","","",""
"","","","","","html-keyboard-response","43","54208","0.0-3.0-0.8","","","","null","
            
        <div style=""text-align: center; position: fixed; top: 5vh; left: 40vw;"">
            <div style=""margin:0 auto; width: 20vw; top: 8vh; font-size: 1vw""> 
                Current score : <font color=""green""> 30 points </font>
            </div>
        </div>
    
            <div style=""font-size:60px;"">+</div>
        ","null","ITI","","","",""
"","","","","","html-keyboard-response","44","55210","0.0-3.0-1.8","","","","null","
        
        <div style=""text-align: center; position: fixed; top: 5vh; left: 40vw;"">
            <div style=""margin:0 auto; width: 20vw; top: 8vh; font-size: 1vw""> 
                Current score : <font color=""green""> 30 points </font>
            </div>
        </div>
    
        <img class=""stim"" src=./stimuli//pack_easy/cat_2/ex_2_89.png></img>
    ","null","stimulus","","","",""
"","","","","","html-keyboard-response","45","56212","0.0-3.0-2.8","","","","null","
        <div style=""text-align: center; position: fixed; top: 5vh; left: 40vw;"">
            <div style=""margin:0 auto; width: 20vw; top: 8vh; font-size: 1vw""> 
                Current score : <font color=""green""> 30 points </font>
            </div>
        </div>
    ","null","","","","",""
"","","","","","html-keyboard-response","46","56597","0.0-3.0-3.8","","","","384","./stimuli//pack_easy/cat_2/ex_2_89.png","arrowleft","response","ArrowRight","89","2","false"
"","","","","","html-keyboard-response","47","58099","0.0-3.0-4.8","","","","null","<p> <font color=""red"" size=""4vw""> Wrong category! </font> </p>","null","feedback","","","",""
"","","","","","html-keyboard-response","48","58450","0.0-3.0-0.9","","","","null","
            
        <div style=""text-align: center; position: fixed; top: 5vh; left: 40vw;"">
            <div style=""margin:0 auto; width: 20vw; top: 8vh; font-size: 1vw""> 
                Current score : <font color=""green""> 30 points </font>
            </div>
        </div>
    
            <div style=""font-size:60px;"">+</div>
        ","null","ITI","","","",""
"","","","","","html-keyboard-response","49","59451","0.0-3.0-1.9","","","","null","
        
        <div style=""text-align: center; position: fixed; top: 5vh; left: 40vw;"">
            <div style=""margin:0 auto; width: 20vw; top: 8vh; font-size: 1vw""> 
                Current score : <font color=""green""> 30 points </font>
            </div>
        </div>
    
        <img class=""stim"" src=./stimuli//pack_easy/cat_2/ex_2_96.png></img>
    ","null","stimulus","","","",""
"","","","","","html-keyboard-response","50","60453","0.0-3.0-2.9","","","","null","
        <div style=""text-align: center; position: fixed; top: 5vh; left: 40vw;"">
            <div style=""margin:0 auto; width: 20vw; top: 8vh; font-size: 1vw""> 
                Current score : <font color=""green""> 30 points </font>
            </div>
        </div>
    ","null","","","","",""
"","","","","","html-keyboard-response","51","60757","0.0-3.0-3.9","","","","304","./stimuli//pack_easy/cat_2/ex_2_96.png","arrowleft","response","ArrowRight","96","2","false"
"","","","","","html-keyboard-response","52","62261","0.0-3.0-4.9","","","","null","<p> <font color=""red"" size=""4vw""> Wrong category! </font> </p>","null","feedback","","","",""
"","","","","","html-keyboard-response","53","62613","0.0-3.0-0.10","","","","null","
            
        <div style=""text-align: center; position: fixed; top: 5vh; left: 40vw;"">
            <div style=""margin:0 auto; width: 20vw; top: 8vh; font-size: 1vw""> 
                Current score : <font color=""green""> 30 points </font>
            </div>
        </div>
    
            <div style=""font-size:60px;"">+</div>
        ","null","ITI","","","",""
"","","","","","html-keyboard-response","54","63615","0.0-3.0-1.10","","","","null","
        
        <div style=""text-align: center; position: fixed; top: 5vh; left: 40vw;"">
            <div style=""margin:0 auto; width: 20vw; top: 8vh; font-size: 1vw""> 
                Current score : <font color=""green""> 30 points </font>
            </div>
        </div>
    
        <img class=""stim"" src=./stimuli//pack_easy/cat_1/ex_1_71.png></img>
    ","null","stimulus","","","",""
"","","","","","html-keyboard-response","55","64618","0.0-3.0-2.10","","","","null","
        <div style=""text-align: center; position: fixed; top: 5vh; left: 40vw;"">
            <div style=""margin:0 auto; width: 20vw; top: 8vh; font-size: 1vw""> 
                Current score : <font color=""green""> 30 points </font>
            </div>
        </div>
    ","null","","","","",""
"","","","","","html-keyboard-response","56","64941","0.0-3.0-3.10","","","","323","./stimuli//pack_easy/cat_1/ex_1_71.png","arrowright","response","ArrowLeft","71","1","false"
"","","","","","html-keyboard-response","57","66442","0.0-3.0-4.10","","","","null","<p> <font color=""red"" size=""4vw""> Wrong category! </font> </p>","null","feedback","","","",""
"","","","","","html-keyboard-response","58","66794","0.0-3.0-0.11","","","","null","
            
        <div style=""text-align: center; position: fixed; top: 5vh; left: 40vw;"">
            <div style=""margin:0 auto; width: 20vw; top: 8vh; font-size: 1vw""> 
                Current score : <font color=""green""> 30 points </font>
            </div>
        </div>
    
            <div style=""font-size:60px;"">+</div>
        ","null","ITI","","","",""
"","","","","","html-keyboard-response","59","67795","0.0-3.0-1.11","","","","null","
        
        <div style=""text-align: center; position: fixed; top: 5vh; left: 40vw;"">
            <div style=""margin:0 auto; width: 20vw; top: 8vh; font-size: 1vw""> 
                Current score : <font color=""green""> 30 points </font>
            </div>
        </div>
    
        <img class=""stim"" src=./stimuli//pack_easy/cat_1/ex_1_94.png></img>
    ","null","stimulus","","","",""
"","","","","","html-keyboard-response","60","68800","0.0-3.0-2.11","","","","null","
        <div style=""text-align: center; position: fixed; top: 5vh; left: 40vw;"">
            <div style=""margin:0 auto; width: 20vw; top: 8vh; font-size: 1vw""> 
                Current score : <font color=""green""> 30 points </font>
            </div>
        </div>
    ","null","","","","",""
"","","","","","html-keyboard-response","61","69069","0.0-3.0-3.11","","","","269","./stimuli//pack_easy/cat_1/ex_1_94.png","arrowright","response","ArrowLeft","94","1","false"
"","","","","","html-keyboard-response","62","70575","0.0-3.0-4.11","","","","null","<p> <font color=""red"" size=""4vw""> Wrong category! </font> </p>","null","feedback","","","",""
"","","","","","html-keyboard-response","63","70927","0.0-3.0-0.12","","","","null","
            
        <div style=""text-align: center; position: fixed; top: 5vh; left: 40vw;"">
            <div style=""margin:0 auto; width: 20vw; top: 8vh; font-size: 1vw""> 
                Current score : <font color=""green""> 30 points </font>
            </div>
        </div>
    
            <div style=""font-size:60px;"">+</div>
        ","null","ITI","","","",""
"","","","","","html-keyboard-response","64","71932","0.0-3.0-1.12","","","","null","
        
        <div style=""text-align: center; position: fixed; top: 5vh; left: 40vw;"">
            <div style=""margin:0 auto; width: 20vw; top: 8vh; font-size: 1vw""> 
                Current score : <font color=""green""> 30 points </font>
            </div>
        </div>
    
        <img class=""stim"" src=./stimuli//pack_easy/cat_1/ex_1_46.png></img>
    ","null","stimulus","","","",""
"","","","","","html-keyboard-response","65","72935","0.0-3.0-2.12","","","","null","
        <div style=""text-align: center; position: fixed; top: 5vh; left: 40vw;"">
            <div style=""margin:0 auto; width: 20vw; top: 8vh; font-size: 1vw""> 
                Current score : <font color=""green""> 30 points </font>
            </div>
        </div>
    ","null","","","","",""
"","","","","","html-keyboard-response","66","73468","0.0-3.0-3.12","","","","533","./stimuli//pack_easy/cat_1/ex_1_46.png","arrowleft","response","ArrowLeft","46","1","true"
"","","","","","html-keyboard-response","67","74970","0.0-3.0-4.12","","","","null","<p> <font color=""green"" size=""4vw""> Correct category! </font> <br> <br> <font color=""green"" size=""7vw""> +10 points </font> </p>","null","feedback","","","",""
"","","","","","html-keyboard-response","68","75322","0.0-3.0-0.13","","","","null","
            
        <div style=""text-align: center; position: fixed; top: 5vh; left: 40vw;"">
            <div style=""margin:0 auto; width: 20vw; top: 8vh; font-size: 1vw""> 
                Current score : <font color=""green""> 40 points </font>
            </div>
        </div>
    
            <div style=""font-size:60px;"">+</div>
        ","null","ITI","","","",""
"","","","","","html-keyboard-response","69","76326","0.0-3.0-1.13","","","","null","
        
        <div style=""text-align: center; position: fixed; top: 5vh; left: 40vw;"">
            <div style=""margin:0 auto; width: 20vw; top: 8vh; font-size: 1vw""> 
                Current score : <font color=""green""> 40 points </font>
            </div>
        </div>
    
        <img class=""stim"" src=./stimuli//pack_easy/cat_2/ex_2_38.png></img>
    ","null","stimulus","","","",""
"","","","","","html-keyboard-response","70","77327","0.0-3.0-2.13","","","","null","
        <div style=""text-align: center; position: fixed; top: 5vh; left: 40vw;"">
            <div style=""margin:0 auto; width: 20vw; top: 8vh; font-size: 1vw""> 
                Current score : <font color=""green""> 40 points </font>
            </div>
        </div>
    ","null","","","","",""
"","","","","","html-keyboard-response","71","77789","0.0-3.0-3.13","","","","461","./stimuli//pack_easy/cat_2/ex_2_38.png","arrowleft","response","ArrowRight","38","2","false"
"","","","","","html-keyboard-response","72","79292","0.0-3.0-4.13","","","","null","<p> <font color=""red"" size=""4vw""> Wrong category! </font> </p>","null","feedback","","","",""
"","","","","","html-keyboard-response","73","79647","0.0-3.0-0.14","","","","null","
            
        <div style=""text-align: center; position: fixed; top: 5vh; left: 40vw;"">
            <div style=""margin:0 auto; width: 20vw; top: 8vh; font-size: 1vw""> 
                Current score : <font color=""green""> 40 points </font>
            </div>
        </div>
    
            <div style=""font-size:60px;"">+</div>
        ","null","ITI","","","",""
"","","","","","html-keyboard-response","74","80650","0.0-3.0-1.14","","","","null","
        
        <div style=""text-align: center; position: fixed; top: 5vh; left: 40vw;"">
            <div style=""margin:0 auto; width: 20vw; top: 8vh; font-size: 1vw""> 
                Current score : <font color=""green""> 40 points </font>
            </div>
        </div>
    
        <img class=""stim"" src=./stimuli//pack_easy/cat_2/ex_2_9.png></img>
    ","null","stimulus","","","",""
"","","","","","html-keyboard-response","75","81655","0.0-3.0-2.14","","","","null","
        <div style=""text-align: center; position: fixed; top: 5vh; left: 40vw;"">
            <div style=""margin:0 auto; width: 20vw; top: 8vh; font-size: 1vw""> 
                Current score : <font color=""green""> 40 points </font>
            </div>
        </div>
    ","null","","","","",""
"","","","","","html-keyboard-response","76","81997","0.0-3.0-3.14","","","","341","./stimuli//pack_easy/cat_2/ex_2_9.png","arrowleft","response","ArrowRight","9","2","false"
"","","","","","html-keyboard-response","77","83498","0.0-3.0-4.14","","","","null","<p> <font color=""red"" size=""4vw""> Wrong category! </font> </p>","null","feedback","","","",""
"","","","","","html-keyboard-response","78","83853","0.0-3.0-0.15","","","","null","
            
        <div style=""text-align: center; position: fixed; top: 5vh; left: 40vw;"">
            <div style=""margin:0 auto; width: 20vw; top: 8vh; font-size: 1vw""> 
                Current score : <font color=""green""> 40 points </font>
            </div>
        </div>
    
            <div style=""font-size:60px;"">+</div>
        ","null","ITI","","","",""
"","","","","","html-keyboard-response","79","84859","0.0-3.0-1.15","","","","null","
        
        <div style=""text-align: center; position: fixed; top: 5vh; left: 40vw;"">
            <div style=""margin:0 auto; width: 20vw; top: 8vh; font-size: 1vw""> 
                Current score : <font color=""green""> 40 points </font>
            </div>
        </div>
    
        <img class=""stim"" src=./stimuli//pack_easy/cat_2/ex_2_40.png></img>
    ","null","stimulus","","","",""
"","","","","","html-keyboard-response","80","85861","0.0-3.0-2.15","","","","null","
        <div style=""text-align: center; position: fixed; top: 5vh; left: 40vw;"">
            <div style=""margin:0 auto; width: 20vw; top: 8vh; font-size: 1vw""> 
                Current score : <font color=""green""> 40 points </font>
            </div>
        </div>
    ","null","","","","",""
"","","","","","html-keyboard-response","81","86157","0.0-3.0-3.15","","","","296","./stimuli//pack_easy/cat_2/ex_2_40.png","arrowleft","response","ArrowRight","40","2","false"
"","","","","","html-keyboard-response","82","87658","0.0-3.0-4.15","","","","null","<p> <font color=""red"" size=""4vw""> Wrong category! </font> </p>","null","feedback","","","",""
"","","","","","html-keyboard-response","83","88010","0.0-3.0-0.16","","","","null","
            
        <div style=""text-align: center; position: fixed; top: 5vh; left: 40vw;"">
            <div style=""margin:0 auto; width: 20vw; top: 8vh; font-size: 1vw""> 
                Current score : <font color=""green""> 40 points </font>
            </div>
        </div>
    
            <div style=""font-size:60px;"">+</div>
        ","null","ITI","","","",""
"","","","","","html-keyboard-response","84","89013","0.0-3.0-1.16","","","","null","
        
        <div style=""text-align: center; position: fixed; top: 5vh; left: 40vw;"">
            <div style=""margin:0 auto; width: 20vw; top: 8vh; font-size: 1vw""> 
                Current score : <font color=""green""> 40 points </font>
            </div>
        </div>
    
        <img class=""stim"" src=./stimuli//pack_easy/cat_1/ex_1_17.png></img>
    ","null","stimulus","","","",""
"","","","","","html-keyboard-response","85","90015","0.0-3.0-2.16","","","","null","
        <div style=""text-align: center; position: fixed; top: 5vh; left: 40vw;"">
            <div style=""margin:0 auto; width: 20vw; top: 8vh; font-size: 1vw""> 
                Current score : <font color=""green""> 40 points </font>
            </div>
        </div>
    ","null","","","","",""
"","","","","","html-keyboard-response","86","91661","0.0-3.0-3.16","","","","1645","./stimuli//pack_easy/cat_1/ex_1_17.png","arrowright","response","ArrowLeft","17","1","false"
"","","","","","html-keyboard-response","87","93165","0.0-3.0-4.16","","","","null","<p> <font color=""red"" size=""4vw""> Wrong category! </font> </p>","null","feedback","","","",""
"","","","","","html-keyboard-response","88","93519","0.0-3.0-0.17","","","","null","
            
        <div style=""text-align: center; position: fixed; top: 5vh; left: 40vw;"">
            <div style=""margin:0 auto; width: 20vw; top: 8vh; font-size: 1vw""> 
                Current score : <font color=""green""> 40 points </font>
            </div>
        </div>
    
            <div style=""font-size:60px;"">+</div>
        ","null","ITI","","","",""
"","","","","","html-keyboard-response","89","94521","0.0-3.0-1.17","","","","null","
        
        <div style=""text-align: center; position: fixed; top: 5vh; left: 40vw;"">
            <div style=""margin:0 auto; width: 20vw; top: 8vh; font-size: 1vw""> 
                Current score : <font color=""green""> 40 points </font>
            </div>
        </div>
    
        <img class=""stim"" src=./stimuli//pack_easy/cat_2/ex_2_15.png></img>
    ","null","stimulus","","","",""
"","","","","","html-keyboard-response","90","95522","0.0-3.0-2.17","","","","null","
        <div style=""text-align: center; position: fixed; top: 5vh; left: 40vw;"">
            <div style=""margin:0 auto; width: 20vw; top: 8vh; font-size: 1vw""> 
                Current score : <font color=""green""> 40 points </font>
            </div>
        </div>
    ","null","","","","",""
"","","","","","html-keyboard-response","91","95821","0.0-3.0-3.17","","","","298","./stimuli//pack_easy/cat_2/ex_2_15.png","arrowleft","response","ArrowRight","15","2","false"
"","","","","","html-keyboard-response","92","97323","0.0-3.0-4.17","","","","null","<p> <font color=""red"" size=""4vw""> Wrong category! </font> </p>","null","feedback","","","",""
"","","","","","html-keyboard-response","93","97677","0.0-3.0-0.18","","","","null","
            
        <div style=""text-align: center; position: fixed; top: 5vh; left: 40vw;"">
            <div style=""margin:0 auto; width: 20vw; top: 8vh; font-size: 1vw""> 
                Current score : <font color=""green""> 40 points </font>
            </div>
        </div>
    
            <div style=""font-size:60px;"">+</div>
        ","null","ITI","","","",""
"","","","","","html-keyboard-response","94","98682","0.0-3.0-1.18","","","","null","
        
        <div style=""text-align: center; position: fixed; top: 5vh; left: 40vw;"">
            <div style=""margin:0 auto; width: 20vw; top: 8vh; font-size: 1vw""> 
                Current score : <font color=""green""> 40 points </font>
            </div>
        </div>
    
        <img class=""stim"" src=./stimuli//pack_easy/cat_1/ex_1_47.png></img>
    ","null","stimulus","","","",""
"","","","","","html-keyboard-response","95","99684","0.0-3.0-2.18","","","","null","
        <div style=""text-align: center; position: fixed; top: 5vh; left: 40vw;"">
            <div style=""margin:0 auto; width: 20vw; top: 8vh; font-size: 1vw""> 
                Current score : <font color=""green""> 40 points </font>
            </div>
        </div>
    ","null","","","","",""
"","","","","","html-keyboard-response","96","100781","0.0-3.0-3.18","","","","1096","./stimuli//pack_easy/cat_1/ex_1_47.png","arrowright","response","ArrowLeft","47","1","false"
"","","","","","html-keyboard-response","97","102285","0.0-3.0-4.18","","","","null","<p> <font color=""red"" size=""4vw""> Wrong category! </font> </p>","null","feedback","","","",""
"","","","","","html-keyboard-response","98","102641","0.0-3.0-0.19","","","","null","
            
        <div style=""text-align: center; position: fixed; top: 5vh; left: 40vw;"">
            <div style=""margin:0 auto; width: 20vw; top: 8vh; font-size: 1vw""> 
                Current score : <font color=""green""> 40 points </font>
            </div>
        </div>
    
            <div style=""font-size:60px;"">+</div>
        ","null","ITI","","","",""
"","","","","","html-keyboard-response","99","103644","0.0-3.0-1.19","","","","null","
        
        <div style=""text-align: center; position: fixed; top: 5vh; left: 40vw;"">
            <div style=""margin:0 auto; width: 20vw; top: 8vh; font-size: 1vw""> 
                Current score : <font color=""green""> 40 points </font>
            </div>
        </div>
    
        <img class=""stim"" src=./stimuli//pack_easy/cat_1/ex_1_56.png></img>
    ","null","stimulus","","","",""
"","","","","","html-keyboard-response","100","104645","0.0-3.0-2.19","","","","null","
        <div style=""text-align: center; position: fixed; top: 5vh; left: 40vw;"">
            <div style=""margin:0 auto; width: 20vw; top: 8vh; font-size: 1vw""> 
                Current score : <font color=""green""> 40 points </font>
            </div>
        </div>
    ","null","","","","",""
"","","","","","html-keyboard-response","101","105030","0.0-3.0-3.19","","","","384","./stimuli//pack_easy/cat_1/ex_1_56.png","arrowleft","response","ArrowLeft","56","1","true"
"","","","","","html-keyboard-response","102","106532","0.0-3.0-4.19","","","","null","<p> <font color=""green"" size=""4vw""> Correct category! </font> <br> <br> <font color=""green"" size=""7vw""> +10 points </font> </p>","null","feedback","","","",""
"","","","","","html-keyboard-response","103","106885","0.0-3.0-0.20","","","","null","
            
        <div style=""text-align: center; position: fixed; top: 5vh; left: 40vw;"">
            <div style=""margin:0 auto; width: 20vw; top: 8vh; font-size: 1vw""> 
                Current score : <font color=""green""> 50 points </font>
            </div>
        </div>
    
            <div style=""font-size:60px;"">+</div>
        ","null","ITI","","","",""
"","","","","","html-keyboard-response","104","107886","0.0-3.0-1.20","","","","null","
        
        <div style=""text-align: center; position: fixed; top: 5vh; left: 40vw;"">
            <div style=""margin:0 auto; width: 20vw; top: 8vh; font-size: 1vw""> 
                Current score : <font color=""green""> 50 points </font>
            </div>
        </div>
    
        <img class=""stim"" src=./stimuli//pack_easy/cat_1/ex_1_43.png></img>
    ","null","stimulus","","","",""
"","","","","","html-keyboard-response","105","108890","0.0-3.0-2.20","","","","null","
        <div style=""text-align: center; position: fixed; top: 5vh; left: 40vw;"">
            <div style=""margin:0 auto; width: 20vw; top: 8vh; font-size: 1vw""> 
                Current score : <font color=""green""> 50 points </font>
            </div>
        </div>
    ","null","","","","",""
"","","","","","html-keyboard-response","106","109373","0.0-3.0-3.20","","","","482","./stimuli//pack_easy/cat_1/ex_1_43.png","arrowright","response","ArrowLeft","43","1","false"
"","","","","","html-keyboard-response","107","110878","0.0-3.0-4.20","","","","null","<p> <font color=""red"" size=""4vw""> Wrong category! </font> </p>","null","feedback","","","",""
"","","","","","html-keyboard-response","108","111234","0.0-3.0-0.21","","","","null","
            
        <div style=""text-align: center; position: fixed; top: 5vh; left: 40vw;"">
            <div style=""margin:0 auto; width: 20vw; top: 8vh; font-size: 1vw""> 
                Current score : <font color=""green""> 50 points </font>
            </div>
        </div>
    
            <div style=""font-size:60px;"">+</div>
        ","null","ITI","","","",""
"","","","","","html-keyboard-response","109","112236","0.0-3.0-1.21","","","","null","
        
        <div style=""text-align: center; position: fixed; top: 5vh; left: 40vw;"">
            <div style=""margin:0 auto; width: 20vw; top: 8vh; font-size: 1vw""> 
                Current score : <font color=""green""> 50 points </font>
            </div>
        </div>
    
        <img class=""stim"" src=./stimuli//pack_easy/cat_1/ex_1_40.png></img>
    ","null","stimulus","","","",""
"","","","","","html-keyboard-response","110","113237","0.0-3.0-2.21","","","","null","
        <div style=""text-align: center; position: fixed; top: 5vh; left: 40vw;"">
            <div style=""margin:0 auto; width: 20vw; top: 8vh; font-size: 1vw""> 
                Current score : <font color=""green""> 50 points </font>
            </div>
        </div>
    ","null","","","","",""
"","","","","","html-keyboard-response","111","113581","0.0-3.0-3.21","","","","344","./stimuli//pack_easy/cat_1/ex_1_40.png","arrowright","response","ArrowLeft","40","1","false"
"","","","","","html-keyboard-response","112","115087","0.0-3.0-4.21","","","","null","<p> <font color=""red"" size=""4vw""> Wrong category! </font> </p>","null","feedback","","","",""
"","","","","","html-keyboard-response","113","115440","0.0-3.0-0.22","","","","null","
            
        <div style=""text-align: center; position: fixed; top: 5vh; left: 40vw;"">
            <div style=""margin:0 auto; width: 20vw; top: 8vh; font-size: 1vw""> 
                Current score : <font color=""green""> 50 points </font>
            </div>
        </div>
    
            <div style=""font-size:60px;"">+</div>
        ","null","ITI","","","",""
"","","","","","html-keyboard-response","114","116441","0.0-3.0-1.22","","","","null","
        
        <div style=""text-align: center; position: fixed; top: 5vh; left: 40vw;"">
            <div style=""margin:0 auto; width: 20vw; top: 8vh; font-size: 1vw""> 
                Current score : <font color=""green""> 50 points </font>
            </div>
        </div>
    
        <img class=""stim"" src=./stimuli//pack_easy/cat_2/ex_2_65.png></img>
    ","null","stimulus","","","",""
"","","","","","html-keyboard-response","115","117446","0.0-3.0-2.22","","","","null","
        <div style=""text-align: center; position: fixed; top: 5vh; left: 40vw;"">
            <div style=""margin:0 auto; width: 20vw; top: 8vh; font-size: 1vw""> 
                Current score : <font color=""green""> 50 points </font>
            </div>
        </div>
    ","null","","","","",""
"","","","","","html-keyboard-response","116","117718","0.0-3.0-3.22","","","","271","./stimuli//pack_easy/cat_2/ex_2_65.png","arrowleft","response","ArrowRight","65","2","false"
"","","","","","html-keyboard-response","117","119219","0.0-3.0-4.22","","","","null","<p> <font color=""red"" size=""4vw""> Wrong category! </font> </p>","null","feedback","","","",""
"","","","","","html-keyboard-response","118","119573","0.0-3.0-0.23","","","","null","
            
        <div style=""text-align: center; position: fixed; top: 5vh; left: 40vw;"">
            <div style=""margin:0 auto; width: 20vw; top: 8vh; font-size: 1vw""> 
                Current score : <font color=""green""> 50 points </font>
            </div>
        </div>
    
            <div style=""font-size:60px;"">+</div>
        ","null","ITI","","","",""
"","","","","","html-keyboard-response","119","120575","0.0-3.0-1.23","","","","null","
        
        <div style=""text-align: center; position: fixed; top: 5vh; left: 40vw;"">
            <div style=""margin:0 auto; width: 20vw; top: 8vh; font-size: 1vw""> 
                Current score : <font color=""green""> 50 points </font>
            </div>
        </div>
    
        <img class=""stim"" src=./stimuli//pack_easy/cat_1/ex_1_54.png></img>
    ","null","stimulus","","","",""
"","","","","","html-keyboard-response","120","121578","0.0-3.0-2.23","","","","null","
        <div style=""text-align: center; position: fixed; top: 5vh; left: 40vw;"">
            <div style=""margin:0 auto; width: 20vw; top: 8vh; font-size: 1vw""> 
                Current score : <font color=""green""> 50 points </font>
            </div>
        </div>
    ","null","","","","",""
"","","","","","html-keyboard-response","121","122173","0.0-3.0-3.23","","","","595","./stimuli//pack_easy/cat_1/ex_1_54.png","arrowleft","response","ArrowLeft","54","1","true"
"","","","","","html-keyboard-response","122","122182","0.0-3.0-4.23","","","","9","<p> <font color=""green"" size=""4vw""> Correct category! </font> <br> <br> <font color=""green"" size=""7vw""> +10 points </font> </p>","arrowdown","feedback","","","",""
"","","","","","html-keyboard-response","123","122538","0.0-3.0-0.24","","","","null","
            
        <div style=""text-align: center; position: fixed; top: 5vh; left: 40vw;"">
            <div style=""margin:0 auto; width: 20vw; top: 8vh; font-size: 1vw""> 
                Current score : <font color=""green""> 60 points </font>
            </div>
        </div>
    
            <div style=""font-size:60px;"">+</div>
        ","null","ITI","","","",""
"","","","","","html-keyboard-response","124","123542","0.0-3.0-1.24","","","","null","
        
        <div style=""text-align: center; position: fixed; top: 5vh; left: 40vw;"">
            <div style=""margin:0 auto; width: 20vw; top: 8vh; font-size: 1vw""> 
                Current score : <font color=""green""> 60 points </font>
            </div>
        </div>
    
        <img class=""stim"" src=./stimuli//pack_easy/cat_2/ex_2_62.png></img>
    ","null","stimulus","","","",""
"","","","","","html-keyboard-response","125","124544","0.0-3.0-2.24","","","","null","
        <div style=""text-align: center; position: fixed; top: 5vh; left: 40vw;"">
            <div style=""margin:0 auto; width: 20vw; top: 8vh; font-size: 1vw""> 
                Current score : <font color=""green""> 60 points </font>
            </div>
        </div>
    ","null","","","","",""
"","","","","","html-keyboard-response","126","125230","0.0-3.0-3.24","","","","686","./stimuli//pack_easy/cat_2/ex_2_62.png","arrowleft","response","ArrowRight","62","2","false"
"","","","","","html-keyboard-response","127","126735","0.0-3.0-4.24","","","","null","<p> <font color=""red"" size=""4vw""> Wrong category! </font> </p>","null","feedback","","","",""
"","","","","","html-keyboard-response","128","127091","0.0-3.0-0.25","","","","null","
            
        <div style=""text-align: center; position: fixed; top: 5vh; left: 40vw;"">
            <div style=""margin:0 auto; width: 20vw; top: 8vh; font-size: 1vw""> 
                Current score : <font color=""green""> 60 points </font>
            </div>
        </div>
    
            <div style=""font-size:60px;"">+</div>
        ","null","ITI","","","",""
"","","","","","html-keyboard-response","129","128092","0.0-3.0-1.25","","","","null","
        
        <div style=""text-align: center; position: fixed; top: 5vh; left: 40vw;"">
            <div style=""margin:0 auto; width: 20vw; top: 8vh; font-size: 1vw""> 
                Current score : <font color=""green""> 60 points </font>
            </div>
        </div>
    
        <img class=""stim"" src=./stimuli//pack_easy/cat_2/ex_2_73.png></img>
    ","null","stimulus","","","",""
"","","","","","html-keyboard-response","130","129093","0.0-3.0-2.25","","","","null","
        <div style=""text-align: center; position: fixed; top: 5vh; left: 40vw;"">
            <div style=""margin:0 auto; width: 20vw; top: 8vh; font-size: 1vw""> 
                Current score : <font color=""green""> 60 points </font>
            </div>
        </div>
    ","null","","","","",""
"","","","","","html-keyboard-response","131","129366","0.0-3.0-3.25","","","","272","./stimuli//pack_easy/cat_2/ex_2_73.png","arrowright","response","ArrowRight","73","2","true"
"","","","","","html-keyboard-response","132","130867","0.0-3.0-4.25","","","","null","<p> <font color=""green"" size=""4vw""> Correct category! </font> <br> <br> <font color=""green"" size=""7vw""> +10 points </font> </p>","null","feedback","","","",""
"","","","","","html-keyboard-response","133","131221","0.0-3.0-0.26","","","","null","
            
        <div style=""text-align: center; position: fixed; top: 5vh; left: 40vw;"">
            <div style=""margin:0 auto; width: 20vw; top: 8vh; font-size: 1vw""> 
                Current score : <font color=""green""> 70 points </font>
            </div>
        </div>
    
            <div style=""font-size:60px;"">+</div>
        ","null","ITI","","","",""
"","","","","","html-keyboard-response","134","132224","0.0-3.0-1.26","","","","null","
        
        <div style=""text-align: center; position: fixed; top: 5vh; left: 40vw;"">
            <div style=""margin:0 auto; width: 20vw; top: 8vh; font-size: 1vw""> 
                Current score : <font color=""green""> 70 points </font>
            </div>
        </div>
    
        <img class=""stim"" src=./stimuli//pack_easy/cat_2/ex_2_27.png></img>
    ","null","stimulus","","","",""
"","","","","","html-keyboard-response","135","133225","0.0-3.0-2.26","","","","null","
        <div style=""text-align: center; position: fixed; top: 5vh; left: 40vw;"">
            <div style=""margin:0 auto; width: 20vw; top: 8vh; font-size: 1vw""> 
                Current score : <font color=""green""> 70 points </font>
            </div>
        </div>
    ","null","","","","",""
"","","","","","html-keyboard-response","136","133525","0.0-3.0-3.26","","","","300","./stimuli//pack_easy/cat_2/ex_2_27.png","arrowleft","response","ArrowRight","27","2","false"
"","","","","","html-keyboard-response","137","135029","0.0-3.0-4.26","","","","null","<p> <font color=""red"" size=""4vw""> Wrong category! </font> </p>","null","feedback","","","",""
"","","","","","html-keyboard-response","138","135381","0.0-3.0-0.27","","","","null","
            
        <div style=""text-align: center; position: fixed; top: 5vh; left: 40vw;"">
            <div style=""margin:0 auto; width: 20vw; top: 8vh; font-size: 1vw""> 
                Current score : <font color=""green""> 70 points </font>
            </div>
        </div>
    
            <div style=""font-size:60px;"">+</div>
        ","null","ITI","","","",""
"","","","","","html-keyboard-response","139","136386","0.0-3.0-1.27","","","","null","
        
        <div style=""text-align: center; position: fixed; top: 5vh; left: 40vw;"">
            <div style=""margin:0 auto; width: 20vw; top: 8vh; font-size: 1vw""> 
                Current score : <font color=""green""> 70 points </font>
            </div>
        </div>
    
        <img class=""stim"" src=./stimuli//pack_easy/cat_2/ex_2_8.png></img>
    ","null","stimulus","","","",""
"","","","","","html-keyboard-response","140","137392","0.0-3.0-2.27","","","","null","
        <div style=""text-align: center; position: fixed; top: 5vh; left: 40vw;"">
            <div style=""margin:0 auto; width: 20vw; top: 8vh; font-size: 1vw""> 
                Current score : <font color=""green""> 70 points </font>
            </div>
        </div>
    ","null","","","","",""
"","","","","","html-keyboard-response","141","137693","0.0-3.0-3.27","","","","301","./stimuli//pack_easy/cat_2/ex_2_8.png","arrowleft","response","ArrowRight","8","2","false"
"","","","","","html-keyboard-response","142","139194","0.0-3.0-4.27","","","","null","<p> <font color=""red"" size=""4vw""> Wrong category! </font> </p>","null","feedback","","","",""
"","","","","","html-keyboard-response","143","139546","0.0-3.0-0.28","","","","null","
            
        <div style=""text-align: center; position: fixed; top: 5vh; left: 40vw;"">
            <div style=""margin:0 auto; width: 20vw; top: 8vh; font-size: 1vw""> 
                Current score : <font color=""green""> 70 points </font>
            </div>
        </div>
    
            <div style=""font-size:60px;"">+</div>
        ","null","ITI","","","",""
"","","","","","html-keyboard-response","144","140549","0.0-3.0-1.28","","","","null","
        
        <div style=""text-align: center; position: fixed; top: 5vh; left: 40vw;"">
            <div style=""margin:0 auto; width: 20vw; top: 8vh; font-size: 1vw""> 
                Current score : <font color=""green""> 70 points </font>
            </div>
        </div>
    
        <img class=""stim"" src=./stimuli//pack_easy/cat_2/ex_2_76.png></img>
    ","null","stimulus","","","",""
"","","","","","html-keyboard-response","145","141552","0.0-3.0-2.28","","","","null","
        <div style=""text-align: center; position: fixed; top: 5vh; left: 40vw;"">
            <div style=""margin:0 auto; width: 20vw; top: 8vh; font-size: 1vw""> 
                Current score : <font color=""green""> 70 points </font>
            </div>
        </div>
    ","null","","","","",""
"","","","","","html-keyboard-response","146","141852","0.0-3.0-3.28","","","","300","./stimuli//pack_easy/cat_2/ex_2_76.png","arrowleft","response","ArrowRight","76","2","false"
"","","","","","html-keyboard-response","147","143354","0.0-3.0-4.28","","","","null","<p> <font color=""red"" size=""4vw""> Wrong category! </font> </p>","null","feedback","","","",""
"","","","","","html-keyboard-response","148","143706","0.0-3.0-0.29","","","","null","
            
        <div style=""text-align: center; position: fixed; top: 5vh; left: 40vw;"">
            <div style=""margin:0 auto; width: 20vw; top: 8vh; font-size: 1vw""> 
                Current score : <font color=""green""> 70 points </font>
            </div>
        </div>
    
            <div style=""font-size:60px;"">+</div>
        ","null","ITI","","","",""
"","","","","","html-keyboard-response","149","144708","0.0-3.0-1.29","","","","null","
        
        <div style=""text-align: center; position: fixed; top: 5vh; left: 40vw;"">
            <div style=""margin:0 auto; width: 20vw; top: 8vh; font-size: 1vw""> 
                Current score : <font color=""green""> 70 points </font>
            </div>
        </div>
    
        <img class=""stim"" src=./stimuli//pack_easy/cat_2/ex_2_81.png></img>
    ","null","stimulus","","","",""
"","","","","","html-keyboard-response","150","145712","0.0-3.0-2.29","","","","null","
        <div style=""text-align: center; position: fixed; top: 5vh; left: 40vw;"">
            <div style=""margin:0 auto; width: 20vw; top: 8vh; font-size: 1vw""> 
                Current score : <font color=""green""> 70 points </font>
            </div>
        </div>
    ","null","","","","",""
"","","","","","html-keyboard-response","151","146053","0.0-3.0-3.29","","","","341","./stimuli//pack_easy/cat_2/ex_2_81.png","arrowleft","response","ArrowRight","81","2","false"
"","","","","","html-keyboard-response","152","147557","0.0-3.0-4.29","","","","null","<p> <font color=""red"" size=""4vw""> Wrong category! </font> </p>","null","feedback","","","",""
"","","","","","html-keyboard-response","153","147913","0.0-3.0-0.30","","","","null","
            
        <div style=""text-align: center; position: fixed; top: 5vh; left: 40vw;"">
            <div style=""margin:0 auto; width: 20vw; top: 8vh; font-size: 1vw""> 
                Current score : <font color=""green""> 70 points </font>
            </div>
        </div>
    
            <div style=""font-size:60px;"">+</div>
        ","null","ITI","","","",""
"","","","","","html-keyboard-response","154","148917","0.0-3.0-1.30","","","","null","
        
        <div style=""text-align: center; position: fixed; top: 5vh; left: 40vw;"">
            <div style=""margin:0 auto; width: 20vw; top: 8vh; font-size: 1vw""> 
                Current score : <font color=""green""> 70 points </font>
            </div>
        </div>
    
        <img class=""stim"" src=./stimuli//pack_easy/cat_2/ex_2_43.png></img>
    ","null","stimulus","","","",""
"","","","","","html-keyboard-response","155","149920","0.0-3.0-2.30","","","","null","
        <div style=""text-align: center; position: fixed; top: 5vh; left: 40vw;"">
            <div style=""margin:0 auto; width: 20vw; top: 8vh; font-size: 1vw""> 
                Current score : <font color=""green""> 70 points </font>
            </div>
        </div>
    ","null","","","","",""
"","","","","","html-keyboard-response","156","150253","0.0-3.0-3.30","","","","333","./stimuli//pack_easy/cat_2/ex_2_43.png","arrowleft","response","ArrowRight","43","2","false"
"","","","","","html-keyboard-response","157","151754","0.0-3.0-4.30","","","","null","<p> <font color=""red"" size=""4vw""> Wrong category! </font> </p>","null","feedback","","","",""
"","","","","","html-keyboard-response","158","152108","0.0-3.0-0.31","","","","null","
            
        <div style=""text-align: center; position: fixed; top: 5vh; left: 40vw;"">
            <div style=""margin:0 auto; width: 20vw; top: 8vh; font-size: 1vw""> 
                Current score : <font color=""green""> 70 points </font>
            </div>
        </div>
    
            <div style=""font-size:60px;"">+</div>
        ","null","ITI","","","",""
"","","","","","html-keyboard-response","159","153109","0.0-3.0-1.31","","","","null","
        
        <div style=""text-align: center; position: fixed; top: 5vh; left: 40vw;"">
            <div style=""margin:0 auto; width: 20vw; top: 8vh; font-size: 1vw""> 
                Current score : <font color=""green""> 70 points </font>
            </div>
        </div>
    
        <img class=""stim"" src=./stimuli//pack_easy/cat_2/ex_2_22.png></img>
    ","null","stimulus","","","",""
"","","","","","html-keyboard-response","160","154113","0.0-3.0-2.31","","","","null","
        <div style=""text-align: center; position: fixed; top: 5vh; left: 40vw;"">
            <div style=""margin:0 auto; width: 20vw; top: 8vh; font-size: 1vw""> 
                Current score : <font color=""green""> 70 points </font>
            </div>
        </div>
    ","null","","","","",""
"","","","","","html-keyboard-response","161","154485","0.0-3.0-3.31","","","","372","./stimuli//pack_easy/cat_2/ex_2_22.png","arrowleft","response","ArrowRight","22","2","false"
"","","","","","html-keyboard-response","162","155988","0.0-3.0-4.31","","","","null","<p> <font color=""red"" size=""4vw""> Wrong category! </font> </p>","null","feedback","","","",""
"","","","","","html-keyboard-response","163","156341","0.0-3.0-0.32","","","","null","
            
        <div style=""text-align: center; position: fixed; top: 5vh; left: 40vw;"">
            <div style=""margin:0 auto; width: 20vw; top: 8vh; font-size: 1vw""> 
                Current score : <font color=""green""> 70 points </font>
            </div>
        </div>
    
            <div style=""font-size:60px;"">+</div>
        ","null","ITI","","","",""
"","","","","","html-keyboard-response","164","157344","0.0-3.0-1.32","","","","null","
        
        <div style=""text-align: center; position: fixed; top: 5vh; left: 40vw;"">
            <div style=""margin:0 auto; width: 20vw; top: 8vh; font-size: 1vw""> 
                Current score : <font color=""green""> 70 points </font>
            </div>
        </div>
    
        <img class=""stim"" src=./stimuli//pack_easy/cat_1/ex_1_51.png></img>
    ","null","stimulus","","","",""
"","","","","","html-keyboard-response","165","158348","0.0-3.0-2.32","","","","null","
        <div style=""text-align: center; position: fixed; top: 5vh; left: 40vw;"">
            <div style=""margin:0 auto; width: 20vw; top: 8vh; font-size: 1vw""> 
                Current score : <font color=""green""> 70 points </font>
            </div>
        </div>
    ","null","","","","",""
"","","","","","html-keyboard-response","166","158669","0.0-3.0-3.32","","","","321","./stimuli//pack_easy/cat_1/ex_1_51.png","arrowright","response","ArrowLeft","51","1","false"
"","","","","","html-keyboard-response","167","160170","0.0-3.0-4.32","","","","null","<p> <font color=""red"" size=""4vw""> Wrong category! </font> </p>","null","feedback","","","",""
"","","","","","html-keyboard-response","168","160522","0.0-3.0-0.33","","","","null","
            
        <div style=""text-align: center; position: fixed; top: 5vh; left: 40vw;"">
            <div style=""margin:0 auto; width: 20vw; top: 8vh; font-size: 1vw""> 
                Current score : <font color=""green""> 70 points </font>
            </div>
        </div>
    
            <div style=""font-size:60px;"">+</div>
        ","null","ITI","","","",""
"","","","","","html-keyboard-response","169","161525","0.0-3.0-1.33","","","","null","
        
        <div style=""text-align: center; position: fixed; top: 5vh; left: 40vw;"">
            <div style=""margin:0 auto; width: 20vw; top: 8vh; font-size: 1vw""> 
                Current score : <font color=""green""> 70 points </font>
            </div>
        </div>
    
        <img class=""stim"" src=./stimuli//pack_easy/cat_2/ex_2_26.png></img>
    ","null","stimulus","","","",""
"","","","","","html-keyboard-response","170","162527","0.0-3.0-2.33","","","","null","
        <div style=""text-align: center; position: fixed; top: 5vh; left: 40vw;"">
            <div style=""margin:0 auto; width: 20vw; top: 8vh; font-size: 1vw""> 
                Current score : <font color=""green""> 70 points </font>
            </div>
        </div>
    ","null","","","","",""
"","","","","","html-keyboard-response","171","162773","0.0-3.0-3.33","","","","245","./stimuli//pack_easy/cat_2/ex_2_26.png","arrowright","response","ArrowRight","26","2","true"
"","","","","","html-keyboard-response","172","164277","0.0-3.0-4.33","","","","null","<p> <font color=""green"" size=""4vw""> Correct category! </font> <br> <br> <font color=""green"" size=""7vw""> +10 points </font> </p>","null","feedback","","","",""
"","","","","","html-keyboard-response","173","164632","0.0-3.0-0.34","","","","null","
            
        <div style=""text-align: center; position: fixed; top: 5vh; left: 40vw;"">
            <div style=""margin:0 auto; width: 20vw; top: 8vh; font-size: 1vw""> 
                Current score : <font color=""green""> 80 points </font>
            </div>
        </div>
    
            <div style=""font-size:60px;"">+</div>
        ","null","ITI","","","",""
"","","","","","html-keyboard-response","174","165635","0.0-3.0-1.34","","","","null","
        
        <div style=""text-align: center; position: fixed; top: 5vh; left: 40vw;"">
            <div style=""margin:0 auto; width: 20vw; top: 8vh; font-size: 1vw""> 
                Current score : <font color=""green""> 80 points </font>
            </div>
        </div>
    
        <img class=""stim"" src=./stimuli//pack_easy/cat_1/ex_1_6.png></img>
    ","null","stimulus","","","",""
"","","","","","html-keyboard-response","175","166636","0.0-3.0-2.34","","","","null","
        <div style=""text-align: center; position: fixed; top: 5vh; left: 40vw;"">
            <div style=""margin:0 auto; width: 20vw; top: 8vh; font-size: 1vw""> 
                Current score : <font color=""green""> 80 points </font>
            </div>
        </div>
    ","null","","","","",""
"","","","","","html-keyboard-response","176","166918","0.0-3.0-3.34","","","","281","./stimuli//pack_easy/cat_1/ex_1_6.png","arrowleft","response","ArrowLeft","6","1","true"
"","","","","","html-keyboard-response","177","168423","0.0-3.0-4.34","","","","null","<p> <font color=""green"" size=""4vw""> Correct category! </font> <br> <br> <font color=""green"" size=""7vw""> +10 points </font> </p>","null","feedback","","","",""
"","","","","","html-keyboard-response","178","168775","0.0-3.0-0.35","","","","null","
            
        <div style=""text-align: center; position: fixed; top: 5vh; left: 40vw;"">
            <div style=""margin:0 auto; width: 20vw; top: 8vh; font-size: 1vw""> 
                Current score : <font color=""green""> 90 points </font>
            </div>
        </div>
    
            <div style=""font-size:60px;"">+</div>
        ","null","ITI","","","",""
"","","","","","html-keyboard-response","179","169776","0.0-3.0-1.35","","","","null","
        
        <div style=""text-align: center; position: fixed; top: 5vh; left: 40vw;"">
            <div style=""margin:0 auto; width: 20vw; top: 8vh; font-size: 1vw""> 
                Current score : <font color=""green""> 90 points </font>
            </div>
        </div>
    
        <img class=""stim"" src=./stimuli//pack_easy/cat_1/ex_1_19.png></img>
    ","null","stimulus","","","",""
"","","","","","html-keyboard-response","180","170778","0.0-3.0-2.35","","","","null","
        <div style=""text-align: center; position: fixed; top: 5vh; left: 40vw;"">
            <div style=""margin:0 auto; width: 20vw; top: 8vh; font-size: 1vw""> 
                Current score : <font color=""green""> 90 points </font>
            </div>
        </div>
    ","null","","","","",""
"","","","","","html-keyboard-response","181","171070","0.0-3.0-3.35","","","","291","./stimuli//pack_easy/cat_1/ex_1_19.png","arrowright","response","ArrowLeft","19","1","false"
"","","","","","html-keyboard-response","182","172576","0.0-3.0-4.35","","","","null","<p> <font color=""red"" size=""4vw""> Wrong category! </font> </p>","null","feedback","","","",""
"","","","","","html-keyboard-response","183","172927","0.0-3.0-0.36","","","","null","
            
        <div style=""text-align: center; position: fixed; top: 5vh; left: 40vw;"">
            <div style=""margin:0 auto; width: 20vw; top: 8vh; font-size: 1vw""> 
                Current score : <font color=""green""> 90 points </font>
            </div>
        </div>
    
            <div style=""font-size:60px;"">+</div>
        ","null","ITI","","","",""
"","","","","","html-keyboard-response","184","173930","0.0-3.0-1.36","","","","null","
        
        <div style=""text-align: center; position: fixed; top: 5vh; left: 40vw;"">
            <div style=""margin:0 auto; width: 20vw; top: 8vh; font-size: 1vw""> 
                Current score : <font color=""green""> 90 points </font>
            </div>
        </div>
    
        <img class=""stim"" src=./stimuli//pack_easy/cat_1/ex_1_67.png></img>
    ","null","stimulus","","","",""
"","","","","","html-keyboard-response","185","174935","0.0-3.0-2.36","","","","null","
        <div style=""text-align: center; position: fixed; top: 5vh; left: 40vw;"">
            <div style=""margin:0 auto; width: 20vw; top: 8vh; font-size: 1vw""> 
                Current score : <font color=""green""> 90 points </font>
            </div>
        </div>
    ","null","","","","",""
"","","","","","html-keyboard-response","186","175286","0.0-3.0-3.36","","","","350","./stimuli//pack_easy/cat_1/ex_1_67.png","arrowright","response","ArrowLeft","67","1","false"
"","","","","","html-keyboard-response","187","176789","0.0-3.0-4.36","","","","null","<p> <font color=""red"" size=""4vw""> Wrong category! </font> </p>","null","feedback","","","",""
"","","","","","html-keyboard-response","188","177141","0.0-3.0-0.37","","","","null","
            
        <div style=""text-align: center; position: fixed; top: 5vh; left: 40vw;"">
            <div style=""margin:0 auto; width: 20vw; top: 8vh; font-size: 1vw""> 
                Current score : <font color=""green""> 90 points </font>
            </div>
        </div>
    
            <div style=""font-size:60px;"">+</div>
        ","null","ITI","","","",""
"","","","","","html-keyboard-response","189","178143","0.0-3.0-1.37","","","","null","
        
        <div style=""text-align: center; position: fixed; top: 5vh; left: 40vw;"">
            <div style=""margin:0 auto; width: 20vw; top: 8vh; font-size: 1vw""> 
                Current score : <font color=""green""> 90 points </font>
            </div>
        </div>
    
        <img class=""stim"" src=./stimuli//pack_easy/cat_1/ex_1_31.png></img>
    ","null","stimulus","","","",""
"","","","","","html-keyboard-response","190","179144","0.0-3.0-2.37","","","","null","
        <div style=""text-align: center; position: fixed; top: 5vh; left: 40vw;"">
            <div style=""margin:0 auto; width: 20vw; top: 8vh; font-size: 1vw""> 
                Current score : <font color=""green""> 90 points </font>
            </div>
        </div>
    ","null","","","","",""
"","","","","","html-keyboard-response","191","179432","0.0-3.0-3.37","","","","287","./stimuli//pack_easy/cat_1/ex_1_31.png","arrowleft","response","ArrowLeft","31","1","true"
"","","","","","html-keyboard-response","192","180935","0.0-3.0-4.37","","","","null","<p> <font color=""green"" size=""4vw""> Correct category! </font> <br> <br> <font color=""green"" size=""7vw""> +10 points </font> </p>","null","feedback","","","",""
"","","","","","html-keyboard-response","193","181289","0.0-3.0-0.38","","","","null","
            
        <div style=""text-align: center; position: fixed; top: 5vh; left: 40vw;"">
            <div style=""margin:0 auto; width: 20vw; top: 8vh; font-size: 1vw""> 
                Current score : <font color=""green""> 100 points </font>
            </div>
        </div>
    
            <div style=""font-size:60px;"">+</div>
        ","null","ITI","","","",""
"","","","","","html-keyboard-response","194","182291","0.0-3.0-1.38","","","","null","
        
        <div style=""text-align: center; position: fixed; top: 5vh; left: 40vw;"">
            <div style=""margin:0 auto; width: 20vw; top: 8vh; font-size: 1vw""> 
                Current score : <font color=""green""> 100 points </font>
            </div>
        </div>
    
        <img class=""stim"" src=./stimuli//pack_easy/cat_2/ex_2_100.png></img>
    ","null","stimulus","","","",""
"","","","","","html-keyboard-response","195","183296","0.0-3.0-2.38","","","","null","
        <div style=""text-align: center; position: fixed; top: 5vh; left: 40vw;"">
            <div style=""margin:0 auto; width: 20vw; top: 8vh; font-size: 1vw""> 
                Current score : <font color=""green""> 100 points </font>
            </div>
        </div>
    ","null","","","","",""
"","","","","","html-keyboard-response","196","183613","0.0-3.0-3.38","","","","317","./stimuli//pack_easy/cat_2/ex_2_100.png","arrowright","response","ArrowRight","100","2","true"
"","","","","","html-keyboard-response","197","185114","0.0-3.0-4.38","","","","null","<p> <font color=""green"" size=""4vw""> Correct category! </font> <br> <br> <font color=""green"" size=""7vw""> +10 points </font> </p>","null","feedback","","","",""
"","","","","","html-keyboard-response","198","185470","0.0-3.0-0.39","","","","null","
            
        <div style=""text-align: center; position: fixed; top: 5vh; left: 40vw;"">
            <div style=""margin:0 auto; width: 20vw; top: 8vh; font-size: 1vw""> 
                Current score : <font color=""green""> 110 points </font>
            </div>
        </div>
    
            <div style=""font-size:60px;"">+</div>
        ","null","ITI","","","",""
"","","","","","html-keyboard-response","199","186474","0.0-3.0-1.39","","","","null","
        
        <div style=""text-align: center; position: fixed; top: 5vh; left: 40vw;"">
            <div style=""margin:0 auto; width: 20vw; top: 8vh; font-size: 1vw""> 
                Current score : <font color=""green""> 110 points </font>
            </div>
        </div>
    
        <img class=""stim"" src=./stimuli//pack_easy/cat_2/ex_2_98.png></img>
    ","null","stimulus","","","",""
"","","","","","html-keyboard-response","200","187477","0.0-3.0-2.39","","","","null","
        <div style=""text-align: center; position: fixed; top: 5vh; left: 40vw;"">
            <div style=""margin:0 auto; width: 20vw; top: 8vh; font-size: 1vw""> 
                Current score : <font color=""green""> 110 points </font>
            </div>
        </div>
    ","null","","","","",""
"","","","","","html-keyboard-response","201","187966","0.0-3.0-3.39","","","","488","./stimuli//pack_easy/cat_2/ex_2_98.png","arrowright","response","ArrowRight","98","2","true"
"","","","","","html-keyboard-response","202","189472","0.0-3.0-4.39","","","","null","<p> <font color=""green"" size=""4vw""> Correct category! </font> <br> <br> <font color=""green"" size=""7vw""> +10 points </font> </p>","null","feedback","","","",""
"","","","","","html-keyboard-response","203","189822","0.0-3.0-0.40","","","","null","
            
        <div style=""text-align: center; position: fixed; top: 5vh; left: 40vw;"">
            <div style=""margin:0 auto; width: 20vw; top: 8vh; font-size: 1vw""> 
                Current score : <font color=""green""> 120 points </font>
            </div>
        </div>
    
            <div style=""font-size:60px;"">+</div>
        ","null","ITI","","","",""
"","","","","","html-keyboard-response","204","190824","0.0-3.0-1.40","","","","null","
        
        <div style=""text-align: center; position: fixed; top: 5vh; left: 40vw;"">
            <div style=""margin:0 auto; width: 20vw; top: 8vh; font-size: 1vw""> 
                Current score : <font color=""green""> 120 points </font>
            </div>
        </div>
    
        <img class=""stim"" src=./stimuli//pack_easy/cat_1/ex_1_15.png></img>
    ","null","stimulus","","","",""
"","","","","","html-keyboard-response","205","191826","0.0-3.0-2.40","","","","null","
        <div style=""text-align: center; position: fixed; top: 5vh; left: 40vw;"">
            <div style=""margin:0 auto; width: 20vw; top: 8vh; font-size: 1vw""> 
                Current score : <font color=""green""> 120 points </font>
            </div>
        </div>
    ","null","","","","",""
"","","","","","html-keyboard-response","206","192182","0.0-3.0-3.40","","","","356","./stimuli//pack_easy/cat_1/ex_1_15.png","arrowleft","response","ArrowLeft","15","1","true"
"","","","","","html-keyboard-response","207","193685","0.0-3.0-4.40","","","","null","<p> <font color=""green"" size=""4vw""> Correct category! </font> <br> <br> <font color=""green"" size=""7vw""> +10 points </font> </p>","null","feedback","","","",""
"","","","","","html-keyboard-response","208","194040","0.0-3.0-0.41","","","","null","
            
        <div style=""text-align: center; position: fixed; top: 5vh; left: 40vw;"">
            <div style=""margin:0 auto; width: 20vw; top: 8vh; font-size: 1vw""> 
                Current score : <font color=""green""> 130 points </font>
            </div>
        </div>
    
            <div style=""font-size:60px;"">+</div>
        ","null","ITI","","","",""
"","","","","","html-keyboard-response","209","195045","0.0-3.0-1.41","","","","null","
        
        <div style=""text-align: center; position: fixed; top: 5vh; left: 40vw;"">
            <div style=""margin:0 auto; width: 20vw; top: 8vh; font-size: 1vw""> 
                Current score : <font color=""green""> 130 points </font>
            </div>
        </div>
    
        <img class=""stim"" src=./stimuli//pack_easy/cat_2/ex_2_14.png></img>
    ","null","stimulus","","","",""
"","","","","","html-keyboard-response","210","196048","0.0-3.0-2.41","","","","null","
        <div style=""text-align: center; position: fixed; top: 5vh; left: 40vw;"">
            <div style=""margin:0 auto; width: 20vw; top: 8vh; font-size: 1vw""> 
                Current score : <font color=""green""> 130 points </font>
            </div>
        </div>
    ","null","","","","",""
"","","","","","html-keyboard-response","211","196389","0.0-3.0-3.41","","","","341","./stimuli//pack_easy/cat_2/ex_2_14.png","arrowleft","response","ArrowRight","14","2","false"
"","","","","","html-keyboard-response","212","197892","0.0-3.0-4.41","","","","null","<p> <font color=""red"" size=""4vw""> Wrong category! </font> </p>","null","feedback","","","",""
"","","","","","html-keyboard-response","213","198245","0.0-3.0-0.42","","","","null","
            
        <div style=""text-align: center; position: fixed; top: 5vh; left: 40vw;"">
            <div style=""margin:0 auto; width: 20vw; top: 8vh; font-size: 1vw""> 
                Current score : <font color=""green""> 130 points </font>
            </div>
        </div>
    
            <div style=""font-size:60px;"">+</div>
        ","null","ITI","","","",""
"","","","","","html-keyboard-response","214","199248","0.0-3.0-1.42","","","","null","
        
        <div style=""text-align: center; position: fixed; top: 5vh; left: 40vw;"">
            <div style=""margin:0 auto; width: 20vw; top: 8vh; font-size: 1vw""> 
                Current score : <font color=""green""> 130 points </font>
            </div>
        </div>
    
        <img class=""stim"" src=./stimuli//pack_easy/cat_1/ex_1_28.png></img>
    ","null","stimulus","","","",""
"","","","","","html-keyboard-response","215","200250","0.0-3.0-2.42","","","","null","
        <div style=""text-align: center; position: fixed; top: 5vh; left: 40vw;"">
            <div style=""margin:0 auto; width: 20vw; top: 8vh; font-size: 1vw""> 
                Current score : <font color=""green""> 130 points </font>
            </div>
        </div>
    ","null","","","","",""
"","","","","","html-keyboard-response","216","200573","0.0-3.0-3.42","","","","322","./stimuli//pack_easy/cat_1/ex_1_28.png","arrowright","response","ArrowLeft","28","1","false"
"","","","","","html-keyboard-response","217","202074","0.0-3.0-4.42","","","","null","<p> <font color=""red"" size=""4vw""> Wrong category! </font> </p>","null","feedback","","","",""
"","","","","","html-keyboard-response","218","202429","0.0-3.0-0.43","","","","null","
            
        <div style=""text-align: center; position: fixed; top: 5vh; left: 40vw;"">
            <div style=""margin:0 auto; width: 20vw; top: 8vh; font-size: 1vw""> 
                Current score : <font color=""green""> 130 points </font>
            </div>
        </div>
    
            <div style=""font-size:60px;"">+</div>
        ","null","ITI","","","",""
"","","","","","html-keyboard-response","219","203432","0.0-3.0-1.43","","","","null","
        
        <div style=""text-align: center; position: fixed; top: 5vh; left: 40vw;"">
            <div style=""margin:0 auto; width: 20vw; top: 8vh; font-size: 1vw""> 
                Current score : <font color=""green""> 130 points </font>
            </div>
        </div>
    
        <img class=""stim"" src=./stimuli//pack_easy/cat_1/ex_1_92.png></img>
    ","null","stimulus","","","",""
"","","","","","html-keyboard-response","220","204435","0.0-3.0-2.43","","","","null","
        <div style=""text-align: center; position: fixed; top: 5vh; left: 40vw;"">
            <div style=""margin:0 auto; width: 20vw; top: 8vh; font-size: 1vw""> 
                Current score : <font color=""green""> 130 points </font>
            </div>
        </div>
    ","null","","","","",""
"","","","","","html-keyboard-response","221","205277","0.0-3.0-3.43","","","","841","./stimuli//pack_easy/cat_1/ex_1_92.png","arrowright","response","ArrowLeft","92","1","false"
"","","","","","html-keyboard-response","222","206778","0.0-3.0-4.43","","","","null","<p> <font color=""red"" size=""4vw""> Wrong category! </font> </p>","null","feedback","","","",""
"","","","","","html-keyboard-response","223","207130","0.0-3.0-0.44","","","","null","
            
        <div style=""text-align: center; position: fixed; top: 5vh; left: 40vw;"">
            <div style=""margin:0 auto; width: 20vw; top: 8vh; font-size: 1vw""> 
                Current score : <font color=""green""> 130 points </font>
            </div>
        </div>
    
            <div style=""font-size:60px;"">+</div>
        ","null","ITI","","","",""
"","","","","","html-keyboard-response","224","208135","0.0-3.0-1.44","","","","null","
        
        <div style=""text-align: center; position: fixed; top: 5vh; left: 40vw;"">
            <div style=""margin:0 auto; width: 20vw; top: 8vh; font-size: 1vw""> 
                Current score : <font color=""green""> 130 points </font>
            </div>
        </div>
    
        <img class=""stim"" src=./stimuli//pack_easy/cat_1/ex_1_79.png></img>
    ","null","stimulus","","","",""
"","","","","","html-keyboard-response","225","209136","0.0-3.0-2.44","","","","null","
        <div style=""text-align: center; position: fixed; top: 5vh; left: 40vw;"">
            <div style=""margin:0 auto; width: 20vw; top: 8vh; font-size: 1vw""> 
                Current score : <font color=""green""> 130 points </font>
            </div>
        </div>
    ","null","","","","",""
"","","","","","html-keyboard-response","226","209518","0.0-3.0-3.44","","","","381","./stimuli//pack_easy/cat_1/ex_1_79.png","arrowleft","response","ArrowLeft","79","1","true"
"","","","","","html-keyboard-response","227","211023","0.0-3.0-4.44","","","","null","<p> <font color=""green"" size=""4vw""> Correct category! </font> <br> <br> <font color=""green"" size=""7vw""> +10 points </font> </p>","null","feedback","","","",""
"","","","","","html-keyboard-response","228","211375","0.0-3.0-0.45","","","","null","
            
        <div style=""text-align: center; position: fixed; top: 5vh; left: 40vw;"">
            <div style=""margin:0 auto; width: 20vw; top: 8vh; font-size: 1vw""> 
                Current score : <font color=""green""> 140 points </font>
            </div>
        </div>
    
            <div style=""font-size:60px;"">+</div>
        ","null","ITI","","","",""
"","","","","","html-keyboard-response","229","212378","0.0-3.0-1.45","","","","null","
        
        <div style=""text-align: center; position: fixed; top: 5vh; left: 40vw;"">
            <div style=""margin:0 auto; width: 20vw; top: 8vh; font-size: 1vw""> 
                Current score : <font color=""green""> 140 points </font>
            </div>
        </div>
    
        <img class=""stim"" src=./stimuli//pack_easy/cat_1/ex_1_88.png></img>
    ","null","stimulus","","","",""
"","","","","","html-keyboard-response","230","213381","0.0-3.0-2.45","","","","null","
        <div style=""text-align: center; position: fixed; top: 5vh; left: 40vw;"">
            <div style=""margin:0 auto; width: 20vw; top: 8vh; font-size: 1vw""> 
                Current score : <font color=""green""> 140 points </font>
            </div>
        </div>
    ","null","","","","",""
"","","","","","html-keyboard-response","231","213733","0.0-3.0-3.45","","","","352","./stimuli//pack_easy/cat_1/ex_1_88.png","arrowright","response","ArrowLeft","88","1","false"
"","","","","","html-keyboard-response","232","215239","0.0-3.0-4.45","","","","null","<p> <font color=""red"" size=""4vw""> Wrong category! </font> </p>","null","feedback","","","",""
"","","","","","html-keyboard-response","233","215593","0.0-3.0-0.46","","","","null","
            
        <div style=""text-align: center; position: fixed; top: 5vh; left: 40vw;"">
            <div style=""margin:0 auto; width: 20vw; top: 8vh; font-size: 1vw""> 
                Current score : <font color=""green""> 140 points </font>
            </div>
        </div>
    
            <div style=""font-size:60px;"">+</div>
        ","null","ITI","","","",""
"","","","","","html-keyboard-response","234","216597","0.0-3.0-1.46","","","","null","
        
        <div style=""text-align: center; position: fixed; top: 5vh; left: 40vw;"">
            <div style=""margin:0 auto; width: 20vw; top: 8vh; font-size: 1vw""> 
                Current score : <font color=""green""> 140 points </font>
            </div>
        </div>
    
        <img class=""stim"" src=./stimuli//pack_easy/cat_1/ex_1_49.png></img>
    ","null","stimulus","","","",""
"","","","","","html-keyboard-response","235","217599","0.0-3.0-2.46","","","","null","
        <div style=""text-align: center; position: fixed; top: 5vh; left: 40vw;"">
            <div style=""margin:0 auto; width: 20vw; top: 8vh; font-size: 1vw""> 
                Current score : <font color=""green""> 140 points </font>
            </div>
        </div>
    ","null","","","","",""
"","","","","","html-keyboard-response","236","217917","0.0-3.0-3.46","","","","318","./stimuli//pack_easy/cat_1/ex_1_49.png","arrowleft","response","ArrowLeft","49","1","true"
"","","","","","html-keyboard-response","237","219422","0.0-3.0-4.46","","","","null","<p> <font color=""green"" size=""4vw""> Correct category! </font> <br> <br> <font color=""green"" size=""7vw""> +10 points </font> </p>","null","feedback","","","",""
"","","","","","html-keyboard-response","238","219778","0.0-3.0-0.47","","","","null","
            
        <div style=""text-align: center; position: fixed; top: 5vh; left: 40vw;"">
            <div style=""margin:0 auto; width: 20vw; top: 8vh; font-size: 1vw""> 
                Current score : <font color=""green""> 150 points </font>
            </div>
        </div>
    
            <div style=""font-size:60px;"">+</div>
        ","null","ITI","","","",""
"","","","","","html-keyboard-response","239","220781","0.0-3.0-1.47","","","","null","
        
        <div style=""text-align: center; position: fixed; top: 5vh; left: 40vw;"">
            <div style=""margin:0 auto; width: 20vw; top: 8vh; font-size: 1vw""> 
                Current score : <font color=""green""> 150 points </font>
            </div>
        </div>
    
        <img class=""stim"" src=./stimuli//pack_easy/cat_1/ex_1_64.png></img>
    ","null","stimulus","","","",""
"","","","","","html-keyboard-response","240","221786","0.0-3.0-2.47","","","","null","
        <div style=""text-align: center; position: fixed; top: 5vh; left: 40vw;"">
            <div style=""margin:0 auto; width: 20vw; top: 8vh; font-size: 1vw""> 
                Current score : <font color=""green""> 150 points </font>
            </div>
        </div>
    ","null","","","","",""
"","","","","","html-keyboard-response","241","222205","0.0-3.0-3.47","","","","419","./stimuli//pack_easy/cat_1/ex_1_64.png","arrowright","response","ArrowLeft","64","1","false"
"","","","","","html-keyboard-response","242","223706","0.0-3.0-4.47","","","","null","<p> <font color=""red"" size=""4vw""> Wrong category! </font> </p>","null","feedback","","","",""
"","","","","","html-keyboard-response","243","224058","0.0-3.0-0.48","","","","null","
            
        <div style=""text-align: center; position: fixed; top: 5vh; left: 40vw;"">
            <div style=""margin:0 auto; width: 20vw; top: 8vh; font-size: 1vw""> 
                Current score : <font color=""green""> 150 points </font>
            </div>
        </div>
    
            <div style=""font-size:60px;"">+</div>
        ","null","ITI","","","",""
"","","","","","html-keyboard-response","244","225059","0.0-3.0-1.48","","","","null","
        
        <div style=""text-align: center; position: fixed; top: 5vh; left: 40vw;"">
            <div style=""margin:0 auto; width: 20vw; top: 8vh; font-size: 1vw""> 
                Current score : <font color=""green""> 150 points </font>
            </div>
        </div>
    
        <img class=""stim"" src=./stimuli//pack_easy/cat_1/ex_1_57.png></img>
    ","null","stimulus","","","",""
"","","","","","html-keyboard-response","245","226064","0.0-3.0-2.48","","","","null","
        <div style=""text-align: center; position: fixed; top: 5vh; left: 40vw;"">
            <div style=""margin:0 auto; width: 20vw; top: 8vh; font-size: 1vw""> 
                Current score : <font color=""green""> 150 points </font>
            </div>
        </div>
    ","null","","","","",""
"","","","","","html-keyboard-response","246","226397","0.0-3.0-3.48","","","","333","./stimuli//pack_easy/cat_1/ex_1_57.png","arrowleft","response","ArrowLeft","57","1","true"
"","","","","","html-keyboard-response","247","227902","0.0-3.0-4.48","","","","null","<p> <font color=""green"" size=""4vw""> Correct category! </font> <br> <br> <font color=""green"" size=""7vw""> +10 points </font> </p>","null","feedback","","","",""
"","","","","","html-keyboard-response","248","228254","0.0-3.0-0.49","","","","null","
            
        <div style=""text-align: center; position: fixed; top: 5vh; left: 40vw;"">
            <div style=""margin:0 auto; width: 20vw; top: 8vh; font-size: 1vw""> 
                Current score : <font color=""green""> 160 points </font>
            </div>
        </div>
    
            <div style=""font-size:60px;"">+</div>
        ","null","ITI","","","",""
"","","","","","html-keyboard-response","249","229257","0.0-3.0-1.49","","","","null","
        
        <div style=""text-align: center; position: fixed; top: 5vh; left: 40vw;"">
            <div style=""margin:0 auto; width: 20vw; top: 8vh; font-size: 1vw""> 
                Current score : <font color=""green""> 160 points </font>
            </div>
        </div>
    
        <img class=""stim"" src=./stimuli//pack_easy/cat_1/ex_1_11.png></img>
    ","null","stimulus","","","",""
"","","","","","html-keyboard-response","250","230260","0.0-3.0-2.49","","","","null","
        <div style=""text-align: center; position: fixed; top: 5vh; left: 40vw;"">
            <div style=""margin:0 auto; width: 20vw; top: 8vh; font-size: 1vw""> 
                Current score : <font color=""green""> 160 points </font>
            </div>
        </div>
    ","null","","","","",""
"","","","","","html-keyboard-response","251","230710","0.0-3.0-3.49","","","","450","./stimuli//pack_easy/cat_1/ex_1_11.png","arrowright","response","ArrowLeft","11","1","false"
"","","","","","html-keyboard-response","252","232211","0.0-3.0-4.49","","","","null","<p> <font color=""red"" size=""4vw""> Wrong category! </font> </p>","null","feedback","","","",""
"","","","","","html-keyboard-response","253","232566","0.0-3.0-0.50","","","","null","
            
        <div style=""text-align: center; position: fixed; top: 5vh; left: 40vw;"">
            <div style=""margin:0 auto; width: 20vw; top: 8vh; font-size: 1vw""> 
                Current score : <font color=""green""> 160 points </font>
            </div>
        </div>
    
            <div style=""font-size:60px;"">+</div>
        ","null","ITI","","","",""
"","","","","","html-keyboard-response","254","233567","0.0-3.0-1.50","","","","null","
        
        <div style=""text-align: center; position: fixed; top: 5vh; left: 40vw;"">
            <div style=""margin:0 auto; width: 20vw; top: 8vh; font-size: 1vw""> 
                Current score : <font color=""green""> 160 points </font>
            </div>
        </div>
    
        <img class=""stim"" src=./stimuli//pack_easy/cat_2/ex_2_25.png></img>
    ","null","stimulus","","","",""
"","","","","","html-keyboard-response","255","234570","0.0-3.0-2.50","","","","null","
        <div style=""text-align: center; position: fixed; top: 5vh; left: 40vw;"">
            <div style=""margin:0 auto; width: 20vw; top: 8vh; font-size: 1vw""> 
                Current score : <font color=""green""> 160 points </font>
            </div>
        </div>
    ","null","","","","",""
"","","","","","html-keyboard-response","256","235149","0.0-3.0-3.50","","","","579","./stimuli//pack_easy/cat_2/ex_2_25.png","arrowleft","response","ArrowRight","25","2","false"
"","","","","","html-keyboard-response","257","236653","0.0-3.0-4.50","","","","null","<p> <font color=""red"" size=""4vw""> Wrong category! </font> </p>","null","feedback","","","",""
"","","","","","html-keyboard-response","258","237005","0.0-3.0-0.51","","","","null","
            
        <div style=""text-align: center; position: fixed; top: 5vh; left: 40vw;"">
            <div style=""margin:0 auto; width: 20vw; top: 8vh; font-size: 1vw""> 
                Current score : <font color=""green""> 160 points </font>
            </div>
        </div>
    
            <div style=""font-size:60px;"">+</div>
        ","null","ITI","","","",""
"","","","","","html-keyboard-response","259","238007","0.0-3.0-1.51","","","","null","
        
        <div style=""text-align: center; position: fixed; top: 5vh; left: 40vw;"">
            <div style=""margin:0 auto; width: 20vw; top: 8vh; font-size: 1vw""> 
                Current score : <font color=""green""> 160 points </font>
            </div>
        </div>
    
        <img class=""stim"" src=./stimuli//pack_easy/cat_2/ex_2_84.png></img>
    ","null","stimulus","","","",""
"","","","","","html-keyboard-response","260","239010","0.0-3.0-2.51","","","","null","
        <div style=""text-align: center; position: fixed; top: 5vh; left: 40vw;"">
            <div style=""margin:0 auto; width: 20vw; top: 8vh; font-size: 1vw""> 
                Current score : <font color=""green""> 160 points </font>
            </div>
        </div>
    ","null","","","","",""
"","","","","","html-keyboard-response","261","239566","0.0-3.0-3.51","","","","554","./stimuli//pack_easy/cat_2/ex_2_84.png","arrowright","response","ArrowRight","84","2","true"
"","","","","","html-keyboard-response","262","241072","0.0-3.0-4.51","","","","null","<p> <font color=""green"" size=""4vw""> Correct category! </font> <br> <br> <font color=""green"" size=""7vw""> +10 points </font> </p>","null","feedback","","","",""
"","","","","","html-keyboard-response","263","241423","0.0-3.0-0.52","","","","null","
            
        <div style=""text-align: center; position: fixed; top: 5vh; left: 40vw;"">
            <div style=""margin:0 auto; width: 20vw; top: 8vh; font-size: 1vw""> 
                Current score : <font color=""green""> 170 points </font>
            </div>
        </div>
    
            <div style=""font-size:60px;"">+</div>
        ","null","ITI","","","",""
"","","","","","html-keyboard-response","264","242429","0.0-3.0-1.52","","","","null","
        
        <div style=""text-align: center; position: fixed; top: 5vh; left: 40vw;"">
            <div style=""margin:0 auto; width: 20vw; top: 8vh; font-size: 1vw""> 
                Current score : <font color=""green""> 170 points </font>
            </div>
        </div>
    
        <img class=""stim"" src=./stimuli//pack_easy/cat_2/ex_2_49.png></img>
    ","null","stimulus","","","",""
"","","","","","html-keyboard-response","265","243430","0.0-3.0-2.52","","","","null","
        <div style=""text-align: center; position: fixed; top: 5vh; left: 40vw;"">
            <div style=""margin:0 auto; width: 20vw; top: 8vh; font-size: 1vw""> 
                Current score : <font color=""green""> 170 points </font>
            </div>
        </div>
    ","null","","","","",""
"","","","","","html-keyboard-response","266","244133","0.0-3.0-3.52","","","","703","./stimuli//pack_easy/cat_2/ex_2_49.png","arrowright","response","ArrowRight","49","2","true"
"","","","","","html-keyboard-response","267","245635","0.0-3.0-4.52","","","","null","<p> <font color=""green"" size=""4vw""> Correct category! </font> <br> <br> <font color=""green"" size=""7vw""> +10 points </font> </p>","null","feedback","","","",""
"","","","","","html-keyboard-response","268","245987","0.0-3.0-0.53","","","","null","
            
        <div style=""text-align: center; position: fixed; top: 5vh; left: 40vw;"">
            <div style=""margin:0 auto; width: 20vw; top: 8vh; font-size: 1vw""> 
                Current score : <font color=""green""> 180 points </font>
            </div>
        </div>
    
            <div style=""font-size:60px;"">+</div>
        ","null","ITI","","","",""
"","","","","","html-keyboard-response","269","246990","0.0-3.0-1.53","","","","null","
        
        <div style=""text-align: center; position: fixed; top: 5vh; left: 40vw;"">
            <div style=""margin:0 auto; width: 20vw; top: 8vh; font-size: 1vw""> 
                Current score : <font color=""green""> 180 points </font>
            </div>
        </div>
    
        <img class=""stim"" src=./stimuli//pack_easy/cat_2/ex_2_18.png></img>
    ","null","stimulus","","","",""
"","","","","","html-keyboard-response","270","247994","0.0-3.0-2.53","","","","null","
        <div style=""text-align: center; position: fixed; top: 5vh; left: 40vw;"">
            <div style=""margin:0 auto; width: 20vw; top: 8vh; font-size: 1vw""> 
                Current score : <font color=""green""> 180 points </font>
            </div>
        </div>
    ","null","","","","",""
"","","","","","html-keyboard-response","271","249326","0.0-3.0-3.53","","","","1331","./stimuli//pack_easy/cat_2/ex_2_18.png","arrowleft","response","ArrowRight","18","2","false"
"","","","","","html-keyboard-response","272","250827","0.0-3.0-4.53","","","","null","<p> <font color=""red"" size=""4vw""> Wrong category! </font> </p>","null","feedback","","","",""
"","","","","","html-keyboard-response","273","251180","0.0-3.0-0.54","","","","null","
            
        <div style=""text-align: center; position: fixed; top: 5vh; left: 40vw;"">
            <div style=""margin:0 auto; width: 20vw; top: 8vh; font-size: 1vw""> 
                Current score : <font color=""green""> 180 points </font>
            </div>
        </div>
    
            <div style=""font-size:60px;"">+</div>
        ","null","ITI","","","",""
"","","","","","html-keyboard-response","274","252185","0.0-3.0-1.54","","","","null","
        
        <div style=""text-align: center; position: fixed; top: 5vh; left: 40vw;"">
            <div style=""margin:0 auto; width: 20vw; top: 8vh; font-size: 1vw""> 
                Current score : <font color=""green""> 180 points </font>
            </div>
        </div>
    
        <img class=""stim"" src=./stimuli//pack_easy/cat_2/ex_2_83.png></img>
    ","null","stimulus","","","",""
"","","","","","html-keyboard-response","275","253186","0.0-3.0-2.54","","","","null","
        <div style=""text-align: center; position: fixed; top: 5vh; left: 40vw;"">
            <div style=""margin:0 auto; width: 20vw; top: 8vh; font-size: 1vw""> 
                Current score : <font color=""green""> 180 points </font>
            </div>
        </div>
    ","null","","","","",""
"","","","","","html-keyboard-response","276","254565","0.0-3.0-3.54","","","","1379","./stimuli//pack_easy/cat_2/ex_2_83.png","arrowright","response","ArrowRight","83","2","true"
"","","","","","html-keyboard-response","277","256069","0.0-3.0-4.54","","","","null","<p> <font color=""green"" size=""4vw""> Correct category! </font> <br> <br> <font color=""green"" size=""7vw""> +10 points </font> </p>","null","feedback","","","",""
"","","","","","html-keyboard-response","278","256423","0.0-3.0-0.55","","","","null","
            
        <div style=""text-align: center; position: fixed; top: 5vh; left: 40vw;"">
            <div style=""margin:0 auto; width: 20vw; top: 8vh; font-size: 1vw""> 
                Current score : <font color=""green""> 190 points </font>
            </div>
        </div>
    
            <div style=""font-size:60px;"">+</div>
        ","null","ITI","","","",""
"","","","","","html-keyboard-response","279","257424","0.0-3.0-1.55","","","","null","
        
        <div style=""text-align: center; position: fixed; top: 5vh; left: 40vw;"">
            <div style=""margin:0 auto; width: 20vw; top: 8vh; font-size: 1vw""> 
                Current score : <font color=""green""> 190 points </font>
            </div>
        </div>
    
        <img class=""stim"" src=./stimuli//pack_easy/cat_2/ex_2_87.png></img>
    ","null","stimulus","","","",""
"","","","","","html-keyboard-response","280","258426","0.0-3.0-2.55","","","","null","
        <div style=""text-align: center; position: fixed; top: 5vh; left: 40vw;"">
            <div style=""margin:0 auto; width: 20vw; top: 8vh; font-size: 1vw""> 
                Current score : <font color=""green""> 190 points </font>
            </div>
        </div>
    ","null","","","","",""
"","","","","","html-keyboard-response","281","259285","0.0-3.0-3.55","","","","859","./stimuli//pack_easy/cat_2/ex_2_87.png","arrowright","response","ArrowRight","87","2","true"
"","","","","","html-keyboard-response","282","260786","0.0-3.0-4.55","","","","null","<p> <font color=""green"" size=""4vw""> Correct category! </font> <br> <br> <font color=""green"" size=""7vw""> +10 points </font> </p>","null","feedback","","","",""
"","","","","","html-keyboard-response","283","261138","0.0-3.0-0.56","","","","null","
            
        <div style=""text-align: center; position: fixed; top: 5vh; left: 40vw;"">
            <div style=""margin:0 auto; width: 20vw; top: 8vh; font-size: 1vw""> 
                Current score : <font color=""green""> 200 points </font>
            </div>
        </div>
    
            <div style=""font-size:60px;"">+</div>
        ","null","ITI","","","",""
"","","","","","html-keyboard-response","284","262140","0.0-3.0-1.56","","","","null","
        
        <div style=""text-align: center; position: fixed; top: 5vh; left: 40vw;"">
            <div style=""margin:0 auto; width: 20vw; top: 8vh; font-size: 1vw""> 
                Current score : <font color=""green""> 200 points </font>
            </div>
        </div>
    
        <img class=""stim"" src=./stimuli//pack_easy/cat_2/ex_2_39.png></img>
    ","null","stimulus","","","",""
"","","","","","html-keyboard-response","285","263146","0.0-3.0-2.56","","","","null","
        <div style=""text-align: center; position: fixed; top: 5vh; left: 40vw;"">
            <div style=""margin:0 auto; width: 20vw; top: 8vh; font-size: 1vw""> 
                Current score : <font color=""green""> 200 points </font>
            </div>
        </div>
    ","null","","","","",""
"","","","","","html-keyboard-response","286","263430","0.0-3.0-3.56","","","","283","./stimuli//pack_easy/cat_2/ex_2_39.png","arrowright","response","ArrowRight","39","2","true"
"","","","","","html-keyboard-response","287","264932","0.0-3.0-4.56","","","","null","<p> <font color=""green"" size=""4vw""> Correct category! </font> <br> <br> <font color=""green"" size=""7vw""> +10 points </font> </p>","null","feedback","","","",""
"","","","","","html-keyboard-response","288","265285","0.0-3.0-0.57","","","","null","
            
        <div style=""text-align: center; position: fixed; top: 5vh; left: 40vw;"">
