"success","timeout","failed_images","failed_audio","failed_video","trial_type","trial_index","time_elapsed","internal_node_id","subject_id","study_id","session_id","rt","stimulus","response","task","correct_response","exemplar_ID","category","correct"
"true","false","[]","[]","[]","preload","0","3","0.0-0.0","","","","","","","","","","",""
"","","","","","html-keyboard-response","1","5286","0.0-1.0","","","","5282","Welcome to the Category Learning experiment! Press any key to continue."," ","welcome","","","",""
"","","","","","html-keyboard-response","2","26634","0.0-2.0","","","","21347","<p>You will be shown images and each image will contain a set of black dots. Each image will belong to one of two categories: category A or category B.
            <br>You will not know in advance which category the given collection of dots belongs to.</p>
            <p>After you see an image you will be asked to categorize it into <b>category A (by pressing the left arrow key)</b> or <b>category B (by pressing the right arrow key)</b>
            as quickly as possible.</p>
            <p>After you make a choice you will receive feedback telling you whether you matched the image to the correct category or not.</p>
            <p>Your goal is to categorize as many sets of dots correctly as possible.</p>
            <p>Press any key to begin.</p>"," ","introduction","","","",""
"","","","","","html-keyboard-response","3","26997","0.0-3.0-0.0","","","","null","
            
        <div style=""text-align: center; position: fixed; top: 5vh; left: 40vw;"">
            <div style=""margin:0 auto; width: 20vw; top: 8vh; font-size: 1vw""> 
                Current score : <font color=""green""> 0 points </font>
            </div>
        </div>
    
            <div style=""font-size:60px;"">+</div>
        ","null","ITI","","","",""
"","","","","","html-keyboard-response","4","28000","0.0-3.0-1.0","","","","null","
        
        <div style=""text-align: center; position: fixed; top: 5vh; left: 40vw;"">
            <div style=""margin:0 auto; width: 20vw; top: 8vh; font-size: 1vw""> 
                Current score : <font color=""green""> 0 points </font>
            </div>
        </div>
    
        <img class=""stim"" src=./stimuli//pack_easy/cat_1/ex_1_33.png></img>
    ","null","stimulus","","","",""
"","","","","","html-keyboard-response","5","29008","0.0-3.0-2.0","","","","null","
        <div style=""text-align: center; position: fixed; top: 5vh; left: 40vw;"">
            <div style=""margin:0 auto; width: 20vw; top: 8vh; font-size: 1vw""> 
                Current score : <font color=""green""> 0 points </font>
            </div>
        </div>
    ","null","","","","",""
"","","","","","html-keyboard-response","6","30313","0.0-3.0-3.0","","","","1304","./stimuli//pack_easy/cat_1/ex_1_33.png","arrowleft","response","ArrowLeft","33","1","true"
"","","","","","html-keyboard-response","7","31831","0.0-3.0-4.0","","","","null","<p> <font color=""green"" size=""4vw""> Correct category! </font> <br> <br> <font color=""green"" size=""7vw""> +10 points </font> </p>","null","feedback","","","",""
"","","","","","html-keyboard-response","8","32196","0.0-3.0-0.1","","","","null","
            
        <div style=""text-align: center; position: fixed; top: 5vh; left: 40vw;"">
            <div style=""margin:0 auto; width: 20vw; top: 8vh; font-size: 1vw""> 
                Current score : <font color=""green""> 10 points </font>
            </div>
        </div>
    
            <div style=""font-size:60px;"">+</div>
        ","null","ITI","","","",""
"","","","","","html-keyboard-response","9","33202","0.0-3.0-1.1","","","","null","
        
        <div style=""text-align: center; position: fixed; top: 5vh; left: 40vw;"">
            <div style=""margin:0 auto; width: 20vw; top: 8vh; font-size: 1vw""> 
                Current score : <font color=""green""> 10 points </font>
            </div>
        </div>
    
        <img class=""stim"" src=./stimuli//pack_easy/cat_2/ex_2_20.png></img>
    ","null","stimulus","","","",""
"","","","","","html-keyboard-response","10","34205","0.0-3.0-2.1","","","","null","
        <div style=""text-align: center; position: fixed; top: 5vh; left: 40vw;"">
            <div style=""margin:0 auto; width: 20vw; top: 8vh; font-size: 1vw""> 
                Current score : <font color=""green""> 10 points </font>
            </div>
        </div>
    ","null","","","","",""
"","","","","","html-keyboard-response","11","34586","0.0-3.0-3.1","","","","380","./stimuli//pack_easy/cat_2/ex_2_20.png","arrowright","response","ArrowRight","20","2","true"
"","","","","","html-keyboard-response","12","36089","0.0-3.0-4.1","","","","null","<p> <font color=""green"" size=""4vw""> Correct category! </font> <br> <br> <font color=""green"" size=""7vw""> +10 points </font> </p>","null","feedback","","","",""
"","","","","","html-keyboard-response","13","36442","0.0-3.0-0.2","","","","null","
            
        <div style=""text-align: center; position: fixed; top: 5vh; left: 40vw;"">
            <div style=""margin:0 auto; width: 20vw; top: 8vh; font-size: 1vw""> 
                Current score : <font color=""green""> 20 points </font>
            </div>
        </div>
    
            <div style=""font-size:60px;"">+</div>
        ","null","ITI","","","",""
"","","","","","html-keyboard-response","14","37455","0.0-3.0-1.2","","","","null","
        
        <div style=""text-align: center; position: fixed; top: 5vh; left: 40vw;"">
            <div style=""margin:0 auto; width: 20vw; top: 8vh; font-size: 1vw""> 
                Current score : <font color=""green""> 20 points </font>
            </div>
        </div>
    
        <img class=""stim"" src=./stimuli//pack_easy/cat_2/ex_2_14.png></img>
    ","null","stimulus","","","",""
"","","","","","html-keyboard-response","15","38468","0.0-3.0-2.2","","","","null","
        <div style=""text-align: center; position: fixed; top: 5vh; left: 40vw;"">
            <div style=""margin:0 auto; width: 20vw; top: 8vh; font-size: 1vw""> 
                Current score : <font color=""green""> 20 points </font>
            </div>
        </div>
    ","null","","","","",""
"","","","","","html-keyboard-response","16","38770","0.0-3.0-3.2","","","","301","./stimuli//pack_easy/cat_2/ex_2_14.png","arrowright","response","ArrowRight","14","2","true"
"","","","","","html-keyboard-response","17","40272","0.0-3.0-4.2","","","","null","<p> <font color=""green"" size=""4vw""> Correct category! </font> <br> <br> <font color=""green"" size=""7vw""> +10 points </font> </p>","null","feedback","","","",""
"","","","","","html-keyboard-response","18","40636","0.0-3.0-0.3","","","","null","
            
        <div style=""text-align: center; position: fixed; top: 5vh; left: 40vw;"">
            <div style=""margin:0 auto; width: 20vw; top: 8vh; font-size: 1vw""> 
                Current score : <font color=""green""> 30 points </font>
            </div>
        </div>
    
            <div style=""font-size:60px;"">+</div>
        ","null","ITI","","","",""
"","","","","","html-keyboard-response","19","41638","0.0-3.0-1.3","","","","null","
        
        <div style=""text-align: center; position: fixed; top: 5vh; left: 40vw;"">
            <div style=""margin:0 auto; width: 20vw; top: 8vh; font-size: 1vw""> 
                Current score : <font color=""green""> 30 points </font>
            </div>
        </div>
    
        <img class=""stim"" src=./stimuli//pack_easy/cat_2/ex_2_54.png></img>
    ","null","stimulus","","","",""
"","","","","","html-keyboard-response","20","42653","0.0-3.0-2.3","","","","null","
        <div style=""text-align: center; position: fixed; top: 5vh; left: 40vw;"">
            <div style=""margin:0 auto; width: 20vw; top: 8vh; font-size: 1vw""> 
                Current score : <font color=""green""> 30 points </font>
            </div>
        </div>
    ","null","","","","",""
"","","","","","html-keyboard-response","21","43194","0.0-3.0-3.3","","","","538","./stimuli//pack_easy/cat_2/ex_2_54.png","arrowright","response","ArrowRight","54","2","true"
"","","","","","html-keyboard-response","22","44695","0.0-3.0-4.3","","","","null","<p> <font color=""green"" size=""4vw""> Correct category! </font> <br> <br> <font color=""green"" size=""7vw""> +10 points </font> </p>","null","feedback","","","",""
"","","","","","html-keyboard-response","23","45051","0.0-3.0-0.4","","","","null","
            
        <div style=""text-align: center; position: fixed; top: 5vh; left: 40vw;"">
            <div style=""margin:0 auto; width: 20vw; top: 8vh; font-size: 1vw""> 
                Current score : <font color=""green""> 40 points </font>
            </div>
        </div>
    
            <div style=""font-size:60px;"">+</div>
        ","null","ITI","","","",""
"","","","","","html-keyboard-response","24","46057","0.0-3.0-1.4","","","","null","
        
        <div style=""text-align: center; position: fixed; top: 5vh; left: 40vw;"">
            <div style=""margin:0 auto; width: 20vw; top: 8vh; font-size: 1vw""> 
                Current score : <font color=""green""> 40 points </font>
            </div>
        </div>
    
        <img class=""stim"" src=./stimuli//pack_easy/cat_1/ex_1_27.png></img>
    ","null","stimulus","","","",""
"","","","","","html-keyboard-response","25","47072","0.0-3.0-2.4","","","","null","
        <div style=""text-align: center; position: fixed; top: 5vh; left: 40vw;"">
            <div style=""margin:0 auto; width: 20vw; top: 8vh; font-size: 1vw""> 
                Current score : <font color=""green""> 40 points </font>
            </div>
        </div>
    ","null","","","","",""
"","","","","","html-keyboard-response","26","47474","0.0-3.0-3.4","","","","401","./stimuli//pack_easy/cat_1/ex_1_27.png","arrowright","response","ArrowLeft","27","1","false"
"","","","","","html-keyboard-response","27","48975","0.0-3.0-4.4","","","","null","<p> <font color=""red"" size=""4vw""> Wrong category! </font> </p>","null","feedback","","","",""
"","","","","","html-keyboard-response","28","49334","0.0-3.0-0.5","","","","null","
            
        <div style=""text-align: center; position: fixed; top: 5vh; left: 40vw;"">
            <div style=""margin:0 auto; width: 20vw; top: 8vh; font-size: 1vw""> 
                Current score : <font color=""green""> 40 points </font>
            </div>
        </div>
    
            <div style=""font-size:60px;"">+</div>
        ","null","ITI","","","",""
"","","","","","html-keyboard-response","29","50340","0.0-3.0-1.5","","","","null","
        
        <div style=""text-align: center; position: fixed; top: 5vh; left: 40vw;"">
            <div style=""margin:0 auto; width: 20vw; top: 8vh; font-size: 1vw""> 
                Current score : <font color=""green""> 40 points </font>
            </div>
        </div>
    
        <img class=""stim"" src=./stimuli//pack_easy/cat_2/ex_2_26.png></img>
    ","null","stimulus","","","",""
"","","","","","html-keyboard-response","30","51345","0.0-3.0-2.5","","","","null","
        <div style=""text-align: center; position: fixed; top: 5vh; left: 40vw;"">
            <div style=""margin:0 auto; width: 20vw; top: 8vh; font-size: 1vw""> 
                Current score : <font color=""green""> 40 points </font>
            </div>
        </div>
    ","null","","","","",""
"","","","","","html-keyboard-response","31","52130","0.0-3.0-3.5","","","","784","./stimuli//pack_easy/cat_2/ex_2_26.png","arrowleft","response","ArrowRight","26","2","false"
"","","","","","html-keyboard-response","32","53633","0.0-3.0-4.5","","","","null","<p> <font color=""red"" size=""4vw""> Wrong category! </font> </p>","null","feedback","","","",""
"","","","","","html-keyboard-response","33","53992","0.0-3.0-0.6","","","","null","
            
        <div style=""text-align: center; position: fixed; top: 5vh; left: 40vw;"">
            <div style=""margin:0 auto; width: 20vw; top: 8vh; font-size: 1vw""> 
                Current score : <font color=""green""> 40 points </font>
            </div>
        </div>
    
            <div style=""font-size:60px;"">+</div>
        ","null","ITI","","","",""
"","","","","","html-keyboard-response","34","55004","0.0-3.0-1.6","","","","null","
        
        <div style=""text-align: center; position: fixed; top: 5vh; left: 40vw;"">
            <div style=""margin:0 auto; width: 20vw; top: 8vh; font-size: 1vw""> 
                Current score : <font color=""green""> 40 points </font>
            </div>
        </div>
    
        <img class=""stim"" src=./stimuli//pack_easy/cat_1/ex_1_95.png></img>
    ","null","stimulus","","","",""
"","","","","","html-keyboard-response","35","56015","0.0-3.0-2.6","","","","null","
        <div style=""text-align: center; position: fixed; top: 5vh; left: 40vw;"">
            <div style=""margin:0 auto; width: 20vw; top: 8vh; font-size: 1vw""> 
                Current score : <font color=""green""> 40 points </font>
            </div>
        </div>
    ","null","","","","",""
"","","","","","html-keyboard-response","36","56553","0.0-3.0-3.6","","","","537","./stimuli//pack_easy/cat_1/ex_1_95.png","arrowleft","response","ArrowLeft","95","1","true"
"","","","","","html-keyboard-response","37","58060","0.0-3.0-4.6","","","","null","<p> <font color=""green"" size=""4vw""> Correct category! </font> <br> <br> <font color=""green"" size=""7vw""> +10 points </font> </p>","null","feedback","","","",""
"","","","","","html-keyboard-response","38","58418","0.0-3.0-0.7","","","","null","
            
        <div style=""text-align: center; position: fixed; top: 5vh; left: 40vw;"">
            <div style=""margin:0 auto; width: 20vw; top: 8vh; font-size: 1vw""> 
                Current score : <font color=""green""> 50 points </font>
            </div>
        </div>
    
            <div style=""font-size:60px;"">+</div>
        ","null","ITI","","","",""
"","","","","","html-keyboard-response","39","59423","0.0-3.0-1.7","","","","null","
        
        <div style=""text-align: center; position: fixed; top: 5vh; left: 40vw;"">
            <div style=""margin:0 auto; width: 20vw; top: 8vh; font-size: 1vw""> 
                Current score : <font color=""green""> 50 points </font>
            </div>
        </div>
    
        <img class=""stim"" src=./stimuli//pack_easy/cat_1/ex_1_49.png></img>
    ","null","stimulus","","","",""
"","","","","","html-keyboard-response","40","60437","0.0-3.0-2.7","","","","null","
        <div style=""text-align: center; position: fixed; top: 5vh; left: 40vw;"">
            <div style=""margin:0 auto; width: 20vw; top: 8vh; font-size: 1vw""> 
                Current score : <font color=""green""> 50 points </font>
            </div>
        </div>
    ","null","","","","",""
"","","","","","html-keyboard-response","41","62286","0.0-3.0-3.7","","","","1849","./stimuli//pack_easy/cat_1/ex_1_49.png","arrowleft","response","ArrowLeft","49","1","true"
"","","","","","html-keyboard-response","42","63802","0.0-3.0-4.7","","","","null","<p> <font color=""green"" size=""4vw""> Correct category! </font> <br> <br> <font color=""green"" size=""7vw""> +10 points </font> </p>","null","feedback","","","",""
"","","","","","html-keyboard-response","43","64166","0.0-3.0-0.8","","","","null","
            
        <div style=""text-align: center; position: fixed; top: 5vh; left: 40vw;"">
            <div style=""margin:0 auto; width: 20vw; top: 8vh; font-size: 1vw""> 
                Current score : <font color=""green""> 60 points </font>
            </div>
        </div>
    
            <div style=""font-size:60px;"">+</div>
        ","null","ITI","","","",""
"","","","","","html-keyboard-response","44","65167","0.0-3.0-1.8","","","","null","
        
        <div style=""text-align: center; position: fixed; top: 5vh; left: 40vw;"">
            <div style=""margin:0 auto; width: 20vw; top: 8vh; font-size: 1vw""> 
                Current score : <font color=""green""> 60 points </font>
            </div>
        </div>
    
        <img class=""stim"" src=./stimuli//pack_easy/cat_1/ex_1_63.png></img>
    ","null","stimulus","","","",""
"","","","","","html-keyboard-response","45","66177","0.0-3.0-2.8","","","","null","
        <div style=""text-align: center; position: fixed; top: 5vh; left: 40vw;"">
            <div style=""margin:0 auto; width: 20vw; top: 8vh; font-size: 1vw""> 
                Current score : <font color=""green""> 60 points </font>
            </div>
        </div>
    ","null","","","","",""
"","","","","","html-keyboard-response","46","66510","0.0-3.0-3.8","","","","332","./stimuli//pack_easy/cat_1/ex_1_63.png","arrowleft","response","ArrowLeft","63","1","true"
"","","","","","html-keyboard-response","47","68014","0.0-3.0-4.8","","","","null","<p> <font color=""green"" size=""4vw""> Correct category! </font> <br> <br> <font color=""green"" size=""7vw""> +10 points </font> </p>","null","feedback","","","",""
"","","","","","html-keyboard-response","48","68371","0.0-3.0-0.9","","","","null","
            
        <div style=""text-align: center; position: fixed; top: 5vh; left: 40vw;"">
            <div style=""margin:0 auto; width: 20vw; top: 8vh; font-size: 1vw""> 
                Current score : <font color=""green""> 70 points </font>
            </div>
        </div>
    
            <div style=""font-size:60px;"">+</div>
        ","null","ITI","","","",""
"","","","","","html-keyboard-response","49","69379","0.0-3.0-1.9","","","","null","
        
        <div style=""text-align: center; position: fixed; top: 5vh; left: 40vw;"">
            <div style=""margin:0 auto; width: 20vw; top: 8vh; font-size: 1vw""> 
                Current score : <font color=""green""> 70 points </font>
            </div>
        </div>
    
        <img class=""stim"" src=./stimuli//pack_easy/cat_1/ex_1_31.png></img>
    ","null","stimulus","","","",""
"","","","","","html-keyboard-response","50","70390","0.0-3.0-2.9","","","","null","
        <div style=""text-align: center; position: fixed; top: 5vh; left: 40vw;"">
            <div style=""margin:0 auto; width: 20vw; top: 8vh; font-size: 1vw""> 
                Current score : <font color=""green""> 70 points </font>
            </div>
        </div>
    ","null","","","","",""
"","","","","","html-keyboard-response","51","70741","0.0-3.0-3.9","","","","350","./stimuli//pack_easy/cat_1/ex_1_31.png","arrowleft","response","ArrowLeft","31","1","true"
"","","","","","html-keyboard-response","52","72242","0.0-3.0-4.9","","","","null","<p> <font color=""green"" size=""4vw""> Correct category! </font> <br> <br> <font color=""green"" size=""7vw""> +10 points </font> </p>","null","feedback","","","",""
"","","","","","html-keyboard-response","53","72608","0.0-3.0-0.10","","","","null","
            
        <div style=""text-align: center; position: fixed; top: 5vh; left: 40vw;"">
            <div style=""margin:0 auto; width: 20vw; top: 8vh; font-size: 1vw""> 
                Current score : <font color=""green""> 80 points </font>
            </div>
        </div>
    
            <div style=""font-size:60px;"">+</div>
        ","null","ITI","","","",""
"","","","","","html-keyboard-response","54","73621","0.0-3.0-1.10","","","","null","
        
        <div style=""text-align: center; position: fixed; top: 5vh; left: 40vw;"">
            <div style=""margin:0 auto; width: 20vw; top: 8vh; font-size: 1vw""> 
                Current score : <font color=""green""> 80 points </font>
            </div>
        </div>
    
        <img class=""stim"" src=./stimuli//pack_easy/cat_1/ex_1_8.png></img>
    ","null","stimulus","","","",""
"","","","","","html-keyboard-response","55","74630","0.0-3.0-2.10","","","","null","
        <div style=""text-align: center; position: fixed; top: 5vh; left: 40vw;"">
            <div style=""margin:0 auto; width: 20vw; top: 8vh; font-size: 1vw""> 
                Current score : <font color=""green""> 80 points </font>
            </div>
        </div>
    ","null","","","","",""
"","","","","","html-keyboard-response","56","74990","0.0-3.0-3.10","","","","359","./stimuli//pack_easy/cat_1/ex_1_8.png","arrowleft","response","ArrowLeft","8","1","true"
"","","","","","html-keyboard-response","57","76504","0.0-3.0-4.10","","","","null","<p> <font color=""green"" size=""4vw""> Correct category! </font> <br> <br> <font color=""green"" size=""7vw""> +10 points </font> </p>","null","feedback","","","",""
"","","","","","html-keyboard-response","58","76866","0.0-3.0-0.11","","","","null","
            
        <div style=""text-align: center; position: fixed; top: 5vh; left: 40vw;"">
            <div style=""margin:0 auto; width: 20vw; top: 8vh; font-size: 1vw""> 
                Current score : <font color=""green""> 90 points </font>
            </div>
        </div>
    
            <div style=""font-size:60px;"">+</div>
        ","null","ITI","","","",""
"","","","","","html-keyboard-response","59","77867","0.0-3.0-1.11","","","","null","
        
        <div style=""text-align: center; position: fixed; top: 5vh; left: 40vw;"">
            <div style=""margin:0 auto; width: 20vw; top: 8vh; font-size: 1vw""> 
                Current score : <font color=""green""> 90 points </font>
            </div>
        </div>
    
        <img class=""stim"" src=./stimuli//pack_easy/cat_2/ex_2_60.png></img>
    ","null","stimulus","","","",""
"","","","","","html-keyboard-response","60","78882","0.0-3.0-2.11","","","","null","
        <div style=""text-align: center; position: fixed; top: 5vh; left: 40vw;"">
            <div style=""margin:0 auto; width: 20vw; top: 8vh; font-size: 1vw""> 
                Current score : <font color=""green""> 90 points </font>
            </div>
        </div>
    ","null","","","","",""
"","","","","","html-keyboard-response","61","79261","0.0-3.0-3.11","","","","378","./stimuli//pack_easy/cat_2/ex_2_60.png","arrowright","response","ArrowRight","60","2","true"
"","","","","","html-keyboard-response","62","80772","0.0-3.0-4.11","","","","null","<p> <font color=""green"" size=""4vw""> Correct category! </font> <br> <br> <font color=""green"" size=""7vw""> +10 points </font> </p>","null","feedback","","","",""
"","","","","","html-keyboard-response","63","81131","0.0-3.0-0.12","","","","null","
            
        <div style=""text-align: center; position: fixed; top: 5vh; left: 40vw;"">
            <div style=""margin:0 auto; width: 20vw; top: 8vh; font-size: 1vw""> 
                Current score : <font color=""green""> 100 points </font>
            </div>
        </div>
    
            <div style=""font-size:60px;"">+</div>
        ","null","ITI","","","",""
"","","","","","html-keyboard-response","64","82140","0.0-3.0-1.12","","","","null","
        
        <div style=""text-align: center; position: fixed; top: 5vh; left: 40vw;"">
            <div style=""margin:0 auto; width: 20vw; top: 8vh; font-size: 1vw""> 
                Current score : <font color=""green""> 100 points </font>
            </div>
        </div>
    
        <img class=""stim"" src=./stimuli//pack_easy/cat_1/ex_1_34.png></img>
    ","null","stimulus","","","",""
"","","","","","html-keyboard-response","65","83143","0.0-3.0-2.12","","","","null","
        <div style=""text-align: center; position: fixed; top: 5vh; left: 40vw;"">
            <div style=""margin:0 auto; width: 20vw; top: 8vh; font-size: 1vw""> 
                Current score : <font color=""green""> 100 points </font>
            </div>
        </div>
    ","null","","","","",""
"","","","","","html-keyboard-response","66","83561","0.0-3.0-3.12","","","","417","./stimuli//pack_easy/cat_1/ex_1_34.png","arrowleft","response","ArrowLeft","34","1","true"
"","","","","","html-keyboard-response","67","85077","0.0-3.0-4.12","","","","null","<p> <font color=""green"" size=""4vw""> Correct category! </font> <br> <br> <font color=""green"" size=""7vw""> +10 points </font> </p>","null","feedback","","","",""
"","","","","","html-keyboard-response","68","85433","0.0-3.0-0.13","","","","null","
            
        <div style=""text-align: center; position: fixed; top: 5vh; left: 40vw;"">
            <div style=""margin:0 auto; width: 20vw; top: 8vh; font-size: 1vw""> 
                Current score : <font color=""green""> 110 points </font>
            </div>
        </div>
    
            <div style=""font-size:60px;"">+</div>
        ","null","ITI","","","",""
"","","","","","html-keyboard-response","69","86442","0.0-3.0-1.13","","","","null","
        
        <div style=""text-align: center; position: fixed; top: 5vh; left: 40vw;"">
            <div style=""margin:0 auto; width: 20vw; top: 8vh; font-size: 1vw""> 
                Current score : <font color=""green""> 110 points </font>
            </div>
        </div>
    
        <img class=""stim"" src=./stimuli//pack_easy/cat_1/ex_1_71.png></img>
    ","null","stimulus","","","",""
"","","","","","html-keyboard-response","70","87447","0.0-3.0-2.13","","","","null","
        <div style=""text-align: center; position: fixed; top: 5vh; left: 40vw;"">
            <div style=""margin:0 auto; width: 20vw; top: 8vh; font-size: 1vw""> 
                Current score : <font color=""green""> 110 points </font>
            </div>
        </div>
    ","null","","","","",""
"","","","","","html-keyboard-response","71","87818","0.0-3.0-3.13","","","","369","./stimuli//pack_easy/cat_1/ex_1_71.png","arrowleft","response","ArrowLeft","71","1","true"
"","","","","","html-keyboard-response","72","89333","0.0-3.0-4.13","","","","null","<p> <font color=""green"" size=""4vw""> Correct category! </font> <br> <br> <font color=""green"" size=""7vw""> +10 points </font> </p>","null","feedback","","","",""
"","","","","","html-keyboard-response","73","89691","0.0-3.0-0.14","","","","null","
            
        <div style=""text-align: center; position: fixed; top: 5vh; left: 40vw;"">
            <div style=""margin:0 auto; width: 20vw; top: 8vh; font-size: 1vw""> 
                Current score : <font color=""green""> 120 points </font>
            </div>
        </div>
    
            <div style=""font-size:60px;"">+</div>
        ","null","ITI","","","",""
"","","","","","html-keyboard-response","74","90705","0.0-3.0-1.14","","","","null","
        
        <div style=""text-align: center; position: fixed; top: 5vh; left: 40vw;"">
            <div style=""margin:0 auto; width: 20vw; top: 8vh; font-size: 1vw""> 
                Current score : <font color=""green""> 120 points </font>
            </div>
        </div>
    
        <img class=""stim"" src=./stimuli//pack_easy/cat_2/ex_2_63.png></img>
    ","null","stimulus","","","",""
"","","","","","html-keyboard-response","75","91714","0.0-3.0-2.14","","","","null","
        <div style=""text-align: center; position: fixed; top: 5vh; left: 40vw;"">
            <div style=""margin:0 auto; width: 20vw; top: 8vh; font-size: 1vw""> 
                Current score : <font color=""green""> 120 points </font>
            </div>
        </div>
    ","null","","","","",""
"","","","","","html-keyboard-response","76","92298","0.0-3.0-3.14","","","","582","./stimuli//pack_easy/cat_2/ex_2_63.png","arrowright","response","ArrowRight","63","2","true"
"","","","","","html-keyboard-response","77","93804","0.0-3.0-4.14","","","","null","<p> <font color=""green"" size=""4vw""> Correct category! </font> <br> <br> <font color=""green"" size=""7vw""> +10 points </font> </p>","null","feedback","","","",""
"","","","","","html-keyboard-response","78","94168","0.0-3.0-0.15","","","","null","
            
        <div style=""text-align: center; position: fixed; top: 5vh; left: 40vw;"">
            <div style=""margin:0 auto; width: 20vw; top: 8vh; font-size: 1vw""> 
                Current score : <font color=""green""> 130 points </font>
            </div>
        </div>
    
            <div style=""font-size:60px;"">+</div>
        ","null","ITI","","","",""
"","","","","","html-keyboard-response","79","95172","0.0-3.0-1.15","","","","null","
        
        <div style=""text-align: center; position: fixed; top: 5vh; left: 40vw;"">
            <div style=""margin:0 auto; width: 20vw; top: 8vh; font-size: 1vw""> 
                Current score : <font color=""green""> 130 points </font>
            </div>
        </div>
    
        <img class=""stim"" src=./stimuli//pack_easy/cat_1/ex_1_21.png></img>
    ","null","stimulus","","","",""
"","","","","","html-keyboard-response","80","96187","0.0-3.0-2.15","","","","null","
        <div style=""text-align: center; position: fixed; top: 5vh; left: 40vw;"">
            <div style=""margin:0 auto; width: 20vw; top: 8vh; font-size: 1vw""> 
                Current score : <font color=""green""> 130 points </font>
            </div>
        </div>
    ","null","","","","",""
"","","","","","html-keyboard-response","81","96473","0.0-3.0-3.15","","","","284","./stimuli//pack_easy/cat_1/ex_1_21.png","arrowright","response","ArrowLeft","21","1","false"
"","","","","","html-keyboard-response","82","97988","0.0-3.0-4.15","","","","null","<p> <font color=""red"" size=""4vw""> Wrong category! </font> </p>","null","feedback","","","",""
"","","","","","html-keyboard-response","83","98351","0.0-3.0-0.16","","","","null","
            
        <div style=""text-align: center; position: fixed; top: 5vh; left: 40vw;"">
            <div style=""margin:0 auto; width: 20vw; top: 8vh; font-size: 1vw""> 
                Current score : <font color=""green""> 130 points </font>
            </div>
        </div>
    
            <div style=""font-size:60px;"">+</div>
        ","null","ITI","","","",""
"","","","","","html-keyboard-response","84","99356","0.0-3.0-1.16","","","","null","
        
        <div style=""text-align: center; position: fixed; top: 5vh; left: 40vw;"">
            <div style=""margin:0 auto; width: 20vw; top: 8vh; font-size: 1vw""> 
                Current score : <font color=""green""> 130 points </font>
            </div>
        </div>
    
        <img class=""stim"" src=./stimuli//pack_easy/cat_2/ex_2_15.png></img>
    ","null","stimulus","","","",""
"","","","","","html-keyboard-response","85","100361","0.0-3.0-2.16","","","","null","
        <div style=""text-align: center; position: fixed; top: 5vh; left: 40vw;"">
            <div style=""margin:0 auto; width: 20vw; top: 8vh; font-size: 1vw""> 
                Current score : <font color=""green""> 130 points </font>
            </div>
        </div>
    ","null","","","","",""
"","","","","","html-keyboard-response","86","100706","0.0-3.0-3.16","","","","344","./stimuli//pack_easy/cat_2/ex_2_15.png","arrowright","response","ArrowRight","15","2","true"
"","","","","","html-keyboard-response","87","102207","0.0-3.0-4.16","","","","null","<p> <font color=""green"" size=""4vw""> Correct category! </font> <br> <br> <font color=""green"" size=""7vw""> +10 points </font> </p>","null","feedback","","","",""
"","","","","","html-keyboard-response","88","102572","0.0-3.0-0.17","","","","null","
            
        <div style=""text-align: center; position: fixed; top: 5vh; left: 40vw;"">
            <div style=""margin:0 auto; width: 20vw; top: 8vh; font-size: 1vw""> 
                Current score : <font color=""green""> 140 points </font>
            </div>
        </div>
    
            <div style=""font-size:60px;"">+</div>
        ","null","ITI","","","",""
"","","","","","html-keyboard-response","89","103581","0.0-3.0-1.17","","","","null","
        
        <div style=""text-align: center; position: fixed; top: 5vh; left: 40vw;"">
            <div style=""margin:0 auto; width: 20vw; top: 8vh; font-size: 1vw""> 
                Current score : <font color=""green""> 140 points </font>
            </div>
        </div>
    
        <img class=""stim"" src=./stimuli//pack_easy/cat_1/ex_1_54.png></img>
    ","null","stimulus","","","",""
"","","","","","html-keyboard-response","90","104583","0.0-3.0-2.17","","","","null","
        <div style=""text-align: center; position: fixed; top: 5vh; left: 40vw;"">
            <div style=""margin:0 auto; width: 20vw; top: 8vh; font-size: 1vw""> 
                Current score : <font color=""green""> 140 points </font>
            </div>
        </div>
    ","null","","","","",""
"","","","","","html-keyboard-response","91","105169","0.0-3.0-3.17","","","","585","./stimuli//pack_easy/cat_1/ex_1_54.png","arrowleft","response","ArrowLeft","54","1","true"
"","","","","","html-keyboard-response","92","106678","0.0-3.0-4.17","","","","null","<p> <font color=""green"" size=""4vw""> Correct category! </font> <br> <br> <font color=""green"" size=""7vw""> +10 points </font> </p>","null","feedback","","","",""
"","","","","","html-keyboard-response","93","107040","0.0-3.0-0.18","","","","null","
            
        <div style=""text-align: center; position: fixed; top: 5vh; left: 40vw;"">
            <div style=""margin:0 auto; width: 20vw; top: 8vh; font-size: 1vw""> 
                Current score : <font color=""green""> 150 points </font>
            </div>
        </div>
    
            <div style=""font-size:60px;"">+</div>
        ","null","ITI","","","",""
"","","","","","html-keyboard-response","94","108045","0.0-3.0-1.18","","","","null","
        
        <div style=""text-align: center; position: fixed; top: 5vh; left: 40vw;"">
            <div style=""margin:0 auto; width: 20vw; top: 8vh; font-size: 1vw""> 
                Current score : <font color=""green""> 150 points </font>
            </div>
        </div>
    
        <img class=""stim"" src=./stimuli//pack_easy/cat_1/ex_1_65.png></img>
    ","null","stimulus","","","",""
"","","","","","html-keyboard-response","95","109051","0.0-3.0-2.18","","","","null","
        <div style=""text-align: center; position: fixed; top: 5vh; left: 40vw;"">
            <div style=""margin:0 auto; width: 20vw; top: 8vh; font-size: 1vw""> 
                Current score : <font color=""green""> 150 points </font>
            </div>
        </div>
    ","null","","","","",""
"","","","","","html-keyboard-response","96","109537","0.0-3.0-3.18","","","","485","./stimuli//pack_easy/cat_1/ex_1_65.png","arrowleft","response","ArrowLeft","65","1","true"
"","","","","","html-keyboard-response","97","111038","0.0-3.0-4.18","","","","null","<p> <font color=""green"" size=""4vw""> Correct category! </font> <br> <br> <font color=""green"" size=""7vw""> +10 points </font> </p>","null","feedback","","","",""
"","","","","","html-keyboard-response","98","111400","0.0-3.0-0.19","","","","null","
            
        <div style=""text-align: center; position: fixed; top: 5vh; left: 40vw;"">
            <div style=""margin:0 auto; width: 20vw; top: 8vh; font-size: 1vw""> 
                Current score : <font color=""green""> 160 points </font>
            </div>
        </div>
    
            <div style=""font-size:60px;"">+</div>
        ","null","ITI","","","",""
"","","","","","html-keyboard-response","99","112415","0.0-3.0-1.19","","","","null","
        
        <div style=""text-align: center; position: fixed; top: 5vh; left: 40vw;"">
            <div style=""margin:0 auto; width: 20vw; top: 8vh; font-size: 1vw""> 
                Current score : <font color=""green""> 160 points </font>
            </div>
        </div>
    
        <img class=""stim"" src=./stimuli//pack_easy/cat_2/ex_2_77.png></img>
    ","null","stimulus","","","",""
"","","","","","html-keyboard-response","100","113420","0.0-3.0-2.19","","","","null","
        <div style=""text-align: center; position: fixed; top: 5vh; left: 40vw;"">
            <div style=""margin:0 auto; width: 20vw; top: 8vh; font-size: 1vw""> 
                Current score : <font color=""green""> 160 points </font>
            </div>
        </div>
    ","null","","","","",""
"","","","","","html-keyboard-response","101","113803","0.0-3.0-3.19","","","","383","./stimuli//pack_easy/cat_2/ex_2_77.png","arrowright","response","ArrowRight","77","2","true"
"","","","","","html-keyboard-response","102","115313","0.0-3.0-4.19","","","","null","<p> <font color=""green"" size=""4vw""> Correct category! </font> <br> <br> <font color=""green"" size=""7vw""> +10 points </font> </p>","null","feedback","","","",""
"","","","","","html-keyboard-response","103","115675","0.0-3.0-0.20","","","","null","
            
        <div style=""text-align: center; position: fixed; top: 5vh; left: 40vw;"">
            <div style=""margin:0 auto; width: 20vw; top: 8vh; font-size: 1vw""> 
                Current score : <font color=""green""> 170 points </font>
            </div>
        </div>
    
            <div style=""font-size:60px;"">+</div>
        ","null","ITI","","","",""
"","","","","","html-keyboard-response","104","116682","0.0-3.0-1.20","","","","null","
        
        <div style=""text-align: center; position: fixed; top: 5vh; left: 40vw;"">
            <div style=""margin:0 auto; width: 20vw; top: 8vh; font-size: 1vw""> 
                Current score : <font color=""green""> 170 points </font>
            </div>
        </div>
    
        <img class=""stim"" src=./stimuli//pack_easy/cat_2/ex_2_84.png></img>
    ","null","stimulus","","","",""
"","","","","","html-keyboard-response","105","117688","0.0-3.0-2.20","","","","null","
        <div style=""text-align: center; position: fixed; top: 5vh; left: 40vw;"">
            <div style=""margin:0 auto; width: 20vw; top: 8vh; font-size: 1vw""> 
                Current score : <font color=""green""> 170 points </font>
            </div>
        </div>
    ","null","","","","",""
"","","","","","html-keyboard-response","106","118293","0.0-3.0-3.20","","","","605","./stimuli//pack_easy/cat_2/ex_2_84.png","arrowleft","response","ArrowRight","84","2","false"
"","","","","","html-keyboard-response","107","119807","0.0-3.0-4.20","","","","null","<p> <font color=""red"" size=""4vw""> Wrong category! </font> </p>","null","feedback","","","",""
"","","","","","html-keyboard-response","108","120160","0.0-3.0-0.21","","","","null","
            
        <div style=""text-align: center; position: fixed; top: 5vh; left: 40vw;"">
            <div style=""margin:0 auto; width: 20vw; top: 8vh; font-size: 1vw""> 
                Current score : <font color=""green""> 170 points </font>
            </div>
        </div>
    
            <div style=""font-size:60px;"">+</div>
        ","null","ITI","","","",""
"","","","","","html-keyboard-response","109","121171","0.0-3.0-1.21","","","","null","
        
        <div style=""text-align: center; position: fixed; top: 5vh; left: 40vw;"">
            <div style=""margin:0 auto; width: 20vw; top: 8vh; font-size: 1vw""> 
                Current score : <font color=""green""> 170 points </font>
            </div>
        </div>
    
        <img class=""stim"" src=./stimuli//pack_easy/cat_2/ex_2_38.png></img>
    ","null","stimulus","","","",""
"","","","","","html-keyboard-response","110","122173","0.0-3.0-2.21","","","","null","
        <div style=""text-align: center; position: fixed; top: 5vh; left: 40vw;"">
            <div style=""margin:0 auto; width: 20vw; top: 8vh; font-size: 1vw""> 
                Current score : <font color=""green""> 170 points </font>
            </div>
        </div>
    ","null","","","","",""
"","","","","","html-keyboard-response","111","122573","0.0-3.0-3.21","","","","400","./stimuli//pack_easy/cat_2/ex_2_38.png","arrowleft","response","ArrowRight","38","2","false"
"","","","","","html-keyboard-response","112","124081","0.0-3.0-4.21","","","","null","<p> <font color=""red"" size=""4vw""> Wrong category! </font> </p>","null","feedback","","","",""
"","","","","","html-keyboard-response","113","124433","0.0-3.0-0.22","","","","null","
            
        <div style=""text-align: center; position: fixed; top: 5vh; left: 40vw;"">
            <div style=""margin:0 auto; width: 20vw; top: 8vh; font-size: 1vw""> 
                Current score : <font color=""green""> 170 points </font>
            </div>
        </div>
    
            <div style=""font-size:60px;"">+</div>
        ","null","ITI","","","",""
"","","","","","html-keyboard-response","114","125437","0.0-3.0-1.22","","","","null","
        
        <div style=""text-align: center; position: fixed; top: 5vh; left: 40vw;"">
            <div style=""margin:0 auto; width: 20vw; top: 8vh; font-size: 1vw""> 
                Current score : <font color=""green""> 170 points </font>
            </div>
        </div>
    
        <img class=""stim"" src=./stimuli//pack_easy/cat_1/ex_1_38.png></img>
    ","null","stimulus","","","",""
"","","","","","html-keyboard-response","115","126449","0.0-3.0-2.22","","","","null","
        <div style=""text-align: center; position: fixed; top: 5vh; left: 40vw;"">
            <div style=""margin:0 auto; width: 20vw; top: 8vh; font-size: 1vw""> 
                Current score : <font color=""green""> 170 points </font>
            </div>
        </div>
    ","null","","","","",""
"","","","","","html-keyboard-response","116","127486","0.0-3.0-3.22","","","","1037","./stimuli//pack_easy/cat_1/ex_1_38.png","arrowleft","response","ArrowLeft","38","1","true"
"","","","","","html-keyboard-response","117","128990","0.0-3.0-4.22","","","","null","<p> <font color=""green"" size=""4vw""> Correct category! </font> <br> <br> <font color=""green"" size=""7vw""> +10 points </font> </p>","null","feedback","","","",""
"","","","","","html-keyboard-response","118","129355","0.0-3.0-0.23","","","","null","
            
        <div style=""text-align: center; position: fixed; top: 5vh; left: 40vw;"">
            <div style=""margin:0 auto; width: 20vw; top: 8vh; font-size: 1vw""> 
                Current score : <font color=""green""> 180 points </font>
            </div>
        </div>
    
            <div style=""font-size:60px;"">+</div>
        ","null","ITI","","","",""
"","","","","","html-keyboard-response","119","130361","0.0-3.0-1.23","","","","null","
        
        <div style=""text-align: center; position: fixed; top: 5vh; left: 40vw;"">
            <div style=""margin:0 auto; width: 20vw; top: 8vh; font-size: 1vw""> 
                Current score : <font color=""green""> 180 points </font>
            </div>
        </div>
    
        <img class=""stim"" src=./stimuli//pack_easy/cat_2/ex_2_59.png></img>
    ","null","stimulus","","","",""
"","","","","","html-keyboard-response","120","131377","0.0-3.0-2.23","","","","null","
        <div style=""text-align: center; position: fixed; top: 5vh; left: 40vw;"">
            <div style=""margin:0 auto; width: 20vw; top: 8vh; font-size: 1vw""> 
                Current score : <font color=""green""> 180 points </font>
            </div>
        </div>
    ","null","","","","",""
"","","","","","html-keyboard-response","121","131701","0.0-3.0-3.23","","","","324","./stimuli//pack_easy/cat_2/ex_2_59.png","arrowleft","response","ArrowRight","59","2","false"
"","","","","","html-keyboard-response","122","133213","0.0-3.0-4.23","","","","null","<p> <font color=""red"" size=""4vw""> Wrong category! </font> </p>","null","feedback","","","",""
"","","","","","html-keyboard-response","123","133575","0.0-3.0-0.24","","","","null","
            
        <div style=""text-align: center; position: fixed; top: 5vh; left: 40vw;"">
            <div style=""margin:0 auto; width: 20vw; top: 8vh; font-size: 1vw""> 
                Current score : <font color=""green""> 180 points </font>
            </div>
        </div>
    
            <div style=""font-size:60px;"">+</div>
        ","null","ITI","","","",""
"","","","","","html-keyboard-response","124","134583","0.0-3.0-1.24","","","","null","
        
        <div style=""text-align: center; position: fixed; top: 5vh; left: 40vw;"">
            <div style=""margin:0 auto; width: 20vw; top: 8vh; font-size: 1vw""> 
                Current score : <font color=""green""> 180 points </font>
            </div>
        </div>
    
        <img class=""stim"" src=./stimuli//pack_easy/cat_2/ex_2_28.png></img>
    ","null","stimulus","","","",""
"","","","","","html-keyboard-response","125","135585","0.0-3.0-2.24","","","","null","
        <div style=""text-align: center; position: fixed; top: 5vh; left: 40vw;"">
            <div style=""margin:0 auto; width: 20vw; top: 8vh; font-size: 1vw""> 
                Current score : <font color=""green""> 180 points </font>
            </div>
        </div>
    ","null","","","","",""
"","","","","","html-keyboard-response","126","135950","0.0-3.0-3.24","","","","364","./stimuli//pack_easy/cat_2/ex_2_28.png","arrowright","response","ArrowRight","28","2","true"
"","","","","","html-keyboard-response","127","137453","0.0-3.0-4.24","","","","null","<p> <font color=""green"" size=""4vw""> Correct category! </font> <br> <br> <font color=""green"" size=""7vw""> +10 points </font> </p>","null","feedback","","","",""
"","","","","","html-keyboard-response","128","137815","0.0-3.0-0.25","","","","null","
            
        <div style=""text-align: center; position: fixed; top: 5vh; left: 40vw;"">
            <div style=""margin:0 auto; width: 20vw; top: 8vh; font-size: 1vw""> 
                Current score : <font color=""green""> 190 points </font>
            </div>
        </div>
    
            <div style=""font-size:60px;"">+</div>
        ","null","ITI","","","",""
"","","","","","html-keyboard-response","129","138816","0.0-3.0-1.25","","","","null","
        
        <div style=""text-align: center; position: fixed; top: 5vh; left: 40vw;"">
            <div style=""margin:0 auto; width: 20vw; top: 8vh; font-size: 1vw""> 
                Current score : <font color=""green""> 190 points </font>
            </div>
        </div>
    
        <img class=""stim"" src=./stimuli//pack_easy/cat_2/ex_2_22.png></img>
    ","null","stimulus","","","",""
"","","","","","html-keyboard-response","130","139822","0.0-3.0-2.25","","","","null","
        <div style=""text-align: center; position: fixed; top: 5vh; left: 40vw;"">
            <div style=""margin:0 auto; width: 20vw; top: 8vh; font-size: 1vw""> 
                Current score : <font color=""green""> 190 points </font>
            </div>
        </div>
    ","null","","","","",""
"","","","","","html-keyboard-response","131","140298","0.0-3.0-3.25","","","","476","./stimuli//pack_easy/cat_2/ex_2_22.png","arrowright","response","ArrowRight","22","2","true"
"","","","","","html-keyboard-response","132","141814","0.0-3.0-4.25","","","","null","<p> <font color=""green"" size=""4vw""> Correct category! </font> <br> <br> <font color=""green"" size=""7vw""> +10 points </font> </p>","null","feedback","","","",""
"","","","","","html-keyboard-response","133","142170","0.0-3.0-0.26","","","","null","
            
        <div style=""text-align: center; position: fixed; top: 5vh; left: 40vw;"">
            <div style=""margin:0 auto; width: 20vw; top: 8vh; font-size: 1vw""> 
                Current score : <font color=""green""> 200 points </font>
            </div>
        </div>
    
            <div style=""font-size:60px;"">+</div>
        ","null","ITI","","","",""
"","","","","","html-keyboard-response","134","143173","0.0-3.0-1.26","","","","null","
        
        <div style=""text-align: center; position: fixed; top: 5vh; left: 40vw;"">
            <div style=""margin:0 auto; width: 20vw; top: 8vh; font-size: 1vw""> 
                Current score : <font color=""green""> 200 points </font>
            </div>
        </div>
    
        <img class=""stim"" src=./stimuli//pack_easy/cat_1/ex_1_55.png></img>
    ","null","stimulus","","","",""
"","","","","","html-keyboard-response","135","144176","0.0-3.0-2.26","","","","null","
        <div style=""text-align: center; position: fixed; top: 5vh; left: 40vw;"">
            <div style=""margin:0 auto; width: 20vw; top: 8vh; font-size: 1vw""> 
                Current score : <font color=""green""> 200 points </font>
            </div>
        </div>
    ","null","","","","",""
"","","","","","html-keyboard-response","136","144657","0.0-3.0-3.26","","","","480","./stimuli//pack_easy/cat_1/ex_1_55.png","arrowleft","response","ArrowLeft","55","1","true"
"","","","","","html-keyboard-response","137","146170","0.0-3.0-4.26","","","","null","<p> <font color=""green"" size=""4vw""> Correct category! </font> <br> <br> <font color=""green"" size=""7vw""> +10 points </font> </p>","null","feedback","","","",""
"","","","","","html-keyboard-response","138","146534","0.0-3.0-0.27","","","","null","
            
        <div style=""text-align: center; position: fixed; top: 5vh; left: 40vw;"">
            <div style=""margin:0 auto; width: 20vw; top: 8vh; font-size: 1vw""> 
                Current score : <font color=""green""> 210 points </font>
            </div>
        </div>
    
            <div style=""font-size:60px;"">+</div>
        ","null","ITI","","","",""
"","","","","","html-keyboard-response","139","147541","0.0-3.0-1.27","","","","null","
        
        <div style=""text-align: center; position: fixed; top: 5vh; left: 40vw;"">
            <div style=""margin:0 auto; width: 20vw; top: 8vh; font-size: 1vw""> 
                Current score : <font color=""green""> 210 points </font>
            </div>
        </div>
    
        <img class=""stim"" src=./stimuli//pack_easy/cat_1/ex_1_37.png></img>
    ","null","stimulus","","","",""
"","","","","","html-keyboard-response","140","148546","0.0-3.0-2.27","","","","null","
        <div style=""text-align: center; position: fixed; top: 5vh; left: 40vw;"">
            <div style=""margin:0 auto; width: 20vw; top: 8vh; font-size: 1vw""> 
                Current score : <font color=""green""> 210 points </font>
            </div>
        </div>
    ","null","","","","",""
"","","","","","html-keyboard-response","141","148913","0.0-3.0-3.27","","","","366","./stimuli//pack_easy/cat_1/ex_1_37.png","arrowleft","response","ArrowLeft","37","1","true"
"","","","","","html-keyboard-response","142","150424","0.0-3.0-4.27","","","","null","<p> <font color=""green"" size=""4vw""> Correct category! </font> <br> <br> <font color=""green"" size=""7vw""> +10 points </font> </p>","null","feedback","","","",""
"","","","","","html-keyboard-response","143","150783","0.0-3.0-0.28","","","","null","
            
        <div style=""text-align: center; position: fixed; top: 5vh; left: 40vw;"">
            <div style=""margin:0 auto; width: 20vw; top: 8vh; font-size: 1vw""> 
                Current score : <font color=""green""> 220 points </font>
            </div>
        </div>
    
            <div style=""font-size:60px;"">+</div>
        ","null","ITI","","","",""
"","","","","","html-keyboard-response","144","151796","0.0-3.0-1.28","","","","null","
        
        <div style=""text-align: center; position: fixed; top: 5vh; left: 40vw;"">
            <div style=""margin:0 auto; width: 20vw; top: 8vh; font-size: 1vw""> 
                Current score : <font color=""green""> 220 points </font>
            </div>
        </div>
    
        <img class=""stim"" src=./stimuli//pack_easy/cat_2/ex_2_51.png></img>
    ","null","stimulus","","","",""
"","","","","","html-keyboard-response","145","152803","0.0-3.0-2.28","","","","null","
        <div style=""text-align: center; position: fixed; top: 5vh; left: 40vw;"">
            <div style=""margin:0 auto; width: 20vw; top: 8vh; font-size: 1vw""> 
                Current score : <font color=""green""> 220 points </font>
            </div>
        </div>
    ","null","","","","",""
"","","","","","html-keyboard-response","146","153106","0.0-3.0-3.28","","","","303","./stimuli//pack_easy/cat_2/ex_2_51.png","arrowright","response","ArrowRight","51","2","true"
"","","","","","html-keyboard-response","147","154613","0.0-3.0-4.28","","","","null","<p> <font color=""green"" size=""4vw""> Correct category! </font> <br> <br> <font color=""green"" size=""7vw""> +10 points </font> </p>","null","feedback","","","",""
"","","","","","html-keyboard-response","148","154974","0.0-3.0-0.29","","","","null","
            
        <div style=""text-align: center; position: fixed; top: 5vh; left: 40vw;"">
            <div style=""margin:0 auto; width: 20vw; top: 8vh; font-size: 1vw""> 
                Current score : <font color=""green""> 230 points </font>
            </div>
        </div>
    
            <div style=""font-size:60px;"">+</div>
        ","null","ITI","","","",""
"","","","","","html-keyboard-response","149","155976","0.0-3.0-1.29","","","","null","
        
        <div style=""text-align: center; position: fixed; top: 5vh; left: 40vw;"">
            <div style=""margin:0 auto; width: 20vw; top: 8vh; font-size: 1vw""> 
                Current score : <font color=""green""> 230 points </font>
            </div>
        </div>
    
        <img class=""stim"" src=./stimuli//pack_easy/cat_2/ex_2_96.png></img>
    ","null","stimulus","","","",""
"","","","","","html-keyboard-response","150","156977","0.0-3.0-2.29","","","","null","
        <div style=""text-align: center; position: fixed; top: 5vh; left: 40vw;"">
            <div style=""margin:0 auto; width: 20vw; top: 8vh; font-size: 1vw""> 
                Current score : <font color=""green""> 230 points </font>
            </div>
        </div>
    ","null","","","","",""
"","","","","","html-keyboard-response","151","157337","0.0-3.0-3.29","","","","360","./stimuli//pack_easy/cat_2/ex_2_96.png","arrowright","response","ArrowRight","96","2","true"
"","","","","","html-keyboard-response","152","158846","0.0-3.0-4.29","","","","null","<p> <font color=""green"" size=""4vw""> Correct category! </font> <br> <br> <font color=""green"" size=""7vw""> +10 points </font> </p>","null","feedback","","","",""
"","","","","","html-keyboard-response","153","159213","0.0-3.0-0.30","","","","null","
            
        <div style=""text-align: center; position: fixed; top: 5vh; left: 40vw;"">
            <div style=""margin:0 auto; width: 20vw; top: 8vh; font-size: 1vw""> 
                Current score : <font color=""green""> 240 points </font>
            </div>
        </div>
    
            <div style=""font-size:60px;"">+</div>
        ","null","ITI","","","",""
"","","","","","html-keyboard-response","154","160219","0.0-3.0-1.30","","","","null","
        
        <div style=""text-align: center; position: fixed; top: 5vh; left: 40vw;"">
            <div style=""margin:0 auto; width: 20vw; top: 8vh; font-size: 1vw""> 
                Current score : <font color=""green""> 240 points </font>
            </div>
        </div>
    
        <img class=""stim"" src=./stimuli//pack_easy/cat_2/ex_2_100.png></img>
    ","null","stimulus","","","",""
"","","","","","html-keyboard-response","155","161223","0.0-3.0-2.30","","","","null","
        <div style=""text-align: center; position: fixed; top: 5vh; left: 40vw;"">
            <div style=""margin:0 auto; width: 20vw; top: 8vh; font-size: 1vw""> 
                Current score : <font color=""green""> 240 points </font>
            </div>
        </div>
    ","null","","","","",""
"","","","","","html-keyboard-response","156","161570","0.0-3.0-3.30","","","","346","./stimuli//pack_easy/cat_2/ex_2_100.png","arrowright","response","ArrowRight","100","2","true"
"","","","","","html-keyboard-response","157","163080","0.0-3.0-4.30","","","","null","<p> <font color=""green"" size=""4vw""> Correct category! </font> <br> <br> <font color=""green"" size=""7vw""> +10 points </font> </p>","null","feedback","","","",""
"","","","","","html-keyboard-response","158","163443","0.0-3.0-0.31","","","","null","
            
        <div style=""text-align: center; position: fixed; top: 5vh; left: 40vw;"">
            <div style=""margin:0 auto; width: 20vw; top: 8vh; font-size: 1vw""> 
                Current score : <font color=""green""> 250 points </font>
            </div>
        </div>
    
            <div style=""font-size:60px;"">+</div>
        ","null","ITI","","","",""
"","","","","","html-keyboard-response","159","164444","0.0-3.0-1.31","","","","null","
        
        <div style=""text-align: center; position: fixed; top: 5vh; left: 40vw;"">
            <div style=""margin:0 auto; width: 20vw; top: 8vh; font-size: 1vw""> 
                Current score : <font color=""green""> 250 points </font>
            </div>
        </div>
    
        <img class=""stim"" src=./stimuli//pack_easy/cat_1/ex_1_39.png></img>
    ","null","stimulus","","","",""
"","","","","","html-keyboard-response","160","165446","0.0-3.0-2.31","","","","null","
        <div style=""text-align: center; position: fixed; top: 5vh; left: 40vw;"">
            <div style=""margin:0 auto; width: 20vw; top: 8vh; font-size: 1vw""> 
                Current score : <font color=""green""> 250 points </font>
            </div>
        </div>
    ","null","","","","",""
"","","","","","html-keyboard-response","161","165898","0.0-3.0-3.31","","","","452","./stimuli//pack_easy/cat_1/ex_1_39.png","arrowleft","response","ArrowLeft","39","1","true"
"","","","","","html-keyboard-response","162","167403","0.0-3.0-4.31","","","","null","<p> <font color=""green"" size=""4vw""> Correct category! </font> <br> <br> <font color=""green"" size=""7vw""> +10 points </font> </p>","null","feedback","","","",""
"","","","","","html-keyboard-response","163","167765","0.0-3.0-0.32","","","","null","
            
        <div style=""text-align: center; position: fixed; top: 5vh; left: 40vw;"">
            <div style=""margin:0 auto; width: 20vw; top: 8vh; font-size: 1vw""> 
                Current score : <font color=""green""> 260 points </font>
            </div>
        </div>
    
            <div style=""font-size:60px;"">+</div>
        ","null","ITI","","","",""
"","","","","","html-keyboard-response","164","168782","0.0-3.0-1.32","","","","null","
        
        <div style=""text-align: center; position: fixed; top: 5vh; left: 40vw;"">
            <div style=""margin:0 auto; width: 20vw; top: 8vh; font-size: 1vw""> 
                Current score : <font color=""green""> 260 points </font>
            </div>
        </div>
    
        <img class=""stim"" src=./stimuli//pack_easy/cat_1/ex_1_23.png></img>
    ","null","stimulus","","","",""
"","","","","","html-keyboard-response","165","169788","0.0-3.0-2.32","","","","null","
        <div style=""text-align: center; position: fixed; top: 5vh; left: 40vw;"">
            <div style=""margin:0 auto; width: 20vw; top: 8vh; font-size: 1vw""> 
                Current score : <font color=""green""> 260 points </font>
            </div>
        </div>
    ","null","","","","",""
"","","","","","html-keyboard-response","166","170098","0.0-3.0-3.32","","","","309","./stimuli//pack_easy/cat_1/ex_1_23.png","arrowleft","response","ArrowLeft","23","1","true"
"","","","","","html-keyboard-response","167","171615","0.0-3.0-4.32","","","","null","<p> <font color=""green"" size=""4vw""> Correct category! </font> <br> <br> <font color=""green"" size=""7vw""> +10 points </font> </p>","null","feedback","","","",""
"","","","","","html-keyboard-response","168","171970","0.0-3.0-0.33","","","","null","
            
        <div style=""text-align: center; position: fixed; top: 5vh; left: 40vw;"">
            <div style=""margin:0 auto; width: 20vw; top: 8vh; font-size: 1vw""> 
                Current score : <font color=""green""> 270 points </font>
            </div>
        </div>
    
            <div style=""font-size:60px;"">+</div>
        ","null","ITI","","","",""
"","","","","","html-keyboard-response","169","172980","0.0-3.0-1.33","","","","null","
        
        <div style=""text-align: center; position: fixed; top: 5vh; left: 40vw;"">
            <div style=""margin:0 auto; width: 20vw; top: 8vh; font-size: 1vw""> 
                Current score : <font color=""green""> 270 points </font>
            </div>
        </div>
    
        <img class=""stim"" src=./stimuli//pack_easy/cat_2/ex_2_86.png></img>
    ","null","stimulus","","","",""
"","","","","","html-keyboard-response","170","173982","0.0-3.0-2.33","","","","null","
        <div style=""text-align: center; position: fixed; top: 5vh; left: 40vw;"">
            <div style=""margin:0 auto; width: 20vw; top: 8vh; font-size: 1vw""> 
                Current score : <font color=""green""> 270 points </font>
            </div>
        </div>
    ","null","","","","",""
"","","","","","html-keyboard-response","171","174333","0.0-3.0-3.33","","","","350","./stimuli//pack_easy/cat_2/ex_2_86.png","arrowright","response","ArrowRight","86","2","true"
"","","","","","html-keyboard-response","172","175834","0.0-3.0-4.33","","","","null","<p> <font color=""green"" size=""4vw""> Correct category! </font> <br> <br> <font color=""green"" size=""7vw""> +10 points </font> </p>","null","feedback","","","",""
"","","","","","html-keyboard-response","173","176197","0.0-3.0-0.34","","","","null","
            
        <div style=""text-align: center; position: fixed; top: 5vh; left: 40vw;"">
            <div style=""margin:0 auto; width: 20vw; top: 8vh; font-size: 1vw""> 
                Current score : <font color=""green""> 280 points </font>
            </div>
        </div>
    
            <div style=""font-size:60px;"">+</div>
        ","null","ITI","","","",""
"","","","","","html-keyboard-response","174","177208","0.0-3.0-1.34","","","","null","
        
        <div style=""text-align: center; position: fixed; top: 5vh; left: 40vw;"">
            <div style=""margin:0 auto; width: 20vw; top: 8vh; font-size: 1vw""> 
                Current score : <font color=""green""> 280 points </font>
            </div>
        </div>
    
        <img class=""stim"" src=./stimuli//pack_easy/cat_2/ex_2_4.png></img>
    ","null","stimulus","","","",""
"","","","","","html-keyboard-response","175","178212","0.0-3.0-2.34","","","","null","
        <div style=""text-align: center; position: fixed; top: 5vh; left: 40vw;"">
            <div style=""margin:0 auto; width: 20vw; top: 8vh; font-size: 1vw""> 
                Current score : <font color=""green""> 280 points </font>
            </div>
        </div>
    ","null","","","","",""
"","","","","","html-keyboard-response","176","178606","0.0-3.0-3.34","","","","393","./stimuli//pack_easy/cat_2/ex_2_4.png","arrowright","response","ArrowRight","4","2","true"
"","","","","","html-keyboard-response","177","180116","0.0-3.0-4.34","","","","null","<p> <font color=""green"" size=""4vw""> Correct category! </font> <br> <br> <font color=""green"" size=""7vw""> +10 points </font> </p>","null","feedback","","","",""
"","","","","","html-keyboard-response","178","180473","0.0-3.0-0.35","","","","null","
            
        <div style=""text-align: center; position: fixed; top: 5vh; left: 40vw;"">
            <div style=""margin:0 auto; width: 20vw; top: 8vh; font-size: 1vw""> 
                Current score : <font color=""green""> 290 points </font>
            </div>
        </div>
    
            <div style=""font-size:60px;"">+</div>
        ","null","ITI","","","",""
"","","","","","html-keyboard-response","179","181479","0.0-3.0-1.35","","","","null","
        
        <div style=""text-align: center; position: fixed; top: 5vh; left: 40vw;"">
            <div style=""margin:0 auto; width: 20vw; top: 8vh; font-size: 1vw""> 
                Current score : <font color=""green""> 290 points </font>
            </div>
        </div>
    
        <img class=""stim"" src=./stimuli//pack_easy/cat_2/ex_2_43.png></img>
    ","null","stimulus","","","",""
"","","","","","html-keyboard-response","180","182484","0.0-3.0-2.35","","","","null","
        <div style=""text-align: center; position: fixed; top: 5vh; left: 40vw;"">
            <div style=""margin:0 auto; width: 20vw; top: 8vh; font-size: 1vw""> 
                Current score : <font color=""green""> 290 points </font>
            </div>
        </div>
    ","null","","","","",""
"","","","","","html-keyboard-response","181","183013","0.0-3.0-3.35","","","","528","./stimuli//pack_easy/cat_2/ex_2_43.png","arrowright","response","ArrowRight","43","2","true"
"","","","","","html-keyboard-response","182","184527","0.0-3.0-4.35","","","","null","<p> <font color=""green"" size=""4vw""> Correct category! </font> <br> <br> <font color=""green"" size=""7vw""> +10 points </font> </p>","null","feedback","","","",""
"","","","","","html-keyboard-response","183","184887","0.0-3.0-0.36","","","","null","
            
        <div style=""text-align: center; position: fixed; top: 5vh; left: 40vw;"">
            <div style=""margin:0 auto; width: 20vw; top: 8vh; font-size: 1vw""> 
                Current score : <font color=""green""> 300 points </font>
            </div>
        </div>
    
            <div style=""font-size:60px;"">+</div>
        ","null","ITI","","","",""
"","","","","","html-keyboard-response","184","185889","0.0-3.0-1.36","","","","null","
        
        <div style=""text-align: center; position: fixed; top: 5vh; left: 40vw;"">
            <div style=""margin:0 auto; width: 20vw; top: 8vh; font-size: 1vw""> 
                Current score : <font color=""green""> 300 points </font>
            </div>
        </div>
    
        <img class=""stim"" src=./stimuli//pack_easy/cat_1/ex_1_67.png></img>
    ","null","stimulus","","","",""
"","","","","","html-keyboard-response","185","186890","0.0-3.0-2.36","","","","null","
        <div style=""text-align: center; position: fixed; top: 5vh; left: 40vw;"">
            <div style=""margin:0 auto; width: 20vw; top: 8vh; font-size: 1vw""> 
                Current score : <font color=""green""> 300 points </font>
            </div>
        </div>
    ","null","","","","",""
"","","","","","html-keyboard-response","186","187285","0.0-3.0-3.36","","","","394","./stimuli//pack_easy/cat_1/ex_1_67.png","arrowleft","response","ArrowLeft","67","1","true"
"","","","","","html-keyboard-response","187","188787","0.0-3.0-4.36","","","","null","<p> <font color=""green"" size=""4vw""> Correct category! </font> <br> <br> <font color=""green"" size=""7vw""> +10 points </font> </p>","null","feedback","","","",""
"","","","","","html-keyboard-response","188","189147","0.0-3.0-0.37","","","","null","
            
        <div style=""text-align: center; position: fixed; top: 5vh; left: 40vw;"">
            <div style=""margin:0 auto; width: 20vw; top: 8vh; font-size: 1vw""> 
                Current score : <font color=""green""> 310 points </font>
            </div>
        </div>
    
            <div style=""font-size:60px;"">+</div>
        ","null","ITI","","","",""
"","","","","","html-keyboard-response","189","190158","0.0-3.0-1.37","","","","null","
        
        <div style=""text-align: center; position: fixed; top: 5vh; left: 40vw;"">
            <div style=""margin:0 auto; width: 20vw; top: 8vh; font-size: 1vw""> 
                Current score : <font color=""green""> 310 points </font>
            </div>
        </div>
    
        <img class=""stim"" src=./stimuli//pack_easy/cat_1/ex_1_68.png></img>
    ","null","stimulus","","","",""
"","","","","","html-keyboard-response","190","191164","0.0-3.0-2.37","","","","null","
        <div style=""text-align: center; position: fixed; top: 5vh; left: 40vw;"">
            <div style=""margin:0 auto; width: 20vw; top: 8vh; font-size: 1vw""> 
                Current score : <font color=""green""> 310 points </font>
            </div>
        </div>
    ","null","","","","",""
"","","","","","html-keyboard-response","191","191470","0.0-3.0-3.37","","","","305","./stimuli//pack_easy/cat_1/ex_1_68.png","arrowleft","response","ArrowLeft","68","1","true"
"","","","","","html-keyboard-response","192","192982","0.0-3.0-4.37","","","","null","<p> <font color=""green"" size=""4vw""> Correct category! </font> <br> <br> <font color=""green"" size=""7vw""> +10 points </font> </p>","null","feedback","","","",""
"","","","","","html-keyboard-response","193","193345","0.0-3.0-0.38","","","","null","
            
        <div style=""text-align: center; position: fixed; top: 5vh; left: 40vw;"">
            <div style=""margin:0 auto; width: 20vw; top: 8vh; font-size: 1vw""> 
                Current score : <font color=""green""> 320 points </font>
            </div>
        </div>
    
            <div style=""font-size:60px;"">+</div>
        ","null","ITI","","","",""
"","","","","","html-keyboard-response","194","194354","0.0-3.0-1.38","","","","null","
        
        <div style=""text-align: center; position: fixed; top: 5vh; left: 40vw;"">
            <div style=""margin:0 auto; width: 20vw; top: 8vh; font-size: 1vw""> 
                Current score : <font color=""green""> 320 points </font>
            </div>
        </div>
    
        <img class=""stim"" src=./stimuli//pack_easy/cat_2/ex_2_25.png></img>
    ","null","stimulus","","","",""
"","","","","","html-keyboard-response","195","195366","0.0-3.0-2.38","","","","null","
        <div style=""text-align: center; position: fixed; top: 5vh; left: 40vw;"">
            <div style=""margin:0 auto; width: 20vw; top: 8vh; font-size: 1vw""> 
                Current score : <font color=""green""> 320 points </font>
            </div>
        </div>
    ","null","","","","",""
"","","","","","html-keyboard-response","196","195746","0.0-3.0-3.38","","","","378","./stimuli//pack_easy/cat_2/ex_2_25.png","arrowright","response","ArrowRight","25","2","true"
"","","","","","html-keyboard-response","197","197251","0.0-3.0-4.38","","","","null","<p> <font color=""green"" size=""4vw""> Correct category! </font> <br> <br> <font color=""green"" size=""7vw""> +10 points </font> </p>","null","feedback","","","",""
"","","","","","html-keyboard-response","198","197611","0.0-3.0-0.39","","","","null","
            
        <div style=""text-align: center; position: fixed; top: 5vh; left: 40vw;"">
            <div style=""margin:0 auto; width: 20vw; top: 8vh; font-size: 1vw""> 
                Current score : <font color=""green""> 330 points </font>
            </div>
        </div>
    
            <div style=""font-size:60px;"">+</div>
        ","null","ITI","","","",""
"","","","","","html-keyboard-response","199","198614","0.0-3.0-1.39","","","","null","
        
        <div style=""text-align: center; position: fixed; top: 5vh; left: 40vw;"">
            <div style=""margin:0 auto; width: 20vw; top: 8vh; font-size: 1vw""> 
                Current score : <font color=""green""> 330 points </font>
            </div>
        </div>
    
        <img class=""stim"" src=./stimuli//pack_easy/cat_1/ex_1_36.png></img>
    ","null","stimulus","","","",""
"","","","","","html-keyboard-response","200","199615","0.0-3.0-2.39","","","","null","
        <div style=""text-align: center; position: fixed; top: 5vh; left: 40vw;"">
            <div style=""margin:0 auto; width: 20vw; top: 8vh; font-size: 1vw""> 
                Current score : <font color=""green""> 330 points </font>
            </div>
        </div>
    ","null","","","","",""
"","","","","","html-keyboard-response","201","200033","0.0-3.0-3.39","","","","417","./stimuli//pack_easy/cat_1/ex_1_36.png","arrowleft","response","ArrowLeft","36","1","true"
"","","","","","html-keyboard-response","202","201537","0.0-3.0-4.39","","","","null","<p> <font color=""green"" size=""4vw""> Correct category! </font> <br> <br> <font color=""green"" size=""7vw""> +10 points </font> </p>","null","feedback","","","",""
"","","","","","html-keyboard-response","203","201902","0.0-3.0-0.40","","","","null","
            
        <div style=""text-align: center; position: fixed; top: 5vh; left: 40vw;"">
            <div style=""margin:0 auto; width: 20vw; top: 8vh; font-size: 1vw""> 
                Current score : <font color=""green""> 340 points </font>
            </div>
        </div>
    
            <div style=""font-size:60px;"">+</div>
        ","null","ITI","","","",""
"","","","","","html-keyboard-response","204","202919","0.0-3.0-1.40","","","","null","
        
        <div style=""text-align: center; position: fixed; top: 5vh; left: 40vw;"">
            <div style=""margin:0 auto; width: 20vw; top: 8vh; font-size: 1vw""> 
                Current score : <font color=""green""> 340 points </font>
            </div>
        </div>
    
        <img class=""stim"" src=./stimuli//pack_easy/cat_2/ex_2_53.png></img>
    ","null","stimulus","","","",""
"","","","","","html-keyboard-response","205","203920","0.0-3.0-2.40","","","","null","
        <div style=""text-align: center; position: fixed; top: 5vh; left: 40vw;"">
            <div style=""margin:0 auto; width: 20vw; top: 8vh; font-size: 1vw""> 
                Current score : <font color=""green""> 340 points </font>
            </div>
        </div>
    ","null","","","","",""
"","","","","","html-keyboard-response","206","204386","0.0-3.0-3.40","","","","464","./stimuli//pack_easy/cat_2/ex_2_53.png","arrowright","response","ArrowRight","53","2","true"
"","","","","","html-keyboard-response","207","205899","0.0-3.0-4.40","","","","null","<p> <font color=""green"" size=""4vw""> Correct category! </font> <br> <br> <font color=""green"" size=""7vw""> +10 points </font> </p>","null","feedback","","","",""
"","","","","","html-keyboard-response","208","206261","0.0-3.0-0.41","","","","null","
            
        <div style=""text-align: center; position: fixed; top: 5vh; left: 40vw;"">
            <div style=""margin:0 auto; width: 20vw; top: 8vh; font-size: 1vw""> 
                Current score : <font color=""green""> 350 points </font>
            </div>
        </div>
    
            <div style=""font-size:60px;"">+</div>
        ","null","ITI","","","",""
"","","","","","html-keyboard-response","209","207268","0.0-3.0-1.41","","","","null","
        
        <div style=""text-align: center; position: fixed; top: 5vh; left: 40vw;"">
            <div style=""margin:0 auto; width: 20vw; top: 8vh; font-size: 1vw""> 
                Current score : <font color=""green""> 350 points </font>
            </div>
        </div>
    
        <img class=""stim"" src=./stimuli//pack_easy/cat_2/ex_2_68.png></img>
    ","null","stimulus","","","",""
"","","","","","html-keyboard-response","210","208280","0.0-3.0-2.41","","","","null","
        <div style=""text-align: center; position: fixed; top: 5vh; left: 40vw;"">
            <div style=""margin:0 auto; width: 20vw; top: 8vh; font-size: 1vw""> 
                Current score : <font color=""green""> 350 points </font>
            </div>
        </div>
    ","null","","","","",""
"","","","","","html-keyboard-response","211","208673","0.0-3.0-3.41","","","","392","./stimuli//pack_easy/cat_2/ex_2_68.png","arrowright","response","ArrowRight","68","2","true"
"","","","","","html-keyboard-response","212","210175","0.0-3.0-4.41","","","","null","<p> <font color=""green"" size=""4vw""> Correct category! </font> <br> <br> <font color=""green"" size=""7vw""> +10 points </font> </p>","null","feedback","","","",""
"","","","","","html-keyboard-response","213","210531","0.0-3.0-0.42","","","","null","
            
        <div style=""text-align: center; position: fixed; top: 5vh; left: 40vw;"">
            <div style=""margin:0 auto; width: 20vw; top: 8vh; font-size: 1vw""> 
                Current score : <font color=""green""> 360 points </font>
            </div>
        </div>
    
            <div style=""font-size:60px;"">+</div>
        ","null","ITI","","","",""
"","","","","","html-keyboard-response","214","211538","0.0-3.0-1.42","","","","null","
        
        <div style=""text-align: center; position: fixed; top: 5vh; left: 40vw;"">
            <div style=""margin:0 auto; width: 20vw; top: 8vh; font-size: 1vw""> 
                Current score : <font color=""green""> 360 points </font>
            </div>
        </div>
    
        <img class=""stim"" src=./stimuli//pack_easy/cat_2/ex_2_88.png></img>
    ","null","stimulus","","","",""
"","","","","","html-keyboard-response","215","212546","0.0-3.0-2.42","","","","null","
        <div style=""text-align: center; position: fixed; top: 5vh; left: 40vw;"">
            <div style=""margin:0 auto; width: 20vw; top: 8vh; font-size: 1vw""> 
                Current score : <font color=""green""> 360 points </font>
            </div>
        </div>
    ","null","","","","",""
"","","","","","html-keyboard-response","216","212897","0.0-3.0-3.42","","","","350","./stimuli//pack_easy/cat_2/ex_2_88.png","arrowright","response","ArrowRight","88","2","true"
"","","","","","html-keyboard-response","217","214402","0.0-3.0-4.42","","","","null","<p> <font color=""green"" size=""4vw""> Correct category! </font> <br> <br> <font color=""green"" size=""7vw""> +10 points </font> </p>","null","feedback","","","",""
"","","","","","html-keyboard-response","218","214760","0.0-3.0-0.43","","","","null","
            
        <div style=""text-align: center; position: fixed; top: 5vh; left: 40vw;"">
            <div style=""margin:0 auto; width: 20vw; top: 8vh; font-size: 1vw""> 
                Current score : <font color=""green""> 370 points </font>
            </div>
        </div>
    
            <div style=""font-size:60px;"">+</div>
        ","null","ITI","","","",""
"","","","","","html-keyboard-response","219","215767","0.0-3.0-1.43","","","","null","
        
        <div style=""text-align: center; position: fixed; top: 5vh; left: 40vw;"">
            <div style=""margin:0 auto; width: 20vw; top: 8vh; font-size: 1vw""> 
                Current score : <font color=""green""> 370 points </font>
            </div>
        </div>
    
        <img class=""stim"" src=./stimuli//pack_easy/cat_1/ex_1_15.png></img>
    ","null","stimulus","","","",""
"","","","","","html-keyboard-response","220","216774","0.0-3.0-2.43","","","","null","
        <div style=""text-align: center; position: fixed; top: 5vh; left: 40vw;"">
            <div style=""margin:0 auto; width: 20vw; top: 8vh; font-size: 1vw""> 
                Current score : <font color=""green""> 370 points </font>
            </div>
        </div>
    ","null","","","","",""
"","","","","","html-keyboard-response","221","217217","0.0-3.0-3.43","","","","442","./stimuli//pack_easy/cat_1/ex_1_15.png","arrowleft","response","ArrowLeft","15","1","true"
"","","","","","html-keyboard-response","222","218719","0.0-3.0-4.43","","","","null","<p> <font color=""green"" size=""4vw""> Correct category! </font> <br> <br> <font color=""green"" size=""7vw""> +10 points </font> </p>","null","feedback","","","",""
"","","","","","html-keyboard-response","223","219074","0.0-3.0-0.44","","","","null","
            
        <div style=""text-align: center; position: fixed; top: 5vh; left: 40vw;"">
            <div style=""margin:0 auto; width: 20vw; top: 8vh; font-size: 1vw""> 
                Current score : <font color=""green""> 380 points </font>
            </div>
        </div>
    
            <div style=""font-size:60px;"">+</div>
        ","null","ITI","","","",""
"","","","","","html-keyboard-response","224","220077","0.0-3.0-1.44","","","","null","
        
        <div style=""text-align: center; position: fixed; top: 5vh; left: 40vw;"">
            <div style=""margin:0 auto; width: 20vw; top: 8vh; font-size: 1vw""> 
                Current score : <font color=""green""> 380 points </font>
            </div>
        </div>
    
        <img class=""stim"" src=./stimuli//pack_easy/cat_1/ex_1_97.png></img>
    ","null","stimulus","","","",""
"","","","","","html-keyboard-response","225","221093","0.0-3.0-2.44","","","","null","
        <div style=""text-align: center; position: fixed; top: 5vh; left: 40vw;"">
            <div style=""margin:0 auto; width: 20vw; top: 8vh; font-size: 1vw""> 
                Current score : <font color=""green""> 380 points </font>
            </div>
        </div>
    ","null","","","","",""
"","","","","","html-keyboard-response","226","221449","0.0-3.0-3.44","","","","355","./stimuli//pack_easy/cat_1/ex_1_97.png","arrowleft","response","ArrowLeft","97","1","true"
"","","","","","html-keyboard-response","227","222951","0.0-3.0-4.44","","","","null","<p> <font color=""green"" size=""4vw""> Correct category! </font> <br> <br> <font color=""green"" size=""7vw""> +10 points </font> </p>","null","feedback","","","",""
"","","","","","html-keyboard-response","228","223302","0.0-3.0-0.45","","","","null","
            
        <div style=""text-align: center; position: fixed; top: 5vh; left: 40vw;"">
            <div style=""margin:0 auto; width: 20vw; top: 8vh; font-size: 1vw""> 
                Current score : <font color=""green""> 390 points </font>
            </div>
        </div>
    
            <div style=""font-size:60px;"">+</div>
        ","null","ITI","","","",""
"","","","","","html-keyboard-response","229","224314","0.0-3.0-1.45","","","","null","
        
        <div style=""text-align: center; position: fixed; top: 5vh; left: 40vw;"">
            <div style=""margin:0 auto; width: 20vw; top: 8vh; font-size: 1vw""> 
                Current score : <font color=""green""> 390 points </font>
            </div>
        </div>
    
        <img class=""stim"" src=./stimuli//pack_easy/cat_1/ex_1_48.png></img>
    ","null","stimulus","","","",""
"","","","","","html-keyboard-response","230","225323","0.0-3.0-2.45","","","","null","
        <div style=""text-align: center; position: fixed; top: 5vh; left: 40vw;"">
            <div style=""margin:0 auto; width: 20vw; top: 8vh; font-size: 1vw""> 
                Current score : <font color=""green""> 390 points </font>
            </div>
        </div>
    ","null","","","","",""
"","","","","","html-keyboard-response","231","225666","0.0-3.0-3.45","","","","342","./stimuli//pack_easy/cat_1/ex_1_48.png","arrowleft","response","ArrowLeft","48","1","true"
"","","","","","html-keyboard-response","232","227168","0.0-3.0-4.45","","","","null","<p> <font color=""green"" size=""4vw""> Correct category! </font> <br> <br> <font color=""green"" size=""7vw""> +10 points </font> </p>","null","feedback","","","",""
"","","","","","html-keyboard-response","233","227528","0.0-3.0-0.46","","","","null","
            
        <div style=""text-align: center; position: fixed; top: 5vh; left: 40vw;"">
            <div style=""margin:0 auto; width: 20vw; top: 8vh; font-size: 1vw""> 
                Current score : <font color=""green""> 400 points </font>
            </div>
        </div>
    
            <div style=""font-size:60px;"">+</div>
        ","null","ITI","","","",""
"","","","","","html-keyboard-response","234","228535","0.0-3.0-1.46","","","","null","
        
        <div style=""text-align: center; position: fixed; top: 5vh; left: 40vw;"">
            <div style=""margin:0 auto; width: 20vw; top: 8vh; font-size: 1vw""> 
                Current score : <font color=""green""> 400 points </font>
            </div>
        </div>
    
        <img class=""stim"" src=./stimuli//pack_easy/cat_1/ex_1_96.png></img>
    ","null","stimulus","","","",""
"","","","","","html-keyboard-response","235","229541","0.0-3.0-2.46","","","","null","
        <div style=""text-align: center; position: fixed; top: 5vh; left: 40vw;"">
            <div style=""margin:0 auto; width: 20vw; top: 8vh; font-size: 1vw""> 
                Current score : <font color=""green""> 400 points </font>
            </div>
        </div>
    ","null","","","","",""
"","","","","","html-keyboard-response","236","229850","0.0-3.0-3.46","","","","308","./stimuli//pack_easy/cat_1/ex_1_96.png","arrowleft","response","ArrowLeft","96","1","true"
"","","","","","html-keyboard-response","237","231362","0.0-3.0-4.46","","","","null","<p> <font color=""green"" size=""4vw""> Correct category! </font> <br> <br> <font color=""green"" size=""7vw""> +10 points </font> </p>","null","feedback","","","",""
"","","","","","html-keyboard-response","238","231721","0.0-3.0-0.47","","","","null","
            
        <div style=""text-align: center; position: fixed; top: 5vh; left: 40vw;"">
            <div style=""margin:0 auto; width: 20vw; top: 8vh; font-size: 1vw""> 
                Current score : <font color=""green""> 410 points </font>
            </div>
        </div>
    
            <div style=""font-size:60px;"">+</div>
        ","null","ITI","","","",""
"","","","","","html-keyboard-response","239","232728","0.0-3.0-1.47","","","","null","
        
        <div style=""text-align: center; position: fixed; top: 5vh; left: 40vw;"">
            <div style=""margin:0 auto; width: 20vw; top: 8vh; font-size: 1vw""> 
                Current score : <font color=""green""> 410 points </font>
            </div>
        </div>
    
        <img class=""stim"" src=./stimuli//pack_easy/cat_1/ex_1_79.png></img>
    ","null","stimulus","","","",""
"","","","","","html-keyboard-response","240","233742","0.0-3.0-2.47","","","","null","
        <div style=""text-align: center; position: fixed; top: 5vh; left: 40vw;"">
            <div style=""margin:0 auto; width: 20vw; top: 8vh; font-size: 1vw""> 
                Current score : <font color=""green""> 410 points </font>
            </div>
        </div>
    ","null","","","","",""
"","","","","","html-keyboard-response","241","234078","0.0-3.0-3.47","","","","335","./stimuli//pack_easy/cat_1/ex_1_79.png","arrowleft","response","ArrowLeft","79","1","true"
"","","","","","html-keyboard-response","242","235588","0.0-3.0-4.47","","","","null","<p> <font color=""green"" size=""4vw""> Correct category! </font> <br> <br> <font color=""green"" size=""7vw""> +10 points </font> </p>","null","feedback","","","",""
"","","","","","html-keyboard-response","243","235951","0.0-3.0-0.48","","","","null","
            
        <div style=""text-align: center; position: fixed; top: 5vh; left: 40vw;"">
            <div style=""margin:0 auto; width: 20vw; top: 8vh; font-size: 1vw""> 
                Current score : <font color=""green""> 420 points </font>
            </div>
        </div>
    
            <div style=""font-size:60px;"">+</div>
        ","null","ITI","","","",""
"","","","","","html-keyboard-response","244","236959","0.0-3.0-1.48","","","","null","
        
        <div style=""text-align: center; position: fixed; top: 5vh; left: 40vw;"">
            <div style=""margin:0 auto; width: 20vw; top: 8vh; font-size: 1vw""> 
                Current score : <font color=""green""> 420 points </font>
            </div>
        </div>
    
        <img class=""stim"" src=./stimuli//pack_easy/cat_1/ex_1_50.png></img>
    ","null","stimulus","","","",""
"","","","","","html-keyboard-response","245","237967","0.0-3.0-2.48","","","","null","
        <div style=""text-align: center; position: fixed; top: 5vh; left: 40vw;"">
            <div style=""margin:0 auto; width: 20vw; top: 8vh; font-size: 1vw""> 
                Current score : <font color=""green""> 420 points </font>
            </div>
        </div>
    ","null","","","","",""
"","","","","","html-keyboard-response","246","238757","0.0-3.0-3.48","","","","790","./stimuli//pack_easy/cat_1/ex_1_50.png","arrowleft","response","ArrowLeft","50","1","true"
"","","","","","html-keyboard-response","247","240259","0.0-3.0-4.48","","","","null","<p> <font color=""green"" size=""4vw""> Correct category! </font> <br> <br> <font color=""green"" size=""7vw""> +10 points </font> </p>","null","feedback","","","",""
"","","","","","html-keyboard-response","248","240623","0.0-3.0-0.49","","","","null","
            
        <div style=""text-align: center; position: fixed; top: 5vh; left: 40vw;"">
            <div style=""margin:0 auto; width: 20vw; top: 8vh; font-size: 1vw""> 
                Current score : <font color=""green""> 430 points </font>
            </div>
        </div>
    
            <div style=""font-size:60px;"">+</div>
        ","null","ITI","","","",""
"","","","","","html-keyboard-response","249","241638","0.0-3.0-1.49","","","","null","
        
        <div style=""text-align: center; position: fixed; top: 5vh; left: 40vw;"">
            <div style=""margin:0 auto; width: 20vw; top: 8vh; font-size: 1vw""> 
                Current score : <font color=""green""> 430 points </font>
            </div>
        </div>
    
        <img class=""stim"" src=./stimuli//pack_easy/cat_1/ex_1_30.png></img>
    ","null","stimulus","","","",""
"","","","","","html-keyboard-response","250","242647","0.0-3.0-2.49","","","","null","
        <div style=""text-align: center; position: fixed; top: 5vh; left: 40vw;"">
            <div style=""margin:0 auto; width: 20vw; top: 8vh; font-size: 1vw""> 
                Current score : <font color=""green""> 430 points </font>
            </div>
        </div>
    ","null","","","","",""
"","","","","","html-keyboard-response","251","243078","0.0-3.0-3.49","","","","430","./stimuli//pack_easy/cat_1/ex_1_30.png","arrowleft","response","ArrowLeft","30","1","true"
"","","","","","html-keyboard-response","252","244582","0.0-3.0-4.49","","","","null","<p> <font color=""green"" size=""4vw""> Correct category! </font> <br> <br> <font color=""green"" size=""7vw""> +10 points </font> </p>","null","feedback","","","",""
"","","","","","html-keyboard-response","253","244943","0.0-3.0-0.50","","","","null","
            
        <div style=""text-align: center; position: fixed; top: 5vh; left: 40vw;"">
            <div style=""margin:0 auto; width: 20vw; top: 8vh; font-size: 1vw""> 
                Current score : <font color=""green""> 440 points </font>
            </div>
        </div>
    
            <div style=""font-size:60px;"">+</div>
        ","null","ITI","","","",""
"","","","","","html-keyboard-response","254","245958","0.0-3.0-1.50","","","","null","
        
        <div style=""text-align: center; position: fixed; top: 5vh; left: 40vw;"">
            <div style=""margin:0 auto; width: 20vw; top: 8vh; font-size: 1vw""> 
                Current score : <font color=""green""> 440 points </font>
            </div>
        </div>
    
        <img class=""stim"" src=./stimuli//pack_easy/cat_2/ex_2_56.png></img>
    ","null","stimulus","","","",""
"","","","","","html-keyboard-response","255","246960","0.0-3.0-2.50","","","","null","
        <div style=""text-align: center; position: fixed; top: 5vh; left: 40vw;"">
            <div style=""margin:0 auto; width: 20vw; top: 8vh; font-size: 1vw""> 
                Current score : <font color=""green""> 440 points </font>
            </div>
        </div>
    ","null","","","","",""
"","","","","","html-keyboard-response","256","247741","0.0-3.0-3.50","","","","781","./stimuli//pack_easy/cat_2/ex_2_56.png","arrowright","response","ArrowRight","56","2","true"
"","","","","","html-keyboard-response","257","249246","0.0-3.0-4.50","","","","null","<p> <font color=""green"" size=""4vw""> Correct category! </font> <br> <br> <font color=""green"" size=""7vw""> +10 points </font> </p>","null","feedback","","","",""
"","","","","","html-keyboard-response","258","249610","0.0-3.0-0.51","","","","null","
            
        <div style=""text-align: center; position: fixed; top: 5vh; left: 40vw;"">
            <div style=""margin:0 auto; width: 20vw; top: 8vh; font-size: 1vw""> 
                Current score : <font color=""green""> 450 points </font>
            </div>
        </div>
    
            <div style=""font-size:60px;"">+</div>
        ","null","ITI","","","",""
"","","","","","html-keyboard-response","259","250625","0.0-3.0-1.51","","","","null","
        
        <div style=""text-align: center; position: fixed; top: 5vh; left: 40vw;"">
            <div style=""margin:0 auto; width: 20vw; top: 8vh; font-size: 1vw""> 
                Current score : <font color=""green""> 450 points </font>
            </div>
        </div>
    
        <img class=""stim"" src=./stimuli//pack_easy/cat_2/ex_2_76.png></img>
    ","null","stimulus","","","",""
"","","","","","html-keyboard-response","260","251628","0.0-3.0-2.51","","","","null","
        <div style=""text-align: center; position: fixed; top: 5vh; left: 40vw;"">
            <div style=""margin:0 auto; width: 20vw; top: 8vh; font-size: 1vw""> 
                Current score : <font color=""green""> 450 points </font>
            </div>
        </div>
    ","null","","","","",""
"","","","","","html-keyboard-response","261","251981","0.0-3.0-3.51","","","","352","./stimuli//pack_easy/cat_2/ex_2_76.png","arrowright","response","ArrowRight","76","2","true"
"","","","","","html-keyboard-response","262","253488","0.0-3.0-4.51","","","","null","<p> <font color=""green"" size=""4vw""> Correct category! </font> <br> <br> <font color=""green"" size=""7vw""> +10 points </font> </p>","null","feedback","","","",""
"","","","","","html-keyboard-response","263","253848","0.0-3.0-0.52","","","","null","
            
        <div style=""text-align: center; position: fixed; top: 5vh; left: 40vw;"">
            <div style=""margin:0 auto; width: 20vw; top: 8vh; font-size: 1vw""> 
                Current score : <font color=""green""> 460 points </font>
            </div>
        </div>
    
            <div style=""font-size:60px;"">+</div>
        ","null","ITI","","","",""
"","","","","","html-keyboard-response","264","254850","0.0-3.0-1.52","","","","null","
        
        <div style=""text-align: center; position: fixed; top: 5vh; left: 40vw;"">
            <div style=""margin:0 auto; width: 20vw; top: 8vh; font-size: 1vw""> 
                Current score : <font color=""green""> 460 points </font>
            </div>
        </div>
    
        <img class=""stim"" src=./stimuli//pack_easy/cat_1/ex_1_75.png></img>
    ","null","stimulus","","","",""
"","","","","","html-keyboard-response","265","255861","0.0-3.0-2.52","","","","null","
        <div style=""text-align: center; position: fixed; top: 5vh; left: 40vw;"">
            <div style=""margin:0 auto; width: 20vw; top: 8vh; font-size: 1vw""> 
                Current score : <font color=""green""> 460 points </font>
            </div>
        </div>
    ","null","","","","",""
"","","","","","html-keyboard-response","266","255898","0.0-3.0-3.52","","","","36","./stimuli//pack_easy/cat_1/ex_1_75.png","arrowleft","response","ArrowLeft","75","1","true"
"","","","","","html-keyboard-response","267","257401","0.0-3.0-4.52","","","","null","<p> <font color=""green"" size=""4vw""> Correct category! </font> <br> <br> <font color=""green"" size=""7vw""> +10 points </font> </p>","null","feedback","","","",""
"","","","","","html-keyboard-response","268","257765","0.0-3.0-0.53","","","","null","
            
        <div style=""text-align: center; position: fixed; top: 5vh; left: 40vw;"">
            <div style=""margin:0 auto; width: 20vw; top: 8vh; font-size: 1vw""> 
                Current score : <font color=""green""> 470 points </font>
            </div>
        </div>
    
            <div style=""font-size:60px;"">+</div>
        ","null","ITI","","","",""
"","","","","","html-keyboard-response","269","258769","0.0-3.0-1.53","","","","null","
        
        <div style=""text-align: center; position: fixed; top: 5vh; left: 40vw;"">
            <div style=""margin:0 auto; width: 20vw; top: 8vh; font-size: 1vw""> 
                Current score : <font color=""green""> 470 points </font>
            </div>
        </div>
    
        <img class=""stim"" src=./stimuli//pack_easy/cat_1/ex_1_14.png></img>
    ","null","stimulus","","","",""
"","","","","","html-keyboard-response","270","259777","0.0-3.0-2.53","","","","null","
        <div style=""text-align: center; position: fixed; top: 5vh; left: 40vw;"">
            <div style=""margin:0 auto; width: 20vw; top: 8vh; font-size: 1vw""> 
                Current score : <font color=""green""> 470 points </font>
            </div>
        </div>
    ","null","","","","",""
"","","","","","html-keyboard-response","271","260222","0.0-3.0-3.53","","","","444","./stimuli//pack_easy/cat_1/ex_1_14.png","arrowleft","response","ArrowLeft","14","1","true"
"","","","","","html-keyboard-response","272","261727","0.0-3.0-4.53","","","","null","<p> <font color=""green"" size=""4vw""> Correct category! </font> <br> <br> <font color=""green"" size=""7vw""> +10 points </font> </p>","null","feedback","","","",""
"","","","","","html-keyboard-response","273","262091","0.0-3.0-0.54","","","","null","
            
        <div style=""text-align: center; position: fixed; top: 5vh; left: 40vw;"">
            <div style=""margin:0 auto; width: 20vw; top: 8vh; font-size: 1vw""> 
                Current score : <font color=""green""> 480 points </font>
            </div>
        </div>
    
            <div style=""font-size:60px;"">+</div>
        ","null","ITI","","","",""
"","","","","","html-keyboard-response","274","263103","0.0-3.0-1.54","","","","null","
        
        <div style=""text-align: center; position: fixed; top: 5vh; left: 40vw;"">
            <div style=""margin:0 auto; width: 20vw; top: 8vh; font-size: 1vw""> 
                Current score : <font color=""green""> 480 points </font>
            </div>
        </div>
    
        <img class=""stim"" src=./stimuli//pack_easy/cat_1/ex_1_87.png></img>
    ","null","stimulus","","","",""
"","","","","","html-keyboard-response","275","264116","0.0-3.0-2.54","","","","null","
        <div style=""text-align: center; position: fixed; top: 5vh; left: 40vw;"">
            <div style=""margin:0 auto; width: 20vw; top: 8vh; font-size: 1vw""> 
                Current score : <font color=""green""> 480 points </font>
            </div>
        </div>
    ","null","","","","",""
"","","","","","html-keyboard-response","276","264297","0.0-3.0-3.54","","","","181","./stimuli//pack_easy/cat_1/ex_1_87.png","arrowleft","response","ArrowLeft","87","1","true"
"","","","","","html-keyboard-response","277","265799","0.0-3.0-4.54","","","","null","<p> <font color=""green"" size=""4vw""> Correct category! </font> <br> <br> <font color=""green"" size=""7vw""> +10 points </font> </p>","null","feedback","","","",""
"","","","","","html-keyboard-response","278","266161","0.0-3.0-0.55","","","","null","
            
        <div style=""text-align: center; position: fixed; top: 5vh; left: 40vw;"">
            <div style=""margin:0 auto; width: 20vw; top: 8vh; font-size: 1vw""> 
                Current score : <font color=""green""> 490 points </font>
            </div>
        </div>
    
            <div style=""font-size:60px;"">+</div>
        ","null","ITI","","","",""
"","","","","","html-keyboard-response","279","267166","0.0-3.0-1.55","","","","null","
        
        <div style=""text-align: center; position: fixed; top: 5vh; left: 40vw;"">
            <div style=""margin:0 auto; width: 20vw; top: 8vh; font-size: 1vw""> 
                Current score : <font color=""green""> 490 points </font>
            </div>
        </div>
    
        <img class=""stim"" src=./stimuli//pack_easy/cat_2/ex_2_95.png></img>
    ","null","stimulus","","","",""
"","","","","","html-keyboard-response","280","268176","0.0-3.0-2.55","","","","null","
        <div style=""text-align: center; position: fixed; top: 5vh; left: 40vw;"">
            <div style=""margin:0 auto; width: 20vw; top: 8vh; font-size: 1vw""> 
                Current score : <font color=""green""> 490 points </font>
            </div>
        </div>
    ","null","","","","",""
"","","","","","html-keyboard-response","281","268634","0.0-3.0-3.55","","","","454","./stimuli//pack_easy/cat_2/ex_2_95.png","arrowright","response","ArrowRight","95","2","true"
