"success","timeout","failed_images","failed_audio","failed_video","trial_type","trial_index","time_elapsed","internal_node_id","subject_id","study_id","session_id","rt","stimulus","response","task","correct_response","exemplar_ID","category","correct"
"true","false","[]","[]","[]","preload","0","1","0.0-0.0","","","","","","","","","","",""
"","","","","","html-keyboard-response","1","2342","0.0-1.0","","","","2339","Welcome to the Category Learning experiment! Press any key to continue."," ","welcome","","","",""
"","","","","","html-keyboard-response","2","17598","0.0-2.0","","","","15256","<p>You will be shown images and each image will contain a set of black dots. Each image will belong to one of two categories: category A or category B.
            <br>You will not know in advance which category the given collection of dots belongs to.</p>
            <p>After you see an image you will be asked to categorize it into <b>category A (by pressing the left arrow key)</b> or <b>category B (by pressing the right arrow key)</b>
            as quickly as possible.</p>
            <p>After you make a choice you will receive feedback telling you whether you matched the image to the correct category or not.</p>
            <p>Your goal is to categorize as many sets of dots correctly as possible.</p>
            <p>Press any key to begin.</p>"," ","introduction","","","",""
"","","","","","html-keyboard-response","3","17953","0.0-3.0-0.0","","","","null","
            
        <div style=""text-align: center; position: fixed; top: 5vh; left: 40vw;"">
            <div style=""margin:0 auto; width: 20vw; top: 8vh; font-size: 1vw""> 
                Current score : <font color=""green""> 0 points </font>
            </div>
        </div>
    
            <div style=""font-size:60px;"">+</div>
        ","null","ITI","","","",""
"","","","","","html-keyboard-response","4","18961","0.0-3.0-1.0","","","","null","
        
        <div style=""text-align: center; position: fixed; top: 5vh; left: 40vw;"">
            <div style=""margin:0 auto; width: 20vw; top: 8vh; font-size: 1vw""> 
                Current score : <font color=""green""> 0 points </font>
            </div>
        </div>
    
        <img class=""stim"" src=./stimuli//pack_easy/cat_2/ex_2_30.png></img>
    ","null","stimulus","","","",""
"","","","","","html-keyboard-response","5","19962","0.0-3.0-2.0","","","","null","
        <div style=""text-align: center; position: fixed; top: 5vh; left: 40vw;"">
            <div style=""margin:0 auto; width: 20vw; top: 8vh; font-size: 1vw""> 
                Current score : <font color=""green""> 0 points </font>
            </div>
        </div>
    ","null","","","","",""
"","","","","","html-keyboard-response","6","20579","0.0-3.0-3.0","","","","617","./stimuli//pack_easy/cat_2/ex_2_30.png","arrowleft","response","ArrowRight","30","2","false"
"","","","","","html-keyboard-response","7","22087","0.0-3.0-4.0","","","","null","<p> <font color=""red"" size=""4vw""> Wrong category! </font> </p>","null","feedback","","","",""
"","","","","","html-keyboard-response","8","22445","0.0-3.0-0.1","","","","null","
            
        <div style=""text-align: center; position: fixed; top: 5vh; left: 40vw;"">
            <div style=""margin:0 auto; width: 20vw; top: 8vh; font-size: 1vw""> 
                Current score : <font color=""green""> 0 points </font>
            </div>
        </div>
    
            <div style=""font-size:60px;"">+</div>
        ","null","ITI","","","",""
"","","","","","html-keyboard-response","9","23460","0.0-3.0-1.1","","","","null","
        
        <div style=""text-align: center; position: fixed; top: 5vh; left: 40vw;"">
            <div style=""margin:0 auto; width: 20vw; top: 8vh; font-size: 1vw""> 
                Current score : <font color=""green""> 0 points </font>
            </div>
        </div>
    
        <img class=""stim"" src=./stimuli//pack_easy/cat_1/ex_1_56.png></img>
    ","null","stimulus","","","",""
"","","","","","html-keyboard-response","10","24472","0.0-3.0-2.1","","","","null","
        <div style=""text-align: center; position: fixed; top: 5vh; left: 40vw;"">
            <div style=""margin:0 auto; width: 20vw; top: 8vh; font-size: 1vw""> 
                Current score : <font color=""green""> 0 points </font>
            </div>
        </div>
    ","null","","","","",""
"","","","","","html-keyboard-response","11","24580","0.0-3.0-3.1","","","","109","./stimuli//pack_easy/cat_1/ex_1_56.png","arrowleft","response","ArrowLeft","56","1","true"
"","","","","","html-keyboard-response","12","26088","0.0-3.0-4.1","","","","null","<p> <font color=""green"" size=""4vw""> Correct category! </font> <br> <br> <font color=""green"" size=""7vw""> +10 points </font> </p>","null","feedback","","","",""
"","","","","","html-keyboard-response","13","26445","0.0-3.0-0.2","","","","null","
            
        <div style=""text-align: center; position: fixed; top: 5vh; left: 40vw;"">
            <div style=""margin:0 auto; width: 20vw; top: 8vh; font-size: 1vw""> 
                Current score : <font color=""green""> 10 points </font>
            </div>
        </div>
    
            <div style=""font-size:60px;"">+</div>
        ","null","ITI","","","",""
"","","","","","html-keyboard-response","14","27455","0.0-3.0-1.2","","","","null","
        
        <div style=""text-align: center; position: fixed; top: 5vh; left: 40vw;"">
            <div style=""margin:0 auto; width: 20vw; top: 8vh; font-size: 1vw""> 
                Current score : <font color=""green""> 10 points </font>
            </div>
        </div>
    
        <img class=""stim"" src=./stimuli//pack_easy/cat_1/ex_1_82.png></img>
    ","null","stimulus","","","",""
"","","","","","html-keyboard-response","15","28467","0.0-3.0-2.2","","","","null","
        <div style=""text-align: center; position: fixed; top: 5vh; left: 40vw;"">
            <div style=""margin:0 auto; width: 20vw; top: 8vh; font-size: 1vw""> 
                Current score : <font color=""green""> 10 points </font>
            </div>
        </div>
    ","null","","","","",""
"","","","","","html-keyboard-response","16","28722","0.0-3.0-3.2","","","","255","./stimuli//pack_easy/cat_1/ex_1_82.png","arrowright","response","ArrowLeft","82","1","false"
"","","","","","html-keyboard-response","17","30224","0.0-3.0-4.2","","","","null","<p> <font color=""red"" size=""4vw""> Wrong category! </font> </p>","null","feedback","","","",""
"","","","","","html-keyboard-response","18","30582","0.0-3.0-0.3","","","","null","
            
        <div style=""text-align: center; position: fixed; top: 5vh; left: 40vw;"">
            <div style=""margin:0 auto; width: 20vw; top: 8vh; font-size: 1vw""> 
                Current score : <font color=""green""> 10 points </font>
            </div>
        </div>
    
            <div style=""font-size:60px;"">+</div>
        ","null","ITI","","","",""
"","","","","","html-keyboard-response","19","31597","0.0-3.0-1.3","","","","null","
        
        <div style=""text-align: center; position: fixed; top: 5vh; left: 40vw;"">
            <div style=""margin:0 auto; width: 20vw; top: 8vh; font-size: 1vw""> 
                Current score : <font color=""green""> 10 points </font>
            </div>
        </div>
    
        <img class=""stim"" src=./stimuli//pack_easy/cat_1/ex_1_30.png></img>
    ","null","stimulus","","","",""
"","","","","","html-keyboard-response","20","32599","0.0-3.0-2.3","","","","null","
        <div style=""text-align: center; position: fixed; top: 5vh; left: 40vw;"">
            <div style=""margin:0 auto; width: 20vw; top: 8vh; font-size: 1vw""> 
                Current score : <font color=""green""> 10 points </font>
            </div>
        </div>
    ","null","","","","",""
"","","","","","html-keyboard-response","21","32839","0.0-3.0-3.3","","","","238","./stimuli//pack_easy/cat_1/ex_1_30.png","arrowright","response","ArrowLeft","30","1","false"
"","","","","","html-keyboard-response","22","34345","0.0-3.0-4.3","","","","null","<p> <font color=""red"" size=""4vw""> Wrong category! </font> </p>","null","feedback","","","",""
"","","","","","html-keyboard-response","23","34704","0.0-3.0-0.4","","","","null","
            
        <div style=""text-align: center; position: fixed; top: 5vh; left: 40vw;"">
            <div style=""margin:0 auto; width: 20vw; top: 8vh; font-size: 1vw""> 
                Current score : <font color=""green""> 10 points </font>
            </div>
        </div>
    
            <div style=""font-size:60px;"">+</div>
        ","null","ITI","","","",""
"","","","","","html-keyboard-response","24","35718","0.0-3.0-1.4","","","","null","
        
        <div style=""text-align: center; position: fixed; top: 5vh; left: 40vw;"">
            <div style=""margin:0 auto; width: 20vw; top: 8vh; font-size: 1vw""> 
                Current score : <font color=""green""> 10 points </font>
            </div>
        </div>
    
        <img class=""stim"" src=./stimuli//pack_easy/cat_2/ex_2_36.png></img>
    ","null","stimulus","","","",""
"","","","","","html-keyboard-response","25","36732","0.0-3.0-2.4","","","","null","
        <div style=""text-align: center; position: fixed; top: 5vh; left: 40vw;"">
            <div style=""margin:0 auto; width: 20vw; top: 8vh; font-size: 1vw""> 
                Current score : <font color=""green""> 10 points </font>
            </div>
        </div>
    ","null","","","","",""
"","","","","","html-keyboard-response","26","36783","0.0-3.0-3.4","","","","49","./stimuli//pack_easy/cat_2/ex_2_36.png","arrowright","response","ArrowRight","36","2","true"
"","","","","","html-keyboard-response","27","38289","0.0-3.0-4.4","","","","null","<p> <font color=""green"" size=""4vw""> Correct category! </font> <br> <br> <font color=""green"" size=""7vw""> +10 points </font> </p>","null","feedback","","","",""
"","","","","","html-keyboard-response","28","38649","0.0-3.0-0.5","","","","null","
            
        <div style=""text-align: center; position: fixed; top: 5vh; left: 40vw;"">
            <div style=""margin:0 auto; width: 20vw; top: 8vh; font-size: 1vw""> 
                Current score : <font color=""green""> 20 points </font>
            </div>
        </div>
    
            <div style=""font-size:60px;"">+</div>
        ","null","ITI","","","",""
"","","","","","html-keyboard-response","29","39661","0.0-3.0-1.5","","","","null","
        
        <div style=""text-align: center; position: fixed; top: 5vh; left: 40vw;"">
            <div style=""margin:0 auto; width: 20vw; top: 8vh; font-size: 1vw""> 
                Current score : <font color=""green""> 20 points </font>
            </div>
        </div>
    
        <img class=""stim"" src=./stimuli//pack_easy/cat_2/ex_2_22.png></img>
    ","null","stimulus","","","",""
"","","","","","html-keyboard-response","30","40675","0.0-3.0-2.5","","","","null","
        <div style=""text-align: center; position: fixed; top: 5vh; left: 40vw;"">
            <div style=""margin:0 auto; width: 20vw; top: 8vh; font-size: 1vw""> 
                Current score : <font color=""green""> 20 points </font>
            </div>
        </div>
    ","null","","","","",""
"","","","","","html-keyboard-response","31","40919","0.0-3.0-3.5","","","","241","./stimuli//pack_easy/cat_2/ex_2_22.png","arrowright","response","ArrowRight","22","2","true"
"","","","","","html-keyboard-response","32","42482","0.0-3.0-4.5","","","","null","<p> <font color=""green"" size=""4vw""> Correct category! </font> <br> <br> <font color=""green"" size=""7vw""> +10 points </font> </p>","null","feedback","","","",""
"","","","","","html-keyboard-response","33","42839","0.0-3.0-0.6","","","","null","
            
        <div style=""text-align: center; position: fixed; top: 5vh; left: 40vw;"">
            <div style=""margin:0 auto; width: 20vw; top: 8vh; font-size: 1vw""> 
                Current score : <font color=""green""> 30 points </font>
            </div>
        </div>
    
            <div style=""font-size:60px;"">+</div>
        ","null","ITI","","","",""
"","","","","","html-keyboard-response","34","43849","0.0-3.0-1.6","","","","null","
        
        <div style=""text-align: center; position: fixed; top: 5vh; left: 40vw;"">
            <div style=""margin:0 auto; width: 20vw; top: 8vh; font-size: 1vw""> 
                Current score : <font color=""green""> 30 points </font>
            </div>
        </div>
    
        <img class=""stim"" src=./stimuli//pack_easy/cat_1/ex_1_22.png></img>
    ","null","stimulus","","","",""
"","","","","","html-keyboard-response","35","44862","0.0-3.0-2.6","","","","null","
        <div style=""text-align: center; position: fixed; top: 5vh; left: 40vw;"">
            <div style=""margin:0 auto; width: 20vw; top: 8vh; font-size: 1vw""> 
                Current score : <font color=""green""> 30 points </font>
            </div>
        </div>
    ","null","","","","",""
"","","","","","html-keyboard-response","36","45099","0.0-3.0-3.6","","","","236","./stimuli//pack_easy/cat_1/ex_1_22.png","arrowleft","response","ArrowLeft","22","1","true"
"","","","","","html-keyboard-response","37","46601","0.0-3.0-4.6","","","","null","<p> <font color=""green"" size=""4vw""> Correct category! </font> <br> <br> <font color=""green"" size=""7vw""> +10 points </font> </p>","null","feedback","","","",""
"","","","","","html-keyboard-response","38","46958","0.0-3.0-0.7","","","","null","
            
        <div style=""text-align: center; position: fixed; top: 5vh; left: 40vw;"">
            <div style=""margin:0 auto; width: 20vw; top: 8vh; font-size: 1vw""> 
                Current score : <font color=""green""> 40 points </font>
            </div>
        </div>
    
            <div style=""font-size:60px;"">+</div>
        ","null","ITI","","","",""
"","","","","","html-keyboard-response","39","47973","0.0-3.0-1.7","","","","null","
        
        <div style=""text-align: center; position: fixed; top: 5vh; left: 40vw;"">
            <div style=""margin:0 auto; width: 20vw; top: 8vh; font-size: 1vw""> 
                Current score : <font color=""green""> 40 points </font>
            </div>
        </div>
    
        <img class=""stim"" src=./stimuli//pack_easy/cat_2/ex_2_44.png></img>
    ","null","stimulus","","","",""
"","","","","","html-keyboard-response","40","48986","0.0-3.0-2.7","","","","null","
        <div style=""text-align: center; position: fixed; top: 5vh; left: 40vw;"">
            <div style=""margin:0 auto; width: 20vw; top: 8vh; font-size: 1vw""> 
                Current score : <font color=""green""> 40 points </font>
            </div>
        </div>
    ","null","","","","",""
"","","","","","html-keyboard-response","41","49310","0.0-3.0-3.7","","","","323","./stimuli//pack_easy/cat_2/ex_2_44.png","arrowright","response","ArrowRight","44","2","true"
"","","","","","html-keyboard-response","42","50822","0.0-3.0-4.7","","","","null","<p> <font color=""green"" size=""4vw""> Correct category! </font> <br> <br> <font color=""green"" size=""7vw""> +10 points </font> </p>","null","feedback","","","",""
"","","","","","html-keyboard-response","43","51182","0.0-3.0-0.8","","","","null","
            
        <div style=""text-align: center; position: fixed; top: 5vh; left: 40vw;"">
            <div style=""margin:0 auto; width: 20vw; top: 8vh; font-size: 1vw""> 
                Current score : <font color=""green""> 50 points </font>
            </div>
        </div>
    
            <div style=""font-size:60px;"">+</div>
        ","null","ITI","","","",""
"","","","","","html-keyboard-response","44","52193","0.0-3.0-1.8","","","","null","
        
        <div style=""text-align: center; position: fixed; top: 5vh; left: 40vw;"">
            <div style=""margin:0 auto; width: 20vw; top: 8vh; font-size: 1vw""> 
                Current score : <font color=""green""> 50 points </font>
            </div>
        </div>
    
        <img class=""stim"" src=./stimuli//pack_easy/cat_1/ex_1_21.png></img>
    ","null","stimulus","","","",""
"","","","","","html-keyboard-response","45","53202","0.0-3.0-2.8","","","","null","
        <div style=""text-align: center; position: fixed; top: 5vh; left: 40vw;"">
            <div style=""margin:0 auto; width: 20vw; top: 8vh; font-size: 1vw""> 
                Current score : <font color=""green""> 50 points </font>
            </div>
        </div>
    ","null","","","","",""
"","","","","","html-keyboard-response","46","53457","0.0-3.0-3.8","","","","254","./stimuli//pack_easy/cat_1/ex_1_21.png","arrowleft","response","ArrowLeft","21","1","true"
"","","","","","html-keyboard-response","47","54965","0.0-3.0-4.8","","","","null","<p> <font color=""green"" size=""4vw""> Correct category! </font> <br> <br> <font color=""green"" size=""7vw""> +10 points </font> </p>","null","feedback","","","",""
"","","","","","html-keyboard-response","48","55324","0.0-3.0-0.9","","","","null","
            
        <div style=""text-align: center; position: fixed; top: 5vh; left: 40vw;"">
            <div style=""margin:0 auto; width: 20vw; top: 8vh; font-size: 1vw""> 
                Current score : <font color=""green""> 60 points </font>
            </div>
        </div>
    
            <div style=""font-size:60px;"">+</div>
        ","null","ITI","","","",""
"","","","","","html-keyboard-response","49","56341","0.0-3.0-1.9","","","","null","
        
        <div style=""text-align: center; position: fixed; top: 5vh; left: 40vw;"">
            <div style=""margin:0 auto; width: 20vw; top: 8vh; font-size: 1vw""> 
                Current score : <font color=""green""> 60 points </font>
            </div>
        </div>
    
        <img class=""stim"" src=./stimuli//pack_easy/cat_1/ex_1_35.png></img>
    ","null","stimulus","","","",""
"","","","","","html-keyboard-response","50","57352","0.0-3.0-2.9","","","","null","
        <div style=""text-align: center; position: fixed; top: 5vh; left: 40vw;"">
            <div style=""margin:0 auto; width: 20vw; top: 8vh; font-size: 1vw""> 
                Current score : <font color=""green""> 60 points </font>
            </div>
        </div>
    ","null","","","","",""
"","","","","","html-keyboard-response","51","57390","0.0-3.0-3.9","","","","38","./stimuli//pack_easy/cat_1/ex_1_35.png","arrowleft","response","ArrowLeft","35","1","true"
"","","","","","html-keyboard-response","52","58897","0.0-3.0-4.9","","","","null","<p> <font color=""green"" size=""4vw""> Correct category! </font> <br> <br> <font color=""green"" size=""7vw""> +10 points </font> </p>","null","feedback","","","",""
"","","","","","html-keyboard-response","53","59255","0.0-3.0-0.10","","","","null","
            
        <div style=""text-align: center; position: fixed; top: 5vh; left: 40vw;"">
            <div style=""margin:0 auto; width: 20vw; top: 8vh; font-size: 1vw""> 
                Current score : <font color=""green""> 70 points </font>
            </div>
        </div>
    
            <div style=""font-size:60px;"">+</div>
        ","null","ITI","","","",""
"","","","","","html-keyboard-response","54","60267","0.0-3.0-1.10","","","","null","
        
        <div style=""text-align: center; position: fixed; top: 5vh; left: 40vw;"">
            <div style=""margin:0 auto; width: 20vw; top: 8vh; font-size: 1vw""> 
                Current score : <font color=""green""> 70 points </font>
            </div>
        </div>
    
        <img class=""stim"" src=./stimuli//pack_easy/cat_1/ex_1_99.png></img>
    ","null","stimulus","","","",""
"","","","","","html-keyboard-response","55","61270","0.0-3.0-2.10","","","","null","
        <div style=""text-align: center; position: fixed; top: 5vh; left: 40vw;"">
            <div style=""margin:0 auto; width: 20vw; top: 8vh; font-size: 1vw""> 
                Current score : <font color=""green""> 70 points </font>
            </div>
        </div>
    ","null","","","","",""
"","","","","","html-keyboard-response","56","61456","0.0-3.0-3.10","","","","185","./stimuli//pack_easy/cat_1/ex_1_99.png","arrowright","response","ArrowLeft","99","1","false"
"","","","","","html-keyboard-response","57","62972","0.0-3.0-4.10","","","","null","<p> <font color=""red"" size=""4vw""> Wrong category! </font> </p>","null","feedback","","","",""
"","","","","","html-keyboard-response","58","63332","0.0-3.0-0.11","","","","null","
            
        <div style=""text-align: center; position: fixed; top: 5vh; left: 40vw;"">
            <div style=""margin:0 auto; width: 20vw; top: 8vh; font-size: 1vw""> 
                Current score : <font color=""green""> 70 points </font>
            </div>
        </div>
    
            <div style=""font-size:60px;"">+</div>
        ","null","ITI","","","",""
"","","","","","html-keyboard-response","59","64340","0.0-3.0-1.11","","","","null","
        
        <div style=""text-align: center; position: fixed; top: 5vh; left: 40vw;"">
            <div style=""margin:0 auto; width: 20vw; top: 8vh; font-size: 1vw""> 
                Current score : <font color=""green""> 70 points </font>
            </div>
        </div>
    
        <img class=""stim"" src=./stimuli//pack_easy/cat_1/ex_1_72.png></img>
    ","null","stimulus","","","",""
"","","","","","html-keyboard-response","60","65356","0.0-3.0-2.11","","","","null","
        <div style=""text-align: center; position: fixed; top: 5vh; left: 40vw;"">
            <div style=""margin:0 auto; width: 20vw; top: 8vh; font-size: 1vw""> 
                Current score : <font color=""green""> 70 points </font>
            </div>
        </div>
    ","null","","","","",""
"","","","","","html-keyboard-response","61","65588","0.0-3.0-3.11","","","","231","./stimuli//pack_easy/cat_1/ex_1_72.png","arrowright","response","ArrowLeft","72","1","false"
"","","","","","html-keyboard-response","62","67100","0.0-3.0-4.11","","","","null","<p> <font color=""red"" size=""4vw""> Wrong category! </font> </p>","null","feedback","","","",""
"","","","","","html-keyboard-response","63","67459","0.0-3.0-0.12","","","","null","
            
        <div style=""text-align: center; position: fixed; top: 5vh; left: 40vw;"">
            <div style=""margin:0 auto; width: 20vw; top: 8vh; font-size: 1vw""> 
                Current score : <font color=""green""> 70 points </font>
            </div>
        </div>
    
            <div style=""font-size:60px;"">+</div>
        ","null","ITI","","","",""
"","","","","","html-keyboard-response","64","68549","0.0-3.0-1.12","","","","null","
        
        <div style=""text-align: center; position: fixed; top: 5vh; left: 40vw;"">
            <div style=""margin:0 auto; width: 20vw; top: 8vh; font-size: 1vw""> 
                Current score : <font color=""green""> 70 points </font>
            </div>
        </div>
    
        <img class=""stim"" src=./stimuli//pack_easy/cat_2/ex_2_81.png></img>
    ","null","stimulus","","","",""
"","","","","","html-keyboard-response","65","69562","0.0-3.0-2.12","","","","null","
        <div style=""text-align: center; position: fixed; top: 5vh; left: 40vw;"">
            <div style=""margin:0 auto; width: 20vw; top: 8vh; font-size: 1vw""> 
                Current score : <font color=""green""> 70 points </font>
            </div>
        </div>
    ","null","","","","",""
"","","","","","html-keyboard-response","66","69841","0.0-3.0-3.12","","","","278","./stimuli//pack_easy/cat_2/ex_2_81.png","arrowright","response","ArrowRight","81","2","true"
"","","","","","html-keyboard-response","67","71385","0.0-3.0-4.12","","","","null","<p> <font color=""green"" size=""4vw""> Correct category! </font> <br> <br> <font color=""green"" size=""7vw""> +10 points </font> </p>","null","feedback","","","",""
"","","","","","html-keyboard-response","68","71741","0.0-3.0-0.13","","","","null","
            
        <div style=""text-align: center; position: fixed; top: 5vh; left: 40vw;"">
            <div style=""margin:0 auto; width: 20vw; top: 8vh; font-size: 1vw""> 
                Current score : <font color=""green""> 80 points </font>
            </div>
        </div>
    
            <div style=""font-size:60px;"">+</div>
        ","null","ITI","","","",""
"","","","","","html-keyboard-response","69","72752","0.0-3.0-1.13","","","","null","
        
        <div style=""text-align: center; position: fixed; top: 5vh; left: 40vw;"">
            <div style=""margin:0 auto; width: 20vw; top: 8vh; font-size: 1vw""> 
                Current score : <font color=""green""> 80 points </font>
            </div>
        </div>
    
        <img class=""stim"" src=./stimuli//pack_easy/cat_2/ex_2_89.png></img>
    ","null","stimulus","","","",""
"","","","","","html-keyboard-response","70","73766","0.0-3.0-2.13","","","","null","
        <div style=""text-align: center; position: fixed; top: 5vh; left: 40vw;"">
            <div style=""margin:0 auto; width: 20vw; top: 8vh; font-size: 1vw""> 
                Current score : <font color=""green""> 80 points </font>
            </div>
        </div>
    ","null","","","","",""
"","","","","","html-keyboard-response","71","73986","0.0-3.0-3.13","","","","218","./stimuli//pack_easy/cat_2/ex_2_89.png","arrowright","response","ArrowRight","89","2","true"
"","","","","","html-keyboard-response","72","75496","0.0-3.0-4.13","","","","null","<p> <font color=""green"" size=""4vw""> Correct category! </font> <br> <br> <font color=""green"" size=""7vw""> +10 points </font> </p>","null","feedback","","","",""
"","","","","","html-keyboard-response","73","75856","0.0-3.0-0.14","","","","null","
            
        <div style=""text-align: center; position: fixed; top: 5vh; left: 40vw;"">
            <div style=""margin:0 auto; width: 20vw; top: 8vh; font-size: 1vw""> 
                Current score : <font color=""green""> 90 points </font>
            </div>
        </div>
    
            <div style=""font-size:60px;"">+</div>
        ","null","ITI","","","",""
"","","","","","html-keyboard-response","74","76871","0.0-3.0-1.14","","","","null","
        
        <div style=""text-align: center; position: fixed; top: 5vh; left: 40vw;"">
            <div style=""margin:0 auto; width: 20vw; top: 8vh; font-size: 1vw""> 
                Current score : <font color=""green""> 90 points </font>
            </div>
        </div>
    
        <img class=""stim"" src=./stimuli//pack_easy/cat_2/ex_2_13.png></img>
    ","null","stimulus","","","",""
"","","","","","html-keyboard-response","75","77886","0.0-3.0-2.14","","","","null","
        <div style=""text-align: center; position: fixed; top: 5vh; left: 40vw;"">
            <div style=""margin:0 auto; width: 20vw; top: 8vh; font-size: 1vw""> 
                Current score : <font color=""green""> 90 points </font>
            </div>
        </div>
    ","null","","","","",""
"","","","","","html-keyboard-response","76","78125","0.0-3.0-3.14","","","","237","./stimuli//pack_easy/cat_2/ex_2_13.png","arrowright","response","ArrowRight","13","2","true"
"","","","","","html-keyboard-response","77","79630","0.0-3.0-4.14","","","","null","<p> <font color=""green"" size=""4vw""> Correct category! </font> <br> <br> <font color=""green"" size=""7vw""> +10 points </font> </p>","null","feedback","","","",""
"","","","","","html-keyboard-response","78","79989","0.0-3.0-0.15","","","","null","
            
        <div style=""text-align: center; position: fixed; top: 5vh; left: 40vw;"">
            <div style=""margin:0 auto; width: 20vw; top: 8vh; font-size: 1vw""> 
                Current score : <font color=""green""> 100 points </font>
            </div>
        </div>
    
            <div style=""font-size:60px;"">+</div>
        ","null","ITI","","","",""
"","","","","","html-keyboard-response","79","80996","0.0-3.0-1.15","","","","null","
        
        <div style=""text-align: center; position: fixed; top: 5vh; left: 40vw;"">
            <div style=""margin:0 auto; width: 20vw; top: 8vh; font-size: 1vw""> 
                Current score : <font color=""green""> 100 points </font>
            </div>
        </div>
    
        <img class=""stim"" src=./stimuli//pack_easy/cat_1/ex_1_47.png></img>
    ","null","stimulus","","","",""
"","","","","","html-keyboard-response","80","82007","0.0-3.0-2.15","","","","null","
        <div style=""text-align: center; position: fixed; top: 5vh; left: 40vw;"">
            <div style=""margin:0 auto; width: 20vw; top: 8vh; font-size: 1vw""> 
                Current score : <font color=""green""> 100 points </font>
            </div>
        </div>
    ","null","","","","",""
"","","","","","html-keyboard-response","81","82301","0.0-3.0-3.15","","","","293","./stimuli//pack_easy/cat_1/ex_1_47.png","arrowleft","response","ArrowLeft","47","1","true"
"","","","","","html-keyboard-response","82","83813","0.0-3.0-4.15","","","","null","<p> <font color=""green"" size=""4vw""> Correct category! </font> <br> <br> <font color=""green"" size=""7vw""> +10 points </font> </p>","null","feedback","","","",""
"","","","","","html-keyboard-response","83","84168","0.0-3.0-0.16","","","","null","
            
        <div style=""text-align: center; position: fixed; top: 5vh; left: 40vw;"">
            <div style=""margin:0 auto; width: 20vw; top: 8vh; font-size: 1vw""> 
                Current score : <font color=""green""> 110 points </font>
            </div>
        </div>
    
            <div style=""font-size:60px;"">+</div>
        ","null","ITI","","","",""
"","","","","","html-keyboard-response","84","85181","0.0-3.0-1.16","","","","null","
        
        <div style=""text-align: center; position: fixed; top: 5vh; left: 40vw;"">
            <div style=""margin:0 auto; width: 20vw; top: 8vh; font-size: 1vw""> 
                Current score : <font color=""green""> 110 points </font>
            </div>
        </div>
    
        <img class=""stim"" src=./stimuli//pack_easy/cat_2/ex_2_16.png></img>
    ","null","stimulus","","","",""
"","","","","","html-keyboard-response","85","86193","0.0-3.0-2.16","","","","null","
        <div style=""text-align: center; position: fixed; top: 5vh; left: 40vw;"">
            <div style=""margin:0 auto; width: 20vw; top: 8vh; font-size: 1vw""> 
                Current score : <font color=""green""> 110 points </font>
            </div>
        </div>
    ","null","","","","",""
"","","","","","html-keyboard-response","86","86386","0.0-3.0-3.16","","","","193","./stimuli//pack_easy/cat_2/ex_2_16.png","arrowright","response","ArrowRight","16","2","true"
"","","","","","html-keyboard-response","87","87888","0.0-3.0-4.16","","","","null","<p> <font color=""green"" size=""4vw""> Correct category! </font> <br> <br> <font color=""green"" size=""7vw""> +10 points </font> </p>","null","feedback","","","",""
"","","","","","html-keyboard-response","88","88247","0.0-3.0-0.17","","","","null","
            
        <div style=""text-align: center; position: fixed; top: 5vh; left: 40vw;"">
            <div style=""margin:0 auto; width: 20vw; top: 8vh; font-size: 1vw""> 
                Current score : <font color=""green""> 120 points </font>
            </div>
        </div>
    
            <div style=""font-size:60px;"">+</div>
        ","null","ITI","","","",""
"","","","","","html-keyboard-response","89","89261","0.0-3.0-1.17","","","","null","
        
        <div style=""text-align: center; position: fixed; top: 5vh; left: 40vw;"">
            <div style=""margin:0 auto; width: 20vw; top: 8vh; font-size: 1vw""> 
                Current score : <font color=""green""> 120 points </font>
            </div>
        </div>
    
        <img class=""stim"" src=./stimuli//pack_easy/cat_1/ex_1_32.png></img>
    ","null","stimulus","","","",""
"","","","","","html-keyboard-response","90","90274","0.0-3.0-2.17","","","","null","
        <div style=""text-align: center; position: fixed; top: 5vh; left: 40vw;"">
            <div style=""margin:0 auto; width: 20vw; top: 8vh; font-size: 1vw""> 
                Current score : <font color=""green""> 120 points </font>
            </div>
        </div>
    ","null","","","","",""
"","","","","","html-keyboard-response","91","90501","0.0-3.0-3.17","","","","225","./stimuli//pack_easy/cat_1/ex_1_32.png","arrowleft","response","ArrowLeft","32","1","true"
"","","","","","html-keyboard-response","92","92007","0.0-3.0-4.17","","","","null","<p> <font color=""green"" size=""4vw""> Correct category! </font> <br> <br> <font color=""green"" size=""7vw""> +10 points </font> </p>","null","feedback","","","",""
"","","","","","html-keyboard-response","93","92365","0.0-3.0-0.18","","","","null","
            
        <div style=""text-align: center; position: fixed; top: 5vh; left: 40vw;"">
            <div style=""margin:0 auto; width: 20vw; top: 8vh; font-size: 1vw""> 
                Current score : <font color=""green""> 130 points </font>
            </div>
        </div>
    
            <div style=""font-size:60px;"">+</div>
        ","null","ITI","","","",""
"","","","","","html-keyboard-response","94","93377","0.0-3.0-1.18","","","","null","
        
        <div style=""text-align: center; position: fixed; top: 5vh; left: 40vw;"">
            <div style=""margin:0 auto; width: 20vw; top: 8vh; font-size: 1vw""> 
                Current score : <font color=""green""> 130 points </font>
            </div>
        </div>
    
        <img class=""stim"" src=./stimuli//pack_easy/cat_1/ex_1_87.png></img>
    ","null","stimulus","","","",""
"","","","","","html-keyboard-response","95","94386","0.0-3.0-2.18","","","","null","
        <div style=""text-align: center; position: fixed; top: 5vh; left: 40vw;"">
            <div style=""margin:0 auto; width: 20vw; top: 8vh; font-size: 1vw""> 
                Current score : <font color=""green""> 130 points </font>
            </div>
        </div>
    ","null","","","","",""
"","","","","","html-keyboard-response","96","94645","0.0-3.0-3.18","","","","259","./stimuli//pack_easy/cat_1/ex_1_87.png","arrowleft","response","ArrowLeft","87","1","true"
"","","","","","html-keyboard-response","97","96148","0.0-3.0-4.18","","","","null","<p> <font color=""green"" size=""4vw""> Correct category! </font> <br> <br> <font color=""green"" size=""7vw""> +10 points </font> </p>","null","feedback","","","",""
"","","","","","html-keyboard-response","98","96508","0.0-3.0-0.19","","","","null","
            
        <div style=""text-align: center; position: fixed; top: 5vh; left: 40vw;"">
            <div style=""margin:0 auto; width: 20vw; top: 8vh; font-size: 1vw""> 
                Current score : <font color=""green""> 140 points </font>
            </div>
        </div>
    
            <div style=""font-size:60px;"">+</div>
        ","null","ITI","","","",""
"","","","","","html-keyboard-response","99","97520","0.0-3.0-1.19","","","","null","
        
        <div style=""text-align: center; position: fixed; top: 5vh; left: 40vw;"">
            <div style=""margin:0 auto; width: 20vw; top: 8vh; font-size: 1vw""> 
                Current score : <font color=""green""> 140 points </font>
            </div>
        </div>
    
        <img class=""stim"" src=./stimuli//pack_easy/cat_2/ex_2_37.png></img>
    ","null","stimulus","","","",""
"","","","","","html-keyboard-response","100","98534","0.0-3.0-2.19","","","","null","
        <div style=""text-align: center; position: fixed; top: 5vh; left: 40vw;"">
            <div style=""margin:0 auto; width: 20vw; top: 8vh; font-size: 1vw""> 
                Current score : <font color=""green""> 140 points </font>
            </div>
        </div>
    ","null","","","","",""
"","","","","","html-keyboard-response","101","99028","0.0-3.0-3.19","","","","491","./stimuli//pack_easy/cat_2/ex_2_37.png","arrowright","response","ArrowRight","37","2","true"
"","","","","","html-keyboard-response","102","100542","0.0-3.0-4.19","","","","null","<p> <font color=""green"" size=""4vw""> Correct category! </font> <br> <br> <font color=""green"" size=""7vw""> +10 points </font> </p>","null","feedback","","","",""
"","","","","","html-keyboard-response","103","100899","0.0-3.0-0.20","","","","null","
            
        <div style=""text-align: center; position: fixed; top: 5vh; left: 40vw;"">
            <div style=""margin:0 auto; width: 20vw; top: 8vh; font-size: 1vw""> 
                Current score : <font color=""green""> 150 points </font>
            </div>
        </div>
    
            <div style=""font-size:60px;"">+</div>
        ","null","ITI","","","",""
"","","","","","html-keyboard-response","104","101914","0.0-3.0-1.20","","","","null","
        
        <div style=""text-align: center; position: fixed; top: 5vh; left: 40vw;"">
            <div style=""margin:0 auto; width: 20vw; top: 8vh; font-size: 1vw""> 
                Current score : <font color=""green""> 150 points </font>
            </div>
        </div>
    
        <img class=""stim"" src=./stimuli//pack_easy/cat_2/ex_2_18.png></img>
    ","null","stimulus","","","",""
"","","","","","html-keyboard-response","105","102927","0.0-3.0-2.20","","","","null","
        <div style=""text-align: center; position: fixed; top: 5vh; left: 40vw;"">
            <div style=""margin:0 auto; width: 20vw; top: 8vh; font-size: 1vw""> 
                Current score : <font color=""green""> 150 points </font>
            </div>
        </div>
    ","null","","","","",""
"","","","","","html-keyboard-response","106","103113","0.0-3.0-3.20","","","","185","./stimuli//pack_easy/cat_2/ex_2_18.png","arrowright","response","ArrowRight","18","2","true"
"","","","","","html-keyboard-response","107","104622","0.0-3.0-4.20","","","","null","<p> <font color=""green"" size=""4vw""> Correct category! </font> <br> <br> <font color=""green"" size=""7vw""> +10 points </font> </p>","null","feedback","","","",""
"","","","","","html-keyboard-response","108","104981","0.0-3.0-0.21","","","","null","
            
        <div style=""text-align: center; position: fixed; top: 5vh; left: 40vw;"">
            <div style=""margin:0 auto; width: 20vw; top: 8vh; font-size: 1vw""> 
                Current score : <font color=""green""> 160 points </font>
            </div>
        </div>
    
            <div style=""font-size:60px;"">+</div>
        ","null","ITI","","","",""
"","","","","","html-keyboard-response","109","105995","0.0-3.0-1.21","","","","null","
        
        <div style=""text-align: center; position: fixed; top: 5vh; left: 40vw;"">
            <div style=""margin:0 auto; width: 20vw; top: 8vh; font-size: 1vw""> 
                Current score : <font color=""green""> 160 points </font>
            </div>
        </div>
    
        <img class=""stim"" src=./stimuli//pack_easy/cat_2/ex_2_42.png></img>
    ","null","stimulus","","","",""
"","","","","","html-keyboard-response","110","107007","0.0-3.0-2.21","","","","null","
        <div style=""text-align: center; position: fixed; top: 5vh; left: 40vw;"">
            <div style=""margin:0 auto; width: 20vw; top: 8vh; font-size: 1vw""> 
                Current score : <font color=""green""> 160 points </font>
            </div>
        </div>
    ","null","","","","",""
"","","","","","html-keyboard-response","111","107225","0.0-3.0-3.21","","","","217","./stimuli//pack_easy/cat_2/ex_2_42.png","arrowright","response","ArrowRight","42","2","true"
"","","","","","html-keyboard-response","112","108737","0.0-3.0-4.21","","","","null","<p> <font color=""green"" size=""4vw""> Correct category! </font> <br> <br> <font color=""green"" size=""7vw""> +10 points </font> </p>","null","feedback","","","",""
"","","","","","html-keyboard-response","113","109094","0.0-3.0-0.22","","","","null","
            
        <div style=""text-align: center; position: fixed; top: 5vh; left: 40vw;"">
            <div style=""margin:0 auto; width: 20vw; top: 8vh; font-size: 1vw""> 
                Current score : <font color=""green""> 170 points </font>
            </div>
        </div>
    
            <div style=""font-size:60px;"">+</div>
        ","null","ITI","","","",""
"","","","","","html-keyboard-response","114","110097","0.0-3.0-1.22","","","","null","
        
        <div style=""text-align: center; position: fixed; top: 5vh; left: 40vw;"">
            <div style=""margin:0 auto; width: 20vw; top: 8vh; font-size: 1vw""> 
                Current score : <font color=""green""> 170 points </font>
            </div>
        </div>
    
        <img class=""stim"" src=./stimuli//pack_easy/cat_1/ex_1_43.png></img>
    ","null","stimulus","","","",""
"","","","","","html-keyboard-response","115","111111","0.0-3.0-2.22","","","","null","
        <div style=""text-align: center; position: fixed; top: 5vh; left: 40vw;"">
            <div style=""margin:0 auto; width: 20vw; top: 8vh; font-size: 1vw""> 
                Current score : <font color=""green""> 170 points </font>
            </div>
        </div>
    ","null","","","","",""
"","","","","","html-keyboard-response","116","111364","0.0-3.0-3.22","","","","252","./stimuli//pack_easy/cat_1/ex_1_43.png","arrowright","response","ArrowLeft","43","1","false"
"","","","","","html-keyboard-response","117","112870","0.0-3.0-4.22","","","","null","<p> <font color=""red"" size=""4vw""> Wrong category! </font> </p>","null","feedback","","","",""
"","","","","","html-keyboard-response","118","113231","0.0-3.0-0.23","","","","null","
            
        <div style=""text-align: center; position: fixed; top: 5vh; left: 40vw;"">
            <div style=""margin:0 auto; width: 20vw; top: 8vh; font-size: 1vw""> 
                Current score : <font color=""green""> 170 points </font>
            </div>
        </div>
    
            <div style=""font-size:60px;"">+</div>
        ","null","ITI","","","",""
"","","","","","html-keyboard-response","119","114240","0.0-3.0-1.23","","","","null","
        
        <div style=""text-align: center; position: fixed; top: 5vh; left: 40vw;"">
            <div style=""margin:0 auto; width: 20vw; top: 8vh; font-size: 1vw""> 
                Current score : <font color=""green""> 170 points </font>
            </div>
        </div>
    
        <img class=""stim"" src=./stimuli//pack_easy/cat_2/ex_2_68.png></img>
    ","null","stimulus","","","",""
"","","","","","html-keyboard-response","120","115249","0.0-3.0-2.23","","","","null","
        <div style=""text-align: center; position: fixed; top: 5vh; left: 40vw;"">
            <div style=""margin:0 auto; width: 20vw; top: 8vh; font-size: 1vw""> 
                Current score : <font color=""green""> 170 points </font>
            </div>
        </div>
    ","null","","","","",""
"","","","","","html-keyboard-response","121","115438","0.0-3.0-3.23","","","","188","./stimuli//pack_easy/cat_2/ex_2_68.png","arrowright","response","ArrowRight","68","2","true"
"","","","","","html-keyboard-response","122","116947","0.0-3.0-4.23","","","","null","<p> <font color=""green"" size=""4vw""> Correct category! </font> <br> <br> <font color=""green"" size=""7vw""> +10 points </font> </p>","null","feedback","","","",""
"","","","","","html-keyboard-response","123","117306","0.0-3.0-0.24","","","","null","
            
        <div style=""text-align: center; position: fixed; top: 5vh; left: 40vw;"">
            <div style=""margin:0 auto; width: 20vw; top: 8vh; font-size: 1vw""> 
                Current score : <font color=""green""> 180 points </font>
            </div>
        </div>
    
            <div style=""font-size:60px;"">+</div>
        ","null","ITI","","","",""
"","","","","","html-keyboard-response","124","118321","0.0-3.0-1.24","","","","null","
        
        <div style=""text-align: center; position: fixed; top: 5vh; left: 40vw;"">
            <div style=""margin:0 auto; width: 20vw; top: 8vh; font-size: 1vw""> 
                Current score : <font color=""green""> 180 points </font>
            </div>
        </div>
    
        <img class=""stim"" src=./stimuli//pack_easy/cat_2/ex_2_58.png></img>
    ","null","stimulus","","","",""
"","","","","","html-keyboard-response","125","119323","0.0-3.0-2.24","","","","null","
        <div style=""text-align: center; position: fixed; top: 5vh; left: 40vw;"">
            <div style=""margin:0 auto; width: 20vw; top: 8vh; font-size: 1vw""> 
                Current score : <font color=""green""> 180 points </font>
            </div>
        </div>
    ","null","","","","",""
"","","","","","html-keyboard-response","126","119569","0.0-3.0-3.24","","","","246","./stimuli//pack_easy/cat_2/ex_2_58.png","arrowleft","response","ArrowRight","58","2","false"
"","","","","","html-keyboard-response","127","121080","0.0-3.0-4.24","","","","null","<p> <font color=""red"" size=""4vw""> Wrong category! </font> </p>","null","feedback","","","",""
"","","","","","html-keyboard-response","128","121438","0.0-3.0-0.25","","","","null","
            
        <div style=""text-align: center; position: fixed; top: 5vh; left: 40vw;"">
            <div style=""margin:0 auto; width: 20vw; top: 8vh; font-size: 1vw""> 
                Current score : <font color=""green""> 180 points </font>
            </div>
        </div>
    
            <div style=""font-size:60px;"">+</div>
        ","null","ITI","","","",""
"","","","","","html-keyboard-response","129","122448","0.0-3.0-1.25","","","","null","
        
        <div style=""text-align: center; position: fixed; top: 5vh; left: 40vw;"">
            <div style=""margin:0 auto; width: 20vw; top: 8vh; font-size: 1vw""> 
                Current score : <font color=""green""> 180 points </font>
            </div>
        </div>
    
        <img class=""stim"" src=./stimuli//pack_easy/cat_1/ex_1_80.png></img>
    ","null","stimulus","","","",""
"","","","","","html-keyboard-response","130","123459","0.0-3.0-2.25","","","","null","
        <div style=""text-align: center; position: fixed; top: 5vh; left: 40vw;"">
            <div style=""margin:0 auto; width: 20vw; top: 8vh; font-size: 1vw""> 
                Current score : <font color=""green""> 180 points </font>
            </div>
        </div>
    ","null","","","","",""
"","","","","","html-keyboard-response","131","123557","0.0-3.0-3.25","","","","97","./stimuli//pack_easy/cat_1/ex_1_80.png","arrowleft","response","ArrowLeft","80","1","true"
"","","","","","html-keyboard-response","132","125063","0.0-3.0-4.25","","","","null","<p> <font color=""green"" size=""4vw""> Correct category! </font> <br> <br> <font color=""green"" size=""7vw""> +10 points </font> </p>","null","feedback","","","",""
"","","","","","html-keyboard-response","133","125419","0.0-3.0-0.26","","","","null","
            
        <div style=""text-align: center; position: fixed; top: 5vh; left: 40vw;"">
            <div style=""margin:0 auto; width: 20vw; top: 8vh; font-size: 1vw""> 
                Current score : <font color=""green""> 190 points </font>
            </div>
        </div>
    
            <div style=""font-size:60px;"">+</div>
        ","null","ITI","","","",""
"","","","","","html-keyboard-response","134","126431","0.0-3.0-1.26","","","","null","
        
        <div style=""text-align: center; position: fixed; top: 5vh; left: 40vw;"">
            <div style=""margin:0 auto; width: 20vw; top: 8vh; font-size: 1vw""> 
                Current score : <font color=""green""> 190 points </font>
            </div>
        </div>
    
        <img class=""stim"" src=./stimuli//pack_easy/cat_2/ex_2_27.png></img>
    ","null","stimulus","","","",""
"","","","","","html-keyboard-response","135","127508","0.0-3.0-2.26","","","","null","
        <div style=""text-align: center; position: fixed; top: 5vh; left: 40vw;"">
            <div style=""margin:0 auto; width: 20vw; top: 8vh; font-size: 1vw""> 
                Current score : <font color=""green""> 190 points </font>
            </div>
        </div>
    ","null","","","","",""
"","","","","","html-keyboard-response","136","127709","0.0-3.0-3.26","","","","200","./stimuli//pack_easy/cat_2/ex_2_27.png","arrowleft","response","ArrowRight","27","2","false"
"","","","","","html-keyboard-response","137","129222","0.0-3.0-4.26","","","","null","<p> <font color=""red"" size=""4vw""> Wrong category! </font> </p>","null","feedback","","","",""
"","","","","","html-keyboard-response","138","129581","0.0-3.0-0.27","","","","null","
            
        <div style=""text-align: center; position: fixed; top: 5vh; left: 40vw;"">
            <div style=""margin:0 auto; width: 20vw; top: 8vh; font-size: 1vw""> 
                Current score : <font color=""green""> 190 points </font>
            </div>
        </div>
    
            <div style=""font-size:60px;"">+</div>
        ","null","ITI","","","",""
"","","","","","html-keyboard-response","139","130595","0.0-3.0-1.27","","","","null","
        
        <div style=""text-align: center; position: fixed; top: 5vh; left: 40vw;"">
            <div style=""margin:0 auto; width: 20vw; top: 8vh; font-size: 1vw""> 
                Current score : <font color=""green""> 190 points </font>
            </div>
        </div>
    
        <img class=""stim"" src=./stimuli//pack_easy/cat_2/ex_2_79.png></img>
    ","null","stimulus","","","",""
"","","","","","html-keyboard-response","140","131606","0.0-3.0-2.27","","","","null","
        <div style=""text-align: center; position: fixed; top: 5vh; left: 40vw;"">
            <div style=""margin:0 auto; width: 20vw; top: 8vh; font-size: 1vw""> 
                Current score : <font color=""green""> 190 points </font>
            </div>
        </div>
    ","null","","","","",""
"","","","","","html-keyboard-response","141","131851","0.0-3.0-3.27","","","","243","./stimuli//pack_easy/cat_2/ex_2_79.png","arrowright","response","ArrowRight","79","2","true"
"","","","","","html-keyboard-response","142","133366","0.0-3.0-4.27","","","","null","<p> <font color=""green"" size=""4vw""> Correct category! </font> <br> <br> <font color=""green"" size=""7vw""> +10 points </font> </p>","null","feedback","","","",""
"","","","","","html-keyboard-response","143","133722","0.0-3.0-0.28","","","","null","
            
        <div style=""text-align: center; position: fixed; top: 5vh; left: 40vw;"">
            <div style=""margin:0 auto; width: 20vw; top: 8vh; font-size: 1vw""> 
                Current score : <font color=""green""> 200 points </font>
            </div>
        </div>
    
            <div style=""font-size:60px;"">+</div>
        ","null","ITI","","","",""
"","","","","","html-keyboard-response","144","134733","0.0-3.0-1.28","","","","null","
        
        <div style=""text-align: center; position: fixed; top: 5vh; left: 40vw;"">
            <div style=""margin:0 auto; width: 20vw; top: 8vh; font-size: 1vw""> 
                Current score : <font color=""green""> 200 points </font>
            </div>
        </div>
    
        <img class=""stim"" src=./stimuli//pack_easy/cat_2/ex_2_64.png></img>
    ","null","stimulus","","","",""
"","","","","","html-keyboard-response","145","135745","0.0-3.0-2.28","","","","null","
        <div style=""text-align: center; position: fixed; top: 5vh; left: 40vw;"">
            <div style=""margin:0 auto; width: 20vw; top: 8vh; font-size: 1vw""> 
                Current score : <font color=""green""> 200 points </font>
            </div>
        </div>
    ","null","","","","",""
"","","","","","html-keyboard-response","146","135977","0.0-3.0-3.28","","","","231","./stimuli//pack_easy/cat_2/ex_2_64.png","arrowleft","response","ArrowRight","64","2","false"
"","","","","","html-keyboard-response","147","137490","0.0-3.0-4.28","","","","null","<p> <font color=""red"" size=""4vw""> Wrong category! </font> </p>","null","feedback","","","",""
"","","","","","html-keyboard-response","148","137848","0.0-3.0-0.29","","","","null","
            
        <div style=""text-align: center; position: fixed; top: 5vh; left: 40vw;"">
            <div style=""margin:0 auto; width: 20vw; top: 8vh; font-size: 1vw""> 
                Current score : <font color=""green""> 200 points </font>
            </div>
        </div>
    
            <div style=""font-size:60px;"">+</div>
        ","null","ITI","","","",""
"","","","","","html-keyboard-response","149","138857","0.0-3.0-1.29","","","","null","
        
        <div style=""text-align: center; position: fixed; top: 5vh; left: 40vw;"">
            <div style=""margin:0 auto; width: 20vw; top: 8vh; font-size: 1vw""> 
                Current score : <font color=""green""> 200 points </font>
            </div>
        </div>
    
        <img class=""stim"" src=./stimuli//pack_easy/cat_2/ex_2_74.png></img>
    ","null","stimulus","","","",""
"","","","","","html-keyboard-response","150","139872","0.0-3.0-2.29","","","","null","
        <div style=""text-align: center; position: fixed; top: 5vh; left: 40vw;"">
            <div style=""margin:0 auto; width: 20vw; top: 8vh; font-size: 1vw""> 
                Current score : <font color=""green""> 200 points </font>
            </div>
        </div>
    ","null","","","","",""
"","","","","","html-keyboard-response","151","139873","0.0-3.0-3.29","","","","1","./stimuli//pack_easy/cat_2/ex_2_74.png","arrowright","response","ArrowRight","74","2","true"
"","","","","","html-keyboard-response","152","141382","0.0-3.0-4.29","","","","null","<p> <font color=""green"" size=""4vw""> Correct category! </font> <br> <br> <font color=""green"" size=""7vw""> +10 points </font> </p>","null","feedback","","","",""
"","","","","","html-keyboard-response","153","141741","0.0-3.0-0.30","","","","null","
            
        <div style=""text-align: center; position: fixed; top: 5vh; left: 40vw;"">
            <div style=""margin:0 auto; width: 20vw; top: 8vh; font-size: 1vw""> 
                Current score : <font color=""green""> 210 points </font>
            </div>
        </div>
    
            <div style=""font-size:60px;"">+</div>
        ","null","ITI","","","",""
"","","","","","html-keyboard-response","154","142751","0.0-3.0-1.30","","","","null","
        
        <div style=""text-align: center; position: fixed; top: 5vh; left: 40vw;"">
            <div style=""margin:0 auto; width: 20vw; top: 8vh; font-size: 1vw""> 
                Current score : <font color=""green""> 210 points </font>
            </div>
        </div>
    
        <img class=""stim"" src=./stimuli//pack_easy/cat_2/ex_2_41.png></img>
    ","null","stimulus","","","",""
"","","","","","html-keyboard-response","155","143752","0.0-3.0-2.30","","","","null","
        <div style=""text-align: center; position: fixed; top: 5vh; left: 40vw;"">
            <div style=""margin:0 auto; width: 20vw; top: 8vh; font-size: 1vw""> 
                Current score : <font color=""green""> 210 points </font>
            </div>
        </div>
    ","null","","","","",""
"","","","","","html-keyboard-response","156","143797","0.0-3.0-3.30","","","","45","./stimuli//pack_easy/cat_2/ex_2_41.png","arrowleft","response","ArrowRight","41","2","false"
"","","","","","html-keyboard-response","157","145311","0.0-3.0-4.30","","","","null","<p> <font color=""red"" size=""4vw""> Wrong category! </font> </p>","null","feedback","","","",""
"","","","","","html-keyboard-response","158","145669","0.0-3.0-0.31","","","","null","
            
        <div style=""text-align: center; position: fixed; top: 5vh; left: 40vw;"">
            <div style=""margin:0 auto; width: 20vw; top: 8vh; font-size: 1vw""> 
                Current score : <font color=""green""> 210 points </font>
            </div>
        </div>
    
            <div style=""font-size:60px;"">+</div>
        ","null","ITI","","","",""
"","","","","","html-keyboard-response","159","146682","0.0-3.0-1.31","","","","null","
        
        <div style=""text-align: center; position: fixed; top: 5vh; left: 40vw;"">
            <div style=""margin:0 auto; width: 20vw; top: 8vh; font-size: 1vw""> 
                Current score : <font color=""green""> 210 points </font>
            </div>
        </div>
    
        <img class=""stim"" src=./stimuli//pack_easy/cat_1/ex_1_29.png></img>
    ","null","stimulus","","","",""
"","","","","","html-keyboard-response","160","147696","0.0-3.0-2.31","","","","null","
        <div style=""text-align: center; position: fixed; top: 5vh; left: 40vw;"">
            <div style=""margin:0 auto; width: 20vw; top: 8vh; font-size: 1vw""> 
                Current score : <font color=""green""> 210 points </font>
            </div>
        </div>
    ","null","","","","",""
"","","","","","html-keyboard-response","161","147995","0.0-3.0-3.31","","","","298","./stimuli//pack_easy/cat_1/ex_1_29.png","arrowleft","response","ArrowLeft","29","1","true"
"","","","","","html-keyboard-response","162","149507","0.0-3.0-4.31","","","","null","<p> <font color=""green"" size=""4vw""> Correct category! </font> <br> <br> <font color=""green"" size=""7vw""> +10 points </font> </p>","null","feedback","","","",""
"","","","","","html-keyboard-response","163","149866","0.0-3.0-0.32","","","","null","
            
        <div style=""text-align: center; position: fixed; top: 5vh; left: 40vw;"">
            <div style=""margin:0 auto; width: 20vw; top: 8vh; font-size: 1vw""> 
                Current score : <font color=""green""> 220 points </font>
            </div>
        </div>
    
            <div style=""font-size:60px;"">+</div>
        ","null","ITI","","","",""
"","","","","","html-keyboard-response","164","150877","0.0-3.0-1.32","","","","null","
        
        <div style=""text-align: center; position: fixed; top: 5vh; left: 40vw;"">
            <div style=""margin:0 auto; width: 20vw; top: 8vh; font-size: 1vw""> 
                Current score : <font color=""green""> 220 points </font>
            </div>
        </div>
    
        <img class=""stim"" src=./stimuli//pack_easy/cat_2/ex_2_80.png></img>
    ","null","stimulus","","","",""
"","","","","","html-keyboard-response","165","151922","0.0-3.0-2.32","","","","null","
        <div style=""text-align: center; position: fixed; top: 5vh; left: 40vw;"">
            <div style=""margin:0 auto; width: 20vw; top: 8vh; font-size: 1vw""> 
                Current score : <font color=""green""> 220 points </font>
            </div>
        </div>
    ","null","","","","",""
"","","","","","html-keyboard-response","166","151947","0.0-3.0-3.32","","","","24","./stimuli//pack_easy/cat_2/ex_2_80.png","arrowright","response","ArrowRight","80","2","true"
"","","","","","html-keyboard-response","167","153447","0.0-3.0-4.32","","","","null","<p> <font color=""green"" size=""4vw""> Correct category! </font> <br> <br> <font color=""green"" size=""7vw""> +10 points </font> </p>","null","feedback","","","",""
"","","","","","html-keyboard-response","168","153809","0.0-3.0-0.33","","","","null","
            
        <div style=""text-align: center; position: fixed; top: 5vh; left: 40vw;"">
            <div style=""margin:0 auto; width: 20vw; top: 8vh; font-size: 1vw""> 
                Current score : <font color=""green""> 230 points </font>
            </div>
        </div>
    
            <div style=""font-size:60px;"">+</div>
        ","null","ITI","","","",""
"","","","","","html-keyboard-response","169","154812","0.0-3.0-1.33","","","","null","
        
        <div style=""text-align: center; position: fixed; top: 5vh; left: 40vw;"">
            <div style=""margin:0 auto; width: 20vw; top: 8vh; font-size: 1vw""> 
                Current score : <font color=""green""> 230 points </font>
            </div>
        </div>
    
        <img class=""stim"" src=./stimuli//pack_easy/cat_1/ex_1_78.png></img>
    ","null","stimulus","","","",""
"","","","","","html-keyboard-response","170","155822","0.0-3.0-2.33","","","","null","
        <div style=""text-align: center; position: fixed; top: 5vh; left: 40vw;"">
            <div style=""margin:0 auto; width: 20vw; top: 8vh; font-size: 1vw""> 
                Current score : <font color=""green""> 230 points </font>
            </div>
        </div>
    ","null","","","","",""
"","","","","","html-keyboard-response","171","155909","0.0-3.0-3.33","","","","85","./stimuli//pack_easy/cat_1/ex_1_78.png","arrowleft","response","ArrowLeft","78","1","true"
"","","","","","html-keyboard-response","172","157411","0.0-3.0-4.33","","","","null","<p> <font color=""green"" size=""4vw""> Correct category! </font> <br> <br> <font color=""green"" size=""7vw""> +10 points </font> </p>","null","feedback","","","",""
"","","","","","html-keyboard-response","173","157771","0.0-3.0-0.34","","","","null","
            
        <div style=""text-align: center; position: fixed; top: 5vh; left: 40vw;"">
            <div style=""margin:0 auto; width: 20vw; top: 8vh; font-size: 1vw""> 
                Current score : <font color=""green""> 240 points </font>
            </div>
        </div>
    
            <div style=""font-size:60px;"">+</div>
        ","null","ITI","","","",""
"","","","","","html-keyboard-response","174","158875","0.0-3.0-1.34","","","","null","
        
        <div style=""text-align: center; position: fixed; top: 5vh; left: 40vw;"">
            <div style=""margin:0 auto; width: 20vw; top: 8vh; font-size: 1vw""> 
                Current score : <font color=""green""> 240 points </font>
            </div>
        </div>
    
        <img class=""stim"" src=./stimuli//pack_easy/cat_2/ex_2_53.png></img>
    ","null","stimulus","","","",""
"","","","","","html-keyboard-response","175","159886","0.0-3.0-2.34","","","","null","
        <div style=""text-align: center; position: fixed; top: 5vh; left: 40vw;"">
            <div style=""margin:0 auto; width: 20vw; top: 8vh; font-size: 1vw""> 
                Current score : <font color=""green""> 240 points </font>
            </div>
        </div>
    ","null","","","","",""
"","","","","","html-keyboard-response","176","159930","0.0-3.0-3.34","","","","44","./stimuli//pack_easy/cat_2/ex_2_53.png","arrowright","response","ArrowRight","53","2","true"
"","","","","","html-keyboard-response","177","161443","0.0-3.0-4.34","","","","null","<p> <font color=""green"" size=""4vw""> Correct category! </font> <br> <br> <font color=""green"" size=""7vw""> +10 points </font> </p>","null","feedback","","","",""
"","","","","","html-keyboard-response","178","161801","0.0-3.0-0.35","","","","null","
            
        <div style=""text-align: center; position: fixed; top: 5vh; left: 40vw;"">
            <div style=""margin:0 auto; width: 20vw; top: 8vh; font-size: 1vw""> 
                Current score : <font color=""green""> 250 points </font>
            </div>
        </div>
    
            <div style=""font-size:60px;"">+</div>
        ","null","ITI","","","",""
"","","","","","html-keyboard-response","179","162811","0.0-3.0-1.35","","","","null","
        
        <div style=""text-align: center; position: fixed; top: 5vh; left: 40vw;"">
            <div style=""margin:0 auto; width: 20vw; top: 8vh; font-size: 1vw""> 
                Current score : <font color=""green""> 250 points </font>
            </div>
        </div>
    
        <img class=""stim"" src=./stimuli//pack_easy/cat_1/ex_1_38.png></img>
    ","null","stimulus","","","",""
"","","","","","html-keyboard-response","180","163827","0.0-3.0-2.35","","","","null","
        <div style=""text-align: center; position: fixed; top: 5vh; left: 40vw;"">
            <div style=""margin:0 auto; width: 20vw; top: 8vh; font-size: 1vw""> 
                Current score : <font color=""green""> 250 points </font>
            </div>
        </div>
    ","null","","","","",""
"","","","","","html-keyboard-response","181","164132","0.0-3.0-3.35","","","","305","./stimuli//pack_easy/cat_1/ex_1_38.png","arrowright","response","ArrowLeft","38","1","false"
"","","","","","html-keyboard-response","182","165635","0.0-3.0-4.35","","","","null","<p> <font color=""red"" size=""4vw""> Wrong category! </font> </p>","null","feedback","","","",""
"","","","","","html-keyboard-response","183","165993","0.0-3.0-0.36","","","","null","
            
        <div style=""text-align: center; position: fixed; top: 5vh; left: 40vw;"">
            <div style=""margin:0 auto; width: 20vw; top: 8vh; font-size: 1vw""> 
                Current score : <font color=""green""> 250 points </font>
            </div>
        </div>
    
            <div style=""font-size:60px;"">+</div>
        ","null","ITI","","","",""
"","","","","","html-keyboard-response","184","167008","0.0-3.0-1.36","","","","null","
        
        <div style=""text-align: center; position: fixed; top: 5vh; left: 40vw;"">
            <div style=""margin:0 auto; width: 20vw; top: 8vh; font-size: 1vw""> 
                Current score : <font color=""green""> 250 points </font>
            </div>
        </div>
    
        <img class=""stim"" src=./stimuli//pack_easy/cat_2/ex_2_40.png></img>
    ","null","stimulus","","","",""
"","","","","","html-keyboard-response","185","168009","0.0-3.0-2.36","","","","null","
        <div style=""text-align: center; position: fixed; top: 5vh; left: 40vw;"">
            <div style=""margin:0 auto; width: 20vw; top: 8vh; font-size: 1vw""> 
                Current score : <font color=""green""> 250 points </font>
            </div>
        </div>
    ","null","","","","",""
"","","","","","html-keyboard-response","186","168243","0.0-3.0-3.36","","","","233","./stimuli//pack_easy/cat_2/ex_2_40.png","arrowright","response","ArrowRight","40","2","true"
"","","","","","html-keyboard-response","187","169752","0.0-3.0-4.36","","","","null","<p> <font color=""green"" size=""4vw""> Correct category! </font> <br> <br> <font color=""green"" size=""7vw""> +10 points </font> </p>","null","feedback","","","",""
"","","","","","html-keyboard-response","188","170108","0.0-3.0-0.37","","","","null","
            
        <div style=""text-align: center; position: fixed; top: 5vh; left: 40vw;"">
            <div style=""margin:0 auto; width: 20vw; top: 8vh; font-size: 1vw""> 
                Current score : <font color=""green""> 260 points </font>
            </div>
        </div>
    
            <div style=""font-size:60px;"">+</div>
        ","null","ITI","","","",""
"","","","","","html-keyboard-response","189","171112","0.0-3.0-1.37","","","","null","
        
        <div style=""text-align: center; position: fixed; top: 5vh; left: 40vw;"">
            <div style=""margin:0 auto; width: 20vw; top: 8vh; font-size: 1vw""> 
                Current score : <font color=""green""> 260 points </font>
            </div>
        </div>
    
        <img class=""stim"" src=./stimuli//pack_easy/cat_2/ex_2_99.png></img>
    ","null","stimulus","","","",""
"","","","","","html-keyboard-response","190","172124","0.0-3.0-2.37","","","","null","
        <div style=""text-align: center; position: fixed; top: 5vh; left: 40vw;"">
            <div style=""margin:0 auto; width: 20vw; top: 8vh; font-size: 1vw""> 
                Current score : <font color=""green""> 260 points </font>
            </div>
        </div>
    ","null","","","","",""
"","","","","","html-keyboard-response","191","172388","0.0-3.0-3.37","","","","263","./stimuli//pack_easy/cat_2/ex_2_99.png","arrowright","response","ArrowRight","99","2","true"
"","","","","","html-keyboard-response","192","173899","0.0-3.0-4.37","","","","null","<p> <font color=""green"" size=""4vw""> Correct category! </font> <br> <br> <font color=""green"" size=""7vw""> +10 points </font> </p>","null","feedback","","","",""
"","","","","","html-keyboard-response","193","174257","0.0-3.0-0.38","","","","null","
            
        <div style=""text-align: center; position: fixed; top: 5vh; left: 40vw;"">
            <div style=""margin:0 auto; width: 20vw; top: 8vh; font-size: 1vw""> 
                Current score : <font color=""green""> 270 points </font>
            </div>
        </div>
    
            <div style=""font-size:60px;"">+</div>
        ","null","ITI","","","",""
"","","","","","html-keyboard-response","194","175271","0.0-3.0-1.38","","","","null","
        
        <div style=""text-align: center; position: fixed; top: 5vh; left: 40vw;"">
            <div style=""margin:0 auto; width: 20vw; top: 8vh; font-size: 1vw""> 
                Current score : <font color=""green""> 270 points </font>
            </div>
        </div>
    
        <img class=""stim"" src=./stimuli//pack_easy/cat_1/ex_1_74.png></img>
    ","null","stimulus","","","",""
"","","","","","html-keyboard-response","195","176282","0.0-3.0-2.38","","","","null","
        <div style=""text-align: center; position: fixed; top: 5vh; left: 40vw;"">
            <div style=""margin:0 auto; width: 20vw; top: 8vh; font-size: 1vw""> 
                Current score : <font color=""green""> 270 points </font>
            </div>
        </div>
    ","null","","","","",""
"","","","","","html-keyboard-response","196","176545","0.0-3.0-3.38","","","","262","./stimuli//pack_easy/cat_1/ex_1_74.png","arrowleft","response","ArrowLeft","74","1","true"
"","","","","","html-keyboard-response","197","178057","0.0-3.0-4.38","","","","null","<p> <font color=""green"" size=""4vw""> Correct category! </font> <br> <br> <font color=""green"" size=""7vw""> +10 points </font> </p>","null","feedback","","","",""
"","","","","","html-keyboard-response","198","178415","0.0-3.0-0.39","","","","null","
            
        <div style=""text-align: center; position: fixed; top: 5vh; left: 40vw;"">
            <div style=""margin:0 auto; width: 20vw; top: 8vh; font-size: 1vw""> 
                Current score : <font color=""green""> 280 points </font>
            </div>
        </div>
    
            <div style=""font-size:60px;"">+</div>
        ","null","ITI","","","",""
"","","","","","html-keyboard-response","199","179427","0.0-3.0-1.39","","","","null","
        
        <div style=""text-align: center; position: fixed; top: 5vh; left: 40vw;"">
            <div style=""margin:0 auto; width: 20vw; top: 8vh; font-size: 1vw""> 
                Current score : <font color=""green""> 280 points </font>
            </div>
        </div>
    
        <img class=""stim"" src=./stimuli//pack_easy/cat_1/ex_1_15.png></img>
    ","null","stimulus","","","",""
"","","","","","html-keyboard-response","200","180439","0.0-3.0-2.39","","","","null","
        <div style=""text-align: center; position: fixed; top: 5vh; left: 40vw;"">
            <div style=""margin:0 auto; width: 20vw; top: 8vh; font-size: 1vw""> 
                Current score : <font color=""green""> 280 points </font>
            </div>
        </div>
    ","null","","","","",""
"","","","","","html-keyboard-response","201","180671","0.0-3.0-3.39","","","","231","./stimuli//pack_easy/cat_1/ex_1_15.png","arrowright","response","ArrowLeft","15","1","false"
"","","","","","html-keyboard-response","202","182185","0.0-3.0-4.39","","","","null","<p> <font color=""red"" size=""4vw""> Wrong category! </font> </p>","null","feedback","","","",""
"","","","","","html-keyboard-response","203","182544","0.0-3.0-0.40","","","","null","
            
        <div style=""text-align: center; position: fixed; top: 5vh; left: 40vw;"">
            <div style=""margin:0 auto; width: 20vw; top: 8vh; font-size: 1vw""> 
                Current score : <font color=""green""> 280 points </font>
            </div>
        </div>
    
            <div style=""font-size:60px;"">+</div>
        ","null","ITI","","","",""
"","","","","","html-keyboard-response","204","183555","0.0-3.0-1.40","","","","null","
        
        <div style=""text-align: center; position: fixed; top: 5vh; left: 40vw;"">
            <div style=""margin:0 auto; width: 20vw; top: 8vh; font-size: 1vw""> 
                Current score : <font color=""green""> 280 points </font>
            </div>
        </div>
    
        <img class=""stim"" src=./stimuli//pack_easy/cat_2/ex_2_11.png></img>
    ","null","stimulus","","","",""
"","","","","","html-keyboard-response","205","184569","0.0-3.0-2.40","","","","null","
        <div style=""text-align: center; position: fixed; top: 5vh; left: 40vw;"">
            <div style=""margin:0 auto; width: 20vw; top: 8vh; font-size: 1vw""> 
                Current score : <font color=""green""> 280 points </font>
            </div>
        </div>
    ","null","","","","",""
"","","","","","html-keyboard-response","206","184713","0.0-3.0-3.40","","","","143","./stimuli//pack_easy/cat_2/ex_2_11.png","arrowright","response","ArrowRight","11","2","true"
"","","","","","html-keyboard-response","207","186219","0.0-3.0-4.40","","","","null","<p> <font color=""green"" size=""4vw""> Correct category! </font> <br> <br> <font color=""green"" size=""7vw""> +10 points </font> </p>","null","feedback","","","",""
"","","","","","html-keyboard-response","208","186579","0.0-3.0-0.41","","","","null","
            
        <div style=""text-align: center; position: fixed; top: 5vh; left: 40vw;"">
            <div style=""margin:0 auto; width: 20vw; top: 8vh; font-size: 1vw""> 
                Current score : <font color=""green""> 290 points </font>
            </div>
        </div>
    
            <div style=""font-size:60px;"">+</div>
        ","null","ITI","","","",""
"","","","","","html-keyboard-response","209","187589","0.0-3.0-1.41","","","","null","
        
        <div style=""text-align: center; position: fixed; top: 5vh; left: 40vw;"">
            <div style=""margin:0 auto; width: 20vw; top: 8vh; font-size: 1vw""> 
                Current score : <font color=""green""> 290 points </font>
            </div>
        </div>
    
        <img class=""stim"" src=./stimuli//pack_easy/cat_1/ex_1_81.png></img>
    ","null","stimulus","","","",""
"","","","","","html-keyboard-response","210","188679","0.0-3.0-2.41","","","","null","
        <div style=""text-align: center; position: fixed; top: 5vh; left: 40vw;"">
            <div style=""margin:0 auto; width: 20vw; top: 8vh; font-size: 1vw""> 
                Current score : <font color=""green""> 290 points </font>
            </div>
        </div>
    ","null","","","","",""
"","","","","","html-keyboard-response","211","188898","0.0-3.0-3.41","","","","219","./stimuli//pack_easy/cat_1/ex_1_81.png","arrowleft","response","ArrowLeft","81","1","true"
"","","","","","html-keyboard-response","212","190408","0.0-3.0-4.41","","","","null","<p> <font color=""green"" size=""4vw""> Correct category! </font> <br> <br> <font color=""green"" size=""7vw""> +10 points </font> </p>","null","feedback","","","",""
"","","","","","html-keyboard-response","213","190767","0.0-3.0-0.42","","","","null","
            
        <div style=""text-align: center; position: fixed; top: 5vh; left: 40vw;"">
            <div style=""margin:0 auto; width: 20vw; top: 8vh; font-size: 1vw""> 
                Current score : <font color=""green""> 300 points </font>
            </div>
        </div>
    
            <div style=""font-size:60px;"">+</div>
        ","null","ITI","","","",""
"","","","","","html-keyboard-response","214","191775","0.0-3.0-1.42","","","","null","
        
        <div style=""text-align: center; position: fixed; top: 5vh; left: 40vw;"">
            <div style=""margin:0 auto; width: 20vw; top: 8vh; font-size: 1vw""> 
                Current score : <font color=""green""> 300 points </font>
            </div>
        </div>
    
        <img class=""stim"" src=./stimuli//pack_easy/cat_2/ex_2_55.png></img>
    ","null","stimulus","","","",""
"","","","","","html-keyboard-response","215","192789","0.0-3.0-2.42","","","","null","
        <div style=""text-align: center; position: fixed; top: 5vh; left: 40vw;"">
            <div style=""margin:0 auto; width: 20vw; top: 8vh; font-size: 1vw""> 
                Current score : <font color=""green""> 300 points </font>
            </div>
        </div>
    ","null","","","","",""
"","","","","","html-keyboard-response","216","192808","0.0-3.0-3.42","","","","19","./stimuli//pack_easy/cat_2/ex_2_55.png","arrowright","response","ArrowRight","55","2","true"
"","","","","","html-keyboard-response","217","194314","0.0-3.0-4.42","","","","null","<p> <font color=""green"" size=""4vw""> Correct category! </font> <br> <br> <font color=""green"" size=""7vw""> +10 points </font> </p>","null","feedback","","","",""
"","","","","","html-keyboard-response","218","194671","0.0-3.0-0.43","","","","null","
            
        <div style=""text-align: center; position: fixed; top: 5vh; left: 40vw;"">
            <div style=""margin:0 auto; width: 20vw; top: 8vh; font-size: 1vw""> 
                Current score : <font color=""green""> 310 points </font>
            </div>
        </div>
    
            <div style=""font-size:60px;"">+</div>
        ","null","ITI","","","",""
"","","","","","html-keyboard-response","219","195680","0.0-3.0-1.43","","","","null","
        
        <div style=""text-align: center; position: fixed; top: 5vh; left: 40vw;"">
            <div style=""margin:0 auto; width: 20vw; top: 8vh; font-size: 1vw""> 
                Current score : <font color=""green""> 310 points </font>
            </div>
        </div>
    
        <img class=""stim"" src=./stimuli//pack_easy/cat_2/ex_2_39.png></img>
    ","null","stimulus","","","",""
"","","","","","html-keyboard-response","220","196695","0.0-3.0-2.43","","","","null","
        <div style=""text-align: center; position: fixed; top: 5vh; left: 40vw;"">
            <div style=""margin:0 auto; width: 20vw; top: 8vh; font-size: 1vw""> 
                Current score : <font color=""green""> 310 points </font>
            </div>
        </div>
    ","null","","","","",""
"","","","","","html-keyboard-response","221","196890","0.0-3.0-3.43","","","","194","./stimuli//pack_easy/cat_2/ex_2_39.png","arrowright","response","ArrowRight","39","2","true"
"","","","","","html-keyboard-response","222","198392","0.0-3.0-4.43","","","","null","<p> <font color=""green"" size=""4vw""> Correct category! </font> <br> <br> <font color=""green"" size=""7vw""> +10 points </font> </p>","null","feedback","","","",""
"","","","","","html-keyboard-response","223","198751","0.0-3.0-0.44","","","","null","
            
        <div style=""text-align: center; position: fixed; top: 5vh; left: 40vw;"">
            <div style=""margin:0 auto; width: 20vw; top: 8vh; font-size: 1vw""> 
                Current score : <font color=""green""> 320 points </font>
            </div>
        </div>
    
            <div style=""font-size:60px;"">+</div>
        ","null","ITI","","","",""
"","","","","","html-keyboard-response","224","199763","0.0-3.0-1.44","","","","null","
        
        <div style=""text-align: center; position: fixed; top: 5vh; left: 40vw;"">
            <div style=""margin:0 auto; width: 20vw; top: 8vh; font-size: 1vw""> 
                Current score : <font color=""green""> 320 points </font>
            </div>
        </div>
    
        <img class=""stim"" src=./stimuli//pack_easy/cat_2/ex_2_48.png></img>
    ","null","stimulus","","","",""
"","","","","","html-keyboard-response","225","200776","0.0-3.0-2.44","","","","null","
        <div style=""text-align: center; position: fixed; top: 5vh; left: 40vw;"">
            <div style=""margin:0 auto; width: 20vw; top: 8vh; font-size: 1vw""> 
                Current score : <font color=""green""> 320 points </font>
            </div>
        </div>
    ","null","","","","",""
"","","","","","html-keyboard-response","226","200884","0.0-3.0-3.44","","","","108","./stimuli//pack_easy/cat_2/ex_2_48.png","arrowright","response","ArrowRight","48","2","true"
"","","","","","html-keyboard-response","227","202395","0.0-3.0-4.44","","","","null","<p> <font color=""green"" size=""4vw""> Correct category! </font> <br> <br> <font color=""green"" size=""7vw""> +10 points </font> </p>","null","feedback","","","",""
"","","","","","html-keyboard-response","228","202798","0.0-3.0-0.45","","","","null","
            
        <div style=""text-align: center; position: fixed; top: 5vh; left: 40vw;"">
            <div style=""margin:0 auto; width: 20vw; top: 8vh; font-size: 1vw""> 
                Current score : <font color=""green""> 330 points </font>
            </div>
        </div>
    
            <div style=""font-size:60px;"">+</div>
        ","null","ITI","","","",""
"","","","","","html-keyboard-response","229","203810","0.0-3.0-1.45","","","","null","
        
        <div style=""text-align: center; position: fixed; top: 5vh; left: 40vw;"">
            <div style=""margin:0 auto; width: 20vw; top: 8vh; font-size: 1vw""> 
                Current score : <font color=""green""> 330 points </font>
            </div>
        </div>
    
        <img class=""stim"" src=./stimuli//pack_easy/cat_1/ex_1_28.png></img>
    ","null","stimulus","","","",""
"","","","","","html-keyboard-response","230","204826","0.0-3.0-2.45","","","","null","
        <div style=""text-align: center; position: fixed; top: 5vh; left: 40vw;"">
            <div style=""margin:0 auto; width: 20vw; top: 8vh; font-size: 1vw""> 
                Current score : <font color=""green""> 330 points </font>
            </div>
        </div>
    ","null","","","","",""
"","","","","","html-keyboard-response","231","205007","0.0-3.0-3.45","","","","182","./stimuli//pack_easy/cat_1/ex_1_28.png","arrowleft","response","ArrowLeft","28","1","true"
"","","","","","html-keyboard-response","232","206523","0.0-3.0-4.45","","","","null","<p> <font color=""green"" size=""4vw""> Correct category! </font> <br> <br> <font color=""green"" size=""7vw""> +10 points </font> </p>","null","feedback","","","",""
"","","","","","html-keyboard-response","233","206883","0.0-3.0-0.46","","","","null","
            
        <div style=""text-align: center; position: fixed; top: 5vh; left: 40vw;"">
            <div style=""margin:0 auto; width: 20vw; top: 8vh; font-size: 1vw""> 
                Current score : <font color=""green""> 340 points </font>
            </div>
        </div>
    
            <div style=""font-size:60px;"">+</div>
        ","null","ITI","","","",""
"","","","","","html-keyboard-response","234","207893","0.0-3.0-1.46","","","","null","
        
        <div style=""text-align: center; position: fixed; top: 5vh; left: 40vw;"">
            <div style=""margin:0 auto; width: 20vw; top: 8vh; font-size: 1vw""> 
                Current score : <font color=""green""> 340 points </font>
            </div>
        </div>
    
        <img class=""stim"" src=./stimuli//pack_easy/cat_2/ex_2_19.png></img>
    ","null","stimulus","","","",""
"","","","","","html-keyboard-response","235","208906","0.0-3.0-2.46","","","","null","
        <div style=""text-align: center; position: fixed; top: 5vh; left: 40vw;"">
            <div style=""margin:0 auto; width: 20vw; top: 8vh; font-size: 1vw""> 
                Current score : <font color=""green""> 340 points </font>
            </div>
        </div>
    ","null","","","","",""
"","","","","","html-keyboard-response","236","209034","0.0-3.0-3.46","","","","127","./stimuli//pack_easy/cat_2/ex_2_19.png","arrowleft","response","ArrowRight","19","2","false"
"","","","","","html-keyboard-response","237","210540","0.0-3.0-4.46","","","","null","<p> <font color=""red"" size=""4vw""> Wrong category! </font> </p>","null","feedback","","","",""
"","","","","","html-keyboard-response","238","210912","0.0-3.0-0.47","","","","null","
            
        <div style=""text-align: center; position: fixed; top: 5vh; left: 40vw;"">
            <div style=""margin:0 auto; width: 20vw; top: 8vh; font-size: 1vw""> 
                Current score : <font color=""green""> 340 points </font>
            </div>
        </div>
    
            <div style=""font-size:60px;"">+</div>
        ","null","ITI","","","",""
"","","","","","html-keyboard-response","239","211921","0.0-3.0-1.47","","","","null","
        
        <div style=""text-align: center; position: fixed; top: 5vh; left: 40vw;"">
            <div style=""margin:0 auto; width: 20vw; top: 8vh; font-size: 1vw""> 
                Current score : <font color=""green""> 340 points </font>
            </div>
        </div>
    
        <img class=""stim"" src=./stimuli//pack_easy/cat_2/ex_2_96.png></img>
    ","null","stimulus","","","",""
"","","","","","html-keyboard-response","240","213011","0.0-3.0-2.47","","","","null","
        <div style=""text-align: center; position: fixed; top: 5vh; left: 40vw;"">
            <div style=""margin:0 auto; width: 20vw; top: 8vh; font-size: 1vw""> 
                Current score : <font color=""green""> 340 points </font>
            </div>
        </div>
    ","null","","","","",""
"","","","","","html-keyboard-response","241","213090","0.0-3.0-3.47","","","","78","./stimuli//pack_easy/cat_2/ex_2_96.png","arrowleft","response","ArrowRight","96","2","false"
"","","","","","html-keyboard-response","242","214602","0.0-3.0-4.47","","","","null","<p> <font color=""red"" size=""4vw""> Wrong category! </font> </p>","null","feedback","","","",""
"","","","","","html-keyboard-response","243","214961","0.0-3.0-0.48","","","","null","
            
        <div style=""text-align: center; position: fixed; top: 5vh; left: 40vw;"">
            <div style=""margin:0 auto; width: 20vw; top: 8vh; font-size: 1vw""> 
                Current score : <font color=""green""> 340 points </font>
            </div>
        </div>
    
            <div style=""font-size:60px;"">+</div>
        ","null","ITI","","","",""
"","","","","","html-keyboard-response","244","215976","0.0-3.0-1.48","","","","null","
        
        <div style=""text-align: center; position: fixed; top: 5vh; left: 40vw;"">
            <div style=""margin:0 auto; width: 20vw; top: 8vh; font-size: 1vw""> 
                Current score : <font color=""green""> 340 points </font>
            </div>
        </div>
    
        <img class=""stim"" src=./stimuli//pack_easy/cat_2/ex_2_12.png></img>
    ","null","stimulus","","","",""
"","","","","","html-keyboard-response","245","216987","0.0-3.0-2.48","","","","null","
        <div style=""text-align: center; position: fixed; top: 5vh; left: 40vw;"">
            <div style=""margin:0 auto; width: 20vw; top: 8vh; font-size: 1vw""> 
                Current score : <font color=""green""> 340 points </font>
            </div>
        </div>
    ","null","","","","",""
"","","","","","html-keyboard-response","246","217127","0.0-3.0-3.48","","","","139","./stimuli//pack_easy/cat_2/ex_2_12.png","arrowleft","response","ArrowRight","12","2","false"
"","","","","","html-keyboard-response","247","218637","0.0-3.0-4.48","","","","null","<p> <font color=""red"" size=""4vw""> Wrong category! </font> </p>","null","feedback","","","",""
"","","","","","html-keyboard-response","248","218994","0.0-3.0-0.49","","","","null","
            
        <div style=""text-align: center; position: fixed; top: 5vh; left: 40vw;"">
            <div style=""margin:0 auto; width: 20vw; top: 8vh; font-size: 1vw""> 
                Current score : <font color=""green""> 340 points </font>
            </div>
        </div>
    
            <div style=""font-size:60px;"">+</div>
        ","null","ITI","","","",""
"","","","","","html-keyboard-response","249","219999","0.0-3.0-1.49","","","","null","
        
        <div style=""text-align: center; position: fixed; top: 5vh; left: 40vw;"">
            <div style=""margin:0 auto; width: 20vw; top: 8vh; font-size: 1vw""> 
                Current score : <font color=""green""> 340 points </font>
            </div>
        </div>
    
        <img class=""stim"" src=./stimuli//pack_easy/cat_2/ex_2_92.png></img>
    ","null","stimulus","","","",""
"","","","","","html-keyboard-response","250","221011","0.0-3.0-2.49","","","","null","
        <div style=""text-align: center; position: fixed; top: 5vh; left: 40vw;"">
            <div style=""margin:0 auto; width: 20vw; top: 8vh; font-size: 1vw""> 
                Current score : <font color=""green""> 340 points </font>
            </div>
        </div>
    ","null","","","","",""
"","","","","","html-keyboard-response","251","221076","0.0-3.0-3.49","","","","65","./stimuli//pack_easy/cat_2/ex_2_92.png","arrowright","response","ArrowRight","92","2","true"
"","","","","","html-keyboard-response","252","222585","0.0-3.0-4.49","","","","null","<p> <font color=""green"" size=""4vw""> Correct category! </font> <br> <br> <font color=""green"" size=""7vw""> +10 points </font> </p>","null","feedback","","","",""
"","","","","","html-keyboard-response","253","222945","0.0-3.0-0.50","","","","null","
            
        <div style=""text-align: center; position: fixed; top: 5vh; left: 40vw;"">
            <div style=""margin:0 auto; width: 20vw; top: 8vh; font-size: 1vw""> 
                Current score : <font color=""green""> 350 points </font>
            </div>
        </div>
    
            <div style=""font-size:60px;"">+</div>
        ","null","ITI","","","",""
"","","","","","html-keyboard-response","254","223955","0.0-3.0-1.50","","","","null","
        
        <div style=""text-align: center; position: fixed; top: 5vh; left: 40vw;"">
            <div style=""margin:0 auto; width: 20vw; top: 8vh; font-size: 1vw""> 
                Current score : <font color=""green""> 350 points </font>
            </div>
        </div>
    
        <img class=""stim"" src=./stimuli//pack_easy/cat_1/ex_1_34.png></img>
    ","null","stimulus","","","",""
"","","","","","html-keyboard-response","255","224968","0.0-3.0-2.50","","","","null","
        <div style=""text-align: center; position: fixed; top: 5vh; left: 40vw;"">
            <div style=""margin:0 auto; width: 20vw; top: 8vh; font-size: 1vw""> 
                Current score : <font color=""green""> 350 points </font>
            </div>
        </div>
    ","null","","","","",""
"","","","","","html-keyboard-response","256","225075","0.0-3.0-3.50","","","","104","./stimuli//pack_easy/cat_1/ex_1_34.png","arrowleft","response","ArrowLeft","34","1","true"
"","","","","","html-keyboard-response","257","226590","0.0-3.0-4.50","","","","null","<p> <font color=""green"" size=""4vw""> Correct category! </font> <br> <br> <font color=""green"" size=""7vw""> +10 points </font> </p>","null","feedback","","","",""
"","","","","","html-keyboard-response","258","226948","0.0-3.0-0.51","","","","null","
            
        <div style=""text-align: center; position: fixed; top: 5vh; left: 40vw;"">
            <div style=""margin:0 auto; width: 20vw; top: 8vh; font-size: 1vw""> 
                Current score : <font color=""green""> 360 points </font>
            </div>
        </div>
    
            <div style=""font-size:60px;"">+</div>
        ","null","ITI","","","",""
"","","","","","html-keyboard-response","259","227959","0.0-3.0-1.51","","","","null","
        
        <div style=""text-align: center; position: fixed; top: 5vh; left: 40vw;"">
            <div style=""margin:0 auto; width: 20vw; top: 8vh; font-size: 1vw""> 
                Current score : <font color=""green""> 360 points </font>
            </div>
        </div>
    
        <img class=""stim"" src=./stimuli//pack_easy/cat_1/ex_1_69.png></img>
    ","null","stimulus","","","",""
"","","","","","html-keyboard-response","260","228974","0.0-3.0-2.51","","","","null","
        <div style=""text-align: center; position: fixed; top: 5vh; left: 40vw;"">
            <div style=""margin:0 auto; width: 20vw; top: 8vh; font-size: 1vw""> 
                Current score : <font color=""green""> 360 points </font>
            </div>
        </div>
    ","null","","","","",""
"","","","","","html-keyboard-response","261","229005","0.0-3.0-3.51","","","","30","./stimuli//pack_easy/cat_1/ex_1_69.png","arrowleft","response","ArrowLeft","69","1","true"
"","","","","","html-keyboard-response","262","230519","0.0-3.0-4.51","","","","null","<p> <font color=""green"" size=""4vw""> Correct category! </font> <br> <br> <font color=""green"" size=""7vw""> +10 points </font> </p>","null","feedback","","","",""
"","","","","","html-keyboard-response","263","230878","0.0-3.0-0.52","","","","null","
            
        <div style=""text-align: center; position: fixed; top: 5vh; left: 40vw;"">
            <div style=""margin:0 auto; width: 20vw; top: 8vh; font-size: 1vw""> 
                Current score : <font color=""green""> 370 points </font>
            </div>
        </div>
    
            <div style=""font-size:60px;"">+</div>
        ","null","ITI","","","",""
"","","","","","html-keyboard-response","264","231891","0.0-3.0-1.52","","","","null","
        
        <div style=""text-align: center; position: fixed; top: 5vh; left: 40vw;"">
            <div style=""margin:0 auto; width: 20vw; top: 8vh; font-size: 1vw""> 
                Current score : <font color=""green""> 370 points </font>
            </div>
        </div>
    
        <img class=""stim"" src=./stimuli//pack_easy/cat_2/ex_2_4.png></img>
    ","null","stimulus","","","",""
"","","","","","html-keyboard-response","265","232905","0.0-3.0-2.52","","","","null","
        <div style=""text-align: center; position: fixed; top: 5vh; left: 40vw;"">
            <div style=""margin:0 auto; width: 20vw; top: 8vh; font-size: 1vw""> 
                Current score : <font color=""green""> 370 points </font>
            </div>
        </div>
    ","null","","","","",""
"","","","","","html-keyboard-response","266","232985","0.0-3.0-3.52","","","","80","./stimuli//pack_easy/cat_2/ex_2_4.png","arrowright","response","ArrowRight","4","2","true"
"","","","","","html-keyboard-response","267","234491","0.0-3.0-4.52","","","","null","<p> <font color=""green"" size=""4vw""> Correct category! </font> <br> <br> <font color=""green"" size=""7vw""> +10 points </font> </p>","null","feedback","","","",""
"","","","","","html-keyboard-response","268","234848","0.0-3.0-0.53","","","","null","
            
        <div style=""text-align: center; position: fixed; top: 5vh; left: 40vw;"">
            <div style=""margin:0 auto; width: 20vw; top: 8vh; font-size: 1vw""> 
                Current score : <font color=""green""> 380 points </font>
            </div>
        </div>
    
            <div style=""font-size:60px;"">+</div>
        ","null","ITI","","","",""
"","","","","","html-keyboard-response","269","235856","0.0-3.0-1.53","","","","null","
        
        <div style=""text-align: center; position: fixed; top: 5vh; left: 40vw;"">
            <div style=""margin:0 auto; width: 20vw; top: 8vh; font-size: 1vw""> 
                Current score : <font color=""green""> 380 points </font>
            </div>
        </div>
    
        <img class=""stim"" src=./stimuli//pack_easy/cat_1/ex_1_92.png></img>
    ","null","stimulus","","","",""
"","","","","","html-keyboard-response","270","236951","0.0-3.0-2.53","","","","null","
        <div style=""text-align: center; position: fixed; top: 5vh; left: 40vw;"">
            <div style=""margin:0 auto; width: 20vw; top: 8vh; font-size: 1vw""> 
                Current score : <font color=""green""> 380 points </font>
            </div>
        </div>
    ","null","","","","",""
"","","","","","html-keyboard-response","271","236976","0.0-3.0-3.53","","","","25","./stimuli//pack_easy/cat_1/ex_1_92.png","arrowright","response","ArrowLeft","92","1","false"
"","","","","","html-keyboard-response","272","238478","0.0-3.0-4.53","","","","null","<p> <font color=""red"" size=""4vw""> Wrong category! </font> </p>","null","feedback","","","",""
"","","","","","html-keyboard-response","273","238834","0.0-3.0-0.54","","","","null","
            
        <div style=""text-align: center; position: fixed; top: 5vh; left: 40vw;"">
            <div style=""margin:0 auto; width: 20vw; top: 8vh; font-size: 1vw""> 
                Current score : <font color=""green""> 380 points </font>
            </div>
        </div>
    
            <div style=""font-size:60px;"">+</div>
        ","null","ITI","","","",""
"","","","","","html-keyboard-response","274","239847","0.0-3.0-1.54","","","","null","
        
        <div style=""text-align: center; position: fixed; top: 5vh; left: 40vw;"">
            <div style=""margin:0 auto; width: 20vw; top: 8vh; font-size: 1vw""> 
                Current score : <font color=""green""> 380 points </font>
            </div>
        </div>
    
        <img class=""stim"" src=./stimuli//pack_easy/cat_1/ex_1_2.png></img>
    ","null","stimulus","","","",""
"","","","","","html-keyboard-response","275","240889","0.0-3.0-2.54","","","","null","
        <div style=""text-align: center; position: fixed; top: 5vh; left: 40vw;"">
            <div style=""margin:0 auto; width: 20vw; top: 8vh; font-size: 1vw""> 
                Current score : <font color=""green""> 380 points </font>
            </div>
        </div>
    ","null","","","","",""
"","","","","","html-keyboard-response","276","240986","0.0-3.0-3.54","","","","95","./stimuli//pack_easy/cat_1/ex_1_2.png","arrowleft","response","ArrowLeft","2","1","true"
"","","","","","html-keyboard-response","277","242490","0.0-3.0-4.54","","","","null","<p> <font color=""green"" size=""4vw""> Correct category! </font> <br> <br> <font color=""green"" size=""7vw""> +10 points </font> </p>","null","feedback","","","",""
"","","","","","html-keyboard-response","278","242849","0.0-3.0-0.55","","","","null","
            
        <div style=""text-align: center; position: fixed; top: 5vh; left: 40vw;"">
            <div style=""margin:0 auto; width: 20vw; top: 8vh; font-size: 1vw""> 
                Current score : <font color=""green""> 390 points </font>
            </div>
        </div>
    
            <div style=""font-size:60px;"">+</div>
        ","null","ITI","","","",""
"","","","","","html-keyboard-response","279","243861","0.0-3.0-1.55","","","","null","
        
        <div style=""text-align: center; position: fixed; top: 5vh; left: 40vw;"">
            <div style=""margin:0 auto; width: 20vw; top: 8vh; font-size: 1vw""> 
                Current score : <font color=""green""> 390 points </font>
            </div>
        </div>
    
        <img class=""stim"" src=./stimuli//pack_easy/cat_2/ex_2_78.png></img>
    ","null","stimulus","","","",""
"","","","","","html-keyboard-response","280","244876","0.0-3.0-2.55","","","","null","
        <div style=""text-align: center; position: fixed; top: 5vh; left: 40vw;"">
            <div style=""margin:0 auto; width: 20vw; top: 8vh; font-size: 1vw""> 
                Current score : <font color=""green""> 390 points </font>
            </div>
        </div>
    ","null","","","","",""
"","","","","","html-keyboard-response","281","244918","0.0-3.0-3.55","","","","42","./stimuli//pack_easy/cat_2/ex_2_78.png","arrowright","response","ArrowRight","78","2","true"
"","","","","","html-keyboard-response","282","246432","0.0-3.0-4.55","","","","null","<p> <font color=""green"" size=""4vw""> Correct category! </font> <br> <br> <font color=""green"" size=""7vw""> +10 points </font> </p>","null","feedback","","","",""
"","","","","","html-keyboard-response","283","246792","0.0-3.0-0.56","","","","null","
            
        <div style=""text-align: center; position: fixed; top: 5vh; left: 40vw;"">
            <div style=""margin:0 auto; width: 20vw; top: 8vh; font-size: 1vw""> 
                Current score : <font color=""green""> 400 points </font>
            </div>
        </div>
    
            <div style=""font-size:60px;"">+</div>
        ","null","ITI","","","",""
"","","","","","html-keyboard-response","284","247803","0.0-3.0-1.56","","","","null","
        
