"success","timeout","failed_images","failed_audio","failed_video","trial_type","trial_index","time_elapsed","internal_node_id","subject_id","study_id","session_id","rt","stimulus","response","task","correct_response","exemplar_ID","category","correct"
"true","false","[]","[]","[]","preload","0","3","0.0-0.0","","","","","","","","","","",""
"","","","","","html-keyboard-response","1","4595","0.0-1.0","","","","4591","Welcome to the Category Learning experiment! Press any key to continue."," ","welcome","","","",""
"","","","","","html-keyboard-response","2","33895","0.0-2.0","","","","29298","<p>You will be shown images and each image will contain a set of black dots. Each image will belong to one of two categories: category A or category B.
            <br>You will not know in advance which category the given collection of dots belongs to.</p>
            <p>After you see an image you will be asked to categorize it into <b>category A (by pressing the left arrow key)</b> or <b>category B (by pressing the right arrow key)</b>
            as quickly as possible.</p>
            <p>After you make a choice you will receive feedback telling you whether you matched the image to the correct category or not.</p>
            <p>Your goal is to categorize as many sets of dots correctly as possible.</p>
            <p>Press any key to begin.</p>"," ","introduction","","","",""
"","","","","","html-keyboard-response","3","34249","0.0-3.0-0.0","","","","null","
            
        <div style=""text-align: center; position: fixed; top: 5vh; left: 40vw;"">
            <div style=""margin:0 auto; width: 20vw; top: 8vh; font-size: 1vw""> 
                Current score : <font color=""green""> 0 points </font>
            </div>
        </div>
    
            <div style=""font-size:60px;"">+</div>
        ","null","ITI","","","",""
"","","","","","html-keyboard-response","4","35256","0.0-3.0-1.0","","","","null","
        
        <div style=""text-align: center; position: fixed; top: 5vh; left: 40vw;"">
            <div style=""margin:0 auto; width: 20vw; top: 8vh; font-size: 1vw""> 
                Current score : <font color=""green""> 0 points </font>
            </div>
        </div>
    
        <img class=""stim"" src=./stimuli//pack_easy/cat_2/ex_2_42.png></img>
    ","null","stimulus","","","",""
"","","","","","html-keyboard-response","5","36271","0.0-3.0-2.0","","","","null","
        <div style=""text-align: center; position: fixed; top: 5vh; left: 40vw;"">
            <div style=""margin:0 auto; width: 20vw; top: 8vh; font-size: 1vw""> 
                Current score : <font color=""green""> 0 points </font>
            </div>
        </div>
    ","null","","","","",""
"","","","","","html-keyboard-response","6","36496","0.0-3.0-3.0","","","","223","./stimuli//pack_easy/cat_2/ex_2_42.png","arrowright","response","ArrowRight","42","2","true"
"","","","","","html-keyboard-response","7","38004","0.0-3.0-4.0","","","","null","<p> <font color=""green"" size=""4vw""> Correct category! </font> <br> <br> <font color=""green"" size=""7vw""> +10 points </font> </p>","null","feedback","","","",""
"","","","","","html-keyboard-response","8","38364","0.0-3.0-0.1","","","","null","
            
        <div style=""text-align: center; position: fixed; top: 5vh; left: 40vw;"">
            <div style=""margin:0 auto; width: 20vw; top: 8vh; font-size: 1vw""> 
                Current score : <font color=""green""> 10 points </font>
            </div>
        </div>
    
            <div style=""font-size:60px;"">+</div>
        ","null","ITI","","","",""
"","","","","","html-keyboard-response","9","39380","0.0-3.0-1.1","","","","null","
        
        <div style=""text-align: center; position: fixed; top: 5vh; left: 40vw;"">
            <div style=""margin:0 auto; width: 20vw; top: 8vh; font-size: 1vw""> 
                Current score : <font color=""green""> 10 points </font>
            </div>
        </div>
    
        <img class=""stim"" src=./stimuli//pack_easy/cat_2/ex_2_45.png></img>
    ","null","stimulus","","","",""
"","","","","","html-keyboard-response","10","40388","0.0-3.0-2.1","","","","null","
        <div style=""text-align: center; position: fixed; top: 5vh; left: 40vw;"">
            <div style=""margin:0 auto; width: 20vw; top: 8vh; font-size: 1vw""> 
                Current score : <font color=""green""> 10 points </font>
            </div>
        </div>
    ","null","","","","",""
"","","","","","html-keyboard-response","11","40915","0.0-3.0-3.1","","","","525","./stimuli//pack_easy/cat_2/ex_2_45.png","arrowright","response","ArrowRight","45","2","true"
"","","","","","html-keyboard-response","12","42423","0.0-3.0-4.1","","","","null","<p> <font color=""green"" size=""4vw""> Correct category! </font> <br> <br> <font color=""green"" size=""7vw""> +10 points </font> </p>","null","feedback","","","",""
"","","","","","html-keyboard-response","13","42784","0.0-3.0-0.2","","","","null","
            
        <div style=""text-align: center; position: fixed; top: 5vh; left: 40vw;"">
            <div style=""margin:0 auto; width: 20vw; top: 8vh; font-size: 1vw""> 
                Current score : <font color=""green""> 20 points </font>
            </div>
        </div>
    
            <div style=""font-size:60px;"">+</div>
        ","null","ITI","","","",""
"","","","","","html-keyboard-response","14","43798","0.0-3.0-1.2","","","","null","
        
        <div style=""text-align: center; position: fixed; top: 5vh; left: 40vw;"">
            <div style=""margin:0 auto; width: 20vw; top: 8vh; font-size: 1vw""> 
                Current score : <font color=""green""> 20 points </font>
            </div>
        </div>
    
        <img class=""stim"" src=./stimuli//pack_easy/cat_2/ex_2_17.png></img>
    ","null","stimulus","","","",""
"","","","","","html-keyboard-response","15","44801","0.0-3.0-2.2","","","","null","
        <div style=""text-align: center; position: fixed; top: 5vh; left: 40vw;"">
            <div style=""margin:0 auto; width: 20vw; top: 8vh; font-size: 1vw""> 
                Current score : <font color=""green""> 20 points </font>
            </div>
        </div>
    ","null","","","","",""
"","","","","","html-keyboard-response","16","45165","0.0-3.0-3.2","","","","361","./stimuli//pack_easy/cat_2/ex_2_17.png","arrowleft","response","ArrowRight","17","2","false"
"","","","","","html-keyboard-response","17","46676","0.0-3.0-4.2","","","","null","<p> <font color=""red"" size=""4vw""> Wrong category! </font> </p>","null","feedback","","","",""
"","","","","","html-keyboard-response","18","47038","0.0-3.0-0.3","","","","null","
            
        <div style=""text-align: center; position: fixed; top: 5vh; left: 40vw;"">
            <div style=""margin:0 auto; width: 20vw; top: 8vh; font-size: 1vw""> 
                Current score : <font color=""green""> 20 points </font>
            </div>
        </div>
    
            <div style=""font-size:60px;"">+</div>
        ","null","ITI","","","",""
"","","","","","html-keyboard-response","19","48050","0.0-3.0-1.3","","","","null","
        
        <div style=""text-align: center; position: fixed; top: 5vh; left: 40vw;"">
            <div style=""margin:0 auto; width: 20vw; top: 8vh; font-size: 1vw""> 
                Current score : <font color=""green""> 20 points </font>
            </div>
        </div>
    
        <img class=""stim"" src=./stimuli//pack_easy/cat_2/ex_2_1.png></img>
    ","null","stimulus","","","",""
"","","","","","html-keyboard-response","20","49055","0.0-3.0-2.3","","","","null","
        <div style=""text-align: center; position: fixed; top: 5vh; left: 40vw;"">
            <div style=""margin:0 auto; width: 20vw; top: 8vh; font-size: 1vw""> 
                Current score : <font color=""green""> 20 points </font>
            </div>
        </div>
    ","null","","","","",""
"","","","","","html-keyboard-response","21","49474","0.0-3.0-3.3","","","","417","./stimuli//pack_easy/cat_2/ex_2_1.png","arrowright","response","ArrowRight","1","2","true"
"","","","","","html-keyboard-response","22","50990","0.0-3.0-4.3","","","","null","<p> <font color=""green"" size=""4vw""> Correct category! </font> <br> <br> <font color=""green"" size=""7vw""> +10 points </font> </p>","null","feedback","","","",""
"","","","","","html-keyboard-response","23","51349","0.0-3.0-0.4","","","","null","
            
        <div style=""text-align: center; position: fixed; top: 5vh; left: 40vw;"">
            <div style=""margin:0 auto; width: 20vw; top: 8vh; font-size: 1vw""> 
                Current score : <font color=""green""> 30 points </font>
            </div>
        </div>
    
            <div style=""font-size:60px;"">+</div>
        ","null","ITI","","","",""
"","","","","","html-keyboard-response","24","52357","0.0-3.0-1.4","","","","null","
        
        <div style=""text-align: center; position: fixed; top: 5vh; left: 40vw;"">
            <div style=""margin:0 auto; width: 20vw; top: 8vh; font-size: 1vw""> 
                Current score : <font color=""green""> 30 points </font>
            </div>
        </div>
    
        <img class=""stim"" src=./stimuli//pack_easy/cat_2/ex_2_38.png></img>
    ","null","stimulus","","","",""
"","","","","","html-keyboard-response","25","53363","0.0-3.0-2.4","","","","null","
        <div style=""text-align: center; position: fixed; top: 5vh; left: 40vw;"">
            <div style=""margin:0 auto; width: 20vw; top: 8vh; font-size: 1vw""> 
                Current score : <font color=""green""> 30 points </font>
            </div>
        </div>
    ","null","","","","",""
"","","","","","html-keyboard-response","26","53753","0.0-3.0-3.4","","","","388","./stimuli//pack_easy/cat_2/ex_2_38.png","arrowleft","response","ArrowRight","38","2","false"
"","","","","","html-keyboard-response","27","55257","0.0-3.0-4.4","","","","null","<p> <font color=""red"" size=""4vw""> Wrong category! </font> </p>","null","feedback","","","",""
"","","","","","html-keyboard-response","28","55613","0.0-3.0-0.5","","","","null","
            
        <div style=""text-align: center; position: fixed; top: 5vh; left: 40vw;"">
            <div style=""margin:0 auto; width: 20vw; top: 8vh; font-size: 1vw""> 
                Current score : <font color=""green""> 30 points </font>
            </div>
        </div>
    
            <div style=""font-size:60px;"">+</div>
        ","null","ITI","","","",""
"","","","","","html-keyboard-response","29","56631","0.0-3.0-1.5","","","","null","
        
        <div style=""text-align: center; position: fixed; top: 5vh; left: 40vw;"">
            <div style=""margin:0 auto; width: 20vw; top: 8vh; font-size: 1vw""> 
                Current score : <font color=""green""> 30 points </font>
            </div>
        </div>
    
        <img class=""stim"" src=./stimuli//pack_easy/cat_1/ex_1_99.png></img>
    ","null","stimulus","","","",""
"","","","","","html-keyboard-response","30","57638","0.0-3.0-2.5","","","","null","
        <div style=""text-align: center; position: fixed; top: 5vh; left: 40vw;"">
            <div style=""margin:0 auto; width: 20vw; top: 8vh; font-size: 1vw""> 
                Current score : <font color=""green""> 30 points </font>
            </div>
        </div>
    ","null","","","","",""
"","","","","","html-keyboard-response","31","58199","0.0-3.0-3.5","","","","559","./stimuli//pack_easy/cat_1/ex_1_99.png","arrowright","response","ArrowLeft","99","1","false"
"","","","","","html-keyboard-response","32","59706","0.0-3.0-4.5","","","","null","<p> <font color=""red"" size=""4vw""> Wrong category! </font> </p>","null","feedback","","","",""
"","","","","","html-keyboard-response","33","60065","0.0-3.0-0.6","","","","null","
            
        <div style=""text-align: center; position: fixed; top: 5vh; left: 40vw;"">
            <div style=""margin:0 auto; width: 20vw; top: 8vh; font-size: 1vw""> 
                Current score : <font color=""green""> 30 points </font>
            </div>
        </div>
    
            <div style=""font-size:60px;"">+</div>
        ","null","ITI","","","",""
"","","","","","html-keyboard-response","34","61071","0.0-3.0-1.6","","","","null","
        
        <div style=""text-align: center; position: fixed; top: 5vh; left: 40vw;"">
            <div style=""margin:0 auto; width: 20vw; top: 8vh; font-size: 1vw""> 
                Current score : <font color=""green""> 30 points </font>
            </div>
        </div>
    
        <img class=""stim"" src=./stimuli//pack_easy/cat_1/ex_1_8.png></img>
    ","null","stimulus","","","",""
"","","","","","html-keyboard-response","35","62076","0.0-3.0-2.6","","","","null","
        <div style=""text-align: center; position: fixed; top: 5vh; left: 40vw;"">
            <div style=""margin:0 auto; width: 20vw; top: 8vh; font-size: 1vw""> 
                Current score : <font color=""green""> 30 points </font>
            </div>
        </div>
    ","null","","","","",""
"","","","","","html-keyboard-response","36","62546","0.0-3.0-3.6","","","","468","./stimuli//pack_easy/cat_1/ex_1_8.png","arrowright","response","ArrowLeft","8","1","false"
"","","","","","html-keyboard-response","37","64057","0.0-3.0-4.6","","","","null","<p> <font color=""red"" size=""4vw""> Wrong category! </font> </p>","null","feedback","","","",""
"","","","","","html-keyboard-response","38","64416","0.0-3.0-0.7","","","","null","
            
        <div style=""text-align: center; position: fixed; top: 5vh; left: 40vw;"">
            <div style=""margin:0 auto; width: 20vw; top: 8vh; font-size: 1vw""> 
                Current score : <font color=""green""> 30 points </font>
            </div>
        </div>
    
            <div style=""font-size:60px;"">+</div>
        ","null","ITI","","","",""
"","","","","","html-keyboard-response","39","65422","0.0-3.0-1.7","","","","null","
        
        <div style=""text-align: center; position: fixed; top: 5vh; left: 40vw;"">
            <div style=""margin:0 auto; width: 20vw; top: 8vh; font-size: 1vw""> 
                Current score : <font color=""green""> 30 points </font>
            </div>
        </div>
    
        <img class=""stim"" src=./stimuli//pack_easy/cat_2/ex_2_25.png></img>
    ","null","stimulus","","","",""
"","","","","","html-keyboard-response","40","66428","0.0-3.0-2.7","","","","null","
        <div style=""text-align: center; position: fixed; top: 5vh; left: 40vw;"">
            <div style=""margin:0 auto; width: 20vw; top: 8vh; font-size: 1vw""> 
                Current score : <font color=""green""> 30 points </font>
            </div>
        </div>
    ","null","","","","",""
"","","","","","html-keyboard-response","41","66794","0.0-3.0-3.7","","","","364","./stimuli//pack_easy/cat_2/ex_2_25.png","arrowright","response","ArrowRight","25","2","true"
"","","","","","html-keyboard-response","42","68301","0.0-3.0-4.7","","","","null","<p> <font color=""green"" size=""4vw""> Correct category! </font> <br> <br> <font color=""green"" size=""7vw""> +10 points </font> </p>","null","feedback","","","",""
"","","","","","html-keyboard-response","43","68664","0.0-3.0-0.8","","","","null","
            
        <div style=""text-align: center; position: fixed; top: 5vh; left: 40vw;"">
            <div style=""margin:0 auto; width: 20vw; top: 8vh; font-size: 1vw""> 
                Current score : <font color=""green""> 40 points </font>
            </div>
        </div>
    
            <div style=""font-size:60px;"">+</div>
        ","null","ITI","","","",""
"","","","","","html-keyboard-response","44","69668","0.0-3.0-1.8","","","","null","
        
        <div style=""text-align: center; position: fixed; top: 5vh; left: 40vw;"">
            <div style=""margin:0 auto; width: 20vw; top: 8vh; font-size: 1vw""> 
                Current score : <font color=""green""> 40 points </font>
            </div>
        </div>
    
        <img class=""stim"" src=./stimuli//pack_easy/cat_2/ex_2_50.png></img>
    ","null","stimulus","","","",""
"","","","","","html-keyboard-response","45","70671","0.0-3.0-2.8","","","","null","
        <div style=""text-align: center; position: fixed; top: 5vh; left: 40vw;"">
            <div style=""margin:0 auto; width: 20vw; top: 8vh; font-size: 1vw""> 
                Current score : <font color=""green""> 40 points </font>
            </div>
        </div>
    ","null","","","","",""
"","","","","","html-keyboard-response","46","71026","0.0-3.0-3.8","","","","353","./stimuli//pack_easy/cat_2/ex_2_50.png","arrowright","response","ArrowRight","50","2","true"
"","","","","","html-keyboard-response","47","72539","0.0-3.0-4.8","","","","null","<p> <font color=""green"" size=""4vw""> Correct category! </font> <br> <br> <font color=""green"" size=""7vw""> +10 points </font> </p>","null","feedback","","","",""
"","","","","","html-keyboard-response","48","72900","0.0-3.0-0.9","","","","null","
            
        <div style=""text-align: center; position: fixed; top: 5vh; left: 40vw;"">
            <div style=""margin:0 auto; width: 20vw; top: 8vh; font-size: 1vw""> 
                Current score : <font color=""green""> 50 points </font>
            </div>
        </div>
    
            <div style=""font-size:60px;"">+</div>
        ","null","ITI","","","",""
"","","","","","html-keyboard-response","49","73906","0.0-3.0-1.9","","","","null","
        
        <div style=""text-align: center; position: fixed; top: 5vh; left: 40vw;"">
            <div style=""margin:0 auto; width: 20vw; top: 8vh; font-size: 1vw""> 
                Current score : <font color=""green""> 50 points </font>
            </div>
        </div>
    
        <img class=""stim"" src=./stimuli//pack_easy/cat_1/ex_1_96.png></img>
    ","null","stimulus","","","",""
"","","","","","html-keyboard-response","50","74913","0.0-3.0-2.9","","","","null","
        <div style=""text-align: center; position: fixed; top: 5vh; left: 40vw;"">
            <div style=""margin:0 auto; width: 20vw; top: 8vh; font-size: 1vw""> 
                Current score : <font color=""green""> 50 points </font>
            </div>
        </div>
    ","null","","","","",""
"","","","","","html-keyboard-response","51","75295","0.0-3.0-3.9","","","","380","./stimuli//pack_easy/cat_1/ex_1_96.png","arrowleft","response","ArrowLeft","96","1","true"
"","","","","","html-keyboard-response","52","76808","0.0-3.0-4.9","","","","null","<p> <font color=""green"" size=""4vw""> Correct category! </font> <br> <br> <font color=""green"" size=""7vw""> +10 points </font> </p>","null","feedback","","","",""
"","","","","","html-keyboard-response","53","77166","0.0-3.0-0.10","","","","null","
            
        <div style=""text-align: center; position: fixed; top: 5vh; left: 40vw;"">
            <div style=""margin:0 auto; width: 20vw; top: 8vh; font-size: 1vw""> 
                Current score : <font color=""green""> 60 points </font>
            </div>
        </div>
    
            <div style=""font-size:60px;"">+</div>
        ","null","ITI","","","",""
"","","","","","html-keyboard-response","54","78169","0.0-3.0-1.10","","","","null","
        
        <div style=""text-align: center; position: fixed; top: 5vh; left: 40vw;"">
            <div style=""margin:0 auto; width: 20vw; top: 8vh; font-size: 1vw""> 
                Current score : <font color=""green""> 60 points </font>
            </div>
        </div>
    
        <img class=""stim"" src=./stimuli//pack_easy/cat_1/ex_1_21.png></img>
    ","null","stimulus","","","",""
"","","","","","html-keyboard-response","55","79175","0.0-3.0-2.10","","","","null","
        <div style=""text-align: center; position: fixed; top: 5vh; left: 40vw;"">
            <div style=""margin:0 auto; width: 20vw; top: 8vh; font-size: 1vw""> 
                Current score : <font color=""green""> 60 points </font>
            </div>
        </div>
    ","null","","","","",""
"","","","","","html-keyboard-response","56","79651","0.0-3.0-3.10","","","","475","./stimuli//pack_easy/cat_1/ex_1_21.png","arrowleft","response","ArrowLeft","21","1","true"
"","","","","","html-keyboard-response","57","81160","0.0-3.0-4.10","","","","null","<p> <font color=""green"" size=""4vw""> Correct category! </font> <br> <br> <font color=""green"" size=""7vw""> +10 points </font> </p>","null","feedback","","","",""
"","","","","","html-keyboard-response","58","81523","0.0-3.0-0.11","","","","null","
            
        <div style=""text-align: center; position: fixed; top: 5vh; left: 40vw;"">
            <div style=""margin:0 auto; width: 20vw; top: 8vh; font-size: 1vw""> 
                Current score : <font color=""green""> 70 points </font>
            </div>
        </div>
    
            <div style=""font-size:60px;"">+</div>
        ","null","ITI","","","",""
"","","","","","html-keyboard-response","59","82535","0.0-3.0-1.11","","","","null","
        
        <div style=""text-align: center; position: fixed; top: 5vh; left: 40vw;"">
            <div style=""margin:0 auto; width: 20vw; top: 8vh; font-size: 1vw""> 
                Current score : <font color=""green""> 70 points </font>
            </div>
        </div>
    
        <img class=""stim"" src=./stimuli//pack_easy/cat_1/ex_1_84.png></img>
    ","null","stimulus","","","",""
"","","","","","html-keyboard-response","60","83539","0.0-3.0-2.11","","","","null","
        <div style=""text-align: center; position: fixed; top: 5vh; left: 40vw;"">
            <div style=""margin:0 auto; width: 20vw; top: 8vh; font-size: 1vw""> 
                Current score : <font color=""green""> 70 points </font>
            </div>
        </div>
    ","null","","","","",""
"","","","","","html-keyboard-response","61","83955","0.0-3.0-3.11","","","","414","./stimuli//pack_easy/cat_1/ex_1_84.png","arrowleft","response","ArrowLeft","84","1","true"
"","","","","","html-keyboard-response","62","85458","0.0-3.0-4.11","","","","null","<p> <font color=""green"" size=""4vw""> Correct category! </font> <br> <br> <font color=""green"" size=""7vw""> +10 points </font> </p>","null","feedback","","","",""
"","","","","","html-keyboard-response","63","85821","0.0-3.0-0.12","","","","null","
            
        <div style=""text-align: center; position: fixed; top: 5vh; left: 40vw;"">
            <div style=""margin:0 auto; width: 20vw; top: 8vh; font-size: 1vw""> 
                Current score : <font color=""green""> 80 points </font>
            </div>
        </div>
    
            <div style=""font-size:60px;"">+</div>
        ","null","ITI","","","",""
"","","","","","html-keyboard-response","64","86823","0.0-3.0-1.12","","","","null","
        
        <div style=""text-align: center; position: fixed; top: 5vh; left: 40vw;"">
            <div style=""margin:0 auto; width: 20vw; top: 8vh; font-size: 1vw""> 
                Current score : <font color=""green""> 80 points </font>
            </div>
        </div>
    
        <img class=""stim"" src=./stimuli//pack_easy/cat_2/ex_2_93.png></img>
    ","null","stimulus","","","",""
"","","","","","html-keyboard-response","65","87831","0.0-3.0-2.12","","","","null","
        <div style=""text-align: center; position: fixed; top: 5vh; left: 40vw;"">
            <div style=""margin:0 auto; width: 20vw; top: 8vh; font-size: 1vw""> 
                Current score : <font color=""green""> 80 points </font>
            </div>
        </div>
    ","null","","","","",""
"","","","","","html-keyboard-response","66","88241","0.0-3.0-3.12","","","","408","./stimuli//pack_easy/cat_2/ex_2_93.png","arrowright","response","ArrowRight","93","2","true"
"","","","","","html-keyboard-response","67","89753","0.0-3.0-4.12","","","","null","<p> <font color=""green"" size=""4vw""> Correct category! </font> <br> <br> <font color=""green"" size=""7vw""> +10 points </font> </p>","null","feedback","","","",""
"","","","","","html-keyboard-response","68","90115","0.0-3.0-0.13","","","","null","
            
        <div style=""text-align: center; position: fixed; top: 5vh; left: 40vw;"">
            <div style=""margin:0 auto; width: 20vw; top: 8vh; font-size: 1vw""> 
                Current score : <font color=""green""> 90 points </font>
            </div>
        </div>
    
            <div style=""font-size:60px;"">+</div>
        ","null","ITI","","","",""
"","","","","","html-keyboard-response","69","91124","0.0-3.0-1.13","","","","null","
        
        <div style=""text-align: center; position: fixed; top: 5vh; left: 40vw;"">
            <div style=""margin:0 auto; width: 20vw; top: 8vh; font-size: 1vw""> 
                Current score : <font color=""green""> 90 points </font>
            </div>
        </div>
    
        <img class=""stim"" src=./stimuli//pack_easy/cat_1/ex_1_14.png></img>
    ","null","stimulus","","","",""
"","","","","","html-keyboard-response","70","92133","0.0-3.0-2.13","","","","null","
        <div style=""text-align: center; position: fixed; top: 5vh; left: 40vw;"">
            <div style=""margin:0 auto; width: 20vw; top: 8vh; font-size: 1vw""> 
                Current score : <font color=""green""> 90 points </font>
            </div>
        </div>
    ","null","","","","",""
"","","","","","html-keyboard-response","71","92420","0.0-3.0-3.13","","","","286","./stimuli//pack_easy/cat_1/ex_1_14.png","arrowleft","response","ArrowLeft","14","1","true"
"","","","","","html-keyboard-response","72","93929","0.0-3.0-4.13","","","","null","<p> <font color=""green"" size=""4vw""> Correct category! </font> <br> <br> <font color=""green"" size=""7vw""> +10 points </font> </p>","null","feedback","","","",""
"","","","","","html-keyboard-response","73","94291","0.0-3.0-0.14","","","","null","
            
        <div style=""text-align: center; position: fixed; top: 5vh; left: 40vw;"">
            <div style=""margin:0 auto; width: 20vw; top: 8vh; font-size: 1vw""> 
                Current score : <font color=""green""> 100 points </font>
            </div>
        </div>
    
            <div style=""font-size:60px;"">+</div>
        ","null","ITI","","","",""
"","","","","","html-keyboard-response","74","95297","0.0-3.0-1.14","","","","null","
        
        <div style=""text-align: center; position: fixed; top: 5vh; left: 40vw;"">
            <div style=""margin:0 auto; width: 20vw; top: 8vh; font-size: 1vw""> 
                Current score : <font color=""green""> 100 points </font>
            </div>
        </div>
    
        <img class=""stim"" src=./stimuli//pack_easy/cat_1/ex_1_46.png></img>
    ","null","stimulus","","","",""
"","","","","","html-keyboard-response","75","96305","0.0-3.0-2.14","","","","null","
        <div style=""text-align: center; position: fixed; top: 5vh; left: 40vw;"">
            <div style=""margin:0 auto; width: 20vw; top: 8vh; font-size: 1vw""> 
                Current score : <font color=""green""> 100 points </font>
            </div>
        </div>
    ","null","","","","",""
"","","","","","html-keyboard-response","76","96463","0.0-3.0-3.14","","","","157","./stimuli//pack_easy/cat_1/ex_1_46.png","arrowright","response","ArrowLeft","46","1","false"
"","","","","","html-keyboard-response","77","97972","0.0-3.0-4.14","","","","null","<p> <font color=""red"" size=""4vw""> Wrong category! </font> </p>","null","feedback","","","",""
"","","","","","html-keyboard-response","78","98332","0.0-3.0-0.15","","","","null","
            
        <div style=""text-align: center; position: fixed; top: 5vh; left: 40vw;"">
            <div style=""margin:0 auto; width: 20vw; top: 8vh; font-size: 1vw""> 
                Current score : <font color=""green""> 100 points </font>
            </div>
        </div>
    
            <div style=""font-size:60px;"">+</div>
        ","null","ITI","","","",""
"","","","","","html-keyboard-response","79","99345","0.0-3.0-1.15","","","","null","
        
        <div style=""text-align: center; position: fixed; top: 5vh; left: 40vw;"">
            <div style=""margin:0 auto; width: 20vw; top: 8vh; font-size: 1vw""> 
                Current score : <font color=""green""> 100 points </font>
            </div>
        </div>
    
        <img class=""stim"" src=./stimuli//pack_easy/cat_1/ex_1_28.png></img>
    ","null","stimulus","","","",""
"","","","","","html-keyboard-response","80","100350","0.0-3.0-2.15","","","","null","
        <div style=""text-align: center; position: fixed; top: 5vh; left: 40vw;"">
            <div style=""margin:0 auto; width: 20vw; top: 8vh; font-size: 1vw""> 
                Current score : <font color=""green""> 100 points </font>
            </div>
        </div>
    ","null","","","","",""
"","","","","","html-keyboard-response","81","100819","0.0-3.0-3.15","","","","467","./stimuli//pack_easy/cat_1/ex_1_28.png","arrowright","response","ArrowLeft","28","1","false"
"","","","","","html-keyboard-response","82","102326","0.0-3.0-4.15","","","","null","<p> <font color=""red"" size=""4vw""> Wrong category! </font> </p>","null","feedback","","","",""
"","","","","","html-keyboard-response","83","102687","0.0-3.0-0.16","","","","null","
            
        <div style=""text-align: center; position: fixed; top: 5vh; left: 40vw;"">
            <div style=""margin:0 auto; width: 20vw; top: 8vh; font-size: 1vw""> 
                Current score : <font color=""green""> 100 points </font>
            </div>
        </div>
    
            <div style=""font-size:60px;"">+</div>
        ","null","ITI","","","",""
"","","","","","html-keyboard-response","84","103692","0.0-3.0-1.16","","","","null","
        
        <div style=""text-align: center; position: fixed; top: 5vh; left: 40vw;"">
            <div style=""margin:0 auto; width: 20vw; top: 8vh; font-size: 1vw""> 
                Current score : <font color=""green""> 100 points </font>
            </div>
        </div>
    
        <img class=""stim"" src=./stimuli//pack_easy/cat_1/ex_1_63.png></img>
    ","null","stimulus","","","",""
"","","","","","html-keyboard-response","85","104696","0.0-3.0-2.16","","","","null","
        <div style=""text-align: center; position: fixed; top: 5vh; left: 40vw;"">
            <div style=""margin:0 auto; width: 20vw; top: 8vh; font-size: 1vw""> 
                Current score : <font color=""green""> 100 points </font>
            </div>
        </div>
    ","null","","","","",""
"","","","","","html-keyboard-response","86","105085","0.0-3.0-3.16","","","","387","./stimuli//pack_easy/cat_1/ex_1_63.png","arrowleft","response","ArrowLeft","63","1","true"
"","","","","","html-keyboard-response","87","106593","0.0-3.0-4.16","","","","null","<p> <font color=""green"" size=""4vw""> Correct category! </font> <br> <br> <font color=""green"" size=""7vw""> +10 points </font> </p>","null","feedback","","","",""
"","","","","","html-keyboard-response","88","106954","0.0-3.0-0.17","","","","null","
            
        <div style=""text-align: center; position: fixed; top: 5vh; left: 40vw;"">
            <div style=""margin:0 auto; width: 20vw; top: 8vh; font-size: 1vw""> 
                Current score : <font color=""green""> 110 points </font>
            </div>
        </div>
    
            <div style=""font-size:60px;"">+</div>
        ","null","ITI","","","",""
"","","","","","html-keyboard-response","89","107961","0.0-3.0-1.17","","","","null","
        
        <div style=""text-align: center; position: fixed; top: 5vh; left: 40vw;"">
            <div style=""margin:0 auto; width: 20vw; top: 8vh; font-size: 1vw""> 
                Current score : <font color=""green""> 110 points </font>
            </div>
        </div>
    
        <img class=""stim"" src=./stimuli//pack_easy/cat_2/ex_2_96.png></img>
    ","null","stimulus","","","",""
"","","","","","html-keyboard-response","90","108970","0.0-3.0-2.17","","","","null","
        <div style=""text-align: center; position: fixed; top: 5vh; left: 40vw;"">
            <div style=""margin:0 auto; width: 20vw; top: 8vh; font-size: 1vw""> 
                Current score : <font color=""green""> 110 points </font>
            </div>
        </div>
    ","null","","","","",""
"","","","","","html-keyboard-response","91","109381","0.0-3.0-3.17","","","","410","./stimuli//pack_easy/cat_2/ex_2_96.png","arrowright","response","ArrowRight","96","2","true"
"","","","","","html-keyboard-response","92","110883","0.0-3.0-4.17","","","","null","<p> <font color=""green"" size=""4vw""> Correct category! </font> <br> <br> <font color=""green"" size=""7vw""> +10 points </font> </p>","null","feedback","","","",""
"","","","","","html-keyboard-response","93","111244","0.0-3.0-0.18","","","","null","
            
        <div style=""text-align: center; position: fixed; top: 5vh; left: 40vw;"">
            <div style=""margin:0 auto; width: 20vw; top: 8vh; font-size: 1vw""> 
                Current score : <font color=""green""> 120 points </font>
            </div>
        </div>
    
            <div style=""font-size:60px;"">+</div>
        ","null","ITI","","","",""
"","","","","","html-keyboard-response","94","112247","0.0-3.0-1.18","","","","null","
        
        <div style=""text-align: center; position: fixed; top: 5vh; left: 40vw;"">
            <div style=""margin:0 auto; width: 20vw; top: 8vh; font-size: 1vw""> 
                Current score : <font color=""green""> 120 points </font>
            </div>
        </div>
    
        <img class=""stim"" src=./stimuli//pack_easy/cat_2/ex_2_21.png></img>
    ","null","stimulus","","","",""
"","","","","","html-keyboard-response","95","113262","0.0-3.0-2.18","","","","null","
        <div style=""text-align: center; position: fixed; top: 5vh; left: 40vw;"">
            <div style=""margin:0 auto; width: 20vw; top: 8vh; font-size: 1vw""> 
                Current score : <font color=""green""> 120 points </font>
            </div>
        </div>
    ","null","","","","",""
"","","","","","html-keyboard-response","96","113732","0.0-3.0-3.18","","","","468","./stimuli//pack_easy/cat_2/ex_2_21.png","arrowleft","response","ArrowRight","21","2","false"
"","","","","","html-keyboard-response","97","115244","0.0-3.0-4.18","","","","null","<p> <font color=""red"" size=""4vw""> Wrong category! </font> </p>","null","feedback","","","",""
"","","","","","html-keyboard-response","98","115609","0.0-3.0-0.19","","","","null","
            
        <div style=""text-align: center; position: fixed; top: 5vh; left: 40vw;"">
            <div style=""margin:0 auto; width: 20vw; top: 8vh; font-size: 1vw""> 
                Current score : <font color=""green""> 120 points </font>
            </div>
        </div>
    
            <div style=""font-size:60px;"">+</div>
        ","null","ITI","","","",""
"","","","","","html-keyboard-response","99","116613","0.0-3.0-1.19","","","","null","
        
        <div style=""text-align: center; position: fixed; top: 5vh; left: 40vw;"">
            <div style=""margin:0 auto; width: 20vw; top: 8vh; font-size: 1vw""> 
                Current score : <font color=""green""> 120 points </font>
            </div>
        </div>
    
        <img class=""stim"" src=./stimuli//pack_easy/cat_1/ex_1_44.png></img>
    ","null","stimulus","","","",""
"","","","","","html-keyboard-response","100","117623","0.0-3.0-2.19","","","","null","
        <div style=""text-align: center; position: fixed; top: 5vh; left: 40vw;"">
            <div style=""margin:0 auto; width: 20vw; top: 8vh; font-size: 1vw""> 
                Current score : <font color=""green""> 120 points </font>
            </div>
        </div>
    ","null","","","","",""
"","","","","","html-keyboard-response","101","118040","0.0-3.0-3.19","","","","415","./stimuli//pack_easy/cat_1/ex_1_44.png","arrowright","response","ArrowLeft","44","1","false"
"","","","","","html-keyboard-response","102","119544","0.0-3.0-4.19","","","","null","<p> <font color=""red"" size=""4vw""> Wrong category! </font> </p>","null","feedback","","","",""
"","","","","","html-keyboard-response","103","119908","0.0-3.0-0.20","","","","null","
            
        <div style=""text-align: center; position: fixed; top: 5vh; left: 40vw;"">
            <div style=""margin:0 auto; width: 20vw; top: 8vh; font-size: 1vw""> 
                Current score : <font color=""green""> 120 points </font>
            </div>
        </div>
    
            <div style=""font-size:60px;"">+</div>
        ","null","ITI","","","",""
"","","","","","html-keyboard-response","104","120922","0.0-3.0-1.20","","","","null","
        
        <div style=""text-align: center; position: fixed; top: 5vh; left: 40vw;"">
            <div style=""margin:0 auto; width: 20vw; top: 8vh; font-size: 1vw""> 
                Current score : <font color=""green""> 120 points </font>
            </div>
        </div>
    
        <img class=""stim"" src=./stimuli//pack_easy/cat_1/ex_1_23.png></img>
    ","null","stimulus","","","",""
"","","","","","html-keyboard-response","105","121926","0.0-3.0-2.20","","","","null","
        <div style=""text-align: center; position: fixed; top: 5vh; left: 40vw;"">
            <div style=""margin:0 auto; width: 20vw; top: 8vh; font-size: 1vw""> 
                Current score : <font color=""green""> 120 points </font>
            </div>
        </div>
    ","null","","","","",""
"","","","","","html-keyboard-response","106","122418","0.0-3.0-3.20","","","","491","./stimuli//pack_easy/cat_1/ex_1_23.png","arrowright","response","ArrowLeft","23","1","false"
"","","","","","html-keyboard-response","107","123928","0.0-3.0-4.20","","","","null","<p> <font color=""red"" size=""4vw""> Wrong category! </font> </p>","null","feedback","","","",""
"","","","","","html-keyboard-response","108","124292","0.0-3.0-0.21","","","","null","
            
        <div style=""text-align: center; position: fixed; top: 5vh; left: 40vw;"">
            <div style=""margin:0 auto; width: 20vw; top: 8vh; font-size: 1vw""> 
                Current score : <font color=""green""> 120 points </font>
            </div>
        </div>
    
            <div style=""font-size:60px;"">+</div>
        ","null","ITI","","","",""
"","","","","","html-keyboard-response","109","125302","0.0-3.0-1.21","","","","null","
        
        <div style=""text-align: center; position: fixed; top: 5vh; left: 40vw;"">
            <div style=""margin:0 auto; width: 20vw; top: 8vh; font-size: 1vw""> 
                Current score : <font color=""green""> 120 points </font>
            </div>
        </div>
    
        <img class=""stim"" src=./stimuli//pack_easy/cat_1/ex_1_13.png></img>
    ","null","stimulus","","","",""
"","","","","","html-keyboard-response","110","126306","0.0-3.0-2.21","","","","null","
        <div style=""text-align: center; position: fixed; top: 5vh; left: 40vw;"">
            <div style=""margin:0 auto; width: 20vw; top: 8vh; font-size: 1vw""> 
                Current score : <font color=""green""> 120 points </font>
            </div>
        </div>
    ","null","","","","",""
"","","","","","html-keyboard-response","111","126634","0.0-3.0-3.21","","","","327","./stimuli//pack_easy/cat_1/ex_1_13.png","arrowright","response","ArrowLeft","13","1","false"
"","","","","","html-keyboard-response","112","128139","0.0-3.0-4.21","","","","null","<p> <font color=""red"" size=""4vw""> Wrong category! </font> </p>","null","feedback","","","",""
"","","","","","html-keyboard-response","113","128500","0.0-3.0-0.22","","","","null","
            
        <div style=""text-align: center; position: fixed; top: 5vh; left: 40vw;"">
            <div style=""margin:0 auto; width: 20vw; top: 8vh; font-size: 1vw""> 
                Current score : <font color=""green""> 120 points </font>
            </div>
        </div>
    
            <div style=""font-size:60px;"">+</div>
        ","null","ITI","","","",""
"","","","","","html-keyboard-response","114","129504","0.0-3.0-1.22","","","","null","
        
        <div style=""text-align: center; position: fixed; top: 5vh; left: 40vw;"">
            <div style=""margin:0 auto; width: 20vw; top: 8vh; font-size: 1vw""> 
                Current score : <font color=""green""> 120 points </font>
            </div>
        </div>
    
        <img class=""stim"" src=./stimuli//pack_easy/cat_2/ex_2_91.png></img>
    ","null","stimulus","","","",""
"","","","","","html-keyboard-response","115","130513","0.0-3.0-2.22","","","","null","
        <div style=""text-align: center; position: fixed; top: 5vh; left: 40vw;"">
            <div style=""margin:0 auto; width: 20vw; top: 8vh; font-size: 1vw""> 
                Current score : <font color=""green""> 120 points </font>
            </div>
        </div>
    ","null","","","","",""
"","","","","","html-keyboard-response","116","130910","0.0-3.0-3.22","","","","396","./stimuli//pack_easy/cat_2/ex_2_91.png","arrowright","response","ArrowRight","91","2","true"
"","","","","","html-keyboard-response","117","132421","0.0-3.0-4.22","","","","null","<p> <font color=""green"" size=""4vw""> Correct category! </font> <br> <br> <font color=""green"" size=""7vw""> +10 points </font> </p>","null","feedback","","","",""
"","","","","","html-keyboard-response","118","132782","0.0-3.0-0.23","","","","null","
            
        <div style=""text-align: center; position: fixed; top: 5vh; left: 40vw;"">
            <div style=""margin:0 auto; width: 20vw; top: 8vh; font-size: 1vw""> 
                Current score : <font color=""green""> 130 points </font>
            </div>
        </div>
    
            <div style=""font-size:60px;"">+</div>
        ","null","ITI","","","",""
"","","","","","html-keyboard-response","119","133796","0.0-3.0-1.23","","","","null","
        
        <div style=""text-align: center; position: fixed; top: 5vh; left: 40vw;"">
            <div style=""margin:0 auto; width: 20vw; top: 8vh; font-size: 1vw""> 
                Current score : <font color=""green""> 130 points </font>
            </div>
        </div>
    
        <img class=""stim"" src=./stimuli//pack_easy/cat_1/ex_1_94.png></img>
    ","null","stimulus","","","",""
"","","","","","html-keyboard-response","120","134808","0.0-3.0-2.23","","","","null","
        <div style=""text-align: center; position: fixed; top: 5vh; left: 40vw;"">
            <div style=""margin:0 auto; width: 20vw; top: 8vh; font-size: 1vw""> 
                Current score : <font color=""green""> 130 points </font>
            </div>
        </div>
    ","null","","","","",""
"","","","","","html-keyboard-response","121","135236","0.0-3.0-3.23","","","","426","./stimuli//pack_easy/cat_1/ex_1_94.png","arrowleft","response","ArrowLeft","94","1","true"
"","","","","","html-keyboard-response","122","136744","0.0-3.0-4.23","","","","null","<p> <font color=""green"" size=""4vw""> Correct category! </font> <br> <br> <font color=""green"" size=""7vw""> +10 points </font> </p>","null","feedback","","","",""
"","","","","","html-keyboard-response","123","137103","0.0-3.0-0.24","","","","null","
            
        <div style=""text-align: center; position: fixed; top: 5vh; left: 40vw;"">
            <div style=""margin:0 auto; width: 20vw; top: 8vh; font-size: 1vw""> 
                Current score : <font color=""green""> 140 points </font>
            </div>
        </div>
    
            <div style=""font-size:60px;"">+</div>
        ","null","ITI","","","",""
"","","","","","html-keyboard-response","124","138118","0.0-3.0-1.24","","","","null","
        
        <div style=""text-align: center; position: fixed; top: 5vh; left: 40vw;"">
            <div style=""margin:0 auto; width: 20vw; top: 8vh; font-size: 1vw""> 
                Current score : <font color=""green""> 140 points </font>
            </div>
        </div>
    
        <img class=""stim"" src=./stimuli//pack_easy/cat_1/ex_1_16.png></img>
    ","null","stimulus","","","",""
"","","","","","html-keyboard-response","125","139125","0.0-3.0-2.24","","","","null","
        <div style=""text-align: center; position: fixed; top: 5vh; left: 40vw;"">
            <div style=""margin:0 auto; width: 20vw; top: 8vh; font-size: 1vw""> 
                Current score : <font color=""green""> 140 points </font>
            </div>
        </div>
    ","null","","","","",""
"","","","","","html-keyboard-response","126","139555","0.0-3.0-3.24","","","","428","./stimuli//pack_easy/cat_1/ex_1_16.png","arrowleft","response","ArrowLeft","16","1","true"
"","","","","","html-keyboard-response","127","141067","0.0-3.0-4.24","","","","null","<p> <font color=""green"" size=""4vw""> Correct category! </font> <br> <br> <font color=""green"" size=""7vw""> +10 points </font> </p>","null","feedback","","","",""
"","","","","","html-keyboard-response","128","141431","0.0-3.0-0.25","","","","null","
            
        <div style=""text-align: center; position: fixed; top: 5vh; left: 40vw;"">
            <div style=""margin:0 auto; width: 20vw; top: 8vh; font-size: 1vw""> 
                Current score : <font color=""green""> 150 points </font>
            </div>
        </div>
    
            <div style=""font-size:60px;"">+</div>
        ","null","ITI","","","",""
"","","","","","html-keyboard-response","129","142439","0.0-3.0-1.25","","","","null","
        
        <div style=""text-align: center; position: fixed; top: 5vh; left: 40vw;"">
            <div style=""margin:0 auto; width: 20vw; top: 8vh; font-size: 1vw""> 
                Current score : <font color=""green""> 150 points </font>
            </div>
        </div>
    
        <img class=""stim"" src=./stimuli//pack_easy/cat_1/ex_1_70.png></img>
    ","null","stimulus","","","",""
"","","","","","html-keyboard-response","130","143451","0.0-3.0-2.25","","","","null","
        <div style=""text-align: center; position: fixed; top: 5vh; left: 40vw;"">
            <div style=""margin:0 auto; width: 20vw; top: 8vh; font-size: 1vw""> 
                Current score : <font color=""green""> 150 points </font>
            </div>
        </div>
    ","null","","","","",""
"","","","","","html-keyboard-response","131","143900","0.0-3.0-3.25","","","","447","./stimuli//pack_easy/cat_1/ex_1_70.png","arrowleft","response","ArrowLeft","70","1","true"
"","","","","","html-keyboard-response","132","145403","0.0-3.0-4.25","","","","null","<p> <font color=""green"" size=""4vw""> Correct category! </font> <br> <br> <font color=""green"" size=""7vw""> +10 points </font> </p>","null","feedback","","","",""
"","","","","","html-keyboard-response","133","145764","0.0-3.0-0.26","","","","null","
            
        <div style=""text-align: center; position: fixed; top: 5vh; left: 40vw;"">
            <div style=""margin:0 auto; width: 20vw; top: 8vh; font-size: 1vw""> 
                Current score : <font color=""green""> 160 points </font>
            </div>
        </div>
    
            <div style=""font-size:60px;"">+</div>
        ","null","ITI","","","",""
"","","","","","html-keyboard-response","134","146777","0.0-3.0-1.26","","","","null","
        
        <div style=""text-align: center; position: fixed; top: 5vh; left: 40vw;"">
            <div style=""margin:0 auto; width: 20vw; top: 8vh; font-size: 1vw""> 
                Current score : <font color=""green""> 160 points </font>
            </div>
        </div>
    
        <img class=""stim"" src=./stimuli//pack_easy/cat_2/ex_2_13.png></img>
    ","null","stimulus","","","",""
"","","","","","html-keyboard-response","135","147788","0.0-3.0-2.26","","","","null","
        <div style=""text-align: center; position: fixed; top: 5vh; left: 40vw;"">
            <div style=""margin:0 auto; width: 20vw; top: 8vh; font-size: 1vw""> 
                Current score : <font color=""green""> 160 points </font>
            </div>
        </div>
    ","null","","","","",""
"","","","","","html-keyboard-response","136","148199","0.0-3.0-3.26","","","","409","./stimuli//pack_easy/cat_2/ex_2_13.png","arrowleft","response","ArrowRight","13","2","false"
"","","","","","html-keyboard-response","137","149715","0.0-3.0-4.26","","","","null","<p> <font color=""red"" size=""4vw""> Wrong category! </font> </p>","null","feedback","","","",""
"","","","","","html-keyboard-response","138","150078","0.0-3.0-0.27","","","","null","
            
        <div style=""text-align: center; position: fixed; top: 5vh; left: 40vw;"">
            <div style=""margin:0 auto; width: 20vw; top: 8vh; font-size: 1vw""> 
                Current score : <font color=""green""> 160 points </font>
            </div>
        </div>
    
            <div style=""font-size:60px;"">+</div>
        ","null","ITI","","","",""
"","","","","","html-keyboard-response","139","151089","0.0-3.0-1.27","","","","null","
        
        <div style=""text-align: center; position: fixed; top: 5vh; left: 40vw;"">
            <div style=""margin:0 auto; width: 20vw; top: 8vh; font-size: 1vw""> 
                Current score : <font color=""green""> 160 points </font>
            </div>
        </div>
    
        <img class=""stim"" src=./stimuli//pack_easy/cat_1/ex_1_83.png></img>
    ","null","stimulus","","","",""
"","","","","","html-keyboard-response","140","152092","0.0-3.0-2.27","","","","null","
        <div style=""text-align: center; position: fixed; top: 5vh; left: 40vw;"">
            <div style=""margin:0 auto; width: 20vw; top: 8vh; font-size: 1vw""> 
                Current score : <font color=""green""> 160 points </font>
            </div>
        </div>
    ","null","","","","",""
"","","","","","html-keyboard-response","141","152577","0.0-3.0-3.27","","","","483","./stimuli//pack_easy/cat_1/ex_1_83.png","arrowright","response","ArrowLeft","83","1","false"
"","","","","","html-keyboard-response","142","154091","0.0-3.0-4.27","","","","null","<p> <font color=""red"" size=""4vw""> Wrong category! </font> </p>","null","feedback","","","",""
"","","","","","html-keyboard-response","143","154448","0.0-3.0-0.28","","","","null","
            
        <div style=""text-align: center; position: fixed; top: 5vh; left: 40vw;"">
            <div style=""margin:0 auto; width: 20vw; top: 8vh; font-size: 1vw""> 
                Current score : <font color=""green""> 160 points </font>
            </div>
        </div>
    
            <div style=""font-size:60px;"">+</div>
        ","null","ITI","","","",""
"","","","","","html-keyboard-response","144","155457","0.0-3.0-1.28","","","","null","
        
        <div style=""text-align: center; position: fixed; top: 5vh; left: 40vw;"">
            <div style=""margin:0 auto; width: 20vw; top: 8vh; font-size: 1vw""> 
                Current score : <font color=""green""> 160 points </font>
            </div>
        </div>
    
        <img class=""stim"" src=./stimuli//pack_easy/cat_2/ex_2_27.png></img>
    ","null","stimulus","","","",""
"","","","","","html-keyboard-response","145","156465","0.0-3.0-2.28","","","","null","
        <div style=""text-align: center; position: fixed; top: 5vh; left: 40vw;"">
            <div style=""margin:0 auto; width: 20vw; top: 8vh; font-size: 1vw""> 
                Current score : <font color=""green""> 160 points </font>
            </div>
        </div>
    ","null","","","","",""
"","","","","","html-keyboard-response","146","156946","0.0-3.0-3.28","","","","479","./stimuli//pack_easy/cat_2/ex_2_27.png","arrowright","response","ArrowRight","27","2","true"
"","","","","","html-keyboard-response","147","158455","0.0-3.0-4.28","","","","null","<p> <font color=""green"" size=""4vw""> Correct category! </font> <br> <br> <font color=""green"" size=""7vw""> +10 points </font> </p>","null","feedback","","","",""
"","","","","","html-keyboard-response","148","158814","0.0-3.0-0.29","","","","null","
            
        <div style=""text-align: center; position: fixed; top: 5vh; left: 40vw;"">
            <div style=""margin:0 auto; width: 20vw; top: 8vh; font-size: 1vw""> 
                Current score : <font color=""green""> 170 points </font>
            </div>
        </div>
    
            <div style=""font-size:60px;"">+</div>
        ","null","ITI","","","",""
"","","","","","html-keyboard-response","149","159821","0.0-3.0-1.29","","","","null","
        
        <div style=""text-align: center; position: fixed; top: 5vh; left: 40vw;"">
            <div style=""margin:0 auto; width: 20vw; top: 8vh; font-size: 1vw""> 
                Current score : <font color=""green""> 170 points </font>
            </div>
        </div>
    
        <img class=""stim"" src=./stimuli//pack_easy/cat_1/ex_1_33.png></img>
    ","null","stimulus","","","",""
"","","","","","html-keyboard-response","150","160833","0.0-3.0-2.29","","","","null","
        <div style=""text-align: center; position: fixed; top: 5vh; left: 40vw;"">
            <div style=""margin:0 auto; width: 20vw; top: 8vh; font-size: 1vw""> 
                Current score : <font color=""green""> 170 points </font>
            </div>
        </div>
    ","null","","","","",""
"","","","","","html-keyboard-response","151","161390","0.0-3.0-3.29","","","","553","./stimuli//pack_easy/cat_1/ex_1_33.png","arrowleft","response","ArrowLeft","33","1","true"
"","","","","","html-keyboard-response","152","162895","0.0-3.0-4.29","","","","null","<p> <font color=""green"" size=""4vw""> Correct category! </font> <br> <br> <font color=""green"" size=""7vw""> +10 points </font> </p>","null","feedback","","","",""
"","","","","","html-keyboard-response","153","163254","0.0-3.0-0.30","","","","null","
            
        <div style=""text-align: center; position: fixed; top: 5vh; left: 40vw;"">
            <div style=""margin:0 auto; width: 20vw; top: 8vh; font-size: 1vw""> 
                Current score : <font color=""green""> 180 points </font>
            </div>
        </div>
    
            <div style=""font-size:60px;"">+</div>
        ","null","ITI","","","",""
"","","","","","html-keyboard-response","154","164264","0.0-3.0-1.30","","","","null","
        
        <div style=""text-align: center; position: fixed; top: 5vh; left: 40vw;"">
            <div style=""margin:0 auto; width: 20vw; top: 8vh; font-size: 1vw""> 
                Current score : <font color=""green""> 180 points </font>
            </div>
        </div>
    
        <img class=""stim"" src=./stimuli//pack_easy/cat_1/ex_1_55.png></img>
    ","null","stimulus","","","",""
"","","","","","html-keyboard-response","155","165268","0.0-3.0-2.30","","","","null","
        <div style=""text-align: center; position: fixed; top: 5vh; left: 40vw;"">
            <div style=""margin:0 auto; width: 20vw; top: 8vh; font-size: 1vw""> 
                Current score : <font color=""green""> 180 points </font>
            </div>
        </div>
    ","null","","","","",""
"","","","","","html-keyboard-response","156","165659","0.0-3.0-3.30","","","","389","./stimuli//pack_easy/cat_1/ex_1_55.png","arrowright","response","ArrowLeft","55","1","false"
"","","","","","html-keyboard-response","157","167167","0.0-3.0-4.30","","","","null","<p> <font color=""red"" size=""4vw""> Wrong category! </font> </p>","null","feedback","","","",""
"","","","","","html-keyboard-response","158","167529","0.0-3.0-0.31","","","","null","
            
        <div style=""text-align: center; position: fixed; top: 5vh; left: 40vw;"">
            <div style=""margin:0 auto; width: 20vw; top: 8vh; font-size: 1vw""> 
                Current score : <font color=""green""> 180 points </font>
            </div>
        </div>
    
            <div style=""font-size:60px;"">+</div>
        ","null","ITI","","","",""
"","","","","","html-keyboard-response","159","168536","0.0-3.0-1.31","","","","null","
        
        <div style=""text-align: center; position: fixed; top: 5vh; left: 40vw;"">
            <div style=""margin:0 auto; width: 20vw; top: 8vh; font-size: 1vw""> 
                Current score : <font color=""green""> 180 points </font>
            </div>
        </div>
    
        <img class=""stim"" src=./stimuli//pack_easy/cat_2/ex_2_54.png></img>
    ","null","stimulus","","","",""
"","","","","","html-keyboard-response","160","169544","0.0-3.0-2.31","","","","null","
        <div style=""text-align: center; position: fixed; top: 5vh; left: 40vw;"">
            <div style=""margin:0 auto; width: 20vw; top: 8vh; font-size: 1vw""> 
                Current score : <font color=""green""> 180 points </font>
            </div>
        </div>
    ","null","","","","",""
"","","","","","html-keyboard-response","161","169866","0.0-3.0-3.31","","","","321","./stimuli//pack_easy/cat_2/ex_2_54.png","arrowleft","response","ArrowRight","54","2","false"
"","","","","","html-keyboard-response","162","171380","0.0-3.0-4.31","","","","null","<p> <font color=""red"" size=""4vw""> Wrong category! </font> </p>","null","feedback","","","",""
"","","","","","html-keyboard-response","163","171740","0.0-3.0-0.32","","","","null","
            
        <div style=""text-align: center; position: fixed; top: 5vh; left: 40vw;"">
            <div style=""margin:0 auto; width: 20vw; top: 8vh; font-size: 1vw""> 
                Current score : <font color=""green""> 180 points </font>
            </div>
        </div>
    
            <div style=""font-size:60px;"">+</div>
        ","null","ITI","","","",""
"","","","","","html-keyboard-response","164","172744","0.0-3.0-1.32","","","","null","
        
        <div style=""text-align: center; position: fixed; top: 5vh; left: 40vw;"">
            <div style=""margin:0 auto; width: 20vw; top: 8vh; font-size: 1vw""> 
                Current score : <font color=""green""> 180 points </font>
            </div>
        </div>
    
        <img class=""stim"" src=./stimuli//pack_easy/cat_1/ex_1_100.png></img>
    ","null","stimulus","","","",""
"","","","","","html-keyboard-response","165","173752","0.0-3.0-2.32","","","","null","
        <div style=""text-align: center; position: fixed; top: 5vh; left: 40vw;"">
            <div style=""margin:0 auto; width: 20vw; top: 8vh; font-size: 1vw""> 
                Current score : <font color=""green""> 180 points </font>
            </div>
        </div>
    ","null","","","","",""
"","","","","","html-keyboard-response","166","174370","0.0-3.0-3.32","","","","616","./stimuli//pack_easy/cat_1/ex_1_100.png","arrowright","response","ArrowLeft","100","1","false"
"","","","","","html-keyboard-response","167","175877","0.0-3.0-4.32","","","","null","<p> <font color=""red"" size=""4vw""> Wrong category! </font> </p>","null","feedback","","","",""
"","","","","","html-keyboard-response","168","176236","0.0-3.0-0.33","","","","null","
            
        <div style=""text-align: center; position: fixed; top: 5vh; left: 40vw;"">
            <div style=""margin:0 auto; width: 20vw; top: 8vh; font-size: 1vw""> 
                Current score : <font color=""green""> 180 points </font>
            </div>
        </div>
    
            <div style=""font-size:60px;"">+</div>
        ","null","ITI","","","",""
"","","","","","html-keyboard-response","169","177247","0.0-3.0-1.33","","","","null","
        
        <div style=""text-align: center; position: fixed; top: 5vh; left: 40vw;"">
            <div style=""margin:0 auto; width: 20vw; top: 8vh; font-size: 1vw""> 
                Current score : <font color=""green""> 180 points </font>
            </div>
        </div>
    
        <img class=""stim"" src=./stimuli//pack_easy/cat_1/ex_1_39.png></img>
    ","null","stimulus","","","",""
"","","","","","html-keyboard-response","170","178258","0.0-3.0-2.33","","","","null","
        <div style=""text-align: center; position: fixed; top: 5vh; left: 40vw;"">
            <div style=""margin:0 auto; width: 20vw; top: 8vh; font-size: 1vw""> 
                Current score : <font color=""green""> 180 points </font>
            </div>
        </div>
    ","null","","","","",""
"","","","","","html-keyboard-response","171","178656","0.0-3.0-3.33","","","","396","./stimuli//pack_easy/cat_1/ex_1_39.png","arrowright","response","ArrowLeft","39","1","false"
"","","","","","html-keyboard-response","172","180165","0.0-3.0-4.33","","","","null","<p> <font color=""red"" size=""4vw""> Wrong category! </font> </p>","null","feedback","","","",""
"","","","","","html-keyboard-response","173","180525","0.0-3.0-0.34","","","","null","
            
        <div style=""text-align: center; position: fixed; top: 5vh; left: 40vw;"">
            <div style=""margin:0 auto; width: 20vw; top: 8vh; font-size: 1vw""> 
                Current score : <font color=""green""> 180 points </font>
            </div>
        </div>
    
            <div style=""font-size:60px;"">+</div>
        ","null","ITI","","","",""
"","","","","","html-keyboard-response","174","181530","0.0-3.0-1.34","","","","null","
        
        <div style=""text-align: center; position: fixed; top: 5vh; left: 40vw;"">
            <div style=""margin:0 auto; width: 20vw; top: 8vh; font-size: 1vw""> 
                Current score : <font color=""green""> 180 points </font>
            </div>
        </div>
    
        <img class=""stim"" src=./stimuli//pack_easy/cat_1/ex_1_93.png></img>
    ","null","stimulus","","","",""
"","","","","","html-keyboard-response","175","182539","0.0-3.0-2.34","","","","null","
        <div style=""text-align: center; position: fixed; top: 5vh; left: 40vw;"">
            <div style=""margin:0 auto; width: 20vw; top: 8vh; font-size: 1vw""> 
                Current score : <font color=""green""> 180 points </font>
            </div>
        </div>
    ","null","","","","",""
"","","","","","html-keyboard-response","176","182894","0.0-3.0-3.34","","","","353","./stimuli//pack_easy/cat_1/ex_1_93.png","arrowright","response","ArrowLeft","93","1","false"
"","","","","","html-keyboard-response","177","184405","0.0-3.0-4.34","","","","null","<p> <font color=""red"" size=""4vw""> Wrong category! </font> </p>","null","feedback","","","",""
"","","","","","html-keyboard-response","178","184768","0.0-3.0-0.35","","","","null","
            
        <div style=""text-align: center; position: fixed; top: 5vh; left: 40vw;"">
            <div style=""margin:0 auto; width: 20vw; top: 8vh; font-size: 1vw""> 
                Current score : <font color=""green""> 180 points </font>
            </div>
        </div>
    
            <div style=""font-size:60px;"">+</div>
        ","null","ITI","","","",""
"","","","","","html-keyboard-response","179","185776","0.0-3.0-1.35","","","","null","
        
        <div style=""text-align: center; position: fixed; top: 5vh; left: 40vw;"">
            <div style=""margin:0 auto; width: 20vw; top: 8vh; font-size: 1vw""> 
                Current score : <font color=""green""> 180 points </font>
            </div>
        </div>
    
        <img class=""stim"" src=./stimuli//pack_easy/cat_2/ex_2_71.png></img>
    ","null","stimulus","","","",""
"","","","","","html-keyboard-response","180","186787","0.0-3.0-2.35","","","","null","
        <div style=""text-align: center; position: fixed; top: 5vh; left: 40vw;"">
            <div style=""margin:0 auto; width: 20vw; top: 8vh; font-size: 1vw""> 
                Current score : <font color=""green""> 180 points </font>
            </div>
        </div>
    ","null","","","","",""
"","","","","","html-keyboard-response","181","187290","0.0-3.0-3.35","","","","502","./stimuli//pack_easy/cat_2/ex_2_71.png","arrowright","response","ArrowRight","71","2","true"
"","","","","","html-keyboard-response","182","188803","0.0-3.0-4.35","","","","null","<p> <font color=""green"" size=""4vw""> Correct category! </font> <br> <br> <font color=""green"" size=""7vw""> +10 points </font> </p>","null","feedback","","","",""
"","","","","","html-keyboard-response","183","189166","0.0-3.0-0.36","","","","null","
            
        <div style=""text-align: center; position: fixed; top: 5vh; left: 40vw;"">
            <div style=""margin:0 auto; width: 20vw; top: 8vh; font-size: 1vw""> 
                Current score : <font color=""green""> 190 points </font>
            </div>
        </div>
    
            <div style=""font-size:60px;"">+</div>
        ","null","ITI","","","",""
"","","","","","html-keyboard-response","184","190180","0.0-3.0-1.36","","","","null","
        
        <div style=""text-align: center; position: fixed; top: 5vh; left: 40vw;"">
            <div style=""margin:0 auto; width: 20vw; top: 8vh; font-size: 1vw""> 
                Current score : <font color=""green""> 190 points </font>
            </div>
        </div>
    
        <img class=""stim"" src=./stimuli//pack_easy/cat_1/ex_1_78.png></img>
    ","null","stimulus","","","",""
"","","","","","html-keyboard-response","185","191183","0.0-3.0-2.36","","","","null","
        <div style=""text-align: center; position: fixed; top: 5vh; left: 40vw;"">
            <div style=""margin:0 auto; width: 20vw; top: 8vh; font-size: 1vw""> 
                Current score : <font color=""green""> 190 points </font>
            </div>
        </div>
    ","null","","","","",""
"","","","","","html-keyboard-response","186","191541","0.0-3.0-3.36","","","","356","./stimuli//pack_easy/cat_1/ex_1_78.png","arrowleft","response","ArrowLeft","78","1","true"
"","","","","","html-keyboard-response","187","193046","0.0-3.0-4.36","","","","null","<p> <font color=""green"" size=""4vw""> Correct category! </font> <br> <br> <font color=""green"" size=""7vw""> +10 points </font> </p>","null","feedback","","","",""
"","","","","","html-keyboard-response","188","193407","0.0-3.0-0.37","","","","null","
            
        <div style=""text-align: center; position: fixed; top: 5vh; left: 40vw;"">
            <div style=""margin:0 auto; width: 20vw; top: 8vh; font-size: 1vw""> 
                Current score : <font color=""green""> 200 points </font>
            </div>
        </div>
    
            <div style=""font-size:60px;"">+</div>
        ","null","ITI","","","",""
"","","","","","html-keyboard-response","189","194411","0.0-3.0-1.37","","","","null","
        
        <div style=""text-align: center; position: fixed; top: 5vh; left: 40vw;"">
            <div style=""margin:0 auto; width: 20vw; top: 8vh; font-size: 1vw""> 
                Current score : <font color=""green""> 200 points </font>
            </div>
        </div>
    
        <img class=""stim"" src=./stimuli//pack_easy/cat_1/ex_1_50.png></img>
    ","null","stimulus","","","",""
"","","","","","html-keyboard-response","190","195421","0.0-3.0-2.37","","","","null","
        <div style=""text-align: center; position: fixed; top: 5vh; left: 40vw;"">
            <div style=""margin:0 auto; width: 20vw; top: 8vh; font-size: 1vw""> 
                Current score : <font color=""green""> 200 points </font>
            </div>
        </div>
    ","null","","","","",""
"","","","","","html-keyboard-response","191","195804","0.0-3.0-3.37","","","","381","./stimuli//pack_easy/cat_1/ex_1_50.png","arrowleft","response","ArrowLeft","50","1","true"
"","","","","","html-keyboard-response","192","197309","0.0-3.0-4.37","","","","null","<p> <font color=""green"" size=""4vw""> Correct category! </font> <br> <br> <font color=""green"" size=""7vw""> +10 points </font> </p>","null","feedback","","","",""
"","","","","","html-keyboard-response","193","197670","0.0-3.0-0.38","","","","null","
            
        <div style=""text-align: center; position: fixed; top: 5vh; left: 40vw;"">
            <div style=""margin:0 auto; width: 20vw; top: 8vh; font-size: 1vw""> 
                Current score : <font color=""green""> 210 points </font>
            </div>
        </div>
    
            <div style=""font-size:60px;"">+</div>
        ","null","ITI","","","",""
"","","","","","html-keyboard-response","194","198677","0.0-3.0-1.38","","","","null","
        
        <div style=""text-align: center; position: fixed; top: 5vh; left: 40vw;"">
            <div style=""margin:0 auto; width: 20vw; top: 8vh; font-size: 1vw""> 
                Current score : <font color=""green""> 210 points </font>
            </div>
        </div>
    
        <img class=""stim"" src=./stimuli//pack_easy/cat_2/ex_2_8.png></img>
    ","null","stimulus","","","",""
"","","","","","html-keyboard-response","195","199685","0.0-3.0-2.38","","","","null","
        <div style=""text-align: center; position: fixed; top: 5vh; left: 40vw;"">
            <div style=""margin:0 auto; width: 20vw; top: 8vh; font-size: 1vw""> 
                Current score : <font color=""green""> 210 points </font>
            </div>
        </div>
    ","null","","","","",""
"","","","","","html-keyboard-response","196","200106","0.0-3.0-3.38","","","","419","./stimuli//pack_easy/cat_2/ex_2_8.png","arrowright","response","ArrowRight","8","2","true"
"","","","","","html-keyboard-response","197","201617","0.0-3.0-4.38","","","","null","<p> <font color=""green"" size=""4vw""> Correct category! </font> <br> <br> <font color=""green"" size=""7vw""> +10 points </font> </p>","null","feedback","","","",""
"","","","","","html-keyboard-response","198","201979","0.0-3.0-0.39","","","","null","
            
        <div style=""text-align: center; position: fixed; top: 5vh; left: 40vw;"">
            <div style=""margin:0 auto; width: 20vw; top: 8vh; font-size: 1vw""> 
                Current score : <font color=""green""> 220 points </font>
            </div>
        </div>
    
            <div style=""font-size:60px;"">+</div>
        ","null","ITI","","","",""
"","","","","","html-keyboard-response","199","202987","0.0-3.0-1.39","","","","null","
        
        <div style=""text-align: center; position: fixed; top: 5vh; left: 40vw;"">
            <div style=""margin:0 auto; width: 20vw; top: 8vh; font-size: 1vw""> 
                Current score : <font color=""green""> 220 points </font>
            </div>
        </div>
    
        <img class=""stim"" src=./stimuli//pack_easy/cat_2/ex_2_65.png></img>
    ","null","stimulus","","","",""
"","","","","","html-keyboard-response","200","203996","0.0-3.0-2.39","","","","null","
        <div style=""text-align: center; position: fixed; top: 5vh; left: 40vw;"">
            <div style=""margin:0 auto; width: 20vw; top: 8vh; font-size: 1vw""> 
                Current score : <font color=""green""> 220 points </font>
            </div>
        </div>
    ","null","","","","",""
"","","","","","html-keyboard-response","201","204413","0.0-3.0-3.39","","","","415","./stimuli//pack_easy/cat_2/ex_2_65.png","arrowright","response","ArrowRight","65","2","true"
"","","","","","html-keyboard-response","202","205926","0.0-3.0-4.39","","","","null","<p> <font color=""green"" size=""4vw""> Correct category! </font> <br> <br> <font color=""green"" size=""7vw""> +10 points </font> </p>","null","feedback","","","",""
"","","","","","html-keyboard-response","203","206285","0.0-3.0-0.40","","","","null","
            
        <div style=""text-align: center; position: fixed; top: 5vh; left: 40vw;"">
            <div style=""margin:0 auto; width: 20vw; top: 8vh; font-size: 1vw""> 
                Current score : <font color=""green""> 230 points </font>
            </div>
        </div>
    
            <div style=""font-size:60px;"">+</div>
        ","null","ITI","","","",""
"","","","","","html-keyboard-response","204","207290","0.0-3.0-1.40","","","","null","
        
        <div style=""text-align: center; position: fixed; top: 5vh; left: 40vw;"">
            <div style=""margin:0 auto; width: 20vw; top: 8vh; font-size: 1vw""> 
                Current score : <font color=""green""> 230 points </font>
            </div>
        </div>
    
        <img class=""stim"" src=./stimuli//pack_easy/cat_1/ex_1_17.png></img>
    ","null","stimulus","","","",""
"","","","","","html-keyboard-response","205","208295","0.0-3.0-2.40","","","","null","
        <div style=""text-align: center; position: fixed; top: 5vh; left: 40vw;"">
            <div style=""margin:0 auto; width: 20vw; top: 8vh; font-size: 1vw""> 
                Current score : <font color=""green""> 230 points </font>
            </div>
        </div>
    ","null","","","","",""
"","","","","","html-keyboard-response","206","208719","0.0-3.0-3.40","","","","422","./stimuli//pack_easy/cat_1/ex_1_17.png","arrowleft","response","ArrowLeft","17","1","true"
"","","","","","html-keyboard-response","207","210235","0.0-3.0-4.40","","","","null","<p> <font color=""green"" size=""4vw""> Correct category! </font> <br> <br> <font color=""green"" size=""7vw""> +10 points </font> </p>","null","feedback","","","",""
"","","","","","html-keyboard-response","208","210596","0.0-3.0-0.41","","","","null","
            
        <div style=""text-align: center; position: fixed; top: 5vh; left: 40vw;"">
            <div style=""margin:0 auto; width: 20vw; top: 8vh; font-size: 1vw""> 
                Current score : <font color=""green""> 240 points </font>
            </div>
        </div>
    
            <div style=""font-size:60px;"">+</div>
        ","null","ITI","","","",""
"","","","","","html-keyboard-response","209","211601","0.0-3.0-1.41","","","","null","
        
        <div style=""text-align: center; position: fixed; top: 5vh; left: 40vw;"">
            <div style=""margin:0 auto; width: 20vw; top: 8vh; font-size: 1vw""> 
                Current score : <font color=""green""> 240 points </font>
            </div>
        </div>
    
        <img class=""stim"" src=./stimuli//pack_easy/cat_2/ex_2_98.png></img>
    ","null","stimulus","","","",""
"","","","","","html-keyboard-response","210","212604","0.0-3.0-2.41","","","","null","
        <div style=""text-align: center; position: fixed; top: 5vh; left: 40vw;"">
            <div style=""margin:0 auto; width: 20vw; top: 8vh; font-size: 1vw""> 
                Current score : <font color=""green""> 240 points </font>
            </div>
        </div>
    ","null","","","","",""
"","","","","","html-keyboard-response","211","212945","0.0-3.0-3.41","","","","339","./stimuli//pack_easy/cat_2/ex_2_98.png","arrowleft","response","ArrowRight","98","2","false"
"","","","","","html-keyboard-response","212","214449","0.0-3.0-4.41","","","","null","<p> <font color=""red"" size=""4vw""> Wrong category! </font> </p>","null","feedback","","","",""
"","","","","","html-keyboard-response","213","214811","0.0-3.0-0.42","","","","null","
            
        <div style=""text-align: center; position: fixed; top: 5vh; left: 40vw;"">
            <div style=""margin:0 auto; width: 20vw; top: 8vh; font-size: 1vw""> 
                Current score : <font color=""green""> 240 points </font>
            </div>
        </div>
    
            <div style=""font-size:60px;"">+</div>
        ","null","ITI","","","",""
"","","","","","html-keyboard-response","214","215815","0.0-3.0-1.42","","","","null","
        
        <div style=""text-align: center; position: fixed; top: 5vh; left: 40vw;"">
            <div style=""margin:0 auto; width: 20vw; top: 8vh; font-size: 1vw""> 
                Current score : <font color=""green""> 240 points </font>
            </div>
        </div>
    
        <img class=""stim"" src=./stimuli//pack_easy/cat_1/ex_1_76.png></img>
    ","null","stimulus","","","",""
"","","","","","html-keyboard-response","215","216823","0.0-3.0-2.42","","","","null","
        <div style=""text-align: center; position: fixed; top: 5vh; left: 40vw;"">
            <div style=""margin:0 auto; width: 20vw; top: 8vh; font-size: 1vw""> 
                Current score : <font color=""green""> 240 points </font>
            </div>
        </div>
    ","null","","","","",""
"","","","","","html-keyboard-response","216","217219","0.0-3.0-3.42","","","","395","./stimuli//pack_easy/cat_1/ex_1_76.png","arrowright","response","ArrowLeft","76","1","false"
"","","","","","html-keyboard-response","217","218725","0.0-3.0-4.42","","","","null","<p> <font color=""red"" size=""4vw""> Wrong category! </font> </p>","null","feedback","","","",""
"","","","","","html-keyboard-response","218","219079","0.0-3.0-0.43","","","","null","
            
        <div style=""text-align: center; position: fixed; top: 5vh; left: 40vw;"">
            <div style=""margin:0 auto; width: 20vw; top: 8vh; font-size: 1vw""> 
                Current score : <font color=""green""> 240 points </font>
            </div>
        </div>
    
            <div style=""font-size:60px;"">+</div>
        ","null","ITI","","","",""
"","","","","","html-keyboard-response","219","220082","0.0-3.0-1.43","","","","null","
        
        <div style=""text-align: center; position: fixed; top: 5vh; left: 40vw;"">
            <div style=""margin:0 auto; width: 20vw; top: 8vh; font-size: 1vw""> 
                Current score : <font color=""green""> 240 points </font>
            </div>
        </div>
    
        <img class=""stim"" src=./stimuli//pack_easy/cat_1/ex_1_56.png></img>
    ","null","stimulus","","","",""
"","","","","","html-keyboard-response","220","221090","0.0-3.0-2.43","","","","null","
        <div style=""text-align: center; position: fixed; top: 5vh; left: 40vw;"">
            <div style=""margin:0 auto; width: 20vw; top: 8vh; font-size: 1vw""> 
                Current score : <font color=""green""> 240 points </font>
            </div>
        </div>
    ","null","","","","",""
"","","","","","html-keyboard-response","221","221522","0.0-3.0-3.43","","","","431","./stimuli//pack_easy/cat_1/ex_1_56.png","arrowright","response","ArrowLeft","56","1","false"
"","","","","","html-keyboard-response","222","223026","0.0-3.0-4.43","","","","null","<p> <font color=""red"" size=""4vw""> Wrong category! </font> </p>","null","feedback","","","",""
"","","","","","html-keyboard-response","223","223389","0.0-3.0-0.44","","","","null","
            
        <div style=""text-align: center; position: fixed; top: 5vh; left: 40vw;"">
            <div style=""margin:0 auto; width: 20vw; top: 8vh; font-size: 1vw""> 
                Current score : <font color=""green""> 240 points </font>
            </div>
        </div>
    
            <div style=""font-size:60px;"">+</div>
        ","null","ITI","","","",""
"","","","","","html-keyboard-response","224","224402","0.0-3.0-1.44","","","","null","
        
        <div style=""text-align: center; position: fixed; top: 5vh; left: 40vw;"">
            <div style=""margin:0 auto; width: 20vw; top: 8vh; font-size: 1vw""> 
                Current score : <font color=""green""> 240 points </font>
            </div>
        </div>
    
        <img class=""stim"" src=./stimuli//pack_easy/cat_1/ex_1_67.png></img>
    ","null","stimulus","","","",""
"","","","","","html-keyboard-response","225","225408","0.0-3.0-2.44","","","","null","
        <div style=""text-align: center; position: fixed; top: 5vh; left: 40vw;"">
            <div style=""margin:0 auto; width: 20vw; top: 8vh; font-size: 1vw""> 
                Current score : <font color=""green""> 240 points </font>
            </div>
        </div>
    ","null","","","","",""
"","","","","","html-keyboard-response","226","225811","0.0-3.0-3.44","","","","401","./stimuli//pack_easy/cat_1/ex_1_67.png","arrowleft","response","ArrowLeft","67","1","true"
"","","","","","html-keyboard-response","227","227316","0.0-3.0-4.44","","","","null","<p> <font color=""green"" size=""4vw""> Correct category! </font> <br> <br> <font color=""green"" size=""7vw""> +10 points </font> </p>","null","feedback","","","",""
"","","","","","html-keyboard-response","228","227681","0.0-3.0-0.45","","","","null","
            
        <div style=""text-align: center; position: fixed; top: 5vh; left: 40vw;"">
            <div style=""margin:0 auto; width: 20vw; top: 8vh; font-size: 1vw""> 
                Current score : <font color=""green""> 250 points </font>
            </div>
        </div>
    
            <div style=""font-size:60px;"">+</div>
        ","null","ITI","","","",""
"","","","","","html-keyboard-response","229","228689","0.0-3.0-1.45","","","","null","
        
        <div style=""text-align: center; position: fixed; top: 5vh; left: 40vw;"">
            <div style=""margin:0 auto; width: 20vw; top: 8vh; font-size: 1vw""> 
                Current score : <font color=""green""> 250 points </font>
            </div>
        </div>
    
        <img class=""stim"" src=./stimuli//pack_easy/cat_1/ex_1_90.png></img>
    ","null","stimulus","","","",""
"","","","","","html-keyboard-response","230","229694","0.0-3.0-2.45","","","","null","
        <div style=""text-align: center; position: fixed; top: 5vh; left: 40vw;"">
            <div style=""margin:0 auto; width: 20vw; top: 8vh; font-size: 1vw""> 
                Current score : <font color=""green""> 250 points </font>
            </div>
        </div>
    ","null","","","","",""
"","","","","","html-keyboard-response","231","230091","0.0-3.0-3.45","","","","395","./stimuli//pack_easy/cat_1/ex_1_90.png","arrowleft","response","ArrowLeft","90","1","true"
"","","","","","html-keyboard-response","232","231599","0.0-3.0-4.45","","","","null","<p> <font color=""green"" size=""4vw""> Correct category! </font> <br> <br> <font color=""green"" size=""7vw""> +10 points </font> </p>","null","feedback","","","",""
"","","","","","html-keyboard-response","233","231960","0.0-3.0-0.46","","","","null","
            
        <div style=""text-align: center; position: fixed; top: 5vh; left: 40vw;"">
            <div style=""margin:0 auto; width: 20vw; top: 8vh; font-size: 1vw""> 
                Current score : <font color=""green""> 260 points </font>
            </div>
        </div>
    
            <div style=""font-size:60px;"">+</div>
        ","null","ITI","","","",""
"","","","","","html-keyboard-response","234","232971","0.0-3.0-1.46","","","","null","
        
        <div style=""text-align: center; position: fixed; top: 5vh; left: 40vw;"">
            <div style=""margin:0 auto; width: 20vw; top: 8vh; font-size: 1vw""> 
                Current score : <font color=""green""> 260 points </font>
            </div>
        </div>
    
        <img class=""stim"" src=./stimuli//pack_easy/cat_2/ex_2_57.png></img>
    ","null","stimulus","","","",""
"","","","","","html-keyboard-response","235","233974","0.0-3.0-2.46","","","","null","
        <div style=""text-align: center; position: fixed; top: 5vh; left: 40vw;"">
            <div style=""margin:0 auto; width: 20vw; top: 8vh; font-size: 1vw""> 
                Current score : <font color=""green""> 260 points </font>
            </div>
        </div>
    ","null","","","","",""
"","","","","","html-keyboard-response","236","234384","0.0-3.0-3.46","","","","409","./stimuli//pack_easy/cat_2/ex_2_57.png","arrowright","response","ArrowRight","57","2","true"
"","","","","","html-keyboard-response","237","235900","0.0-3.0-4.46","","","","null","<p> <font color=""green"" size=""4vw""> Correct category! </font> <br> <br> <font color=""green"" size=""7vw""> +10 points </font> </p>","null","feedback","","","",""
"","","","","","html-keyboard-response","238","236260","0.0-3.0-0.47","","","","null","
            
        <div style=""text-align: center; position: fixed; top: 5vh; left: 40vw;"">
            <div style=""margin:0 auto; width: 20vw; top: 8vh; font-size: 1vw""> 
                Current score : <font color=""green""> 270 points </font>
            </div>
        </div>
    
            <div style=""font-size:60px;"">+</div>
        ","null","ITI","","","",""
"","","","","","html-keyboard-response","239","237267","0.0-3.0-1.47","","","","null","
        
        <div style=""text-align: center; position: fixed; top: 5vh; left: 40vw;"">
            <div style=""margin:0 auto; width: 20vw; top: 8vh; font-size: 1vw""> 
                Current score : <font color=""green""> 270 points </font>
            </div>
        </div>
    
        <img class=""stim"" src=./stimuli//pack_easy/cat_2/ex_2_6.png></img>
    ","null","stimulus","","","",""
"","","","","","html-keyboard-response","240","238273","0.0-3.0-2.47","","","","null","
        <div style=""text-align: center; position: fixed; top: 5vh; left: 40vw;"">
            <div style=""margin:0 auto; width: 20vw; top: 8vh; font-size: 1vw""> 
                Current score : <font color=""green""> 270 points </font>
            </div>
        </div>
    ","null","","","","",""
"","","","","","html-keyboard-response","241","238899","0.0-3.0-3.47","","","","625","./stimuli//pack_easy/cat_2/ex_2_6.png","arrowright","response","ArrowRight","6","2","true"
"","","","","","html-keyboard-response","242","240413","0.0-3.0-4.47","","","","null","<p> <font color=""green"" size=""4vw""> Correct category! </font> <br> <br> <font color=""green"" size=""7vw""> +10 points </font> </p>","null","feedback","","","",""
"","","","","","html-keyboard-response","243","240774","0.0-3.0-0.48","","","","null","
            
        <div style=""text-align: center; position: fixed; top: 5vh; left: 40vw;"">
            <div style=""margin:0 auto; width: 20vw; top: 8vh; font-size: 1vw""> 
                Current score : <font color=""green""> 280 points </font>
            </div>
        </div>
    
            <div style=""font-size:60px;"">+</div>
        ","null","ITI","","","",""
"","","","","","html-keyboard-response","244","241783","0.0-3.0-1.48","","","","null","
        
        <div style=""text-align: center; position: fixed; top: 5vh; left: 40vw;"">
            <div style=""margin:0 auto; width: 20vw; top: 8vh; font-size: 1vw""> 
                Current score : <font color=""green""> 280 points </font>
            </div>
        </div>
    
        <img class=""stim"" src=./stimuli//pack_easy/cat_2/ex_2_79.png></img>
    ","null","stimulus","","","",""
"","","","","","html-keyboard-response","245","242800","0.0-3.0-2.48","","","","null","
        <div style=""text-align: center; position: fixed; top: 5vh; left: 40vw;"">
            <div style=""margin:0 auto; width: 20vw; top: 8vh; font-size: 1vw""> 
                Current score : <font color=""green""> 280 points </font>
            </div>
        </div>
    ","null","","","","",""
"","","","","","html-keyboard-response","246","243201","0.0-3.0-3.48","","","","400","./stimuli//pack_easy/cat_2/ex_2_79.png","arrowright","response","ArrowRight","79","2","true"
"","","","","","html-keyboard-response","247","244711","0.0-3.0-4.48","","","","null","<p> <font color=""green"" size=""4vw""> Correct category! </font> <br> <br> <font color=""green"" size=""7vw""> +10 points </font> </p>","null","feedback","","","",""
"","","","","","html-keyboard-response","248","245072","0.0-3.0-0.49","","","","null","
            
        <div style=""text-align: center; position: fixed; top: 5vh; left: 40vw;"">
            <div style=""margin:0 auto; width: 20vw; top: 8vh; font-size: 1vw""> 
                Current score : <font color=""green""> 290 points </font>
            </div>
        </div>
    
            <div style=""font-size:60px;"">+</div>
        ","null","ITI","","","",""
"","","","","","html-keyboard-response","249","246087","0.0-3.0-1.49","","","","null","
        
        <div style=""text-align: center; position: fixed; top: 5vh; left: 40vw;"">
            <div style=""margin:0 auto; width: 20vw; top: 8vh; font-size: 1vw""> 
                Current score : <font color=""green""> 290 points </font>
            </div>
        </div>
    
        <img class=""stim"" src=./stimuli//pack_easy/cat_1/ex_1_10.png></img>
    ","null","stimulus","","","",""
"","","","","","html-keyboard-response","250","247098","0.0-3.0-2.49","","","","null","
        <div style=""text-align: center; position: fixed; top: 5vh; left: 40vw;"">
            <div style=""margin:0 auto; width: 20vw; top: 8vh; font-size: 1vw""> 
                Current score : <font color=""green""> 290 points </font>
            </div>
        </div>
    ","null","","","","",""
"","","","","","html-keyboard-response","251","247514","0.0-3.0-3.49","","","","414","./stimuli//pack_easy/cat_1/ex_1_10.png","arrowright","response","ArrowLeft","10","1","false"
"","","","","","html-keyboard-response","252","249018","0.0-3.0-4.49","","","","null","<p> <font color=""red"" size=""4vw""> Wrong category! </font> </p>","null","feedback","","","",""
"","","","","","html-keyboard-response","253","249376","0.0-3.0-0.50","","","","null","
            
        <div style=""text-align: center; position: fixed; top: 5vh; left: 40vw;"">
            <div style=""margin:0 auto; width: 20vw; top: 8vh; font-size: 1vw""> 
                Current score : <font color=""green""> 290 points </font>
            </div>
        </div>
    
            <div style=""font-size:60px;"">+</div>
        ","null","ITI","","","",""
"","","","","","html-keyboard-response","254","250391","0.0-3.0-1.50","","","","null","
        
        <div style=""text-align: center; position: fixed; top: 5vh; left: 40vw;"">
            <div style=""margin:0 auto; width: 20vw; top: 8vh; font-size: 1vw""> 
                Current score : <font color=""green""> 290 points </font>
            </div>
        </div>
    
        <img class=""stim"" src=./stimuli//pack_easy/cat_1/ex_1_37.png></img>
    ","null","stimulus","","","",""
"","","","","","html-keyboard-response","255","251399","0.0-3.0-2.50","","","","null","
        <div style=""text-align: center; position: fixed; top: 5vh; left: 40vw;"">
            <div style=""margin:0 auto; width: 20vw; top: 8vh; font-size: 1vw""> 
                Current score : <font color=""green""> 290 points </font>
            </div>
        </div>
    ","null","","","","",""
"","","","","","html-keyboard-response","256","251886","0.0-3.0-3.50","","","","487","./stimuli//pack_easy/cat_1/ex_1_37.png","arrowleft","response","ArrowLeft","37","1","true"
"","","","","","html-keyboard-response","257","253403","0.0-3.0-4.50","","","","null","<p> <font color=""green"" size=""4vw""> Correct category! </font> <br> <br> <font color=""green"" size=""7vw""> +10 points </font> </p>","null","feedback","","","",""
"","","","","","html-keyboard-response","258","253765","0.0-3.0-0.51","","","","null","
            
        <div style=""text-align: center; position: fixed; top: 5vh; left: 40vw;"">
            <div style=""margin:0 auto; width: 20vw; top: 8vh; font-size: 1vw""> 
                Current score : <font color=""green""> 300 points </font>
            </div>
        </div>
    
            <div style=""font-size:60px;"">+</div>
        ","null","ITI","","","",""
"","","","","","html-keyboard-response","259","254771","0.0-3.0-1.51","","","","null","
        
        <div style=""text-align: center; position: fixed; top: 5vh; left: 40vw;"">
            <div style=""margin:0 auto; width: 20vw; top: 8vh; font-size: 1vw""> 
                Current score : <font color=""green""> 300 points </font>
            </div>
        </div>
    
        <img class=""stim"" src=./stimuli//pack_easy/cat_2/ex_2_4.png></img>
    ","null","stimulus","","","",""
"","","","","","html-keyboard-response","260","255778","0.0-3.0-2.51","","","","null","
        <div style=""text-align: center; position: fixed; top: 5vh; left: 40vw;"">
            <div style=""margin:0 auto; width: 20vw; top: 8vh; font-size: 1vw""> 
                Current score : <font color=""green""> 300 points </font>
            </div>
        </div>
    ","null","","","","",""
"","","","","","html-keyboard-response","261","256191","0.0-3.0-3.51","","","","410","./stimuli//pack_easy/cat_2/ex_2_4.png","arrowleft","response","ArrowRight","4","2","false"
"","","","","","html-keyboard-response","262","257699","0.0-3.0-4.51","","","","null","<p> <font color=""red"" size=""4vw""> Wrong category! </font> </p>","null","feedback","","","",""
"","","","","","html-keyboard-response","263","258061","0.0-3.0-0.52","","","","null","
            
        <div style=""text-align: center; position: fixed; top: 5vh; left: 40vw;"">
            <div style=""margin:0 auto; width: 20vw; top: 8vh; font-size: 1vw""> 
                Current score : <font color=""green""> 300 points </font>
            </div>
        </div>
    
            <div style=""font-size:60px;"">+</div>
        ","null","ITI","","","",""
"","","","","","html-keyboard-response","264","259064","0.0-3.0-1.52","","","","null","
        
        <div style=""text-align: center; position: fixed; top: 5vh; left: 40vw;"">
            <div style=""margin:0 auto; width: 20vw; top: 8vh; font-size: 1vw""> 
                Current score : <font color=""green""> 300 points </font>
            </div>
        </div>
    
        <img class=""stim"" src=./stimuli//pack_easy/cat_1/ex_1_43.png></img>
    ","null","stimulus","","","",""
"","","","","","html-keyboard-response","265","260068","0.0-3.0-2.52","","","","null","
        <div style=""text-align: center; position: fixed; top: 5vh; left: 40vw;"">
            <div style=""margin:0 auto; width: 20vw; top: 8vh; font-size: 1vw""> 
                Current score : <font color=""green""> 300 points </font>
            </div>
        </div>
    ","null","","","","",""
"","","","","","html-keyboard-response","266","260426","0.0-3.0-3.52","","","","357","./stimuli//pack_easy/cat_1/ex_1_43.png","arrowleft","response","ArrowLeft","43","1","true"
"","","","","","html-keyboard-response","267","261928","0.0-3.0-4.52","","","","null","<p> <font color=""green"" size=""4vw""> Correct category! </font> <br> <br> <font color=""green"" size=""7vw""> +10 points </font> </p>","null","feedback","","","",""
"","","","","","html-keyboard-response","268","262291","0.0-3.0-0.53","","","","null","
            
        <div style=""text-align: center; position: fixed; top: 5vh; left: 40vw;"">
            <div style=""margin:0 auto; width: 20vw; top: 8vh; font-size: 1vw""> 
                Current score : <font color=""green""> 310 points </font>
            </div>
        </div>
    
            <div style=""font-size:60px;"">+</div>
        ","null","ITI","","","",""
"","","","","","html-keyboard-response","269","263297","0.0-3.0-1.53","","","","null","
        
        <div style=""text-align: center; position: fixed; top: 5vh; left: 40vw;"">
            <div style=""margin:0 auto; width: 20vw; top: 8vh; font-size: 1vw""> 
                Current score : <font color=""green""> 310 points </font>
            </div>
        </div>
    
        <img class=""stim"" src=./stimuli//pack_easy/cat_1/ex_1_86.png></img>
    ","null","stimulus","","","",""
"","","","","","html-keyboard-response","270","264303","0.0-3.0-2.53","","","","null","
        <div style=""text-align: center; position: fixed; top: 5vh; left: 40vw;"">
            <div style=""margin:0 auto; width: 20vw; top: 8vh; font-size: 1vw""> 
                Current score : <font color=""green""> 310 points </font>
            </div>
        </div>
    ","null","","","","",""
"","","","","","html-keyboard-response","271","264746","0.0-3.0-3.53","","","","441","./stimuli//pack_easy/cat_1/ex_1_86.png","arrowleft","response","ArrowLeft","86","1","true"
"","","","","","html-keyboard-response","272","266255","0.0-3.0-4.53","","","","null","<p> <font color=""green"" size=""4vw""> Correct category! </font> <br> <br> <font color=""green"" size=""7vw""> +10 points </font> </p>","null","feedback","","","",""
"","","","","","html-keyboard-response","273","266615","0.0-3.0-0.54","","","","null","
            
        <div style=""text-align: center; position: fixed; top: 5vh; left: 40vw;"">
            <div style=""margin:0 auto; width: 20vw; top: 8vh; font-size: 1vw""> 
                Current score : <font color=""green""> 320 points </font>
            </div>
        </div>
    
            <div style=""font-size:60px;"">+</div>
        ","null","ITI","","","",""
"","","","","","html-keyboard-response","274","267626","0.0-3.0-1.54","","","","null","
        
        <div style=""text-align: center; position: fixed; top: 5vh; left: 40vw;"">
            <div style=""margin:0 auto; width: 20vw; top: 8vh; font-size: 1vw""> 
                Current score : <font color=""green""> 320 points </font>
            </div>
        </div>
    
        <img class=""stim"" src=./stimuli//pack_easy/cat_1/ex_1_32.png></img>
    ","null","stimulus","","","",""
"","","","","","html-keyboard-response","275","268632","0.0-3.0-2.54","","","","null","
        <div style=""text-align: center; position: fixed; top: 5vh; left: 40vw;"">
            <div style=""margin:0 auto; width: 20vw; top: 8vh; font-size: 1vw""> 
                Current score : <font color=""green""> 320 points </font>
            </div>
        </div>
    ","null","","","","",""
"","","","","","html-keyboard-response","276","269052","0.0-3.0-3.54","","","","418","./stimuli//pack_easy/cat_1/ex_1_32.png","arrowright","response","ArrowLeft","32","1","false"
"","","","","","html-keyboard-response","277","270556","0.0-3.0-4.54","","","","null","<p> <font color=""red"" size=""4vw""> Wrong category! </font> </p>","null","feedback","","","",""
"","","","","","html-keyboard-response","278","270920","0.0-3.0-0.55","","","","null","
            
        <div style=""text-align: center; position: fixed; top: 5vh; left: 40vw;"">
            <div style=""margin:0 auto; width: 20vw; top: 8vh; font-size: 1vw""> 
                Current score : <font color=""green""> 320 points </font>
            </div>
        </div>
    
            <div style=""font-size:60px;"">+</div>
        ","null","ITI","","","",""
"","","","","","html-keyboard-response","279","271922","0.0-3.0-1.55","","","","null","
        
        <div style=""text-align: center; position: fixed; top: 5vh; left: 40vw;"">
            <div style=""margin:0 auto; width: 20vw; top: 8vh; font-size: 1vw""> 
                Current score : <font color=""green""> 320 points </font>
            </div>
        </div>
    
        <img class=""stim"" src=./stimuli//pack_easy/cat_2/ex_2_63.png></img>
    ","null","stimulus","","","",""
"","","","","","html-keyboard-response","280","272925","0.0-3.0-2.55","","","","null","
        <div style=""text-align: center; position: fixed; top: 5vh; left: 40vw;"">
            <div style=""margin:0 auto; width: 20vw; top: 8vh; font-size: 1vw""> 
                Current score : <font color=""green""> 320 points </font>
            </div>
        </div>
    ","null","","","","",""
"","","","","","html-keyboard-response","281","273322","0.0-3.0-3.55","","","","396","./stimuli//pack_easy/cat_2/ex_2_63.png","arrowleft","response","ArrowRight","63","2","false"
"","","","","","html-keyboard-response","282","274825","0.0-3.0-4.55","","","","null","<p> <font color=""red"" size=""4vw""> Wrong category! </font> </p>","null","feedback","","","",""
"","","","","","html-keyboard-response","283","275190","0.0-3.0-0.56","","","","null","
            
        <div style=""text-align: center; position: fixed; top: 5vh; left: 40vw;"">
            <div style=""margin:0 auto; width: 20vw; top: 8vh; font-size: 1vw""> 
                Current score : <font color=""green""> 320 points </font>
            </div>
        </div>
    
            <div style=""font-size:60px;"">+</div>
        ","null","ITI","","","",""
"","","","","","html-keyboard-response","284","276199","0.0-3.0-1.56","","","","null","
        
        <div style=""text-align: center; position: fixed; top: 5vh; left: 40vw;"">
            <div style=""margin:0 auto; width: 20vw; top: 8vh; font-size: 1vw""> 
                Current score : <font color=""green""> 320 points </font>
            </div>
        </div>
    
        <img class=""stim"" src=./stimuli//pack_easy/cat_2/ex_2_77.png></img>
    ","null","stimulus","","","",""
"","","","","","html-keyboard-response","285","277208","0.0-3.0-2.56","","","","null","
        <div style=""text-align: center; position: fixed; top: 5vh; left: 40vw;"">
