"success","timeout","failed_images","failed_audio","failed_video","trial_type","trial_index","time_elapsed","internal_node_id","subject_id","study_id","session_id","rt","stimulus","response","task","correct_response","exemplar_ID","category","correct"
"true","false","[]","[]","[]","preload","0","3","0.0-0.0","","","","","","","","","","",""
"","","","","","html-keyboard-response","1","4140","0.0-1.0","","","","4136","Welcome to the Category Learning experiment! Press any key to continue.","enter","welcome","","","",""
"","","","","","html-keyboard-response","2","13854","0.0-2.0","","","","9713","<p>You will be shown images and each image will contain a set of black dots. Each image will belong to one of two categories: category A or category B.
            <br>You will not know in advance which category the given collection of dots belongs to.</p>
            <p>After you see an image you will be asked to categorize it into <b>category A (by pressing the left arrow key)</b> or <b>category B (by pressing the right arrow key)</b>
            as quickly as possible.</p>
            <p>After you make a choice you will receive feedback telling you whether you matched the image to the correct category or not.</p>
            <p>Your goal is to categorize as many sets of dots correctly as possible.</p>
            <p>Press any key to begin.</p>","enter","introduction","","","",""
"","","","","","html-keyboard-response","3","14206","0.0-3.0-0.0","","","","null","
            
        <div style=""text-align: center; position: fixed; top: 5vh; left: 40vw;"">
            <div style=""margin:0 auto; width: 20vw; top: 8vh; font-size: 1vw""> 
                Current score : <font color=""green""> 0 points </font>
            </div>
        </div>
    
            <div style=""font-size:60px;"">+</div>
        ","null","ITI","","","",""
"","","","","","html-keyboard-response","4","15209","0.0-3.0-1.0","","","","null","
        
        <div style=""text-align: center; position: fixed; top: 5vh; left: 40vw;"">
            <div style=""margin:0 auto; width: 20vw; top: 8vh; font-size: 1vw""> 
                Current score : <font color=""green""> 0 points </font>
            </div>
        </div>
    
        <img class=""stim"" src=./stimuli//pack_easy/cat_2/ex_2_33.png></img>
    ","null","stimulus","","","",""
"","","","","","html-keyboard-response","5","16211","0.0-3.0-2.0","","","","null","
        <div style=""text-align: center; position: fixed; top: 5vh; left: 40vw;"">
            <div style=""margin:0 auto; width: 20vw; top: 8vh; font-size: 1vw""> 
                Current score : <font color=""green""> 0 points </font>
            </div>
        </div>
    ","null","","","","",""
"","","","","","html-keyboard-response","6","18371","0.0-3.0-3.0","","","","2156","./stimuli//pack_easy/cat_2/ex_2_33.png","arrowleft","response","ArrowRight","33","2","false"
"","","","","","html-keyboard-response","7","19873","0.0-3.0-4.0","","","","null","<p> <font color=""red"" size=""4vw""> Wrong category! </font> </p>","null","feedback","","","",""
"","","","","","html-keyboard-response","8","20223","0.0-3.0-0.1","","","","null","
            
        <div style=""text-align: center; position: fixed; top: 5vh; left: 40vw;"">
            <div style=""margin:0 auto; width: 20vw; top: 8vh; font-size: 1vw""> 
                Current score : <font color=""green""> 0 points </font>
            </div>
        </div>
    
            <div style=""font-size:60px;"">+</div>
        ","null","ITI","","","",""
"","","","","","html-keyboard-response","9","21226","0.0-3.0-1.1","","","","null","
        
        <div style=""text-align: center; position: fixed; top: 5vh; left: 40vw;"">
            <div style=""margin:0 auto; width: 20vw; top: 8vh; font-size: 1vw""> 
                Current score : <font color=""green""> 0 points </font>
            </div>
        </div>
    
        <img class=""stim"" src=./stimuli//pack_easy/cat_2/ex_2_57.png></img>
    ","null","stimulus","","","",""
"","","","","","html-keyboard-response","10","22227","0.0-3.0-2.1","","","","null","
        <div style=""text-align: center; position: fixed; top: 5vh; left: 40vw;"">
            <div style=""margin:0 auto; width: 20vw; top: 8vh; font-size: 1vw""> 
                Current score : <font color=""green""> 0 points </font>
            </div>
        </div>
    ","null","","","","",""
"","","","","","html-keyboard-response","11","22813","0.0-3.0-3.1","","","","584","./stimuli//pack_easy/cat_2/ex_2_57.png","arrowright","response","ArrowRight","57","2","true"
"","","","","","html-keyboard-response","12","24315","0.0-3.0-4.1","","","","null","<p> <font color=""green"" size=""4vw""> Correct category! </font> <br> <br> <font color=""green"" size=""7vw""> +10 points </font> </p>","null","feedback","","","",""
"","","","","","html-keyboard-response","13","24667","0.0-3.0-0.2","","","","null","
            
        <div style=""text-align: center; position: fixed; top: 5vh; left: 40vw;"">
            <div style=""margin:0 auto; width: 20vw; top: 8vh; font-size: 1vw""> 
                Current score : <font color=""green""> 10 points </font>
            </div>
        </div>
    
            <div style=""font-size:60px;"">+</div>
        ","null","ITI","","","",""
"","","","","","html-keyboard-response","14","25669","0.0-3.0-1.2","","","","null","
        
        <div style=""text-align: center; position: fixed; top: 5vh; left: 40vw;"">
            <div style=""margin:0 auto; width: 20vw; top: 8vh; font-size: 1vw""> 
                Current score : <font color=""green""> 10 points </font>
            </div>
        </div>
    
        <img class=""stim"" src=./stimuli//pack_easy/cat_1/ex_1_10.png></img>
    ","null","stimulus","","","",""
"","","","","","html-keyboard-response","15","26671","0.0-3.0-2.2","","","","null","
        <div style=""text-align: center; position: fixed; top: 5vh; left: 40vw;"">
            <div style=""margin:0 auto; width: 20vw; top: 8vh; font-size: 1vw""> 
                Current score : <font color=""green""> 10 points </font>
            </div>
        </div>
    ","null","","","","",""
"","","","","","html-keyboard-response","16","27141","0.0-3.0-3.2","","","","468","./stimuli//pack_easy/cat_1/ex_1_10.png","arrowright","response","ArrowLeft","10","1","false"
"","","","","","html-keyboard-response","17","28643","0.0-3.0-4.2","","","","null","<p> <font color=""red"" size=""4vw""> Wrong category! </font> </p>","null","feedback","","","",""
"","","","","","html-keyboard-response","18","28995","0.0-3.0-0.3","","","","null","
            
        <div style=""text-align: center; position: fixed; top: 5vh; left: 40vw;"">
            <div style=""margin:0 auto; width: 20vw; top: 8vh; font-size: 1vw""> 
                Current score : <font color=""green""> 10 points </font>
            </div>
        </div>
    
            <div style=""font-size:60px;"">+</div>
        ","null","ITI","","","",""
"","","","","","html-keyboard-response","19","30031","0.0-3.0-1.3","","","","null","
        
        <div style=""text-align: center; position: fixed; top: 5vh; left: 40vw;"">
            <div style=""margin:0 auto; width: 20vw; top: 8vh; font-size: 1vw""> 
                Current score : <font color=""green""> 10 points </font>
            </div>
        </div>
    
        <img class=""stim"" src=./stimuli//pack_easy/cat_1/ex_1_70.png></img>
    ","null","stimulus","","","",""
"","","","","","html-keyboard-response","20","31031","0.0-3.0-2.3","","","","null","
        <div style=""text-align: center; position: fixed; top: 5vh; left: 40vw;"">
            <div style=""margin:0 auto; width: 20vw; top: 8vh; font-size: 1vw""> 
                Current score : <font color=""green""> 10 points </font>
            </div>
        </div>
    ","null","","","","",""
"","","","","","html-keyboard-response","21","31365","0.0-3.0-3.3","","","","333","./stimuli//pack_easy/cat_1/ex_1_70.png","arrowleft","response","ArrowLeft","70","1","true"
"","","","","","html-keyboard-response","22","32867","0.0-3.0-4.3","","","","null","<p> <font color=""green"" size=""4vw""> Correct category! </font> <br> <br> <font color=""green"" size=""7vw""> +10 points </font> </p>","null","feedback","","","",""
"","","","","","html-keyboard-response","23","33219","0.0-3.0-0.4","","","","null","
            
        <div style=""text-align: center; position: fixed; top: 5vh; left: 40vw;"">
            <div style=""margin:0 auto; width: 20vw; top: 8vh; font-size: 1vw""> 
                Current score : <font color=""green""> 20 points </font>
            </div>
        </div>
    
            <div style=""font-size:60px;"">+</div>
        ","null","ITI","","","",""
"","","","","","html-keyboard-response","24","34220","0.0-3.0-1.4","","","","null","
        
        <div style=""text-align: center; position: fixed; top: 5vh; left: 40vw;"">
            <div style=""margin:0 auto; width: 20vw; top: 8vh; font-size: 1vw""> 
                Current score : <font color=""green""> 20 points </font>
            </div>
        </div>
    
        <img class=""stim"" src=./stimuli//pack_easy/cat_2/ex_2_35.png></img>
    ","null","stimulus","","","",""
"","","","","","html-keyboard-response","25","35221","0.0-3.0-2.4","","","","null","
        <div style=""text-align: center; position: fixed; top: 5vh; left: 40vw;"">
            <div style=""margin:0 auto; width: 20vw; top: 8vh; font-size: 1vw""> 
                Current score : <font color=""green""> 20 points </font>
            </div>
        </div>
    ","null","","","","",""
"","","","","","html-keyboard-response","26","36154","0.0-3.0-3.4","","","","932","./stimuli//pack_easy/cat_2/ex_2_35.png","arrowright","response","ArrowRight","35","2","true"
"","","","","","html-keyboard-response","27","37656","0.0-3.0-4.4","","","","null","<p> <font color=""green"" size=""4vw""> Correct category! </font> <br> <br> <font color=""green"" size=""7vw""> +10 points </font> </p>","null","feedback","","","",""
"","","","","","html-keyboard-response","28","38007","0.0-3.0-0.5","","","","null","
            
        <div style=""text-align: center; position: fixed; top: 5vh; left: 40vw;"">
            <div style=""margin:0 auto; width: 20vw; top: 8vh; font-size: 1vw""> 
                Current score : <font color=""green""> 30 points </font>
            </div>
        </div>
    
            <div style=""font-size:60px;"">+</div>
        ","null","ITI","","","",""
"","","","","","html-keyboard-response","29","39053","0.0-3.0-1.5","","","","null","
        
        <div style=""text-align: center; position: fixed; top: 5vh; left: 40vw;"">
            <div style=""margin:0 auto; width: 20vw; top: 8vh; font-size: 1vw""> 
                Current score : <font color=""green""> 30 points </font>
            </div>
        </div>
    
        <img class=""stim"" src=./stimuli//pack_easy/cat_1/ex_1_88.png></img>
    ","null","stimulus","","","",""
"","","","","","html-keyboard-response","30","40053","0.0-3.0-2.5","","","","null","
        <div style=""text-align: center; position: fixed; top: 5vh; left: 40vw;"">
            <div style=""margin:0 auto; width: 20vw; top: 8vh; font-size: 1vw""> 
                Current score : <font color=""green""> 30 points </font>
            </div>
        </div>
    ","null","","","","",""
"","","","","","html-keyboard-response","31","40506","0.0-3.0-3.5","","","","451","./stimuli//pack_easy/cat_1/ex_1_88.png","arrowleft","response","ArrowLeft","88","1","true"
"","","","","","html-keyboard-response","32","42008","0.0-3.0-4.5","","","","null","<p> <font color=""green"" size=""4vw""> Correct category! </font> <br> <br> <font color=""green"" size=""7vw""> +10 points </font> </p>","null","feedback","","","",""
"","","","","","html-keyboard-response","33","42359","0.0-3.0-0.6","","","","null","
            
        <div style=""text-align: center; position: fixed; top: 5vh; left: 40vw;"">
            <div style=""margin:0 auto; width: 20vw; top: 8vh; font-size: 1vw""> 
                Current score : <font color=""green""> 40 points </font>
            </div>
        </div>
    
            <div style=""font-size:60px;"">+</div>
        ","null","ITI","","","",""
"","","","","","html-keyboard-response","34","43361","0.0-3.0-1.6","","","","null","
        
        <div style=""text-align: center; position: fixed; top: 5vh; left: 40vw;"">
            <div style=""margin:0 auto; width: 20vw; top: 8vh; font-size: 1vw""> 
                Current score : <font color=""green""> 40 points </font>
            </div>
        </div>
    
        <img class=""stim"" src=./stimuli//pack_easy/cat_2/ex_2_26.png></img>
    ","null","stimulus","","","",""
"","","","","","html-keyboard-response","35","44363","0.0-3.0-2.6","","","","null","
        <div style=""text-align: center; position: fixed; top: 5vh; left: 40vw;"">
            <div style=""margin:0 auto; width: 20vw; top: 8vh; font-size: 1vw""> 
                Current score : <font color=""green""> 40 points </font>
            </div>
        </div>
    ","null","","","","",""
"","","","","","html-keyboard-response","36","44789","0.0-3.0-3.6","","","","424","./stimuli//pack_easy/cat_2/ex_2_26.png","arrowleft","response","ArrowRight","26","2","false"
"","","","","","html-keyboard-response","37","46290","0.0-3.0-4.6","","","","null","<p> <font color=""red"" size=""4vw""> Wrong category! </font> </p>","null","feedback","","","",""
"","","","","","html-keyboard-response","38","46641","0.0-3.0-0.7","","","","null","
            
        <div style=""text-align: center; position: fixed; top: 5vh; left: 40vw;"">
            <div style=""margin:0 auto; width: 20vw; top: 8vh; font-size: 1vw""> 
                Current score : <font color=""green""> 40 points </font>
            </div>
        </div>
    
            <div style=""font-size:60px;"">+</div>
        ","null","ITI","","","",""
"","","","","","html-keyboard-response","39","47643","0.0-3.0-1.7","","","","null","
        
        <div style=""text-align: center; position: fixed; top: 5vh; left: 40vw;"">
            <div style=""margin:0 auto; width: 20vw; top: 8vh; font-size: 1vw""> 
                Current score : <font color=""green""> 40 points </font>
            </div>
        </div>
    
        <img class=""stim"" src=./stimuli//pack_easy/cat_2/ex_2_55.png></img>
    ","null","stimulus","","","",""
"","","","","","html-keyboard-response","40","48644","0.0-3.0-2.7","","","","null","
        <div style=""text-align: center; position: fixed; top: 5vh; left: 40vw;"">
            <div style=""margin:0 auto; width: 20vw; top: 8vh; font-size: 1vw""> 
                Current score : <font color=""green""> 40 points </font>
            </div>
        </div>
    ","null","","","","",""
"","","","","","html-keyboard-response","41","49061","0.0-3.0-3.7","","","","416","./stimuli//pack_easy/cat_2/ex_2_55.png","arrowleft","response","ArrowRight","55","2","false"
"","","","","","html-keyboard-response","42","50562","0.0-3.0-4.7","","","","null","<p> <font color=""red"" size=""4vw""> Wrong category! </font> </p>","null","feedback","","","",""
"","","","","","html-keyboard-response","43","50913","0.0-3.0-0.8","","","","null","
            
        <div style=""text-align: center; position: fixed; top: 5vh; left: 40vw;"">
            <div style=""margin:0 auto; width: 20vw; top: 8vh; font-size: 1vw""> 
                Current score : <font color=""green""> 40 points </font>
            </div>
        </div>
    
            <div style=""font-size:60px;"">+</div>
        ","null","ITI","","","",""
"","","","","","html-keyboard-response","44","51915","0.0-3.0-1.8","","","","null","
        
        <div style=""text-align: center; position: fixed; top: 5vh; left: 40vw;"">
            <div style=""margin:0 auto; width: 20vw; top: 8vh; font-size: 1vw""> 
                Current score : <font color=""green""> 40 points </font>
            </div>
        </div>
    
        <img class=""stim"" src=./stimuli//pack_easy/cat_1/ex_1_89.png></img>
    ","null","stimulus","","","",""
"","","","","","html-keyboard-response","45","52916","0.0-3.0-2.8","","","","null","
        <div style=""text-align: center; position: fixed; top: 5vh; left: 40vw;"">
            <div style=""margin:0 auto; width: 20vw; top: 8vh; font-size: 1vw""> 
                Current score : <font color=""green""> 40 points </font>
            </div>
        </div>
    ","null","","","","",""
"","","","","","html-keyboard-response","46","53204","0.0-3.0-3.8","","","","286","./stimuli//pack_easy/cat_1/ex_1_89.png","arrowleft","response","ArrowLeft","89","1","true"
"","","","","","html-keyboard-response","47","54705","0.0-3.0-4.8","","","","null","<p> <font color=""green"" size=""4vw""> Correct category! </font> <br> <br> <font color=""green"" size=""7vw""> +10 points </font> </p>","null","feedback","","","",""
"","","","","","html-keyboard-response","48","55057","0.0-3.0-0.9","","","","null","
            
        <div style=""text-align: center; position: fixed; top: 5vh; left: 40vw;"">
            <div style=""margin:0 auto; width: 20vw; top: 8vh; font-size: 1vw""> 
                Current score : <font color=""green""> 50 points </font>
            </div>
        </div>
    
            <div style=""font-size:60px;"">+</div>
        ","null","ITI","","","",""
"","","","","","html-keyboard-response","49","56059","0.0-3.0-1.9","","","","null","
        
        <div style=""text-align: center; position: fixed; top: 5vh; left: 40vw;"">
            <div style=""margin:0 auto; width: 20vw; top: 8vh; font-size: 1vw""> 
                Current score : <font color=""green""> 50 points </font>
            </div>
        </div>
    
        <img class=""stim"" src=./stimuli//pack_easy/cat_2/ex_2_15.png></img>
    ","null","stimulus","","","",""
"","","","","","html-keyboard-response","50","57061","0.0-3.0-2.9","","","","null","
        <div style=""text-align: center; position: fixed; top: 5vh; left: 40vw;"">
            <div style=""margin:0 auto; width: 20vw; top: 8vh; font-size: 1vw""> 
                Current score : <font color=""green""> 50 points </font>
            </div>
        </div>
    ","null","","","","",""
"","","","","","html-keyboard-response","51","57378","0.0-3.0-3.9","","","","315","./stimuli//pack_easy/cat_2/ex_2_15.png","arrowright","response","ArrowRight","15","2","true"
"","","","","","html-keyboard-response","52","58879","0.0-3.0-4.9","","","","null","<p> <font color=""green"" size=""4vw""> Correct category! </font> <br> <br> <font color=""green"" size=""7vw""> +10 points </font> </p>","null","feedback","","","",""
"","","","","","html-keyboard-response","53","59231","0.0-3.0-0.10","","","","null","
            
        <div style=""text-align: center; position: fixed; top: 5vh; left: 40vw;"">
            <div style=""margin:0 auto; width: 20vw; top: 8vh; font-size: 1vw""> 
                Current score : <font color=""green""> 60 points </font>
            </div>
        </div>
    
            <div style=""font-size:60px;"">+</div>
        ","null","ITI","","","",""
"","","","","","html-keyboard-response","54","60233","0.0-3.0-1.10","","","","null","
        
        <div style=""text-align: center; position: fixed; top: 5vh; left: 40vw;"">
            <div style=""margin:0 auto; width: 20vw; top: 8vh; font-size: 1vw""> 
                Current score : <font color=""green""> 60 points </font>
            </div>
        </div>
    
        <img class=""stim"" src=./stimuli//pack_easy/cat_2/ex_2_49.png></img>
    ","null","stimulus","","","",""
"","","","","","html-keyboard-response","55","61234","0.0-3.0-2.10","","","","null","
        <div style=""text-align: center; position: fixed; top: 5vh; left: 40vw;"">
            <div style=""margin:0 auto; width: 20vw; top: 8vh; font-size: 1vw""> 
                Current score : <font color=""green""> 60 points </font>
            </div>
        </div>
    ","null","","","","",""
"","","","","","html-keyboard-response","56","61729","0.0-3.0-3.10","","","","493","./stimuli//pack_easy/cat_2/ex_2_49.png","arrowright","response","ArrowRight","49","2","true"
"","","","","","html-keyboard-response","57","63237","0.0-3.0-4.10","","","","null","<p> <font color=""green"" size=""4vw""> Correct category! </font> <br> <br> <font color=""green"" size=""7vw""> +10 points </font> </p>","null","feedback","","","",""
"","","","","","html-keyboard-response","58","63588","0.0-3.0-0.11","","","","null","
            
        <div style=""text-align: center; position: fixed; top: 5vh; left: 40vw;"">
            <div style=""margin:0 auto; width: 20vw; top: 8vh; font-size: 1vw""> 
                Current score : <font color=""green""> 70 points </font>
            </div>
        </div>
    
            <div style=""font-size:60px;"">+</div>
        ","null","ITI","","","",""
"","","","","","html-keyboard-response","59","64591","0.0-3.0-1.11","","","","null","
        
        <div style=""text-align: center; position: fixed; top: 5vh; left: 40vw;"">
            <div style=""margin:0 auto; width: 20vw; top: 8vh; font-size: 1vw""> 
                Current score : <font color=""green""> 70 points </font>
            </div>
        </div>
    
        <img class=""stim"" src=./stimuli//pack_easy/cat_1/ex_1_57.png></img>
    ","null","stimulus","","","",""
"","","","","","html-keyboard-response","60","65592","0.0-3.0-2.11","","","","null","
        <div style=""text-align: center; position: fixed; top: 5vh; left: 40vw;"">
            <div style=""margin:0 auto; width: 20vw; top: 8vh; font-size: 1vw""> 
                Current score : <font color=""green""> 70 points </font>
            </div>
        </div>
    ","null","","","","",""
"","","","","","html-keyboard-response","61","66024","0.0-3.0-3.11","","","","432","./stimuli//pack_easy/cat_1/ex_1_57.png","arrowleft","response","ArrowLeft","57","1","true"
"","","","","","html-keyboard-response","62","67525","0.0-3.0-4.11","","","","null","<p> <font color=""green"" size=""4vw""> Correct category! </font> <br> <br> <font color=""green"" size=""7vw""> +10 points </font> </p>","null","feedback","","","",""
"","","","","","html-keyboard-response","63","67876","0.0-3.0-0.12","","","","null","
            
        <div style=""text-align: center; position: fixed; top: 5vh; left: 40vw;"">
            <div style=""margin:0 auto; width: 20vw; top: 8vh; font-size: 1vw""> 
                Current score : <font color=""green""> 80 points </font>
            </div>
        </div>
    
            <div style=""font-size:60px;"">+</div>
        ","null","ITI","","","",""
"","","","","","html-keyboard-response","64","68878","0.0-3.0-1.12","","","","null","
        
        <div style=""text-align: center; position: fixed; top: 5vh; left: 40vw;"">
            <div style=""margin:0 auto; width: 20vw; top: 8vh; font-size: 1vw""> 
                Current score : <font color=""green""> 80 points </font>
            </div>
        </div>
    
        <img class=""stim"" src=./stimuli//pack_easy/cat_2/ex_2_50.png></img>
    ","null","stimulus","","","",""
"","","","","","html-keyboard-response","65","69879","0.0-3.0-2.12","","","","null","
        <div style=""text-align: center; position: fixed; top: 5vh; left: 40vw;"">
            <div style=""margin:0 auto; width: 20vw; top: 8vh; font-size: 1vw""> 
                Current score : <font color=""green""> 80 points </font>
            </div>
        </div>
    ","null","","","","",""
"","","","","","html-keyboard-response","66","71409","0.0-3.0-3.12","","","","1527","./stimuli//pack_easy/cat_2/ex_2_50.png","arrowleft","response","ArrowRight","50","2","false"
"","","","","","html-keyboard-response","67","72914","0.0-3.0-4.12","","","","null","<p> <font color=""red"" size=""4vw""> Wrong category! </font> </p>","null","feedback","","","",""
"","","","","","html-keyboard-response","68","73266","0.0-3.0-0.13","","","","null","
            
        <div style=""text-align: center; position: fixed; top: 5vh; left: 40vw;"">
            <div style=""margin:0 auto; width: 20vw; top: 8vh; font-size: 1vw""> 
                Current score : <font color=""green""> 80 points </font>
            </div>
        </div>
    
            <div style=""font-size:60px;"">+</div>
        ","null","ITI","","","",""
"","","","","","html-keyboard-response","69","74277","0.0-3.0-1.13","","","","null","
        
        <div style=""text-align: center; position: fixed; top: 5vh; left: 40vw;"">
            <div style=""margin:0 auto; width: 20vw; top: 8vh; font-size: 1vw""> 
                Current score : <font color=""green""> 80 points </font>
            </div>
        </div>
    
        <img class=""stim"" src=./stimuli//pack_easy/cat_1/ex_1_49.png></img>
    ","null","stimulus","","","",""
"","","","","","html-keyboard-response","70","75278","0.0-3.0-2.13","","","","null","
        <div style=""text-align: center; position: fixed; top: 5vh; left: 40vw;"">
            <div style=""margin:0 auto; width: 20vw; top: 8vh; font-size: 1vw""> 
                Current score : <font color=""green""> 80 points </font>
            </div>
        </div>
    ","null","","","","",""
"","","","","","html-keyboard-response","71","75693","0.0-3.0-3.13","","","","414","./stimuli//pack_easy/cat_1/ex_1_49.png","arrowright","response","ArrowLeft","49","1","false"
"","","","","","html-keyboard-response","72","77195","0.0-3.0-4.13","","","","null","<p> <font color=""red"" size=""4vw""> Wrong category! </font> </p>","null","feedback","","","",""
"","","","","","html-keyboard-response","73","77547","0.0-3.0-0.14","","","","null","
            
        <div style=""text-align: center; position: fixed; top: 5vh; left: 40vw;"">
            <div style=""margin:0 auto; width: 20vw; top: 8vh; font-size: 1vw""> 
                Current score : <font color=""green""> 80 points </font>
            </div>
        </div>
    
            <div style=""font-size:60px;"">+</div>
        ","null","ITI","","","",""
"","","","","","html-keyboard-response","74","78549","0.0-3.0-1.14","","","","null","
        
        <div style=""text-align: center; position: fixed; top: 5vh; left: 40vw;"">
            <div style=""margin:0 auto; width: 20vw; top: 8vh; font-size: 1vw""> 
                Current score : <font color=""green""> 80 points </font>
            </div>
        </div>
    
        <img class=""stim"" src=./stimuli//pack_easy/cat_1/ex_1_8.png></img>
    ","null","stimulus","","","",""
"","","","","","html-keyboard-response","75","79550","0.0-3.0-2.14","","","","null","
        <div style=""text-align: center; position: fixed; top: 5vh; left: 40vw;"">
            <div style=""margin:0 auto; width: 20vw; top: 8vh; font-size: 1vw""> 
                Current score : <font color=""green""> 80 points </font>
            </div>
        </div>
    ","null","","","","",""
"","","","","","html-keyboard-response","76","79795","0.0-3.0-3.14","","","","243","./stimuli//pack_easy/cat_1/ex_1_8.png","arrowleft","response","ArrowLeft","8","1","true"
"","","","","","html-keyboard-response","77","81297","0.0-3.0-4.14","","","","null","<p> <font color=""green"" size=""4vw""> Correct category! </font> <br> <br> <font color=""green"" size=""7vw""> +10 points </font> </p>","null","feedback","","","",""
"","","","","","html-keyboard-response","78","81648","0.0-3.0-0.15","","","","null","
            
        <div style=""text-align: center; position: fixed; top: 5vh; left: 40vw;"">
            <div style=""margin:0 auto; width: 20vw; top: 8vh; font-size: 1vw""> 
                Current score : <font color=""green""> 90 points </font>
            </div>
        </div>
    
            <div style=""font-size:60px;"">+</div>
        ","null","ITI","","","",""
"","","","","","html-keyboard-response","79","82649","0.0-3.0-1.15","","","","null","
        
        <div style=""text-align: center; position: fixed; top: 5vh; left: 40vw;"">
            <div style=""margin:0 auto; width: 20vw; top: 8vh; font-size: 1vw""> 
                Current score : <font color=""green""> 90 points </font>
            </div>
        </div>
    
        <img class=""stim"" src=./stimuli//pack_easy/cat_1/ex_1_1.png></img>
    ","null","stimulus","","","",""
"","","","","","html-keyboard-response","80","83651","0.0-3.0-2.15","","","","null","
        <div style=""text-align: center; position: fixed; top: 5vh; left: 40vw;"">
            <div style=""margin:0 auto; width: 20vw; top: 8vh; font-size: 1vw""> 
                Current score : <font color=""green""> 90 points </font>
            </div>
        </div>
    ","null","","","","",""
"","","","","","html-keyboard-response","81","83961","0.0-3.0-3.15","","","","308","./stimuli//pack_easy/cat_1/ex_1_1.png","arrowleft","response","ArrowLeft","1","1","true"
"","","","","","html-keyboard-response","82","85462","0.0-3.0-4.15","","","","null","<p> <font color=""green"" size=""4vw""> Correct category! </font> <br> <br> <font color=""green"" size=""7vw""> +10 points </font> </p>","null","feedback","","","",""
"","","","","","html-keyboard-response","83","85814","0.0-3.0-0.16","","","","null","
            
        <div style=""text-align: center; position: fixed; top: 5vh; left: 40vw;"">
            <div style=""margin:0 auto; width: 20vw; top: 8vh; font-size: 1vw""> 
                Current score : <font color=""green""> 100 points </font>
            </div>
        </div>
    
            <div style=""font-size:60px;"">+</div>
        ","null","ITI","","","",""
"","","","","","html-keyboard-response","84","86816","0.0-3.0-1.16","","","","null","
        
        <div style=""text-align: center; position: fixed; top: 5vh; left: 40vw;"">
            <div style=""margin:0 auto; width: 20vw; top: 8vh; font-size: 1vw""> 
                Current score : <font color=""green""> 100 points </font>
            </div>
        </div>
    
        <img class=""stim"" src=./stimuli//pack_easy/cat_2/ex_2_41.png></img>
    ","null","stimulus","","","",""
"","","","","","html-keyboard-response","85","87817","0.0-3.0-2.16","","","","null","
        <div style=""text-align: center; position: fixed; top: 5vh; left: 40vw;"">
            <div style=""margin:0 auto; width: 20vw; top: 8vh; font-size: 1vw""> 
                Current score : <font color=""green""> 100 points </font>
            </div>
        </div>
    ","null","","","","",""
"","","","","","html-keyboard-response","86","89102","0.0-3.0-3.16","","","","1285","./stimuli//pack_easy/cat_2/ex_2_41.png","arrowright","response","ArrowRight","41","2","true"
"","","","","","html-keyboard-response","87","90603","0.0-3.0-4.16","","","","null","<p> <font color=""green"" size=""4vw""> Correct category! </font> <br> <br> <font color=""green"" size=""7vw""> +10 points </font> </p>","null","feedback","","","",""
"","","","","","html-keyboard-response","88","90954","0.0-3.0-0.17","","","","null","
            
        <div style=""text-align: center; position: fixed; top: 5vh; left: 40vw;"">
            <div style=""margin:0 auto; width: 20vw; top: 8vh; font-size: 1vw""> 
                Current score : <font color=""green""> 110 points </font>
            </div>
        </div>
    
            <div style=""font-size:60px;"">+</div>
        ","null","ITI","","","",""
"","","","","","html-keyboard-response","89","91957","0.0-3.0-1.17","","","","null","
        
        <div style=""text-align: center; position: fixed; top: 5vh; left: 40vw;"">
            <div style=""margin:0 auto; width: 20vw; top: 8vh; font-size: 1vw""> 
                Current score : <font color=""green""> 110 points </font>
            </div>
        </div>
    
        <img class=""stim"" src=./stimuli//pack_easy/cat_2/ex_2_37.png></img>
    ","null","stimulus","","","",""
"","","","","","html-keyboard-response","90","92958","0.0-3.0-2.17","","","","null","
        <div style=""text-align: center; position: fixed; top: 5vh; left: 40vw;"">
            <div style=""margin:0 auto; width: 20vw; top: 8vh; font-size: 1vw""> 
                Current score : <font color=""green""> 110 points </font>
            </div>
        </div>
    ","null","","","","",""
"","","","","","html-keyboard-response","91","93420","0.0-3.0-3.17","","","","461","./stimuli//pack_easy/cat_2/ex_2_37.png","arrowright","response","ArrowRight","37","2","true"
"","","","","","html-keyboard-response","92","94961","0.0-3.0-4.17","","","","null","<p> <font color=""green"" size=""4vw""> Correct category! </font> <br> <br> <font color=""green"" size=""7vw""> +10 points </font> </p>","null","feedback","","","",""
"","","","","","html-keyboard-response","93","95312","0.0-3.0-0.18","","","","null","
            
        <div style=""text-align: center; position: fixed; top: 5vh; left: 40vw;"">
            <div style=""margin:0 auto; width: 20vw; top: 8vh; font-size: 1vw""> 
                Current score : <font color=""green""> 120 points </font>
            </div>
        </div>
    
            <div style=""font-size:60px;"">+</div>
        ","null","ITI","","","",""
"","","","","","html-keyboard-response","94","96314","0.0-3.0-1.18","","","","null","
        
        <div style=""text-align: center; position: fixed; top: 5vh; left: 40vw;"">
            <div style=""margin:0 auto; width: 20vw; top: 8vh; font-size: 1vw""> 
                Current score : <font color=""green""> 120 points </font>
            </div>
        </div>
    
        <img class=""stim"" src=./stimuli//pack_easy/cat_1/ex_1_14.png></img>
    ","null","stimulus","","","",""
"","","","","","html-keyboard-response","95","97315","0.0-3.0-2.18","","","","null","
        <div style=""text-align: center; position: fixed; top: 5vh; left: 40vw;"">
            <div style=""margin:0 auto; width: 20vw; top: 8vh; font-size: 1vw""> 
                Current score : <font color=""green""> 120 points </font>
            </div>
        </div>
    ","null","","","","",""
"","","","","","html-keyboard-response","96","97667","0.0-3.0-3.18","","","","350","./stimuli//pack_easy/cat_1/ex_1_14.png","arrowleft","response","ArrowLeft","14","1","true"
"","","","","","html-keyboard-response","97","99168","0.0-3.0-4.18","","","","null","<p> <font color=""green"" size=""4vw""> Correct category! </font> <br> <br> <font color=""green"" size=""7vw""> +10 points </font> </p>","null","feedback","","","",""
"","","","","","html-keyboard-response","98","99519","0.0-3.0-0.19","","","","null","
            
        <div style=""text-align: center; position: fixed; top: 5vh; left: 40vw;"">
            <div style=""margin:0 auto; width: 20vw; top: 8vh; font-size: 1vw""> 
                Current score : <font color=""green""> 130 points </font>
            </div>
        </div>
    
            <div style=""font-size:60px;"">+</div>
        ","null","ITI","","","",""
"","","","","","html-keyboard-response","99","100521","0.0-3.0-1.19","","","","null","
        
        <div style=""text-align: center; position: fixed; top: 5vh; left: 40vw;"">
            <div style=""margin:0 auto; width: 20vw; top: 8vh; font-size: 1vw""> 
                Current score : <font color=""green""> 130 points </font>
            </div>
        </div>
    
        <img class=""stim"" src=./stimuli//pack_easy/cat_2/ex_2_69.png></img>
    ","null","stimulus","","","",""
"","","","","","html-keyboard-response","100","101523","0.0-3.0-2.19","","","","null","
        <div style=""text-align: center; position: fixed; top: 5vh; left: 40vw;"">
            <div style=""margin:0 auto; width: 20vw; top: 8vh; font-size: 1vw""> 
                Current score : <font color=""green""> 130 points </font>
            </div>
        </div>
    ","null","","","","",""
"","","","","","html-keyboard-response","101","101938","0.0-3.0-3.19","","","","413","./stimuli//pack_easy/cat_2/ex_2_69.png","arrowright","response","ArrowRight","69","2","true"
"","","","","","html-keyboard-response","102","103439","0.0-3.0-4.19","","","","null","<p> <font color=""green"" size=""4vw""> Correct category! </font> <br> <br> <font color=""green"" size=""7vw""> +10 points </font> </p>","null","feedback","","","",""
"","","","","","html-keyboard-response","103","103790","0.0-3.0-0.20","","","","null","
            
        <div style=""text-align: center; position: fixed; top: 5vh; left: 40vw;"">
            <div style=""margin:0 auto; width: 20vw; top: 8vh; font-size: 1vw""> 
                Current score : <font color=""green""> 140 points </font>
            </div>
        </div>
    
            <div style=""font-size:60px;"">+</div>
        ","null","ITI","","","",""
"","","","","","html-keyboard-response","104","104791","0.0-3.0-1.20","","","","null","
        
        <div style=""text-align: center; position: fixed; top: 5vh; left: 40vw;"">
            <div style=""margin:0 auto; width: 20vw; top: 8vh; font-size: 1vw""> 
                Current score : <font color=""green""> 140 points </font>
            </div>
        </div>
    
        <img class=""stim"" src=./stimuli//pack_easy/cat_2/ex_2_90.png></img>
    ","null","stimulus","","","",""
"","","","","","html-keyboard-response","105","105793","0.0-3.0-2.20","","","","null","
        <div style=""text-align: center; position: fixed; top: 5vh; left: 40vw;"">
            <div style=""margin:0 auto; width: 20vw; top: 8vh; font-size: 1vw""> 
                Current score : <font color=""green""> 140 points </font>
            </div>
        </div>
    ","null","","","","",""
"","","","","","html-keyboard-response","106","106587","0.0-3.0-3.20","","","","793","./stimuli//pack_easy/cat_2/ex_2_90.png","arrowright","response","ArrowRight","90","2","true"
"","","","","","html-keyboard-response","107","108088","0.0-3.0-4.20","","","","null","<p> <font color=""green"" size=""4vw""> Correct category! </font> <br> <br> <font color=""green"" size=""7vw""> +10 points </font> </p>","null","feedback","","","",""
"","","","","","html-keyboard-response","108","108440","0.0-3.0-0.21","","","","null","
            
        <div style=""text-align: center; position: fixed; top: 5vh; left: 40vw;"">
            <div style=""margin:0 auto; width: 20vw; top: 8vh; font-size: 1vw""> 
                Current score : <font color=""green""> 150 points </font>
            </div>
        </div>
    
            <div style=""font-size:60px;"">+</div>
        ","null","ITI","","","",""
"","","","","","html-keyboard-response","109","109442","0.0-3.0-1.21","","","","null","
        
        <div style=""text-align: center; position: fixed; top: 5vh; left: 40vw;"">
            <div style=""margin:0 auto; width: 20vw; top: 8vh; font-size: 1vw""> 
                Current score : <font color=""green""> 150 points </font>
            </div>
        </div>
    
        <img class=""stim"" src=./stimuli//pack_easy/cat_2/ex_2_17.png></img>
    ","null","stimulus","","","",""
"","","","","","html-keyboard-response","110","110443","0.0-3.0-2.21","","","","null","
        <div style=""text-align: center; position: fixed; top: 5vh; left: 40vw;"">
            <div style=""margin:0 auto; width: 20vw; top: 8vh; font-size: 1vw""> 
                Current score : <font color=""green""> 150 points </font>
            </div>
        </div>
    ","null","","","","",""
"","","","","","html-keyboard-response","111","110747","0.0-3.0-3.21","","","","302","./stimuli//pack_easy/cat_2/ex_2_17.png","arrowright","response","ArrowRight","17","2","true"
"","","","","","html-keyboard-response","112","112247","0.0-3.0-4.21","","","","null","<p> <font color=""green"" size=""4vw""> Correct category! </font> <br> <br> <font color=""green"" size=""7vw""> +10 points </font> </p>","null","feedback","","","",""
"","","","","","html-keyboard-response","113","112599","0.0-3.0-0.22","","","","null","
            
        <div style=""text-align: center; position: fixed; top: 5vh; left: 40vw;"">
            <div style=""margin:0 auto; width: 20vw; top: 8vh; font-size: 1vw""> 
                Current score : <font color=""green""> 160 points </font>
            </div>
        </div>
    
            <div style=""font-size:60px;"">+</div>
        ","null","ITI","","","",""
"","","","","","html-keyboard-response","114","113601","0.0-3.0-1.22","","","","null","
        
        <div style=""text-align: center; position: fixed; top: 5vh; left: 40vw;"">
            <div style=""margin:0 auto; width: 20vw; top: 8vh; font-size: 1vw""> 
                Current score : <font color=""green""> 160 points </font>
            </div>
        </div>
    
        <img class=""stim"" src=./stimuli//pack_easy/cat_2/ex_2_16.png></img>
    ","null","stimulus","","","",""
"","","","","","html-keyboard-response","115","114602","0.0-3.0-2.22","","","","null","
        <div style=""text-align: center; position: fixed; top: 5vh; left: 40vw;"">
            <div style=""margin:0 auto; width: 20vw; top: 8vh; font-size: 1vw""> 
                Current score : <font color=""green""> 160 points </font>
            </div>
        </div>
    ","null","","","","",""
"","","","","","html-keyboard-response","116","115190","0.0-3.0-3.22","","","","587","./stimuli//pack_easy/cat_2/ex_2_16.png","arrowleft","response","ArrowRight","16","2","false"
"","","","","","html-keyboard-response","117","116692","0.0-3.0-4.22","","","","null","<p> <font color=""red"" size=""4vw""> Wrong category! </font> </p>","null","feedback","","","",""
"","","","","","html-keyboard-response","118","117043","0.0-3.0-0.23","","","","null","
            
        <div style=""text-align: center; position: fixed; top: 5vh; left: 40vw;"">
            <div style=""margin:0 auto; width: 20vw; top: 8vh; font-size: 1vw""> 
                Current score : <font color=""green""> 160 points </font>
            </div>
        </div>
    
            <div style=""font-size:60px;"">+</div>
        ","null","ITI","","","",""
"","","","","","html-keyboard-response","119","118045","0.0-3.0-1.23","","","","null","
        
        <div style=""text-align: center; position: fixed; top: 5vh; left: 40vw;"">
            <div style=""margin:0 auto; width: 20vw; top: 8vh; font-size: 1vw""> 
                Current score : <font color=""green""> 160 points </font>
            </div>
        </div>
    
        <img class=""stim"" src=./stimuli//pack_easy/cat_2/ex_2_80.png></img>
    ","null","stimulus","","","",""
"","","","","","html-keyboard-response","120","119114","0.0-3.0-2.23","","","","null","
        <div style=""text-align: center; position: fixed; top: 5vh; left: 40vw;"">
            <div style=""margin:0 auto; width: 20vw; top: 8vh; font-size: 1vw""> 
                Current score : <font color=""green""> 160 points </font>
            </div>
        </div>
    ","null","","","","",""
"","","","","","html-keyboard-response","121","119462","0.0-3.0-3.23","","","","346","./stimuli//pack_easy/cat_2/ex_2_80.png","arrowright","response","ArrowRight","80","2","true"
"","","","","","html-keyboard-response","122","120963","0.0-3.0-4.23","","","","null","<p> <font color=""green"" size=""4vw""> Correct category! </font> <br> <br> <font color=""green"" size=""7vw""> +10 points </font> </p>","null","feedback","","","",""
"","","","","","html-keyboard-response","123","121314","0.0-3.0-0.24","","","","null","
            
        <div style=""text-align: center; position: fixed; top: 5vh; left: 40vw;"">
            <div style=""margin:0 auto; width: 20vw; top: 8vh; font-size: 1vw""> 
                Current score : <font color=""green""> 170 points </font>
            </div>
        </div>
    
            <div style=""font-size:60px;"">+</div>
        ","null","ITI","","","",""
"","","","","","html-keyboard-response","124","122316","0.0-3.0-1.24","","","","null","
        
        <div style=""text-align: center; position: fixed; top: 5vh; left: 40vw;"">
            <div style=""margin:0 auto; width: 20vw; top: 8vh; font-size: 1vw""> 
                Current score : <font color=""green""> 170 points </font>
            </div>
        </div>
    
        <img class=""stim"" src=./stimuli//pack_easy/cat_2/ex_2_44.png></img>
    ","null","stimulus","","","",""
"","","","","","html-keyboard-response","125","123317","0.0-3.0-2.24","","","","null","
        <div style=""text-align: center; position: fixed; top: 5vh; left: 40vw;"">
            <div style=""margin:0 auto; width: 20vw; top: 8vh; font-size: 1vw""> 
                Current score : <font color=""green""> 170 points </font>
            </div>
        </div>
    ","null","","","","",""
"","","","","","html-keyboard-response","126","123711","0.0-3.0-3.24","","","","392","./stimuli//pack_easy/cat_2/ex_2_44.png","arrowright","response","ArrowRight","44","2","true"
"","","","","","html-keyboard-response","127","125212","0.0-3.0-4.24","","","","null","<p> <font color=""green"" size=""4vw""> Correct category! </font> <br> <br> <font color=""green"" size=""7vw""> +10 points </font> </p>","null","feedback","","","",""
"","","","","","html-keyboard-response","128","125563","0.0-3.0-0.25","","","","null","
            
        <div style=""text-align: center; position: fixed; top: 5vh; left: 40vw;"">
            <div style=""margin:0 auto; width: 20vw; top: 8vh; font-size: 1vw""> 
                Current score : <font color=""green""> 180 points </font>
            </div>
        </div>
    
            <div style=""font-size:60px;"">+</div>
        ","null","ITI","","","",""
"","","","","","html-keyboard-response","129","126566","0.0-3.0-1.25","","","","null","
        
        <div style=""text-align: center; position: fixed; top: 5vh; left: 40vw;"">
            <div style=""margin:0 auto; width: 20vw; top: 8vh; font-size: 1vw""> 
                Current score : <font color=""green""> 180 points </font>
            </div>
        </div>
    
        <img class=""stim"" src=./stimuli//pack_easy/cat_1/ex_1_71.png></img>
    ","null","stimulus","","","",""
"","","","","","html-keyboard-response","130","127566","0.0-3.0-2.25","","","","null","
        <div style=""text-align: center; position: fixed; top: 5vh; left: 40vw;"">
            <div style=""margin:0 auto; width: 20vw; top: 8vh; font-size: 1vw""> 
                Current score : <font color=""green""> 180 points </font>
            </div>
        </div>
    ","null","","","","",""
"","","","","","html-keyboard-response","131","128243","0.0-3.0-3.25","","","","675","./stimuli//pack_easy/cat_1/ex_1_71.png","arrowright","response","ArrowLeft","71","1","false"
"","","","","","html-keyboard-response","132","129744","0.0-3.0-4.25","","","","null","<p> <font color=""red"" size=""4vw""> Wrong category! </font> </p>","null","feedback","","","",""
"","","","","","html-keyboard-response","133","130095","0.0-3.0-0.26","","","","null","
            
        <div style=""text-align: center; position: fixed; top: 5vh; left: 40vw;"">
            <div style=""margin:0 auto; width: 20vw; top: 8vh; font-size: 1vw""> 
                Current score : <font color=""green""> 180 points </font>
            </div>
        </div>
    
            <div style=""font-size:60px;"">+</div>
        ","null","ITI","","","",""
"","","","","","html-keyboard-response","134","131096","0.0-3.0-1.26","","","","null","
        
        <div style=""text-align: center; position: fixed; top: 5vh; left: 40vw;"">
            <div style=""margin:0 auto; width: 20vw; top: 8vh; font-size: 1vw""> 
                Current score : <font color=""green""> 180 points </font>
            </div>
        </div>
    
        <img class=""stim"" src=./stimuli//pack_easy/cat_1/ex_1_52.png></img>
    ","null","stimulus","","","",""
"","","","","","html-keyboard-response","135","132097","0.0-3.0-2.26","","","","null","
        <div style=""text-align: center; position: fixed; top: 5vh; left: 40vw;"">
            <div style=""margin:0 auto; width: 20vw; top: 8vh; font-size: 1vw""> 
                Current score : <font color=""green""> 180 points </font>
            </div>
        </div>
    ","null","","","","",""
"","","","","","html-keyboard-response","136","132369","0.0-3.0-3.26","","","","271","./stimuli//pack_easy/cat_1/ex_1_52.png","arrowleft","response","ArrowLeft","52","1","true"
"","","","","","html-keyboard-response","137","133870","0.0-3.0-4.26","","","","null","<p> <font color=""green"" size=""4vw""> Correct category! </font> <br> <br> <font color=""green"" size=""7vw""> +10 points </font> </p>","null","feedback","","","",""
"","","","","","html-keyboard-response","138","134222","0.0-3.0-0.27","","","","null","
            
        <div style=""text-align: center; position: fixed; top: 5vh; left: 40vw;"">
            <div style=""margin:0 auto; width: 20vw; top: 8vh; font-size: 1vw""> 
                Current score : <font color=""green""> 190 points </font>
            </div>
        </div>
    
            <div style=""font-size:60px;"">+</div>
        ","null","ITI","","","",""
"","","","","","html-keyboard-response","139","135223","0.0-3.0-1.27","","","","null","
        
        <div style=""text-align: center; position: fixed; top: 5vh; left: 40vw;"">
            <div style=""margin:0 auto; width: 20vw; top: 8vh; font-size: 1vw""> 
                Current score : <font color=""green""> 190 points </font>
            </div>
        </div>
    
        <img class=""stim"" src=./stimuli//pack_easy/cat_1/ex_1_45.png></img>
    ","null","stimulus","","","",""
"","","","","","html-keyboard-response","140","136225","0.0-3.0-2.27","","","","null","
        <div style=""text-align: center; position: fixed; top: 5vh; left: 40vw;"">
            <div style=""margin:0 auto; width: 20vw; top: 8vh; font-size: 1vw""> 
                Current score : <font color=""green""> 190 points </font>
            </div>
        </div>
    ","null","","","","",""
"","","","","","html-keyboard-response","141","136538","0.0-3.0-3.27","","","","311","./stimuli//pack_easy/cat_1/ex_1_45.png","arrowleft","response","ArrowLeft","45","1","true"
"","","","","","html-keyboard-response","142","138040","0.0-3.0-4.27","","","","null","<p> <font color=""green"" size=""4vw""> Correct category! </font> <br> <br> <font color=""green"" size=""7vw""> +10 points </font> </p>","null","feedback","","","",""
"","","","","","html-keyboard-response","143","138390","0.0-3.0-0.28","","","","null","
            
        <div style=""text-align: center; position: fixed; top: 5vh; left: 40vw;"">
            <div style=""margin:0 auto; width: 20vw; top: 8vh; font-size: 1vw""> 
                Current score : <font color=""green""> 200 points </font>
            </div>
        </div>
    
            <div style=""font-size:60px;"">+</div>
        ","null","ITI","","","",""
"","","","","","html-keyboard-response","144","139392","0.0-3.0-1.28","","","","null","
        
        <div style=""text-align: center; position: fixed; top: 5vh; left: 40vw;"">
            <div style=""margin:0 auto; width: 20vw; top: 8vh; font-size: 1vw""> 
                Current score : <font color=""green""> 200 points </font>
            </div>
        </div>
    
        <img class=""stim"" src=./stimuli//pack_easy/cat_1/ex_1_81.png></img>
    ","null","stimulus","","","",""
"","","","","","html-keyboard-response","145","140394","0.0-3.0-2.28","","","","null","
        <div style=""text-align: center; position: fixed; top: 5vh; left: 40vw;"">
            <div style=""margin:0 auto; width: 20vw; top: 8vh; font-size: 1vw""> 
                Current score : <font color=""green""> 200 points </font>
            </div>
        </div>
    ","null","","","","",""
"","","","","","html-keyboard-response","146","140707","0.0-3.0-3.28","","","","312","./stimuli//pack_easy/cat_1/ex_1_81.png","arrowleft","response","ArrowLeft","81","1","true"
"","","","","","html-keyboard-response","147","142208","0.0-3.0-4.28","","","","null","<p> <font color=""green"" size=""4vw""> Correct category! </font> <br> <br> <font color=""green"" size=""7vw""> +10 points </font> </p>","null","feedback","","","",""
"","","","","","html-keyboard-response","148","142560","0.0-3.0-0.29","","","","null","
            
        <div style=""text-align: center; position: fixed; top: 5vh; left: 40vw;"">
            <div style=""margin:0 auto; width: 20vw; top: 8vh; font-size: 1vw""> 
                Current score : <font color=""green""> 210 points </font>
            </div>
        </div>
    
            <div style=""font-size:60px;"">+</div>
        ","null","ITI","","","",""
"","","","","","html-keyboard-response","149","143562","0.0-3.0-1.29","","","","null","
        
        <div style=""text-align: center; position: fixed; top: 5vh; left: 40vw;"">
            <div style=""margin:0 auto; width: 20vw; top: 8vh; font-size: 1vw""> 
                Current score : <font color=""green""> 210 points </font>
            </div>
        </div>
    
        <img class=""stim"" src=./stimuli//pack_easy/cat_1/ex_1_67.png></img>
    ","null","stimulus","","","",""
"","","","","","html-keyboard-response","150","144563","0.0-3.0-2.29","","","","null","
        <div style=""text-align: center; position: fixed; top: 5vh; left: 40vw;"">
            <div style=""margin:0 auto; width: 20vw; top: 8vh; font-size: 1vw""> 
                Current score : <font color=""green""> 210 points </font>
            </div>
        </div>
    ","null","","","","",""
"","","","","","html-keyboard-response","151","144886","0.0-3.0-3.29","","","","320","./stimuli//pack_easy/cat_1/ex_1_67.png","arrowleft","response","ArrowLeft","67","1","true"
"","","","","","html-keyboard-response","152","146387","0.0-3.0-4.29","","","","null","<p> <font color=""green"" size=""4vw""> Correct category! </font> <br> <br> <font color=""green"" size=""7vw""> +10 points </font> </p>","null","feedback","","","",""
"","","","","","html-keyboard-response","153","146738","0.0-3.0-0.30","","","","null","
            
        <div style=""text-align: center; position: fixed; top: 5vh; left: 40vw;"">
            <div style=""margin:0 auto; width: 20vw; top: 8vh; font-size: 1vw""> 
                Current score : <font color=""green""> 220 points </font>
            </div>
        </div>
    
            <div style=""font-size:60px;"">+</div>
        ","null","ITI","","","",""
"","","","","","html-keyboard-response","154","147740","0.0-3.0-1.30","","","","null","
        
        <div style=""text-align: center; position: fixed; top: 5vh; left: 40vw;"">
            <div style=""margin:0 auto; width: 20vw; top: 8vh; font-size: 1vw""> 
                Current score : <font color=""green""> 220 points </font>
            </div>
        </div>
    
        <img class=""stim"" src=./stimuli//pack_easy/cat_2/ex_2_2.png></img>
    ","null","stimulus","","","",""
"","","","","","html-keyboard-response","155","148741","0.0-3.0-2.30","","","","null","
        <div style=""text-align: center; position: fixed; top: 5vh; left: 40vw;"">
            <div style=""margin:0 auto; width: 20vw; top: 8vh; font-size: 1vw""> 
                Current score : <font color=""green""> 220 points </font>
            </div>
        </div>
    ","null","","","","",""
"","","","","","html-keyboard-response","156","149188","0.0-3.0-3.30","","","","446","./stimuli//pack_easy/cat_2/ex_2_2.png","arrowright","response","ArrowRight","2","2","true"
"","","","","","html-keyboard-response","157","150690","0.0-3.0-4.30","","","","null","<p> <font color=""green"" size=""4vw""> Correct category! </font> <br> <br> <font color=""green"" size=""7vw""> +10 points </font> </p>","null","feedback","","","",""
"","","","","","html-keyboard-response","158","151041","0.0-3.0-0.31","","","","null","
            
        <div style=""text-align: center; position: fixed; top: 5vh; left: 40vw;"">
            <div style=""margin:0 auto; width: 20vw; top: 8vh; font-size: 1vw""> 
                Current score : <font color=""green""> 230 points </font>
            </div>
        </div>
    
            <div style=""font-size:60px;"">+</div>
        ","null","ITI","","","",""
"","","","","","html-keyboard-response","159","152044","0.0-3.0-1.31","","","","null","
        
        <div style=""text-align: center; position: fixed; top: 5vh; left: 40vw;"">
            <div style=""margin:0 auto; width: 20vw; top: 8vh; font-size: 1vw""> 
                Current score : <font color=""green""> 230 points </font>
            </div>
        </div>
    
        <img class=""stim"" src=./stimuli//pack_easy/cat_2/ex_2_13.png></img>
    ","null","stimulus","","","",""
"","","","","","html-keyboard-response","160","153045","0.0-3.0-2.31","","","","null","
        <div style=""text-align: center; position: fixed; top: 5vh; left: 40vw;"">
            <div style=""margin:0 auto; width: 20vw; top: 8vh; font-size: 1vw""> 
                Current score : <font color=""green""> 230 points </font>
            </div>
        </div>
    ","null","","","","",""
"","","","","","html-keyboard-response","161","153472","0.0-3.0-3.31","","","","426","./stimuli//pack_easy/cat_2/ex_2_13.png","arrowright","response","ArrowRight","13","2","true"
"","","","","","html-keyboard-response","162","154973","0.0-3.0-4.31","","","","null","<p> <font color=""green"" size=""4vw""> Correct category! </font> <br> <br> <font color=""green"" size=""7vw""> +10 points </font> </p>","null","feedback","","","",""
"","","","","","html-keyboard-response","163","155324","0.0-3.0-0.32","","","","null","
            
        <div style=""text-align: center; position: fixed; top: 5vh; left: 40vw;"">
            <div style=""margin:0 auto; width: 20vw; top: 8vh; font-size: 1vw""> 
                Current score : <font color=""green""> 240 points </font>
            </div>
        </div>
    
            <div style=""font-size:60px;"">+</div>
        ","null","ITI","","","",""
"","","","","","html-keyboard-response","164","156327","0.0-3.0-1.32","","","","null","
        
        <div style=""text-align: center; position: fixed; top: 5vh; left: 40vw;"">
            <div style=""margin:0 auto; width: 20vw; top: 8vh; font-size: 1vw""> 
                Current score : <font color=""green""> 240 points </font>
            </div>
        </div>
    
        <img class=""stim"" src=./stimuli//pack_easy/cat_2/ex_2_63.png></img>
    ","null","stimulus","","","",""
"","","","","","html-keyboard-response","165","157328","0.0-3.0-2.32","","","","null","
        <div style=""text-align: center; position: fixed; top: 5vh; left: 40vw;"">
            <div style=""margin:0 auto; width: 20vw; top: 8vh; font-size: 1vw""> 
                Current score : <font color=""green""> 240 points </font>
            </div>
        </div>
    ","null","","","","",""
"","","","","","html-keyboard-response","166","157696","0.0-3.0-3.32","","","","365","./stimuli//pack_easy/cat_2/ex_2_63.png","arrowright","response","ArrowRight","63","2","true"
"","","","","","html-keyboard-response","167","159197","0.0-3.0-4.32","","","","null","<p> <font color=""green"" size=""4vw""> Correct category! </font> <br> <br> <font color=""green"" size=""7vw""> +10 points </font> </p>","null","feedback","","","",""
"","","","","","html-keyboard-response","168","159548","0.0-3.0-0.33","","","","null","
            
        <div style=""text-align: center; position: fixed; top: 5vh; left: 40vw;"">
            <div style=""margin:0 auto; width: 20vw; top: 8vh; font-size: 1vw""> 
                Current score : <font color=""green""> 250 points </font>
            </div>
        </div>
    
            <div style=""font-size:60px;"">+</div>
        ","null","ITI","","","",""
"","","","","","html-keyboard-response","169","160550","0.0-3.0-1.33","","","","null","
        
        <div style=""text-align: center; position: fixed; top: 5vh; left: 40vw;"">
            <div style=""margin:0 auto; width: 20vw; top: 8vh; font-size: 1vw""> 
                Current score : <font color=""green""> 250 points </font>
            </div>
        </div>
    
        <img class=""stim"" src=./stimuli//pack_easy/cat_2/ex_2_73.png></img>
    ","null","stimulus","","","",""
"","","","","","html-keyboard-response","170","161551","0.0-3.0-2.33","","","","null","
        <div style=""text-align: center; position: fixed; top: 5vh; left: 40vw;"">
            <div style=""margin:0 auto; width: 20vw; top: 8vh; font-size: 1vw""> 
                Current score : <font color=""green""> 250 points </font>
            </div>
        </div>
    ","null","","","","",""
"","","","","","html-keyboard-response","171","161886","0.0-3.0-3.33","","","","335","./stimuli//pack_easy/cat_2/ex_2_73.png","arrowright","response","ArrowRight","73","2","true"
"","","","","","html-keyboard-response","172","163387","0.0-3.0-4.33","","","","null","<p> <font color=""green"" size=""4vw""> Correct category! </font> <br> <br> <font color=""green"" size=""7vw""> +10 points </font> </p>","null","feedback","","","",""
"","","","","","html-keyboard-response","173","163738","0.0-3.0-0.34","","","","null","
            
        <div style=""text-align: center; position: fixed; top: 5vh; left: 40vw;"">
            <div style=""margin:0 auto; width: 20vw; top: 8vh; font-size: 1vw""> 
                Current score : <font color=""green""> 260 points </font>
            </div>
        </div>
    
            <div style=""font-size:60px;"">+</div>
        ","null","ITI","","","",""
"","","","","","html-keyboard-response","174","164741","0.0-3.0-1.34","","","","null","
        
        <div style=""text-align: center; position: fixed; top: 5vh; left: 40vw;"">
            <div style=""margin:0 auto; width: 20vw; top: 8vh; font-size: 1vw""> 
                Current score : <font color=""green""> 260 points </font>
            </div>
        </div>
    
        <img class=""stim"" src=./stimuli//pack_easy/cat_2/ex_2_100.png></img>
    ","null","stimulus","","","",""
"","","","","","html-keyboard-response","175","165742","0.0-3.0-2.34","","","","null","
        <div style=""text-align: center; position: fixed; top: 5vh; left: 40vw;"">
            <div style=""margin:0 auto; width: 20vw; top: 8vh; font-size: 1vw""> 
                Current score : <font color=""green""> 260 points </font>
            </div>
        </div>
    ","null","","","","",""
"","","","","","html-keyboard-response","176","166079","0.0-3.0-3.34","","","","335","./stimuli//pack_easy/cat_2/ex_2_100.png","arrowright","response","ArrowRight","100","2","true"
"","","","","","html-keyboard-response","177","167580","0.0-3.0-4.34","","","","null","<p> <font color=""green"" size=""4vw""> Correct category! </font> <br> <br> <font color=""green"" size=""7vw""> +10 points </font> </p>","null","feedback","","","",""
"","","","","","html-keyboard-response","178","167931","0.0-3.0-0.35","","","","null","
            
        <div style=""text-align: center; position: fixed; top: 5vh; left: 40vw;"">
            <div style=""margin:0 auto; width: 20vw; top: 8vh; font-size: 1vw""> 
                Current score : <font color=""green""> 270 points </font>
            </div>
        </div>
    
            <div style=""font-size:60px;"">+</div>
        ","null","ITI","","","",""
"","","","","","html-keyboard-response","179","168934","0.0-3.0-1.35","","","","null","
        
        <div style=""text-align: center; position: fixed; top: 5vh; left: 40vw;"">
            <div style=""margin:0 auto; width: 20vw; top: 8vh; font-size: 1vw""> 
                Current score : <font color=""green""> 270 points </font>
            </div>
        </div>
    
        <img class=""stim"" src=./stimuli//pack_easy/cat_2/ex_2_71.png></img>
    ","null","stimulus","","","",""
"","","","","","html-keyboard-response","180","169936","0.0-3.0-2.35","","","","null","
        <div style=""text-align: center; position: fixed; top: 5vh; left: 40vw;"">
            <div style=""margin:0 auto; width: 20vw; top: 8vh; font-size: 1vw""> 
                Current score : <font color=""green""> 270 points </font>
            </div>
        </div>
    ","null","","","","",""
"","","","","","html-keyboard-response","181","172009","0.0-3.0-3.35","","","","2073","./stimuli//pack_easy/cat_2/ex_2_71.png","arrowleft","response","ArrowRight","71","2","false"
"","","","","","html-keyboard-response","182","173511","0.0-3.0-4.35","","","","null","<p> <font color=""red"" size=""4vw""> Wrong category! </font> </p>","null","feedback","","","",""
"","","","","","html-keyboard-response","183","173861","0.0-3.0-0.36","","","","null","
            
        <div style=""text-align: center; position: fixed; top: 5vh; left: 40vw;"">
            <div style=""margin:0 auto; width: 20vw; top: 8vh; font-size: 1vw""> 
                Current score : <font color=""green""> 270 points </font>
            </div>
        </div>
    
            <div style=""font-size:60px;"">+</div>
        ","null","ITI","","","",""
"","","","","","html-keyboard-response","184","174863","0.0-3.0-1.36","","","","null","
        
        <div style=""text-align: center; position: fixed; top: 5vh; left: 40vw;"">
            <div style=""margin:0 auto; width: 20vw; top: 8vh; font-size: 1vw""> 
                Current score : <font color=""green""> 270 points </font>
            </div>
        </div>
    
        <img class=""stim"" src=./stimuli//pack_easy/cat_1/ex_1_93.png></img>
    ","null","stimulus","","","",""
"","","","","","html-keyboard-response","185","175864","0.0-3.0-2.36","","","","null","
        <div style=""text-align: center; position: fixed; top: 5vh; left: 40vw;"">
            <div style=""margin:0 auto; width: 20vw; top: 8vh; font-size: 1vw""> 
                Current score : <font color=""green""> 270 points </font>
            </div>
        </div>
    ","null","","","","",""
"","","","","","html-keyboard-response","186","176154","0.0-3.0-3.36","","","","289","./stimuli//pack_easy/cat_1/ex_1_93.png","arrowright","response","ArrowLeft","93","1","false"
"","","","","","html-keyboard-response","187","177655","0.0-3.0-4.36","","","","null","<p> <font color=""red"" size=""4vw""> Wrong category! </font> </p>","null","feedback","","","",""
"","","","","","html-keyboard-response","188","178007","0.0-3.0-0.37","","","","null","
            
        <div style=""text-align: center; position: fixed; top: 5vh; left: 40vw;"">
            <div style=""margin:0 auto; width: 20vw; top: 8vh; font-size: 1vw""> 
                Current score : <font color=""green""> 270 points </font>
            </div>
        </div>
    
            <div style=""font-size:60px;"">+</div>
        ","null","ITI","","","",""
"","","","","","html-keyboard-response","189","179009","0.0-3.0-1.37","","","","null","
        
        <div style=""text-align: center; position: fixed; top: 5vh; left: 40vw;"">
            <div style=""margin:0 auto; width: 20vw; top: 8vh; font-size: 1vw""> 
                Current score : <font color=""green""> 270 points </font>
            </div>
        </div>
    
        <img class=""stim"" src=./stimuli//pack_easy/cat_2/ex_2_31.png></img>
    ","null","stimulus","","","",""
"","","","","","html-keyboard-response","190","180010","0.0-3.0-2.37","","","","null","
        <div style=""text-align: center; position: fixed; top: 5vh; left: 40vw;"">
            <div style=""margin:0 auto; width: 20vw; top: 8vh; font-size: 1vw""> 
                Current score : <font color=""green""> 270 points </font>
            </div>
        </div>
    ","null","","","","",""
"","","","","","html-keyboard-response","191","180243","0.0-3.0-3.37","","","","231","./stimuli//pack_easy/cat_2/ex_2_31.png","arrowleft","response","ArrowRight","31","2","false"
"","","","","","html-keyboard-response","192","181744","0.0-3.0-4.37","","","","null","<p> <font color=""red"" size=""4vw""> Wrong category! </font> </p>","null","feedback","","","",""
"","","","","","html-keyboard-response","193","182095","0.0-3.0-0.38","","","","null","
            
        <div style=""text-align: center; position: fixed; top: 5vh; left: 40vw;"">
            <div style=""margin:0 auto; width: 20vw; top: 8vh; font-size: 1vw""> 
                Current score : <font color=""green""> 270 points </font>
            </div>
        </div>
    
            <div style=""font-size:60px;"">+</div>
        ","null","ITI","","","",""
"","","","","","html-keyboard-response","194","183097","0.0-3.0-1.38","","","","null","
        
        <div style=""text-align: center; position: fixed; top: 5vh; left: 40vw;"">
            <div style=""margin:0 auto; width: 20vw; top: 8vh; font-size: 1vw""> 
                Current score : <font color=""green""> 270 points </font>
            </div>
        </div>
    
        <img class=""stim"" src=./stimuli//pack_easy/cat_2/ex_2_60.png></img>
    ","null","stimulus","","","",""
"","","","","","html-keyboard-response","195","184098","0.0-3.0-2.38","","","","null","
        <div style=""text-align: center; position: fixed; top: 5vh; left: 40vw;"">
            <div style=""margin:0 auto; width: 20vw; top: 8vh; font-size: 1vw""> 
                Current score : <font color=""green""> 270 points </font>
            </div>
        </div>
    ","null","","","","",""
"","","","","","html-keyboard-response","196","184360","0.0-3.0-3.38","","","","261","./stimuli//pack_easy/cat_2/ex_2_60.png","arrowright","response","ArrowRight","60","2","true"
"","","","","","html-keyboard-response","197","185861","0.0-3.0-4.38","","","","null","<p> <font color=""green"" size=""4vw""> Correct category! </font> <br> <br> <font color=""green"" size=""7vw""> +10 points </font> </p>","null","feedback","","","",""
"","","","","","html-keyboard-response","198","186213","0.0-3.0-0.39","","","","null","
            
        <div style=""text-align: center; position: fixed; top: 5vh; left: 40vw;"">
            <div style=""margin:0 auto; width: 20vw; top: 8vh; font-size: 1vw""> 
                Current score : <font color=""green""> 280 points </font>
            </div>
        </div>
    
            <div style=""font-size:60px;"">+</div>
        ","null","ITI","","","",""
"","","","","","html-keyboard-response","199","187214","0.0-3.0-1.39","","","","null","
        
        <div style=""text-align: center; position: fixed; top: 5vh; left: 40vw;"">
            <div style=""margin:0 auto; width: 20vw; top: 8vh; font-size: 1vw""> 
                Current score : <font color=""green""> 280 points </font>
            </div>
        </div>
    
        <img class=""stim"" src=./stimuli//pack_easy/cat_1/ex_1_19.png></img>
    ","null","stimulus","","","",""
"","","","","","html-keyboard-response","200","188216","0.0-3.0-2.39","","","","null","
        <div style=""text-align: center; position: fixed; top: 5vh; left: 40vw;"">
            <div style=""margin:0 auto; width: 20vw; top: 8vh; font-size: 1vw""> 
                Current score : <font color=""green""> 280 points </font>
            </div>
        </div>
    ","null","","","","",""
"","","","","","html-keyboard-response","201","188542","0.0-3.0-3.39","","","","325","./stimuli//pack_easy/cat_1/ex_1_19.png","arrowright","response","ArrowLeft","19","1","false"
"","","","","","html-keyboard-response","202","190043","0.0-3.0-4.39","","","","null","<p> <font color=""red"" size=""4vw""> Wrong category! </font> </p>","null","feedback","","","",""
"","","","","","html-keyboard-response","203","190394","0.0-3.0-0.40","","","","null","
            
        <div style=""text-align: center; position: fixed; top: 5vh; left: 40vw;"">
            <div style=""margin:0 auto; width: 20vw; top: 8vh; font-size: 1vw""> 
                Current score : <font color=""green""> 280 points </font>
            </div>
        </div>
    
            <div style=""font-size:60px;"">+</div>
        ","null","ITI","","","",""
"","","","","","html-keyboard-response","204","191396","0.0-3.0-1.40","","","","null","
        
        <div style=""text-align: center; position: fixed; top: 5vh; left: 40vw;"">
            <div style=""margin:0 auto; width: 20vw; top: 8vh; font-size: 1vw""> 
                Current score : <font color=""green""> 280 points </font>
            </div>
        </div>
    
        <img class=""stim"" src=./stimuli//pack_easy/cat_1/ex_1_92.png></img>
    ","null","stimulus","","","",""
"","","","","","html-keyboard-response","205","192398","0.0-3.0-2.40","","","","null","
        <div style=""text-align: center; position: fixed; top: 5vh; left: 40vw;"">
            <div style=""margin:0 auto; width: 20vw; top: 8vh; font-size: 1vw""> 
                Current score : <font color=""green""> 280 points </font>
            </div>
        </div>
    ","null","","","","",""
"","","","","","html-keyboard-response","206","192646","0.0-3.0-3.40","","","","246","./stimuli//pack_easy/cat_1/ex_1_92.png","arrowright","response","ArrowLeft","92","1","false"
"","","","","","html-keyboard-response","207","194248","0.0-3.0-4.40","","","","null","<p> <font color=""red"" size=""4vw""> Wrong category! </font> </p>","null","feedback","","","",""
"","","","","","html-keyboard-response","208","194600","0.0-3.0-0.41","","","","null","
            
        <div style=""text-align: center; position: fixed; top: 5vh; left: 40vw;"">
            <div style=""margin:0 auto; width: 20vw; top: 8vh; font-size: 1vw""> 
                Current score : <font color=""green""> 280 points </font>
            </div>
        </div>
    
            <div style=""font-size:60px;"">+</div>
        ","null","ITI","","","",""
"","","","","","html-keyboard-response","209","195602","0.0-3.0-1.41","","","","null","
        
        <div style=""text-align: center; position: fixed; top: 5vh; left: 40vw;"">
            <div style=""margin:0 auto; width: 20vw; top: 8vh; font-size: 1vw""> 
                Current score : <font color=""green""> 280 points </font>
            </div>
        </div>
    
        <img class=""stim"" src=./stimuli//pack_easy/cat_1/ex_1_54.png></img>
    ","null","stimulus","","","",""
"","","","","","html-keyboard-response","210","196604","0.0-3.0-2.41","","","","null","
        <div style=""text-align: center; position: fixed; top: 5vh; left: 40vw;"">
            <div style=""margin:0 auto; width: 20vw; top: 8vh; font-size: 1vw""> 
                Current score : <font color=""green""> 280 points </font>
            </div>
        </div>
    ","null","","","","",""
"","","","","","html-keyboard-response","211","196879","0.0-3.0-3.41","","","","274","./stimuli//pack_easy/cat_1/ex_1_54.png","arrowleft","response","ArrowLeft","54","1","true"
"","","","","","html-keyboard-response","212","198380","0.0-3.0-4.41","","","","null","<p> <font color=""green"" size=""4vw""> Correct category! </font> <br> <br> <font color=""green"" size=""7vw""> +10 points </font> </p>","null","feedback","","","",""
"","","","","","html-keyboard-response","213","198731","0.0-3.0-0.42","","","","null","
            
        <div style=""text-align: center; position: fixed; top: 5vh; left: 40vw;"">
            <div style=""margin:0 auto; width: 20vw; top: 8vh; font-size: 1vw""> 
                Current score : <font color=""green""> 290 points </font>
            </div>
        </div>
    
            <div style=""font-size:60px;"">+</div>
        ","null","ITI","","","",""
"","","","","","html-keyboard-response","214","199731","0.0-3.0-1.42","","","","null","
        
        <div style=""text-align: center; position: fixed; top: 5vh; left: 40vw;"">
            <div style=""margin:0 auto; width: 20vw; top: 8vh; font-size: 1vw""> 
                Current score : <font color=""green""> 290 points </font>
            </div>
        </div>
    
        <img class=""stim"" src=./stimuli//pack_easy/cat_1/ex_1_6.png></img>
    ","null","stimulus","","","",""
"","","","","","html-keyboard-response","215","200733","0.0-3.0-2.42","","","","null","
        <div style=""text-align: center; position: fixed; top: 5vh; left: 40vw;"">
            <div style=""margin:0 auto; width: 20vw; top: 8vh; font-size: 1vw""> 
                Current score : <font color=""green""> 290 points </font>
            </div>
        </div>
    ","null","","","","",""
"","","","","","html-keyboard-response","216","201339","0.0-3.0-3.42","","","","606","./stimuli//pack_easy/cat_1/ex_1_6.png","arrowleft","response","ArrowLeft","6","1","true"
"","","","","","html-keyboard-response","217","202840","0.0-3.0-4.42","","","","null","<p> <font color=""green"" size=""4vw""> Correct category! </font> <br> <br> <font color=""green"" size=""7vw""> +10 points </font> </p>","null","feedback","","","",""
"","","","","","html-keyboard-response","218","203191","0.0-3.0-0.43","","","","null","
            
        <div style=""text-align: center; position: fixed; top: 5vh; left: 40vw;"">
            <div style=""margin:0 auto; width: 20vw; top: 8vh; font-size: 1vw""> 
                Current score : <font color=""green""> 300 points </font>
            </div>
        </div>
    
            <div style=""font-size:60px;"">+</div>
        ","null","ITI","","","",""
"","","","","","html-keyboard-response","219","204254","0.0-3.0-1.43","","","","null","
        
        <div style=""text-align: center; position: fixed; top: 5vh; left: 40vw;"">
            <div style=""margin:0 auto; width: 20vw; top: 8vh; font-size: 1vw""> 
                Current score : <font color=""green""> 300 points </font>
            </div>
        </div>
    
        <img class=""stim"" src=./stimuli//pack_easy/cat_1/ex_1_28.png></img>
    ","null","stimulus","","","",""
"","","","","","html-keyboard-response","220","205255","0.0-3.0-2.43","","","","null","
        <div style=""text-align: center; position: fixed; top: 5vh; left: 40vw;"">
            <div style=""margin:0 auto; width: 20vw; top: 8vh; font-size: 1vw""> 
                Current score : <font color=""green""> 300 points </font>
            </div>
        </div>
    ","null","","","","",""
"","","","","","html-keyboard-response","221","205760","0.0-3.0-3.43","","","","503","./stimuli//pack_easy/cat_1/ex_1_28.png","arrowleft","response","ArrowLeft","28","1","true"
"","","","","","html-keyboard-response","222","207262","0.0-3.0-4.43","","","","null","<p> <font color=""green"" size=""4vw""> Correct category! </font> <br> <br> <font color=""green"" size=""7vw""> +10 points </font> </p>","null","feedback","","","",""
"","","","","","html-keyboard-response","223","207612","0.0-3.0-0.44","","","","null","
            
        <div style=""text-align: center; position: fixed; top: 5vh; left: 40vw;"">
            <div style=""margin:0 auto; width: 20vw; top: 8vh; font-size: 1vw""> 
                Current score : <font color=""green""> 310 points </font>
            </div>
        </div>
    
            <div style=""font-size:60px;"">+</div>
        ","null","ITI","","","",""
"","","","","","html-keyboard-response","224","208614","0.0-3.0-1.44","","","","null","
        
        <div style=""text-align: center; position: fixed; top: 5vh; left: 40vw;"">
            <div style=""margin:0 auto; width: 20vw; top: 8vh; font-size: 1vw""> 
                Current score : <font color=""green""> 310 points </font>
            </div>
        </div>
    
        <img class=""stim"" src=./stimuli//pack_easy/cat_2/ex_2_46.png></img>
    ","null","stimulus","","","",""
"","","","","","html-keyboard-response","225","209615","0.0-3.0-2.44","","","","null","
        <div style=""text-align: center; position: fixed; top: 5vh; left: 40vw;"">
            <div style=""margin:0 auto; width: 20vw; top: 8vh; font-size: 1vw""> 
                Current score : <font color=""green""> 310 points </font>
            </div>
        </div>
    ","null","","","","",""
"","","","","","html-keyboard-response","226","210043","0.0-3.0-3.44","","","","427","./stimuli//pack_easy/cat_2/ex_2_46.png","arrowright","response","ArrowRight","46","2","true"
"","","","","","html-keyboard-response","227","211544","0.0-3.0-4.44","","","","null","<p> <font color=""green"" size=""4vw""> Correct category! </font> <br> <br> <font color=""green"" size=""7vw""> +10 points </font> </p>","null","feedback","","","",""
"","","","","","html-keyboard-response","228","211896","0.0-3.0-0.45","","","","null","
            
        <div style=""text-align: center; position: fixed; top: 5vh; left: 40vw;"">
            <div style=""margin:0 auto; width: 20vw; top: 8vh; font-size: 1vw""> 
                Current score : <font color=""green""> 320 points </font>
            </div>
        </div>
    
            <div style=""font-size:60px;"">+</div>
        ","null","ITI","","","",""
"","","","","","html-keyboard-response","229","212898","0.0-3.0-1.45","","","","null","
        
        <div style=""text-align: center; position: fixed; top: 5vh; left: 40vw;"">
            <div style=""margin:0 auto; width: 20vw; top: 8vh; font-size: 1vw""> 
                Current score : <font color=""green""> 320 points </font>
            </div>
        </div>
    
        <img class=""stim"" src=./stimuli//pack_easy/cat_1/ex_1_20.png></img>
    ","null","stimulus","","","",""
"","","","","","html-keyboard-response","230","213899","0.0-3.0-2.45","","","","null","
        <div style=""text-align: center; position: fixed; top: 5vh; left: 40vw;"">
            <div style=""margin:0 auto; width: 20vw; top: 8vh; font-size: 1vw""> 
                Current score : <font color=""green""> 320 points </font>
            </div>
        </div>
    ","null","","","","",""
"","","","","","html-keyboard-response","231","214553","0.0-3.0-3.45","","","","653","./stimuli//pack_easy/cat_1/ex_1_20.png","arrowleft","response","ArrowLeft","20","1","true"
"","","","","","html-keyboard-response","232","216053","0.0-3.0-4.45","","","","null","<p> <font color=""green"" size=""4vw""> Correct category! </font> <br> <br> <font color=""green"" size=""7vw""> +10 points </font> </p>","null","feedback","","","",""
"","","","","","html-keyboard-response","233","216405","0.0-3.0-0.46","","","","null","
            
        <div style=""text-align: center; position: fixed; top: 5vh; left: 40vw;"">
            <div style=""margin:0 auto; width: 20vw; top: 8vh; font-size: 1vw""> 
                Current score : <font color=""green""> 330 points </font>
            </div>
        </div>
    
            <div style=""font-size:60px;"">+</div>
        ","null","ITI","","","",""
"","","","","","html-keyboard-response","234","217407","0.0-3.0-1.46","","","","null","
        
        <div style=""text-align: center; position: fixed; top: 5vh; left: 40vw;"">
            <div style=""margin:0 auto; width: 20vw; top: 8vh; font-size: 1vw""> 
                Current score : <font color=""green""> 330 points </font>
            </div>
        </div>
    
        <img class=""stim"" src=./stimuli//pack_easy/cat_1/ex_1_100.png></img>
    ","null","stimulus","","","",""
"","","","","","html-keyboard-response","235","218409","0.0-3.0-2.46","","","","null","
        <div style=""text-align: center; position: fixed; top: 5vh; left: 40vw;"">
            <div style=""margin:0 auto; width: 20vw; top: 8vh; font-size: 1vw""> 
                Current score : <font color=""green""> 330 points </font>
            </div>
        </div>
    ","null","","","","",""
"","","","","","html-keyboard-response","236","218720","0.0-3.0-3.46","","","","310","./stimuli//pack_easy/cat_1/ex_1_100.png","arrowright","response","ArrowLeft","100","1","false"
"","","","","","html-keyboard-response","237","220221","0.0-3.0-4.46","","","","null","<p> <font color=""red"" size=""4vw""> Wrong category! </font> </p>","null","feedback","","","",""
"","","","","","html-keyboard-response","238","220572","0.0-3.0-0.47","","","","null","
            
        <div style=""text-align: center; position: fixed; top: 5vh; left: 40vw;"">
            <div style=""margin:0 auto; width: 20vw; top: 8vh; font-size: 1vw""> 
                Current score : <font color=""green""> 330 points </font>
            </div>
        </div>
    
            <div style=""font-size:60px;"">+</div>
        ","null","ITI","","","",""
"","","","","","html-keyboard-response","239","221575","0.0-3.0-1.47","","","","null","
        
        <div style=""text-align: center; position: fixed; top: 5vh; left: 40vw;"">
            <div style=""margin:0 auto; width: 20vw; top: 8vh; font-size: 1vw""> 
                Current score : <font color=""green""> 330 points </font>
            </div>
        </div>
    
        <img class=""stim"" src=./stimuli//pack_easy/cat_2/ex_2_84.png></img>
    ","null","stimulus","","","",""
"","","","","","html-keyboard-response","240","222575","0.0-3.0-2.47","","","","null","
        <div style=""text-align: center; position: fixed; top: 5vh; left: 40vw;"">
            <div style=""margin:0 auto; width: 20vw; top: 8vh; font-size: 1vw""> 
                Current score : <font color=""green""> 330 points </font>
            </div>
        </div>
    ","null","","","","",""
"","","","","","html-keyboard-response","241","222938","0.0-3.0-3.47","","","","360","./stimuli//pack_easy/cat_2/ex_2_84.png","arrowleft","response","ArrowRight","84","2","false"
"","","","","","html-keyboard-response","242","224439","0.0-3.0-4.47","","","","null","<p> <font color=""red"" size=""4vw""> Wrong category! </font> </p>","null","feedback","","","",""
"","","","","","html-keyboard-response","243","224790","0.0-3.0-0.48","","","","null","
            
        <div style=""text-align: center; position: fixed; top: 5vh; left: 40vw;"">
            <div style=""margin:0 auto; width: 20vw; top: 8vh; font-size: 1vw""> 
                Current score : <font color=""green""> 330 points </font>
            </div>
        </div>
    
            <div style=""font-size:60px;"">+</div>
        ","null","ITI","","","",""
"","","","","","html-keyboard-response","244","225792","0.0-3.0-1.48","","","","null","
        
        <div style=""text-align: center; position: fixed; top: 5vh; left: 40vw;"">
            <div style=""margin:0 auto; width: 20vw; top: 8vh; font-size: 1vw""> 
                Current score : <font color=""green""> 330 points </font>
            </div>
        </div>
    
        <img class=""stim"" src=./stimuli//pack_easy/cat_2/ex_2_72.png></img>
    ","null","stimulus","","","",""
"","","","","","html-keyboard-response","245","226794","0.0-3.0-2.48","","","","null","
        <div style=""text-align: center; position: fixed; top: 5vh; left: 40vw;"">
            <div style=""margin:0 auto; width: 20vw; top: 8vh; font-size: 1vw""> 
                Current score : <font color=""green""> 330 points </font>
            </div>
        </div>
    ","null","","","","",""
"","","","","","html-keyboard-response","246","227191","0.0-3.0-3.48","","","","396","./stimuli//pack_easy/cat_2/ex_2_72.png","arrowright","response","ArrowRight","72","2","true"
"","","","","","html-keyboard-response","247","228692","0.0-3.0-4.48","","","","null","<p> <font color=""green"" size=""4vw""> Correct category! </font> <br> <br> <font color=""green"" size=""7vw""> +10 points </font> </p>","null","feedback","","","",""
"","","","","","html-keyboard-response","248","229043","0.0-3.0-0.49","","","","null","
            
        <div style=""text-align: center; position: fixed; top: 5vh; left: 40vw;"">
            <div style=""margin:0 auto; width: 20vw; top: 8vh; font-size: 1vw""> 
                Current score : <font color=""green""> 340 points </font>
            </div>
        </div>
    
            <div style=""font-size:60px;"">+</div>
        ","null","ITI","","","",""
"","","","","","html-keyboard-response","249","230045","0.0-3.0-1.49","","","","null","
        
        <div style=""text-align: center; position: fixed; top: 5vh; left: 40vw;"">
            <div style=""margin:0 auto; width: 20vw; top: 8vh; font-size: 1vw""> 
                Current score : <font color=""green""> 340 points </font>
            </div>
        </div>
    
        <img class=""stim"" src=./stimuli//pack_easy/cat_2/ex_2_75.png></img>
    ","null","stimulus","","","",""
"","","","","","html-keyboard-response","250","231047","0.0-3.0-2.49","","","","null","
        <div style=""text-align: center; position: fixed; top: 5vh; left: 40vw;"">
            <div style=""margin:0 auto; width: 20vw; top: 8vh; font-size: 1vw""> 
                Current score : <font color=""green""> 340 points </font>
            </div>
        </div>
    ","null","","","","",""
"","","","","","html-keyboard-response","251","231306","0.0-3.0-3.49","","","","259","./stimuli//pack_easy/cat_2/ex_2_75.png","arrowright","response","ArrowRight","75","2","true"
"","","","","","html-keyboard-response","252","232807","0.0-3.0-4.49","","","","null","<p> <font color=""green"" size=""4vw""> Correct category! </font> <br> <br> <font color=""green"" size=""7vw""> +10 points </font> </p>","null","feedback","","","",""
"","","","","","html-keyboard-response","253","233159","0.0-3.0-0.50","","","","null","
            
        <div style=""text-align: center; position: fixed; top: 5vh; left: 40vw;"">
            <div style=""margin:0 auto; width: 20vw; top: 8vh; font-size: 1vw""> 
                Current score : <font color=""green""> 350 points </font>
            </div>
        </div>
    
            <div style=""font-size:60px;"">+</div>
        ","null","ITI","","","",""
"","","","","","html-keyboard-response","254","234161","0.0-3.0-1.50","","","","null","
        
        <div style=""text-align: center; position: fixed; top: 5vh; left: 40vw;"">
            <div style=""margin:0 auto; width: 20vw; top: 8vh; font-size: 1vw""> 
                Current score : <font color=""green""> 350 points </font>
            </div>
        </div>
    
        <img class=""stim"" src=./stimuli//pack_easy/cat_2/ex_2_66.png></img>
    ","null","stimulus","","","",""
"","","","","","html-keyboard-response","255","235162","0.0-3.0-2.50","","","","null","
        <div style=""text-align: center; position: fixed; top: 5vh; left: 40vw;"">
            <div style=""margin:0 auto; width: 20vw; top: 8vh; font-size: 1vw""> 
                Current score : <font color=""green""> 350 points </font>
            </div>
        </div>
    ","null","","","","",""
"","","","","","html-keyboard-response","256","235439","0.0-3.0-3.50","","","","275","./stimuli//pack_easy/cat_2/ex_2_66.png","arrowright","response","ArrowRight","66","2","true"
"","","","","","html-keyboard-response","257","236941","0.0-3.0-4.50","","","","null","<p> <font color=""green"" size=""4vw""> Correct category! </font> <br> <br> <font color=""green"" size=""7vw""> +10 points </font> </p>","null","feedback","","","",""
"","","","","","html-keyboard-response","258","237292","0.0-3.0-0.51","","","","null","
            
        <div style=""text-align: center; position: fixed; top: 5vh; left: 40vw;"">
            <div style=""margin:0 auto; width: 20vw; top: 8vh; font-size: 1vw""> 
                Current score : <font color=""green""> 360 points </font>
            </div>
        </div>
    
            <div style=""font-size:60px;"">+</div>
        ","null","ITI","","","",""
"","","","","","html-keyboard-response","259","238295","0.0-3.0-1.51","","","","null","
        
        <div style=""text-align: center; position: fixed; top: 5vh; left: 40vw;"">
            <div style=""margin:0 auto; width: 20vw; top: 8vh; font-size: 1vw""> 
                Current score : <font color=""green""> 360 points </font>
            </div>
        </div>
    
        <img class=""stim"" src=./stimuli//pack_easy/cat_1/ex_1_36.png></img>
    ","null","stimulus","","","",""
"","","","","","html-keyboard-response","260","239296","0.0-3.0-2.51","","","","null","
        <div style=""text-align: center; position: fixed; top: 5vh; left: 40vw;"">
            <div style=""margin:0 auto; width: 20vw; top: 8vh; font-size: 1vw""> 
                Current score : <font color=""green""> 360 points </font>
            </div>
        </div>
    ","null","","","","",""
"","","","","","html-keyboard-response","261","239807","0.0-3.0-3.51","","","","510","./stimuli//pack_easy/cat_1/ex_1_36.png","arrowright","response","ArrowLeft","36","1","false"
"","","","","","html-keyboard-response","262","241308","0.0-3.0-4.51","","","","null","<p> <font color=""red"" size=""4vw""> Wrong category! </font> </p>","null","feedback","","","",""
"","","","","","html-keyboard-response","263","241659","0.0-3.0-0.52","","","","null","
            
        <div style=""text-align: center; position: fixed; top: 5vh; left: 40vw;"">
            <div style=""margin:0 auto; width: 20vw; top: 8vh; font-size: 1vw""> 
                Current score : <font color=""green""> 360 points </font>
            </div>
        </div>
    
            <div style=""font-size:60px;"">+</div>
        ","null","ITI","","","",""
"","","","","","html-keyboard-response","264","242661","0.0-3.0-1.52","","","","null","
        
        <div style=""text-align: center; position: fixed; top: 5vh; left: 40vw;"">
            <div style=""margin:0 auto; width: 20vw; top: 8vh; font-size: 1vw""> 
                Current score : <font color=""green""> 360 points </font>
            </div>
        </div>
    
        <img class=""stim"" src=./stimuli//pack_easy/cat_2/ex_2_3.png></img>
    ","null","stimulus","","","",""
"","","","","","html-keyboard-response","265","243663","0.0-3.0-2.52","","","","null","
        <div style=""text-align: center; position: fixed; top: 5vh; left: 40vw;"">
            <div style=""margin:0 auto; width: 20vw; top: 8vh; font-size: 1vw""> 
                Current score : <font color=""green""> 360 points </font>
            </div>
        </div>
    ","null","","","","",""
"","","","","","html-keyboard-response","266","243944","0.0-3.0-3.52","","","","279","./stimuli//pack_easy/cat_2/ex_2_3.png","arrowright","response","ArrowRight","3","2","true"
"","","","","","html-keyboard-response","267","245446","0.0-3.0-4.52","","","","null","<p> <font color=""green"" size=""4vw""> Correct category! </font> <br> <br> <font color=""green"" size=""7vw""> +10 points </font> </p>","null","feedback","","","",""
"","","","","","html-keyboard-response","268","245796","0.0-3.0-0.53","","","","null","
            
        <div style=""text-align: center; position: fixed; top: 5vh; left: 40vw;"">
            <div style=""margin:0 auto; width: 20vw; top: 8vh; font-size: 1vw""> 
                Current score : <font color=""green""> 370 points </font>
            </div>
        </div>
    
            <div style=""font-size:60px;"">+</div>
        ","null","ITI","","","",""
"","","","","","html-keyboard-response","269","246799","0.0-3.0-1.53","","","","null","
        
        <div style=""text-align: center; position: fixed; top: 5vh; left: 40vw;"">
            <div style=""margin:0 auto; width: 20vw; top: 8vh; font-size: 1vw""> 
                Current score : <font color=""green""> 370 points </font>
            </div>
        </div>
    
        <img class=""stim"" src=./stimuli//pack_easy/cat_1/ex_1_77.png></img>
    ","null","stimulus","","","",""
"","","","","","html-keyboard-response","270","247800","0.0-3.0-2.53","","","","null","
        <div style=""text-align: center; position: fixed; top: 5vh; left: 40vw;"">
            <div style=""margin:0 auto; width: 20vw; top: 8vh; font-size: 1vw""> 
                Current score : <font color=""green""> 370 points </font>
            </div>
        </div>
    ","null","","","","",""
"","","","","","html-keyboard-response","271","248132","0.0-3.0-3.53","","","","331","./stimuli//pack_easy/cat_1/ex_1_77.png","arrowleft","response","ArrowLeft","77","1","true"
"","","","","","html-keyboard-response","272","249634","0.0-3.0-4.53","","","","null","<p> <font color=""green"" size=""4vw""> Correct category! </font> <br> <br> <font color=""green"" size=""7vw""> +10 points </font> </p>","null","feedback","","","",""
"","","","","","html-keyboard-response","273","249985","0.0-3.0-0.54","","","","null","
            
        <div style=""text-align: center; position: fixed; top: 5vh; left: 40vw;"">
            <div style=""margin:0 auto; width: 20vw; top: 8vh; font-size: 1vw""> 
                Current score : <font color=""green""> 380 points </font>
            </div>
        </div>
    
            <div style=""font-size:60px;"">+</div>
        ","null","ITI","","","",""
"","","","","","html-keyboard-response","274","250987","0.0-3.0-1.54","","","","null","
        
        <div style=""text-align: center; position: fixed; top: 5vh; left: 40vw;"">
            <div style=""margin:0 auto; width: 20vw; top: 8vh; font-size: 1vw""> 
                Current score : <font color=""green""> 380 points </font>
            </div>
        </div>
    
        <img class=""stim"" src=./stimuli//pack_easy/cat_2/ex_2_86.png></img>
    ","null","stimulus","","","",""
"","","","","","html-keyboard-response","275","251989","0.0-3.0-2.54","","","","null","
        <div style=""text-align: center; position: fixed; top: 5vh; left: 40vw;"">
            <div style=""margin:0 auto; width: 20vw; top: 8vh; font-size: 1vw""> 
                Current score : <font color=""green""> 380 points </font>
            </div>
        </div>
    ","null","","","","",""
"","","","","","html-keyboard-response","276","253835","0.0-3.0-3.54","","","","1846","./stimuli//pack_easy/cat_2/ex_2_86.png","arrowright","response","ArrowRight","86","2","true"
"","","","","","html-keyboard-response","277","255338","0.0-3.0-4.54","","","","null","<p> <font color=""green"" size=""4vw""> Correct category! </font> <br> <br> <font color=""green"" size=""7vw""> +10 points </font> </p>","null","feedback","","","",""
"","","","","","html-keyboard-response","278","255689","0.0-3.0-0.55","","","","null","
            
        <div style=""text-align: center; position: fixed; top: 5vh; left: 40vw;"">
            <div style=""margin:0 auto; width: 20vw; top: 8vh; font-size: 1vw""> 
                Current score : <font color=""green""> 390 points </font>
            </div>
        </div>
    
            <div style=""font-size:60px;"">+</div>
        ","null","ITI","","","",""
"","","","","","html-keyboard-response","279","256691","0.0-3.0-1.55","","","","null","
        
        <div style=""text-align: center; position: fixed; top: 5vh; left: 40vw;"">
            <div style=""margin:0 auto; width: 20vw; top: 8vh; font-size: 1vw""> 
                Current score : <font color=""green""> 390 points </font>
            </div>
        </div>
    
        <img class=""stim"" src=./stimuli//pack_easy/cat_1/ex_1_91.png></img>
    ","null","stimulus","","","",""
"","","","","","html-keyboard-response","280","257693","0.0-3.0-2.55","","","","null","
        <div style=""text-align: center; position: fixed; top: 5vh; left: 40vw;"">
            <div style=""margin:0 auto; width: 20vw; top: 8vh; font-size: 1vw""> 
                Current score : <font color=""green""> 390 points </font>
            </div>
        </div>
    ","null","","","","",""
"","","","","","html-keyboard-response","281","258040","0.0-3.0-3.55","","","","346","./stimuli//pack_easy/cat_1/ex_1_91.png","arrowleft","response","ArrowLeft","91","1","true"
"","","","","","html-keyboard-response","282","259541","0.0-3.0-4.55","","","","null","<p> <font color=""green"" size=""4vw""> Correct category! </font> <br> <br> <font color=""green"" size=""7vw""> +10 points </font> </p>","null","feedback","","","",""
"","","","","","html-keyboard-response","283","259893","0.0-3.0-0.56","","","","null","
            
        <div style=""text-align: center; position: fixed; top: 5vh; left: 40vw;"">
            <div style=""margin:0 auto; width: 20vw; top: 8vh; font-size: 1vw""> 
                Current score : <font color=""green""> 400 points </font>
            </div>
        </div>
    
            <div style=""font-size:60px;"">+</div>
        ","null","ITI","","","",""
"","","","","","html-keyboard-response","284","260895","0.0-3.0-1.56","","","","null","
        
